time,acc_x,acc_y,acc_z,mag_x,mag_y,mag_z,gyr_x,gyr_y,gyr_z
1589477824.672399,-0.38,-4.74,8.87,0.5022222222222222,0.37777777777777777,-0.6133333333333333,0.3125,-0.375,-2.25
1589477824.682399,-0.2649579085409704,-4.739558779982232,8.774600871441262,0.5022222222222222,0.37777777777777777,-0.6133333333333333,0.5,-0.3462445534921105,0.5370283218410254
1589477824.692399,-0.14541194084021414,-4.613137646311587,8.856117412213049,0.5022222222222222,0.37777777777777777,-0.6133333333333333,0.47598051447237094,-0.17303897105525815,1.9036753697486617
1589477824.702399,-0.09498453970484891,-4.480030920590302,8.934984539704848,0.49557616928242365,0.3744547513078785,-0.6199793862731319,0.3751932536893886,-0.1876932536893886,1.9073128952916374
1589477824.712399,-0.12126106106900521,-4.448738938930995,8.94531526526725,0.4888888888888889,0.3711111111111111,-0.6266666666666667,0.41216122376096187,0.10754285544224435,1.296736736637435
1589477824.722399,-0.14,-4.43,8.90219805784177,0.4888888888888889,0.3711111111111111,-0.6266666666666667,0.4668042068345641,0.24610841366912814,0.8633252410073844
1589477824.732399,-0.13427392862475737,-4.412821785874272,8.865726071375242,0.4888888888888889,0.3711111111111111,-0.6266666666666667,0.4375,0.15171205390473347,0.5801361617142003
1589477824.742399,-0.13,-4.376227635938414,8.88782927304619,0.4888888888888889,0.3711111111111111,-0.6266666666666667,0.2889227246150848,0.125,0.314278405768856
1589477824.752399,-0.12308218729535036,-4.36691781270465,8.89308218729535,0.493500764025322,0.36265600669431713,-0.6220547915302336,0.1875,0.5141269646365423,0.2739726588081205
1589477824.762399,-0.1267547083618846,-4.349735874914346,8.842717041466809,0.4955555555555556,0.3588888888888889,-0.62,0.2297169272617787,0.6875,0.27028307273822133
1589477824.772399,-0.13,-4.32548313243042,8.776449397291259,0.4955555555555556,0.3588888888888889,-0.62,0.25,0.5514043665351833,0.2953652111549389
1589477824.782399,-0.14293744315310764,-4.32,8.77940616472966,0.4955555555555556,0.3588888888888889,-0.62,0.25,0.6617180394138453,0.27207049014653867
1589477824.792399,-0.15,-4.314520253476343,8.839317718712913,0.4955555555555556,0.3588888888888889,-0.62,0.1472547526814304,0.4417642580442912,0.25
1589477824.802399,-0.15463366842733003,-4.32390100528199,8.893901005281991,0.4955555555555556,0.3645522614111812,-0.6169108877151133,0.14938128301243825,0.21646042767081275,0.365841710683251
1589477824.812399,-0.16,-4.356319430910154,8.926319430910153,0.4955555555555556,0.3711111111111111,-0.6133333333333333,0.1820023712076918,0.1480035568115377,0.5679976287923082
1589477824.822399,-0.16,-4.35285082148564,8.894268857295037,0.4955555555555556,0.3711111111111111,-0.6133333333333333,0.05354508952349735,0.0625,0.7321823657147539
1589477824.832399,-0.17939597934341572,-4.320604020656584,8.871637587606049,0.4955555555555556,0.3711111111111111,-0.6133333333333333,-0.02424497417926964,0.01401005164146072,0.9579698450756179
1589477824.842399,-0.20384009286292165,-4.286920046431461,8.908479721411235,0.4955555555555556,0.3711111111111111,-0.6133333333333333,-0.21649767842695838,-0.1972479686235886,1.2452491294101093
1589477824.8523989,-0.1821730573226022,-4.264346114645204,8.938259585983904,0.5051218188279307,0.37372009200357703,-0.6076805413996571,-0.6603367834674727,-0.6222959793343409,1.6195919586686818
1589477824.8623989,-0.17,-4.237174072784933,8.92,0.52,0.37777777777777777,-0.5988888888888889,-0.724189774529141,-0.7418518196233128,2.0883102254708588
1589477824.8723989,-0.17,-4.255532634795896,8.864679291275557,0.52,0.37777777777777777,-0.5988888888888889,-0.5,-0.6688859783162338,2.5252719566324675
1589477824.8823988,-0.1625586070723389,-4.29372069646383,8.793720696463831,0.52,0.37777777777777777,-0.5988888888888889,-0.3837282355052953,-0.789245647101059,3.0915522347872915
1589477824.8923988,-0.12014980554925794,-4.308528626985926,8.795735686507037,0.52,0.37777777777777777,-0.5988888888888889,-0.13419608133796063,-0.6966960813379606,3.669107837324079
1589477824.9023988,-0.06963242871865338,-4.32,8.82110271384404,0.5065605557464026,0.37547387304858965,-0.6038806824687966,-0.10569821367227757,-0.34421161113019577,3.7693017863277225
1589477824.9123988,-0.0545255128111541,-4.315474487188846,8.898102051244617,0.4811111111111111,0.3711111111111111,-0.6133333333333333,-0.04607772465143442,0.30063782027885244,3.517793269581721
1589477824.9223988,-0.0723258693633268,-4.326434492484435,8.899456884394455,0.4811111111111111,0.3711111111111111,-0.6133333333333333,0.04796331647920751,0.6686100505623774,3.158426632958415
1589477824.9323988,-0.11366488651535381,-4.335801068090787,8.93152870493992,0.4811111111111111,0.3711111111111111,-0.6133333333333333,-0.15124332443257676,1.0887433244325768,2.6712700267022695
1589477824.9423988,-0.15589577786230507,-4.283666793457589,8.990916698364398,0.4811111111111111,0.3711111111111111,-0.6133333333333333,-0.26419265880562953,1.3152339292506656,2.2188807531380754
1589477824.9523988,-0.20242820464054773,-4.177306960821605,8.964326740205403,0.4811111111111111,0.3711111111111111,-0.6133333333333333,-0.30573946842906047,1.6891552158615442,1.7618658472803348
1589477824.9623988,-0.436433923162761,-4.051426430734896,8.829173601147776,0.5133333333333333,0.3655555555555556,-0.62,-0.8890801849194963,1.5528774111270525,1.8846225888729475
1589477824.9723988,-0.671219386439804,-3.9202964681618973,8.702701727249291,0.5133333333333333,0.3655555555555556,-0.62,-1.5319186646042793,-0.5981245166279969,3.467050141789121
1589477824.9823987,-0.5924091859302572,-3.902111673281425,8.517590814069743,0.5133333333333333,0.3655555555555556,-0.62,-1.4780236010543217,-1.1498261732359802,7.601103553791621
1589477824.9923987,-0.5776976061907394,-4.0483311365279135,8.900561673540542,0.5133333333333333,0.3655555555555556,-0.62,-0.418884731493686,-0.34019835026999445,12.408005229814194
1589477825.0023987,-0.4983010539591028,-4.141565924991743,8.876529742065278,0.5133333333333333,0.37317412178415693,-0.6158444184207629,-0.6395857730534786,-1.2256271957481308,16.8910589886797
1589477825.0123987,-0.5461348506748641,-4.219625414792044,8.817280796400725,0.5133333333333333,0.37777777777777777,-0.6133333333333333,-0.3139046945298345,-1.2878745852079558,21.293163819954806
1589477825.0223987,-0.625153961885657,-4.275424272818456,8.853984954864593,0.5133333333333333,0.37777777777777777,-0.6133333333333333,-0.3089643931795386,-1.350015672016048,24.657290621865595
1589477825.0323987,-0.7829127387855287,-4.2309060510120595,8.664174522428942,0.5133333333333333,0.37777777777777777,-0.6133333333333333,-0.9181837181174629,-1.5670511543523888,27.887437302123725
1589477825.0423987,-0.6636667324258565,-4.320317397689661,9.014222178382763,0.5133333333333333,0.37777777777777777,-0.6133333333333333,-0.7626983735560378,-1.5488097586637732,33.04335448587273
1589477825.0523987,-0.7852323325331316,-4.17139399519879,9.020585681870498,0.5133333333333333,0.36877218367369313,-0.6064467025478568,-0.6279041566641455,-2.029797921667927,37.02259816172844
1589477825.0623987,-0.6885955056179776,-4.118237025147137,9.063416265382557,0.5133333333333333,0.3588888888888889,-0.5988888888888889,-0.8889446227929374,-2.280129748528625,39.79475989834136
1589477825.0723987,-0.57,-4.070336276083467,8.921176966292135,0.5133333333333333,0.3588888888888889,-0.5988888888888889,-1.2305678170144463,-2.29622040529695,42.13182182985554
1589477825.0823987,-0.6023838383838384,-3.946727272727273,8.840141414141414,0.5133333333333333,0.3588888888888889,-0.5988888888888889,-1.1203282828282828,-2.0680555555555555,44.477525252525254
1589477825.0923986,-0.6508451145821458,-3.8102345798654658,8.881079694447612,0.5133333333333333,0.3588888888888889,-0.5988888888888889,-1.3004699435640177,-2.4600939887128037,45.97300763880971
1589477825.1023986,-0.6454856784444909,-3.7277428392222456,8.850428601296258,0.5087936441563872,0.35298729295885894,-0.6016127023950566,-1.3978569935187122,-2.474464248379678,48.16928705833159
1589477825.1123986,-0.6281594520912295,-3.7281594520912296,8.88,0.5022222222222222,0.34444444444444444,-0.6055555555555555,-1.1648775683223618,-2.7496155828180067,50.66333989959439
1589477825.1223986,-0.8709006901391976,-3.773881155690724,8.874029711077318,0.5022222222222222,0.34444444444444444,-0.6055555555555555,-0.9878713884664874,-3.199628611533513,53.741643759504036
1589477825.1323986,-0.9304917557878474,-3.6706556743837964,8.768557323226226,0.5022222222222222,0.34444444444444444,-0.6055555555555555,-1.1612706105303816,-3.212704898244936,57.03811590179369
1589477825.1423986,-0.21266531616263928,-3.1830785290530623,8.830423548380429,0.5022222222222222,0.34444444444444444,-0.6055555555555555,-1.475529435475536,-3.6113765322363935,60.45635322570643
1589477825.1523986,0.1693964674444372,-2.9080460144691394,8.84582610962654,0.5056265977246229,0.3410400689420438,-0.6014703049526747,-0.6292201655478068,-5.417071302874275,63.01598448804015
1589477825.1623986,-0.030160502721741915,-3.036176552993916,8.990561759526097,0.5077777777777778,0.3388888888888889,-0.5988888888888889,0.0,-4.5452852325488315,63.01119591538585
1589477825.1723986,-0.10326021332260013,-3.1077168444355,9.0911964177903,0.5077777777777778,0.3388888888888889,-0.5988888888888889,-1.1433198329643792,-4.3104434996981285,61.75205650030187
1589477825.1823986,-0.19040255456254077,-3.13,8.92060948947106,0.5077777777777778,0.3388888888888889,-0.5988888888888889,-1.220348998887653,-4.394587137048828,60.62248403398412
1589477825.1923985,-0.28788589603419146,-3.1602097207037074,8.82274326607693,0.5077777777777778,0.3388888888888889,-0.5988888888888889,-0.4533346585826459,-3.7411912334757975,59.89702191631051
1589477825.2023985,-0.3712632939071663,-3.2505352350660965,9.010342411291123,0.5077777777777778,0.3388888888888889,-0.5988888888888889,-1.0612948514064209,-4.088597057946526,59.028507355133684
1589477825.2123985,-0.440250057396495,-3.310250057396495,8.912300068875794,0.5277777777777778,0.3322222222222222,-0.6133333333333333,-0.625,-3.8125,57.5
1589477825.2223985,-0.48272325238575525,-3.348789665606331,8.957579331212663,0.5277777777777778,0.3322222222222222,-0.6133333333333333,-0.6316190162153774,-3.822901311195593,57.48487082007914
1589477825.2323985,-0.894939548085075,-3.1723627852113974,8.77559069630285,0.5277777777777778,0.3322222222222222,-0.6133333333333333,-1.1959883795937927,-4.5,57.07209305540197
1589477825.2423985,-1.4118666315754844,-2.9625538704477417,8.812061716616771,0.5277777777777778,0.3322222222222222,-0.6133333333333333,-1.6656413461854789,-4.866154554725795,60.092439220975756
1589477825.2523985,-1.0921375274323335,-3.0828922562441217,9.215029783676457,0.5336433854692816,0.3204910068392146,-0.6133333333333333,-1.0996616678858815,-5.887723377573414,72.60527876476121
1589477825.2623985,-0.7852414623138257,-3.2406318639987965,9.04728599368136,0.5455555555555556,0.2966666666666667,-0.6133333333333333,0.2197984052956221,-5.001391605235445,76.38382917105461
1589477825.2723985,-1.0183014286643397,-3.277925510004986,9.116606326012963,0.5455555555555556,0.2966666666666667,-0.6133333333333333,-1.9056734667331499,-6.27949872092267,78.3419553623691
1589477825.2823985,-0.979558380729341,-3.290504707737896,8.859495292262103,0.5455555555555556,0.2966666666666667,-0.6133333333333333,-0.15092691057687713,-5.3769715146011565,81.7288047244659
1589477825.2923985,-0.922473169005779,-3.4157349530211896,8.838208122026968,0.5455555555555556,0.2966666666666667,-0.6133333333333333,-0.24798767543342382,-5.817428843810197,83.02665654361756
1589477825.3023984,-0.9443593493614896,-3.488718698722979,8.946156096168938,0.5571804871861945,0.27971364137198484,-0.6191457991486529,-1.317286598416209,-6.0,82.10732726332311
1589477825.3123984,-0.9328272870662461,-3.534345425867508,8.968551524710831,0.5722222222222222,0.2577777777777778,-0.6266666666666667,-1.0,-5.964223514721346,79.97066410357519
1589477825.3223984,-0.9035525511576168,-3.5545175170525387,8.883245238735546,0.5722222222222222,0.2577777777777778,-0.6266666666666667,-1.41118622105958,-5.903234481578369,76.57921026575067
1589477825.3323984,-0.9133775678960687,-3.5593510271584274,8.838702054316855,0.5722222222222222,0.2577777777777778,-0.6266666666666667,-1.4285584414290553,-5.670446280909399,72.43740909000338
1589477825.3423984,-0.9653034931321821,-3.5352076969432495,8.87265174656609,0.5722222222222222,0.2577777777777778,-0.6266666666666667,-0.9834265839619308,-5.259584813914344,68.41214180329573
1589477825.3523984,-1.053368659706844,-3.46,8.91191737846673,0.5756650204459441,0.2503625200651458,-0.6319632793185467,-0.8422934461668249,-4.755826215332701,64.47537039966255
1589477825.3623984,-1.200347876264864,-3.4680695752529727,8.96075943367063,0.5866666666666667,0.22666666666666666,-0.6488888888888888,-0.8198186942274798,-4.375,61.9159419244482
1589477825.3723984,-1.3416985567818194,-3.4604146803369686,8.962527917455757,0.5866666666666667,0.22666666666666666,-0.6488888888888888,-0.4603768040227258,-4.335376804022726,62.12335515575002
1589477825.3823984,-1.4962057520392027,-3.3667103470950166,8.90734598343588,0.5866666666666667,0.22666666666666666,-0.6488888888888888,-0.5213793386877084,-4.500819008031563,64.77699008188124
1589477825.3923984,-1.5815718691779,-3.406110093466723,9.018978598155714,0.5866666666666667,0.22666666666666666,-0.6488888888888888,-1.0138761683340378,-5.239564252501057,67.19843282764235
1589477825.4023983,-1.720343812551513,-3.4326933945602263,9.025214882844695,0.5810633593678454,0.21994269790808116,-0.6469277313343014,-1.2652220946661956,-5.438574414223478,74.0596336689038
1589477825.4123983,-1.8427319367250963,-3.491804189824711,9.07814450619923,0.5644444444444444,0.2,-0.6411111111111111,-1.1164626977340744,-5.863723813595554,79.38787943565626
1589477825.4223983,-1.8633879206443345,-3.44,8.926448317422663,0.5644444444444444,0.2,-0.6411111111111111,-1.0836745040270896,-6.378070536243806,87.07510139465478
1589477825.4323983,-1.859538657784707,-3.4269233222308837,8.897384664446177,0.5644444444444444,0.2,-0.6411111111111111,-1.1740375416341862,-6.864420930479768,92.61247209623698
1589477825.4423983,-1.8380887764489422,-3.398088776448942,8.92639949402024,0.5644444444444444,0.2,-0.6411111111111111,-1.3377774264029438,-7.3391645584176635,99.01163609705611
1589477825.4523983,-1.828405755967417,-3.400745323986036,8.964575539976726,0.5712997600103438,0.189031495094561,-0.6455670662289457,-1.355719424970908,-7.65890287514546,103.56107910197827
1589477825.4623983,-1.7876483640793597,-3.4220660024364777,8.960593456317438,0.5866666666666667,0.16444444444444445,-0.6555555555555556,-1.2646977245040028,-7.875,107.12142958144797
1589477825.4723983,-1.8,-3.4592335241746324,8.979233524174631,0.5866666666666667,0.16444444444444445,-0.6555555555555556,-1.1447687835758784,-7.960462432848243,108.31729047390854
1589477825.4823983,-1.8413354199269691,-3.417223091636237,8.92,0.5866666666666667,0.16444444444444445,-0.6555555555555556,-1.1486154581811858,-8.038884541818813,108.79514432272649
1589477825.4923983,-1.9083428967154727,-3.445004098592346,8.934987704222964,0.5866666666666667,0.16444444444444445,-0.6555555555555556,-1.3645406396630675,-7.927040639663067,109.02081625586523
1589477825.5023983,-1.8668480411555204,-3.4272205890666516,8.988338232800045,0.5866666666666667,0.16444444444444445,-0.6555555555555556,-1.5497855305557127,-8.112285530555713,109.09491421222228
1589477825.5123982,-1.8302864490603363,-3.4002864490603364,9.06914065281899,0.5866666666666667,0.13377892076052314,-0.6840306846906253,-1.0089515331355094,-7.509846686449061,107.64648367952522
1589477825.5223982,-1.9123598153980232,-3.3835280369203953,9.004112147681582,0.5866666666666667,0.13333333333333333,-0.6844444444444444,-0.8970502307524709,-7.551474884623764,105.61747949967318
1589477825.5323982,-2.0475308033514046,-3.2743518974864463,8.907530803351404,0.5866666666666667,0.13333333333333333,-0.6844444444444444,-1.734567520946279,-7.892650320354854,102.0271993592903
1589477825.5423982,-2.1087804610919445,-3.2284146541810417,8.968780461091946,0.5866666666666667,0.13333333333333333,-0.6844444444444444,-2.1173778818246536,-8.036204205684244,101.74009158863151
1589477825.5523982,-2.3035901416650493,-3.1864098583349505,8.916671841645643,0.5878633805550165,0.11418591111973608,-0.6836466351855445,-1.1426232291868814,-7.282068697845915,104.1683364059771
1589477825.5623982,-2.3439988584725486,-3.1751430202182074,8.990286040436414,0.59,0.08,-0.6822222222222222,-1.4571296072706517,-7.835705112725836,105.88747859636028
1589477825.5723982,-2.387302163238745,-3.17,8.976348918380628,0.59,0.08,-0.6822222222222222,-1.783722959515687,-8.170638520242157,107.17862002326912
1589477825.5823982,-2.396996394564112,-3.1429675510770085,8.939963945641122,0.59,0.08,-0.6822222222222222,-1.4185021262827031,-8.062274660257003,108.4564978737173
1589477825.5923982,-2.416412685337727,-3.1011301482701814,8.925466639209224,0.59,0.08,-0.6822222222222222,-1.152103068369028,-7.7570634266886325,108.8549603583196
1589477825.6023982,-2.473995057660626,-3.147196046128501,9.046389621087314,0.59,0.08,-0.6822222222222222,-1.6199598434925866,-8.04497528830313,108.67501544481054
1589477825.6123981,-2.4696037046932053,-3.1088111140796153,9.019207409386409,0.5844444444444444,0.05111111111111112,-0.6966666666666667,-1.3725231543325318,-7.692453691334936,107.97275469765785
1589477825.6223981,-2.4509275091281504,-3.052782527384451,8.9818550182563,0.5844444444444444,0.05111111111111112,-0.6966666666666667,-1.2557969320509395,-7.925906135898121,106.68876625256033
1589477825.6323981,-2.4216304542089,-2.884891362626701,8.958840605611867,0.5844444444444444,0.05111111111111112,-0.6966666666666667,-1.3953806776112543,-7.673007570148339,103.51041852835294
1589477825.642398,-2.4268388065548083,-2.817017910382799,8.935964179234402,0.5844444444444444,0.05111111111111112,-0.6966666666666667,-1.1995522404300232,-7.182033579247459,100.50559699462471
1589477825.652398,-2.516500767467777,-2.803884438276667,8.966308164595555,0.5812734124397532,0.04069200595283987,-0.7039147398202467,-1.4387037679513868,-6.9004815071805545,97.7519068420278
1589477825.662398,-2.6257674089784375,-2.777116295510781,9.02855814775539,0.5688888888888889,0.0,-0.7322222222222222,-1.606395811240721,-6.936918964298338,95.3462221633086
1589477825.672398,-2.6533301987925753,-2.7333207951702994,8.956636888529461,0.5688888888888889,0.0,-0.7322222222222222,-1.125,-6.520813742453593,93.64563742453593
1589477825.682398,-2.6517829136364814,-2.6850498201299207,8.873765107792645,0.5688888888888889,0.0,-0.7322222222222222,-1.2196841274360102,-6.4480204586040015,92.54948853489996
1589477825.692398,-2.7233621377552013,-2.71,9.084273369533484,0.5688888888888889,0.0,-0.7322222222222222,-1.6159171191685642,-6.4164866390299915,90.80857223487281
1589477825.702398,-2.7802535983550376,-2.709239204934887,9.059619602467444,0.5685225801538344,-0.000352219937552357,-0.7322222222222222,-1.3101225154215217,-6.064877484578479,88.89549777244689
1589477825.712398,-2.779794607484903,-2.6348459556136774,9.05525674064387,0.54,-0.027777777777777776,-0.7322222222222222,-1.1881418516096773,-6.297356388707258,84.75679954036694
1589477825.722398,-2.713055707007088,-2.5813196337588598,9.124213089172574,0.54,-0.027777777777777776,-0.7322222222222222,-1.349682265130008,-6.397714988061441,81.95602356690293
1589477825.732398,-2.618427870424336,-2.4630348380304197,9.045356558686946,0.54,-0.027777777777777776,-0.7322222222222222,-1.0046849442553911,-5.855576340972758,78.80176234747786
1589477825.742398,-2.366845575014983,-2.276055137510821,9.056323500033296,0.54,-0.027777777777777776,-0.7322222222222222,-0.8355239062395952,-5.6398207032030365,72.14485250049944
1589477825.752398,-2.2808862581986884,-2.1976755719084946,8.80887537993921,0.5370786896318811,-0.034389164400362604,-0.7371423238948435,-1.0499320108782595,-4.615541513357862,66.39378699408094
1589477825.762398,-2.674348312094791,-2.357445226917058,9.256955063715628,0.5188888888888888,-0.07555555555555556,-0.7677777777777778,-1.7051615247037781,-3.1681442823608315,60.16573049407556
1589477825.772398,-2.7368611670020124,-2.3027464788732392,9.069416498993965,0.5188888888888888,-0.07555555555555556,-0.7677777777777778,-1.5098088531187122,-3.9007168008048287,56.25867706237425
1589477825.782398,-2.8346370783435413,-2.2988929518237495,8.95667885547125,0.5188888888888888,-0.07555555555555556,-0.7677777777777778,-0.8287206325989579,-3.046279367401042,51.427969878416675
1589477825.792398,-2.879425042589438,-2.304329216354344,9.036685477001704,0.5188888888888888,-0.07555555555555556,-0.7677777777777778,-1.0636978279386713,-2.9227733709540034,47.70018366695059
1589477825.802398,-2.8038318203535595,-2.201383182035356,8.908616817964644,0.516122524818177,-0.08323990019642194,-0.769775707384403,-1.1203266841853798,-2.9414715719063547,44.38890050167224
1589477825.812398,-2.8873303870043,-2.20973303870043,8.90026696129957,0.49942281148802886,-0.1296279927801667,-0.7818366114561767,-0.337527621834687,-2.2108591137123748,41.83175689799331
1589477825.822398,-3.0276221735959155,-2.301524434719183,9.1008533916849,0.4988888888888889,-0.13111111111111112,-0.7822222222222223,-0.7785831509846827,-2.0243891320204233,38.02666849015317
1589477825.832398,-3.1223504983388706,-2.3181196013289034,8.996581395348837,0.4988888888888889,-0.13111111111111112,-0.7822222222222223,-1.1103093853820598,-1.565438122923588,34.40971760797342
1589477825.842398,-3.1673671982048175,-2.28,9.098406378457812,0.4988888888888889,-0.13111111111111112,-0.7822222222222223,-0.6479498878011002,-1.55917995512044,30.50620445022539
1589477825.852398,-3.176539094267002,-2.2875177701213643,9.022028432194183,0.4940441036995651,-0.13729238876645528,-0.7747044521008578,-0.2720749138653506,-1.2716306608312382,27.69556445354937
1589477825.862398,-3.2433199047793444,-2.31332494048709,9.103340047610327,0.4666666666666667,-0.17222222222222222,-0.7322222222222222,-0.7291561756088628,-0.6875,23.207651414576084
1589477825.872398,-3.19,-2.28,9.13,0.4666666666666667,-0.17222222222222222,-0.7322222222222222,-0.6875,-0.6875,20.5
1589477825.882398,-3.313559152834325,-2.2976513075477607,9.01820838553085,0.4666666666666667,-0.17222222222222222,-0.7322222222222222,-0.5771793278264955,-0.31976442608831823,18.403907228703414
1589477825.8923979,-3.3925085073611063,-2.302508507361106,9.007423433750045,0.4666666666666667,-0.17222222222222222,-0.7322222222222222,-0.6872873159723466,0.1247873159723466,14.1281902604148
1589477825.9023979,-3.3064736506587336,-2.290719294517637,9.039280705482362,0.4666666666666667,-0.17222222222222222,-0.7322222222222222,-0.5759867722056948,0.651535274118147,9.765239853378667
1589477825.9123979,-3.352163069388814,-2.276641315452349,9.110967454229979,0.4622222222222222,-0.20555555555555555,-0.7533333333333333,-0.75,1.1394698542170043,3.49524664731542
1589477825.9223979,-3.3045523537710606,-2.2562367230447404,8.995341430586862,0.4622222222222222,-0.20555555555555555,-0.7533333333333333,-0.75,1.6070750968913683,-0.33061442911119343
1589477825.9323978,-3.4009523044374816,-2.33,9.008095391125037,0.4622222222222222,-0.20555555555555555,-0.7533333333333333,-0.7380961945314801,2.1041633191398197,-7.083296510538014
1589477825.9423978,-3.4052238398188988,-2.3347761601811015,9.001144373755904,0.4622222222222222,-0.20555555555555555,-0.7533333333333333,-0.585198665157488,2.529851001131884,-12.293228699114009
1589477825.9523978,-3.380668006713243,-2.359331993286757,9.0584413176691,0.4622222222222222,-0.20555555555555555,-0.7533333333333333,-0.38056672261035873,2.683324958042231,-16.692815463877288
1589477825.9623978,-3.0844537004794685,-2.21,9.074218519808213,0.4633333333333333,-0.2288888888888889,-0.7677777777777778,-0.3453780837328905,3.0032561674657807,-23.722797190153482
1589477825.9723978,-2.9880235724809143,-2.231027501227733,9.104980356265903,0.4633333333333333,-0.2288888888888889,-0.7677777777777778,-0.18428905866333317,2.9908582693423815,-29.87424452542524
1589477825.9823978,-3.044199741059869,-2.296566364569847,9.05816688245011,0.4633333333333333,-0.2288888888888889,-0.7677777777777778,0.020519889280771475,3.546768270904951,-35.52111980445556
1589477825.9923978,-3.083442803334885,-2.3532785983325577,9.000328410004656,0.4633333333333333,-0.2288888888888889,-0.7677777777777778,0.2489737187354522,4.040982479156968,-41.27250941639511
1589477826.0023978,-3.0538826064976186,-2.375823909746428,8.918765931405156,0.457940824308863,-0.23097399237835073,-0.7668430762135363,0.48970112816965117,4.241911236463294,-47.57797075805551
1589477826.0123978,-3.018320545609548,-2.4246149474282466,9.164265416311451,0.38,-0.2611111111111111,-0.7533333333333333,-0.42176399545325377,4.074737141233305,-55.20062517760727
1589477826.0223978,-2.5212185207456406,-2.2462604930847867,9.00182778111846,0.38,-0.2611111111111111,-0.7533333333333333,0.3907561635598316,4.017922429344558,-61.966778412507516
1589477826.0323977,-2.4763972416621804,-2.3134858622369197,8.869386551821375,0.38,-0.2611111111111111,-0.7533333333333333,0.8785905175728678,5.43342241534005,-69.49829526519521
1589477826.0423977,-2.74,-2.47,8.96,0.38,-0.2611111111111111,-0.7533333333333333,1.1875,6.875,-75.625
1589477826.0523977,-3.0049335335335337,-2.60517017017017,9.046508908908908,0.38,-0.2611111111111111,-0.7533333333333333,0.44406406406406407,6.7736223723723725,-79.47734984984984
1589477826.0623977,-3.0073263536213766,-2.645775451207126,9.164534729275724,0.4105145367259595,-0.25863695948468196,-0.7005514319695114,0.04445171497773262,6.1772062270489885,-86.739569497617
1589477826.0723977,-2.8816455918853947,-2.6890777258780076,9.097106728946391,0.4211111111111111,-0.2577777777777778,-0.6822222222222222,0.8589508374538277,6.8202979948013365,-91.19032408583658
1589477826.0823977,-2.7504550220171944,-2.7108712518347664,8.777008806877753,0.4211111111111111,-0.2577777777777778,-0.6822222222222222,1.3016093520654226,8.328593520654225,-97.1268740826169
1589477826.0923977,-3.012968943343408,-2.973917479765503,8.936082520234496,0.4211111111111111,-0.2577777777777778,-0.6822222222222222,0.8581189017587277,7.646134653224334,-103.57951421993225
1589477826.1023977,-2.8938537842059358,-2.93137635150212,8.97862364849788,0.4211111111111111,-0.2577777777777778,-0.6822222222222222,1.1771773637341014,8.231075166845853,-107.19551012231982
1589477826.1123977,-2.614274382080844,-2.743479729054689,8.947561692009511,0.443637713882284,-0.19650541824018758,-0.6479817860100394,1.1875,7.540412012708054,-110.20153680540292
1589477826.1223977,-2.2298262983917105,-2.679183300489479,9.050790795245058,0.4488888888888889,-0.18222222222222226,-0.64,1.0471868841777383,4.960088757866632,-115.06266190165914
1589477826.1323977,-2.076516114678024,-2.7258429216197317,8.597525904265463,0.4488888888888889,-0.18222222222222226,-0.64,1.9220547803699701,5.709975526031403,-117.60394483821753
1589477826.1423976,-2.337056629520127,-2.9242515351375937,8.886540823288607,0.4488888888888889,-0.18222222222222226,-0.64,1.9889157380031839,12.090567432340231,-122.28647657493745
1589477826.1523976,-2.2512055947236753,-3.0482585853991355,9.077320900614055,0.4488888888888889,-0.18222222222222226,-0.64,-0.15736013190811926,7.440303047532408,-126.99635973390949
1589477826.1623976,-2.57,-3.34,9.29,0.4888888888888889,-0.14555555555555555,-0.6322222222222222,0.5,10.75,-129.125
1589477826.1723976,-2.538358462421113,-3.331481124497992,9.196292369477911,0.4888888888888889,-0.14555555555555555,-0.6322222222222222,0.6216982214572576,10.52942197360872,-129.4824885255307
1589477826.1823976,-2.324810499086314,-3.292651351543774,8.610605406175095,0.4888888888888889,-0.14555555555555555,-0.6322222222222222,1.3965443078529558,8.75781379784987,-132.21496102000617
1589477826.1923976,-2.4657502162990848,-3.52102791396609,9.525694965164464,0.4888888888888889,-0.14555555555555555,-0.6322222222222222,0.4345467585495059,7.165273371685311,-133.80920143895813
1589477826.2023976,-2.2938552845281643,-3.4127977717399554,9.11187383312336,0.4888888888888889,-0.14555555555555555,-0.6322222222222222,1.906795016772666,10.666836796648504,-133.76941094549264
1589477826.2123976,-1.8545037552509867,-3.1776942334620446,8.74592481011584,0.5061066557285847,-0.06554358024167503,-0.6190556946389254,2.112265031612,9.925266262146222,-134.83244048881912
1589477826.2223976,-1.9446587654320986,-3.3305856790123456,9.018683456790123,0.5077777777777778,-0.057777777777777775,-0.6177777777777778,1.160364197530864,8.41630864197531,-135.79862962962963
1589477826.2323976,-2.10756256684492,-3.5175625668449197,9.117466310160427,0.5077777777777778,-0.057777777777777775,-0.6177777777777778,1.06274064171123,9.063342245989304,-135.87475935828877
1589477826.2423975,-2.194908631704056,-3.6126266528004756,8.988767642252265,0.5077777777777778,-0.057777777777777775,-0.6177777777777778,1.3782963155548953,8.935313289258653,-132.87167118555936
1589477826.2523975,-1.8833427425345417,-3.192012702421631,8.622677722478088,0.5077777777777778,-0.057777777777777775,-0.6177777777777778,1.9624823577477344,9.470817161268757,-129.51260144295054
1589477826.2623975,-1.7896954530522329,-3.240913640843301,9.016784865408027,0.5436040417313486,0.0019326621448401624,-0.603596548296156,1.726628775435274,8.009095586388142,-125.41085214207038
1589477826.2723975,-1.5873693332819783,-3.3288364210607404,8.509477333127913,0.5611111111111111,0.031111111111111114,-0.5966666666666667,4.2659144744444015,10.67432500096291,-118.7612780687902
1589477826.2823975,-1.455098802878834,-3.3814299046969505,8.884092108333183,0.5611111111111111,0.031111111111111114,-0.5966666666666667,3.732126191288117,11.593132482007286,-116.72571768939461
1589477826.2923975,-1.41,-3.390195993502978,8.89274390904169,0.5611111111111111,0.031111111111111114,-0.5966666666666667,0.7426231727125066,8.566147807255009,-115.63357471575527
1589477826.3023975,-1.4955089226701916,-3.398550892267019,8.642024124256444,0.5611111111111111,0.031111111111111114,-0.5966666666666667,1.5960323033707864,8.019012309980171,-114.98368307997356
1589477826.3123975,-1.9485871286653549,-3.9370643566732255,8.935054950328741,0.5822222222222222,0.07777777777777778,-0.5966666666666667,0.75,6.446330445841532,-112.0886973892595
1589477826.3223975,-1.9351677304794355,-4.004161347602822,8.888087056678025,0.5822222222222222,0.07777777777777778,-0.5966666666666667,0.75,6.530201684503528,-108.77578346211067
1589477826.3323975,-1.7574141994568022,-3.8893535498642007,8.936336782563803,0.5822222222222222,0.07777777777777778,-0.5966666666666667,1.6263467711162487,6.014814482278736,-100.61397611725887
1589477826.3423975,-1.644438957599156,-3.861109739399789,8.776288523265471,0.5822222222222222,0.07777777777777778,-0.5966666666666667,1.6851880429171062,6.662068472088168,-94.67100766537227
1589477826.3523974,-1.7512719587059498,-4.039747010217304,8.975425154534062,0.5822222222222222,0.07777777777777778,-0.5966666666666667,1.4735154640270196,6.4200193300337745,-89.56935180661469
1589477826.3623974,-1.720526241733502,-4.109579006613199,9.19800028141269,0.5756257211200225,0.14154395509904164,-0.6131579194221659,2.1796063739974674,5.323682636836922,-82.68946461235402
1589477826.3723974,-1.6615262343508228,-4.158728138040981,8.91737679936231,0.5755555555555556,0.14222222222222222,-0.6133333333333333,2.6747813804098093,7.8098170746002715,-76.59489291742861
1589477826.3823974,-1.3745035678743092,-3.8658521608401974,8.944605628136447,0.5755555555555556,0.14222222222222222,-0.6133333333333333,2.254929648294408,6.252861181104029,-72.70658071653926
1589477826.3923974,-1.182345111928941,-3.6723451119289408,9.27484075375633,0.5755555555555556,0.14222222222222222,-0.6133333333333333,-0.27341480118431605,1.1396932676609755,-69.47951658872687
1589477826.4023974,-1.2037177576521838,-3.6146585654782375,8.694961977912797,0.5755555555555556,0.14222222222222222,-0.6133333333333333,0.9722118728266269,4.076631701631701,-66.32454430815086
1589477826.4123974,-1.3218789118921521,-3.838675012036591,9.032267212325468,0.5714118921521425,0.178686460172257,-0.6025598084844594,0.8463378671160328,3.3832811747713047,-64.0082811747713
1589477826.4223974,-1.1998944765298598,-3.7911607581715407,8.928628194888178,0.57,0.19111111111111112,-0.5988888888888889,-0.17299052285573852,3.883573781948882,-60.64858822038585
1589477826.4323974,-1.193452015237159,-3.862027832391251,8.844876198083067,0.57,0.19111111111111112,-0.5988888888888889,0.7128479048906365,4.407023761980831,-58.27293061870238
1589477826.4423974,-1.1969661514240733,-3.8721353943037067,8.71640618291112,0.57,0.19111111111111112,-0.5988888888888889,2.014730481608702,5.079346017604122,-55.08430835837985
1589477826.4523973,-1.3837461392390582,-4.082026584913862,8.947963119723626,0.57,0.19111111111111112,-0.5988888888888889,0.8437821730078474,2.8096215882312565,-52.001023816605276
1589477826.4623973,-1.3790402663750467,-4.248752346287561,8.919904026637505,0.5777777777777777,0.22333333333333333,-0.62,0.751799500546787,3.186900166484404,-45.95261315226794
1589477826.4723973,-1.3105808999951034,-4.159755169993635,8.91305808999951,0.5777777777777777,0.22333333333333333,-0.62,0.8801608125091811,3.1441130624969396,-42.57243193725823
1589477826.4823973,-1.304675172780436,-3.963723905723906,9.000475633528264,0.5777777777777777,0.22333333333333333,-0.62,1.4515660995924153,2.713747120326068,-37.7210703526493
1589477826.4923973,-1.2788568477413098,-3.9533573641940176,9.253573641940175,0.5777777777777777,0.22333333333333333,-0.62,1.0272270705537636,1.311148264086511,-33.69104007251418
1589477826.5023973,-1.2160578949948526,-3.744231579979411,8.865345114956616,0.5777777777777777,0.22333333333333333,-0.62,0.2970488749448502,1.8044266875827246,-28.94515509338693
1589477826.5123973,-1.0071382065699912,-3.506424385912992,9.048221959159514,0.5927781394890007,0.24797678471605672,-0.62,1.3303862089375555,2.122769310446878,-23.653917579165434
1589477826.5223973,-1.056344398340249,-3.5885411973918195,9.156590397154712,0.5933333333333334,0.2488888888888889,-0.62,1.375,1.6219250148192057,-20.733087581505632
1589477826.5323973,-0.9893663963794079,-3.4285743918536675,8.64916210949777,0.5933333333333334,0.2488888888888889,-0.62,0.7030533031617324,0.11410993777107303,-18.214646583694766
1589477826.5423973,-0.9583967417345471,-3.6254892189746046,9.128913272640153,0.5933333333333334,0.2488888888888889,-0.62,0.16508145663632007,1.799083612841399,-14.740997843794922
1589477826.5523973,-0.974781129280839,-3.613484918236224,8.922643461900282,0.5933333333333334,0.2488888888888889,-0.62,0.6792923480314645,0.8180781009187166,-13.279988390944936
1589477826.5623972,-1.0665401992270427,-3.6765401992270426,9.004549561809373,0.6282990703947647,0.24189574147660262,-0.6313638645449652,-0.15758192259539494,0.16498829677208643,-11.708235806434054
1589477826.5723972,-1.0976569234913793,-3.7382846174568964,8.94514614762931,0.6377777777777778,0.24,-0.6344444444444445,-0.006798053609913812,0.5078461745689655,-9.36505758351293
1589477826.5823972,-1.126846060771315,-3.8036921215426305,8.850938666303108,0.6377777777777778,0.24,-0.6344444444444445,0.3599030317490073,0.49076969614342436,-7.206351505649381
1589477826.5923972,-1.081040385962182,-3.7063341374212126,8.880452883044121,0.6377777777777778,0.24,-0.6344444444444445,0.023753015329546323,0.15950120613181853,-4.47425783985682
1589477826.6023972,-0.9931512342928438,-3.567757330006238,8.944606095713393,0.6377777777777778,0.24,-0.6344444444444445,0.05682147313073699,-0.1151523928348632,-2.3147641698600836
1589477826.6123972,-0.9320406860789788,-3.5457143996808935,8.911836457917829,0.6644673137437398,0.22902486371493153,-0.6391837078402695,0.5484692859992022,0.016583566015157536,-0.5931092939768647
1589477826.6223972,-0.9945378467533043,-3.7693714715844937,9.198447165091101,0.7566666666666667,0.19111111111111112,-0.6555555555555556,-0.3717649272731298,-0.18334062077973834,1.341785848701543
1589477826.6323972,-0.9710778026732597,-3.6272633856138454,9.054095650158386,0.7566666666666667,0.19111111111111112,-0.6555555555555556,2.7057458664915397,-0.10250714672023475,4.248447519894924
1589477826.6423972,-1.079310344827586,-3.6944827586206896,9.504827586206897,0.7566666666666667,0.19111111111111112,-0.6555555555555556,-0.015086206896551602,-0.4461206896551725,7.954741379310345
1589477826.6523972,-0.8879248303545828,-3.4198974959380672,8.888411545445857,0.7566666666666667,0.19111111111111112,-0.6555555555555556,-2.1377562601548314,-1.6502989701806365,10.892293080378476
1589477826.6623971,-0.858464589354655,-3.267519672580747,8.628976392903104,1.0179528561282112,0.12326331605756091,-0.6367891441577651,1.622540927406595,0.23302251007362695,13.695620872977363
1589477826.6723971,-1.0117278493177013,-3.639529117816644,9.640053174450637,1.1588888888888889,0.08666666666666667,-0.6266666666666667,0.3128243321160866,-1.2506566724325712,15.877618681529887
1589477826.6823971,-0.7401110513184286,-3.2096044714055085,8.37937551978866,1.1588888888888889,0.08666666666666667,-0.6266666666666667,-2.539685864194511,-2.0403799349346903,18.936458893889732
1589477826.692397,-0.7919060052219321,-3.290391644908616,8.873472584856396,1.1588888888888889,0.08666666666666667,-0.6266666666666667,0.7384138381201044,-0.8614556135770235,21.55793080939948
1589477826.702397,-0.9481473706308386,-3.5017728560932087,8.588286973863756,1.1588888888888889,0.08666666666666667,-0.6266666666666667,-0.4711149889786921,-3.6242521255379447,22.227216070116512
1589477826.712397,-1.0690743116255481,-3.820394379642612,9.353868917991706,1.5330414101939414,0.03486093294750555,-0.6391384173768351,0.7012507085110826,-0.5407841353181588,24.8488223800006
1589477826.722397,-1.0039896478459382,-3.4123834817594143,8.461191853894489,1.5922222222222222,0.02666666666666667,-0.6411111111111111,-0.002914368699425962,-2.5670333054563534,27.78367840513539
1589477826.732397,-0.9725182797128423,-3.3707906806700345,8.835242289284764,1.5922222222222222,0.02666666666666667,-0.6411111111111111,-0.7338037589736772,-3.026079749401755,30.36237453469822
1589477826.742397,-0.8021627461372253,-3.2970626605242774,8.704725834726244,1.5922222222222222,0.02666666666666667,-0.6411111111111111,-0.824766093195809,-3.214452790574422,33.290388417791185
1589477826.752397,-0.7448680211860728,-3.190527915255709,8.509560070620243,1.5922222222222222,0.02666666666666667,-0.6411111111111111,0.5515017655060634,-3.219574867587045,33.75164973517409
1589477826.762397,-0.7764093066327121,-3.154613959949068,8.844427981633677,1.4138469816036663,0.049761246371965204,-0.6529622770125143,0.8552904464251263,-2.4070928348188447,33.083895223212565
1589477826.772397,-0.7960377358490566,-3.060251572327044,8.984968553459119,0.94,0.1111111111111111,-0.6844444444444444,-1.3380503144654088,-3.195754716981132,30.015330188679247
1589477826.782397,-0.8356942248086533,-3.0123842958652243,9.028008307504164,0.94,0.1111111111111111,-0.6844444444444444,-0.20284068146836187,-1.2095035528285578,28.658135133995405
1589477826.792397,-0.8766465451256001,-3.0739517083014403,8.988743128522719,0.94,0.1111111111111111,-0.6844444444444444,-0.5744718095470044,-0.7413899954770022,27.242521832161994
1589477826.802397,-0.7747991981751573,-2.952632197414806,9.014767401672772,0.94,0.1111111111111111,-0.6844444444444444,-1.8721918849796086,-1.7797962604548283,24.978429356466442
1589477826.812397,-0.7111819771253733,-2.974255117651344,8.915272091498506,0.8143198117254721,0.14864456100305157,-0.6844444444444444,-0.8045970077220077,-1.8297140216361916,22.564939307569023
1589477826.822397,-0.8387207488299532,-3.2969453978159127,9.082115444617784,0.6944444444444444,0.18444444444444444,-0.6844444444444444,1.0421021840873634,-1.6764040561622466,19.603783151326052
1589477826.832397,-0.7829252925292529,-3.2805003441520624,8.939076084078996,0.6944444444444444,0.18444444444444444,-0.6844444444444444,-1.412962619791391,-1.034689866045428,15.944379732090855
1589477826.842397,-0.7564797721667048,-3.46895669641722,8.623442164416304,0.6944444444444444,0.18444444444444444,-0.6844444444444444,1.3439494494876292,-1.1509935921885728,13.550523495308568
1589477826.852397,-0.7801888931591084,-3.52,9.081263066871637,0.6944444444444444,0.18444444444444444,-0.6844444444444444,1.6623378651037664,-1.418240776325903,11.547152430822445
1589477826.862397,-0.8230086415256762,-3.3962175942787143,8.890887660166209,0.6375962284835576,0.20645020546156195,-0.6899458846987239,-1.1413001191934575,-2.5830960500612523,8.583807899877495
1589477826.872397,-0.8064999465869032,-3.37,9.042833885268667,0.6255555555555555,0.2111111111111111,-0.6911111111111111,-0.6104142185663926,-0.8541622155752591,7.2437479970088665
1589477826.882397,-0.8078368654509611,-3.4013474618038444,9.321595367175949,0.6255555555555555,0.2111111111111111,-0.6911111111111111,0.8140494085756531,-1.0472061360276,5.5305877279448
1589477826.892397,-0.81,-3.396483677711212,8.805556302726494,0.6255555555555555,0.2111111111111111,-0.6911111111111111,0.02679881403594586,0.2705862574886906,3.6888907568162366
1589477826.902397,-0.7423147586445966,-3.3223147586445965,8.845864459658548,0.6255555555555555,0.2111111111111111,-0.6911111111111111,-0.2649818008492937,0.9764981800849294,2.0129235635670337
1589477826.912397,-0.6332680474911171,-3.213268047491117,9.35474911170812,0.6255555555555555,0.2111111111111111,-0.6911111111111111,0.1136526128780656,0.9386347387121934,0.4226590259121239
1589477826.922397,-0.5436617603983598,-3.0107059168131225,8.903529584065613,0.5955555555555555,0.2255555555555556,-0.6844444444444444,1.4225180323667252,1.6347438854715877,-6.914707820738137
1589477826.932397,-0.6985491934054245,-3.2551739053359334,9.202886722212375,0.5955555555555555,0.2255555555555556,-0.6844444444444444,-0.8568649175678074,0.2455592979968091,-12.101544495656798
1589477826.9423969,-0.7521346045554282,-3.2808759393386278,9.106224004349599,0.5955555555555555,0.2255555555555556,-0.6844444444444444,-1.7811777898599974,-0.4585635157964232,-16.40309520573215
1589477826.9523969,-0.6024033394705098,-3.0351380864707003,8.83328709288299,0.5955555555555555,0.2255555555555556,-0.6844444444444444,0.003452161767506845,2.111014776839566,-20.694059107358264
1589477826.9623969,-0.5464238410596027,-3.1421854304635763,9.156291390728477,0.5971449595290654,0.2203899926416483,-0.6868285504047094,1.3832781456953642,3.201158940397351,-28.72019867549669
1589477826.9723969,-0.5360851714348112,-3.1882555143044335,8.9347665429133,0.6,0.2111111111111111,-0.6911111111111111,0.5,3.5625,-36.75
1589477826.9823968,-0.5504919801744792,-3.2007379702617187,8.777540099127604,0.6,0.2111111111111111,-0.6911111111111111,1.4285428516560894,3.850668471203614,-40.01590934030762
1589477826.9923968,-0.5486216064931431,-3.1925878113630004,8.535695843828716,0.6,0.2111111111111111,-0.6911111111111111,1.9784626014553597,3.95798130072768,-50.373611548418694
1589477827.0023968,-0.586710054910433,-3.3765293005671078,8.85336952020884,0.6,0.2111111111111111,-0.6911111111111111,1.3652837789179944,3.3291756683769917,-60.10299194346926
1589477827.0123968,-0.5971176952971797,-3.408470781188719,9.146713373979392,0.5868970735630271,0.22361844998276706,-0.6833684727619908,1.9335468142760366,2.573483795058295,-66.5621746532606
1589477827.0223968,-0.6289845555596316,-3.1750959316189147,8.758755273487655,0.5755555555555556,0.2344444444444445,-0.6766666666666666,4.4452795407021535,5.761727777981584,-70.46946650647493
1589477827.0323968,-3.6007366885485053,-7.812053245805981,6.935339168490153,0.5755555555555556,0.2344444444444445,-0.6766666666666666,2.794014405543399,12.614948030634572,-79.04239606126914
1589477827.0423968,-15.261630026452087,-14.431880320981616,6.29555315980172,0.5755555555555556,0.2344444444444445,-0.6766666666666666,-68.22709893969369,47.490073521239474,-245.82906311823416
1589477827.0523968,-10.251441285537702,-5.930674907292955,8.86015245158632,0.5755555555555556,0.2344444444444445,-0.6766666666666666,-106.99865574783684,20.151122785331687,-352.2532035434693
1589477827.0623968,3.9715043263288017,9.242771322620516,12.431730531520394,0.5755555555555556,0.2344444444444445,-0.6766666666666666,-118.01582200247219,-43.28759270704573,-401.3263983312732
1589477827.0723968,0.34718516515095177,-3.4085056966090805,6.852984211771864,0.5577777777777778,0.27111111111111114,-0.6555555555555556,-56.23898711924,23.714459582812125,-377.2923231008486
1589477827.0823967,-1.645948705909971,-2.6655819003462646,10.09457186454604,0.5577777777777778,0.27111111111111114,-0.6555555555555556,11.537263777216971,95.17774664006103,-354.70765229767005
1589477827.0923967,-1.0280517975349368,-3.6080246060579046,15.52565939331803,0.5577777777777778,0.27111111111111114,-0.6555555555555556,93.997526021352,62.374527770967525,-341.7391484832951
1589477827.1023967,0.37363780958873005,-0.7765070438536696,10.154151329243355,0.5577777777777778,0.27111111111111114,-0.6555555555555556,176.21860443649172,61.736309929561465,-316.07849423426495
1589477827.1123967,-1.7728518708974863,1.889895641126471,3.7956120874799604,0.5015645764643012,0.3798873058605658,-0.6365744745925634,49.662930291297386,29.75054826219788,-250.51256654768747
1589477827.1223967,1.692761652585196,-1.0754537736993164,8.670501879775236,0.4722222222222222,0.43666666666666665,-0.6266666666666667,-45.09924657395804,-6.63046372842301,-198.8771842280794
1589477827.1323967,2.8237533595741358,-2.155906781571327,10.917448457630352,0.4722222222222222,0.43666666666666665,-0.6266666666666667,-29.130083794281354,11.915224939744412,-179.79958731424807
1589477827.1423967,1.5391503890741625,-7.520845640781324,7.641241067174845,0.4722222222222222,0.43666666666666665,-0.6266666666666667,21.043974313165,27.000119104335397,-170.35984397332064
1589477827.1523967,1.925953335458007,-12.991512320311319,8.263197913346865,0.4722222222222222,0.43666666666666665,-0.6266666666666667,22.630128570709697,16.963973153630675,-124.72013226093229
1589477827.1623967,1.8125604109109303,-0.1526269504649986,9.550294174870618,0.44776921713339474,0.4508382946158735,-0.6338914181701839,5.326707751274369,6.155451087590956,-80.04614722362737
1589477827.1723967,2.9918786949857674,-3.77168600832056,10.709011933435516,0.3744444444444445,0.4933333333333334,-0.6555555555555556,-4.925111533829647,1.561853377490694,-70.4513972520254
1589477827.1823967,3.1763240263204695,-5.304837275475725,8.378737328828027,0.3744444444444445,0.4933333333333334,-0.6555555555555556,-1.268651075938111,4.837231015472168,-56.5936666370265
1589477827.1923966,1.4921484093580555,-1.402777840973723,8.656258294467827,0.3744444444444445,0.4933333333333334,-0.6555555555555556,1.5988416183217684,4.0476860804610775,-29.933805407045085
1589477827.2023966,0.9565259765574239,-2.2073119006159523,9.673153832159471,0.3744444444444445,0.4933333333333334,-0.6555555555555556,1.2071204875639991,2.6039695792291497,-11.724603334459548
1589477827.2123966,0.6739853281237541,-4.105648938149536,9.063016505860777,0.36626041399026016,0.509701394241702,-0.6526670742187846,-1.7458868245488133,1.9541819498710895,3.4392127156260797
1589477827.2223966,0.862817478612776,-4.048166589826341,8.751547564161672,0.3555555555555556,0.5311111111111111,-0.6488888888888888,0.5325899031811896,0.9542159725423903,9.482863006505815
1589477827.2323966,1.1575878781944582,-4.166682169783609,8.972745030843043,0.3555555555555556,0.5311111111111111,-0.6488888888888888,2.0170401693919513,-0.42427237344560853,11.70454016939195
1589477827.2423966,1.3347010699907427,-4.331113909879653,9.15521711985188,0.3555555555555556,0.5311111111111111,-0.6488888888888888,0.41405762233847887,-0.4113436241899718,10.46585906047493
1589477827.2523966,1.4014246808913728,-4.317616453927582,8.970482155966561,0.3555555555555556,0.5311111111111111,-0.6488888888888888,-0.5506163118383973,0.029760283704738672,8.395890070334147
1589477827.2623966,1.4486076711113927,-4.263266081778736,8.705595287112406,0.35067230439510555,0.5276230745679326,-0.6530745327407032,-0.20348082222151836,0.21946164444303676,5.013296566686726
1589477827.2723966,1.3593207444110647,-4.182330186102766,8.590550310171277,0.3477777777777778,0.5255555555555556,-0.6555555555555556,0.30218168428855674,0.018003101712769698,2.141391283992041
1589477827.2823966,1.161055783491756,-4.164680563696134,8.825332942585561,0.3477777777777778,0.5255555555555556,-0.6555555555555556,0.6210070462016768,0.11171829209245432,0.6302958003108994
1589477827.2923965,1.1162326261887345,-4.121674388360563,8.930232463626758,0.3477777777777778,0.5255555555555556,-0.6555555555555556,0.2630811590668943,0.045639274973583666,0.16017434772006828
1589477827.3023965,1.1997633396107972,-4.120946641556811,8.8,0.3477777777777778,0.5255555555555556,-0.6555555555555556,-0.3184165097300691,-0.013930738648252783,0.041173624189160915
1589477827.3123965,1.2243233754048246,-4.177838312297588,8.727183026120645,0.3502401875224903,0.5237966914521895,-0.6534449186315163,-0.4563300190683737,0.1865427979055056,0.03957444232573625
1589477827.3223965,1.215746742758695,-4.168226194321812,8.76808118875848,0.3555555555555556,0.52,-0.6488888888888888,0.2256222856322458,-0.19061142816122895,0.10328057140806145
1589477827.3323965,1.0716912074042912,-4.209455195624737,9.034267984854859,0.3555555555555556,0.52,-0.6488888888888888,0.15061001262095078,0.37535496424063947,0.047814997896508206
1589477827.3423965,1.1882630617954002,-4.117959528954554,8.797453640886477,0.3555555555555556,0.52,-0.6488888888888888,0.21363824815317353,-0.23851177613615424,0.0
1589477827.3523965,1.130777851723679,-4.136393185145748,8.921640889125516,0.3555555555555556,0.52,-0.6488888888888888,-0.13498935179023028,0.02254259283907893,0.009989351790230267
1589477827.3623965,1.2029311370831448,-4.179885030111161,8.801551498417082,0.3585759814228549,0.52,-0.654105988114224,-0.21839071909737925,-0.1411639213539311,0.0625
1589477827.3723965,1.135038072105019,-4.187480963947491,8.951479217270272,0.36777777777777776,0.52,-0.67,-0.2069420185038618,-0.07037198766409214,0.08009299691602303
1589477827.3823965,1.2051615766118506,-4.138152440616027,8.75706708431219,0.36777777777777776,0.52,-0.67,0.08797637692508484,0.03024014617593318,0.125
1589477827.3923965,1.1628909501724343,-4.145421809965513,8.807952669758592,0.36777777777777776,0.52,-0.67,0.26806843857771434,0.17997681056011416,0.06777262456891425
1589477827.4023964,1.1532403478795092,-4.13632403478795,8.858223165089177,0.36777777777777776,0.52,-0.67,0.2537017393975464,-0.1479747825753067,0.022974782575306697
1589477827.4123964,1.1006223821603445,-4.1618671464810335,8.98875523567931,0.3606961896708814,0.5238358602245689,-0.6623282795508623,-0.19527977700430652,-0.12111011149784674,0.012707583623385046
1589477827.4223964,1.1370499669093315,-4.207700198544011,8.898275148908008,0.3411111111111111,0.5344444444444445,-0.6411111111111111,-0.3201573874917273,0.08453114659166115,-0.10296885340833885
1589477827.4323964,1.1588894151737203,-4.14185255356496,8.795552924131398,0.3411111111111111,0.5344444444444445,-0.6411111111111111,0.21759807472625448,0.08796077010949821,-0.0625
1589477827.4423964,1.1528843028924276,-4.158378986953897,8.790715446399554,0.3411111111111111,0.5344444444444445,-0.6411111111111111,0.3648686684618599,0.024210443846046707,-0.014079112307906587
1589477827.4523964,1.1147926778532797,-4.1567743724864785,8.947603661073359,0.3411111111111111,0.5344444444444445,-0.6411111111111111,0.1301830536680072,0.0774771182914991,0.0325457634170018
1589477827.4623964,1.1277183007442333,-4.202014052604817,8.941140849627883,0.3411111111111111,0.5344444444444445,-0.6411111111111111,-0.1929575186058337,0.11786968982572921,-0.04823937965145843
