time,acc_x,acc_y,acc_z,mag_x,mag_y,mag_z,gyr_x,gyr_y,gyr_z
1589478754.3621135,-0.08,-4.2,8.71,0.4511111111111111,0.25,-0.6088888888888889,0.5625,-0.75,0.875
1589478754.3721135,0.011132887189292548,-4.190886711281071,8.755566443594645,0.4511111111111111,0.25,-0.6088888888888889,0.4485838910133843,-0.75,0.8180419455066922
1589478754.3821135,-0.02305871861709425,-4.156941281382906,8.796117437234187,0.44499367387692257,0.2455818508864194,-0.6133070380024694,0.4044150432158046,-0.4911810605021265,0.46176601728632183
1589478754.3921134,-0.03,-4.145132750798185,8.81973449840363,0.4311111111111111,0.23555555555555555,-0.6233333333333333,0.15707969248865736,-0.15707969248865736,0.2533187699546295
1589478754.4021134,-0.03511090096286107,-4.14,8.743114683631362,0.4311111111111111,0.23555555555555555,-0.6233333333333333,0.061113737964236595,-0.061113737964236595,0.09305686898211829
1589478754.4121134,-0.03497432844705707,-4.14,8.730359401741202,0.4311111111111111,0.23555555555555555,-0.6233333333333333,-0.12564178882357319,0.12564178882357319,-0.00032089441178659306
1589478754.4221134,-0.03510788537514078,-4.160431541500563,8.815323656125424,0.4311111111111111,0.23555555555555555,-0.6233333333333333,-0.12230286562148054,0.21807571640537013,-0.15827285078388958
1589478754.4321134,-0.029935791217895608,-4.1749678956089475,8.845096313173157,0.44117531989321546,0.2428241507870754,-0.6205377197827487,0.0,0.1875,-0.15564804266777132
1589478754.4421134,-0.02,-4.164009392937903,8.836037571751609,0.4511111111111111,0.25,-0.6177777777777778,0.0,0.3372651765524439,0.049823882414332915
1589478754.4521134,-0.02,-4.1535806953814225,8.71729112610275,0.4511111111111111,0.25,-0.6177777777777778,-0.04012065386611313,0.6381032693305657,0.08487934613388687
1589478754.4621134,-0.013169639684457394,-4.143169639684458,8.700982161893256,0.4511111111111111,0.25,-0.6177777777777778,-0.27594875986070644,1.2622770236656953,0.10518975197214128
1589478754.4721134,-0.029556465416900594,-4.159556465416901,8.755201637750421,0.4511111111111111,0.25,-0.6177777777777778,-0.35055441822887423,1.793346981253509,0.125
1589478754.4821134,-0.058273926082134005,-4.188273926082134,8.806893066947842,0.4511111111111111,0.25,-0.6177777777777778,-0.3146575923973325,2.22410889123201,0.125
1589478754.4921134,-0.08400612305854241,-4.167003061529271,8.775993876941458,0.4311111111111111,0.23555555555555555,-0.5955555555555555,-0.13742346176821985,2.281345672789725,0.125
1589478754.5021133,-0.0746660345554151,-4.15688931029639,8.785333965444584,0.4311111111111111,0.23555555555555555,-0.5955555555555555,-0.27361637870487426,2.0527790946762186,0.1541627159713443
1589478754.5121133,-0.10313283383516561,-4.14,8.744335830824172,0.4311111111111111,0.23555555555555555,-0.5955555555555555,-0.04291978853021497,1.9020989426510748,0.4104010573489252
1589478754.5221133,-0.15320802093648322,-4.119836256896307,8.67735393973688,0.4311111111111111,0.23555555555555555,-0.5955555555555555,-0.1080200523412081,1.4594576672796717,0.7210178243032961
1589478754.5321133,-0.3451586428631864,-4.072072510364667,8.702657585244099,0.4361163757039042,0.2405608201483487,-0.592860413082513,-0.9517408410186987,-0.557555630764024,2.751184533378458
1589478754.5421133,-0.11788777193120237,-4.279257833974711,9.069676431320191,0.4455555555555555,0.25,-0.5877777777777777,-0.028425155108772415,0.09425557606220059,6.1766178433990415
1589478754.5521133,-0.2559873792408028,-4.2134303743941715,8.721046417070554,0.4455555555555555,0.25,-0.5877777777777777,0.5821203200728622,-0.10247861301759753,9.329957226035194
1589478754.5621133,-0.17967390473277775,-4.239155516476795,8.743570227081582,0.4455555555555555,0.25,-0.5877777777777777,0.43222197797996786,-0.9046300367000535,11.716293772459668
1589478754.5721133,-0.22617455439459128,-4.264869493956156,8.83460848186847,0.4455555555555555,0.25,-0.5877777777777777,0.6842373489039131,-1.0222777094857611,13.0625
1589478754.5821133,-0.15368593136949618,-4.217371862738992,8.823685931369496,0.4595897254918242,0.2529237854033893,-0.5988881623106572,0.6809296568474809,-1.3421074142118703,12.667788970542443
1589478754.5921133,-0.061046730826470885,-4.143479511856335,8.810608195257467,0.4722222222222222,0.25555555555555554,-0.6088888888888889,0.2641445083837682,-1.411951830538744,11.848391457485862
1589478754.6021132,0.02558367392643189,-4.125116734785286,8.773949386932422,0.4722222222222222,0.25555555555555554,-0.6088888888888889,-0.06395918481607972,-1.1802040759196013,10.510091820166844
1589478754.6121132,-0.004612126616139099,-4.113616362015158,8.73,0.4722222222222222,0.25555555555555554,-0.6088888888888889,-0.19326515827017388,-0.4312764712438698,8.94234841729826
1589478754.6221132,-0.0389986916554806,-4.096332897218494,8.722665794436988,0.4722222222222222,0.25555555555555554,-0.6088888888888889,-0.4104357466909079,-0.039580607615584594,8.077047899002599
1589478754.6321132,-0.022066890815784817,-4.106535126526278,8.745137143868343,0.470844295011699,0.2514217739239859,-0.6063626890029297,-0.6745819324013449,0.06459033799327553,7.278302512829588
1589478754.6421132,-0.08089647638148348,-4.166084886432194,8.852594205025357,0.4655555555555556,0.23555555555555555,-0.5966666666666667,-0.35583594221330855,0.3125,5.942805402012099
1589478754.6521132,-0.1729334451901566,-4.161847635027165,8.791523649728349,0.4655555555555556,0.23555555555555555,-0.5966666666666667,0.1664294702780441,0.3009522810802173,5.5625
1589478754.6621132,-0.23658744360327294,-4.17,8.716587443603274,0.4655555555555556,0.23555555555555555,-0.5966666666666667,0.6044142387397721,0.06472814865794907,5.665428806301139
1589478754.6721132,-0.24941699166475492,-4.17,8.729416991664756,0.4655555555555556,0.23555555555555555,-0.5966666666666667,0.5643219010476409,-0.29610289057123196,5.865890494761795
1589478754.6821132,-0.17331536116499963,-4.062095437252778,8.722360988637222,0.4627704013504321,0.23316828052259259,-0.6062157667985185,0.04857366909374919,-0.8619035171701394,6.723807034340279
1589478754.6921132,0.07027546129095803,-4.08946385186158,8.707825858559328,0.4577777777777778,0.2288888888888889,-0.6233333333333333,-0.48143139733403373,-0.9273548821327731,6.449274410663865
1589478754.7021132,0.13376660941878335,-4.163855192985627,8.636543433065173,0.4577777777777778,0.2288888888888889,-0.6233333333333333,-0.6093057940884028,-0.8752768236463888,5.333549896049896
1589478754.7121131,0.1099063576349024,-4.286896168197474,9.014957304822044,0.4577777777777778,0.2288888888888889,-0.6233333333333333,-0.4271894733065442,-0.9193231558553387,1.4678463152985075
1589478754.7221131,-0.2382873314466456,-4.037840186449142,8.542978192109205,0.4577777777777778,0.2288888888888889,-0.6233333333333333,-0.3434826036290994,1.503924587980689,0.5698143832195771
1589478754.7321131,-0.16148143832195772,-4.2263637423006495,8.961919427334777,0.4577777777777778,0.2288888888888889,-0.6233333333333333,-1.4781151156983519,0.1510935158981186,0.13341726319294156
1589478754.742113,-0.23792328911073166,-4.138397259074391,8.823115066333902,0.4777777777777778,0.2433333333333333,-0.6088888888888889,0.39150685231402427,0.6980822277682911,0.45400685231402427
1589478754.752113,-0.2,-4.157042030134813,8.797932857520486,0.4777777777777778,0.2433333333333333,-0.6088888888888889,0.4744746233148295,-0.38497885276235794,0.32100845889505686
1589478754.762113,-0.1946052746294682,-4.150789450741064,8.754736704446382,0.4777777777777778,0.2433333333333333,-0.6088888888888889,0.7212170335658239,-0.7648022013949434,0.11513186573670445
1589478754.772113,-0.1771010922612131,-4.15032581919591,8.797101092261213,0.4777777777777778,0.2433333333333333,-0.6088888888888889,0.5887636532651639,-1.018118173367418,0.06046363002556356
1589478754.782113,-0.15110806414129677,-4.130831048105972,8.771108064141297,0.4777777777777778,0.2433333333333333,-0.6088888888888889,0.2638508017662096,-1.1805745991168952,0.18230594933767139
1589478754.792113,-0.14655264378478663,-4.143242115027829,8.736552643784787,0.4655555555555556,0.2288888888888889,-0.6088888888888889,-0.5400988520408163,-0.6060195384972171,0.0836183905380334
1589478754.802113,-0.18409617889709073,-4.1822885366912725,8.753615284411637,0.4655555555555556,0.2288888888888889,-0.6088888888888889,-1.0,-0.0881011181068172,0.0
1589478754.812113,-0.19778076699899774,-4.184438466002005,8.745561533997996,0.4655555555555556,0.2288888888888889,-0.6088888888888889,-0.8054808250250567,-0.22225958748747165,0.0
1589478754.822113,-0.19467301924136382,-4.171495235568977,8.800653961517272,0.4655555555555556,0.2288888888888889,-0.6088888888888889,-0.28446433308167884,-0.47079362974147604,0.023948407435369013
1589478754.832113,-0.16086159367523148,-4.177815458233642,8.834769322792052,0.4611555821399263,0.2251658344602795,-0.6075350509148492,0.3290368511390825,-0.5678849604701967,0.024423306980131072
1589478754.842113,-0.14,-4.138904619426404,8.788904619426404,0.4511111111111111,0.21666666666666667,-0.6044444444444445,0.9606153761949938,-0.3912692476100124,-0.016269247610012402
1589478754.852113,-0.1486662223743223,-4.122888740791441,8.732446369711269,0.4511111111111111,0.21666666666666667,-0.6044444444444445,0.8736175903744664,-0.1500083304814568,0.0625
1589478754.862113,-0.17191097139752398,-4.131910971397524,8.650510342686383,0.4511111111111111,0.21666666666666667,-0.6044444444444445,0.532641071913688,0.23208464314821284,0.0625
1589478754.872113,-0.20114129866248226,-4.158355973996862,8.775067921990585,0.4511111111111111,0.21666666666666667,-0.6044444444444445,0.14555032503922888,0.0625,0.0625
1589478754.882113,-0.22621370395277593,-4.177160277964582,8.831480833893746,0.4511111111111111,0.21666666666666667,-0.6044444444444445,-0.0895034745572742,0.0625,0.0625
1589478754.892113,-0.2,-4.16,8.857949453446004,0.4722222222222222,0.23555555555555555,-0.6233333333333333,-0.17310450422513374,-0.5416069075122103,-0.0625
1589478754.902113,-0.20417787125366185,-4.162785247502441,8.856963118756102,0.4722222222222222,0.23555555555555555,-0.6233333333333333,0.07495258394050927,-1.2375474160594908,-0.055972076166153385
1589478754.912113,-0.37270201152715754,-4.184197870147716,8.956996450246193,0.4722222222222222,0.23555555555555555,-0.6233333333333333,-1.0412396465513951,-2.1018550326348335,0.7450236650253826
1589478754.922113,-0.5021308187397097,-4.065198922317018,8.76213081873971,0.4722222222222222,0.23555555555555555,-0.6233333333333333,-0.38334455919772487,-0.9808243526418201,2.5149191737763807
1589478754.932113,-0.5436019228568159,-4.047364999427721,8.783924230284995,0.4700358119364643,0.22936072641257488,-0.6171385041903527,-0.125,-1.3514807714318415,5.194903857159208
1589478754.942113,-0.4484206890596667,-3.916532251100941,8.760712373715569,0.4655555555555556,0.21666666666666667,-0.6044444444444445,-0.23819726275796563,-1.506384379587255,7.735299196960539
1589478754.952113,-0.3017270284793122,-3.793221923696937,8.756443847393875,0.4655555555555556,0.21666666666666667,-0.6044444444444445,-0.6501276195593767,-0.9482939279957012,9.568941429339064
1589478754.962113,-0.2970668971388767,-3.655477412863445,8.64176672428472,0.4655555555555556,0.21666666666666667,-0.6044444444444445,-1.1581260803384845,-0.03666378576404117,9.85291594644101
1589478754.972113,-0.3352639865645009,-3.4628088590322244,8.775786711451664,0.4655555555555556,0.21666666666666667,-0.6044444444444445,-2.0789335572583183,1.285077936391309,9.50438884223785
1589478754.982113,-0.27700735606167776,-3.3100735606167775,8.909125053048522,0.46123284764464567,0.22464705050219266,-0.6084346363622074,-3.3553764676757676,2.199356344603197,9.237683901541944
1589478754.9921129,-0.281386602900531,-3.183066985497345,8.82795534300177,0.4511111111111111,0.2433333333333333,-0.6177777777777778,-4.282388357504425,2.8362220893761063,9.58438596627434
1589478755.0021129,-0.2907497929330507,-2.861828225681917,8.933167632979098,0.4511111111111111,0.2433333333333333,-0.6177777777777778,-4.4567712647228115,1.9885218227506913,10.302601146940322
1589478755.0121129,-0.27308536773686354,-2.4261057375093005,9.01560161722797,0.4511111111111111,0.2433333333333333,-0.6177777777777778,-4.493572150548201,0.2956810747827552,10.044994946162593
1589478755.0221128,-0.47562219988756965,-2.593967599611604,8.828521199938674,0.4511111111111111,0.2433333333333333,-0.6177777777777778,-3.465593751597022,2.036603751085975,9.426059996933716
1589478755.0321128,-0.5542166499156772,-2.865475699708703,8.871390899954006,0.4511111111111111,0.2433333333333333,-0.6177777777777778,-2.349195313697767,1.2774528133144814,11.569544997700287
1589478755.0421128,-0.5279919352727083,-2.853953811107329,8.711989735801628,0.4922222222222222,0.2288888888888889,-0.6044444444444445,-1.3124083553716845,-0.8623579508261109,18.03806361446414
1589478755.0521128,-0.44296430244054746,-2.4092860488109484,8.665214653692043,0.4922222222222222,0.2288888888888889,-0.6044444444444445,-0.09017731695894263,0.03905884113024927,27.35559823333507
1589478755.0621128,-0.4417275452425891,-2.558272454757411,8.803455090485178,0.4922222222222222,0.2288888888888889,-0.6044444444444445,0.11004866585248513,-1.896388457125939,37.47737639243552
1589478755.0721128,-0.42165794221157543,-2.5824869133173634,8.768289711057877,0.4922222222222222,0.2288888888888889,-0.6044444444444445,-0.7448189305888268,-2.958224277644693,44.970495815218996
1589478755.0821128,-0.44434608045794244,-2.642595603434568,8.875211281602798,0.4789425319340648,0.22768164431723822,-0.6008227107294924,-0.6060109914135793,-3.1739184985689297,53.77112816027985
1589478755.0921128,-0.4617905027932961,-2.76895251396648,8.93,0.4311111111111111,0.22333333333333333,-0.5877777777777777,-0.30690467877094973,-3.1753578910614526,59.81512744413408
1589478755.1021128,-0.5019274277930231,-2.8693974690541526,8.895542613468107,0.4311111111111111,0.22333333333333333,-0.5877777777777777,-0.3870464237063945,-3.667921939470515,67.32452544765364
1589478755.1121128,-0.5579566425792107,-2.884032518065592,8.831934963868816,0.4311111111111111,0.22333333333333333,-0.5877777777777777,-0.6875,-3.625,72.21937708449138
1589478755.1221128,-0.5951910027893726,-2.8470224930265684,8.85923598884251,0.4311111111111111,0.22333333333333333,-0.5877777777777777,-0.7361656511503689,-3.9332157906190033,77.73763823221033
1589478755.1321127,-0.6170296197090976,-2.822653315476376,8.821088859127293,0.44064015116122135,0.22130255430626067,-0.5927766184598028,-0.9365091724546049,-4.944305369545582,82.36311006945526
1589478755.1421127,-0.6712284820031299,-2.8971928794992174,8.910700312989045,0.4988888888888889,0.2088888888888889,-0.6233333333333333,-1.242321987480438,-5.609643974960877,88.47154978482003
1589478755.1521127,-0.7027384376488857,-2.8909128125496286,8.7972206243052,0.4988888888888889,0.2088888888888889,-0.6233333333333333,-1.0453847646944645,-5.295640627481428,93.07025198073089
1589478755.1621127,-0.7249418573873763,-2.8983139524624586,8.693604665525578,0.4988888888888889,0.2088888888888889,-0.6233333333333333,-0.9066133913288984,-5.665697623122938,97.18713605724268
1589478755.1721127,-0.81611485485782,-2.9371339973341235,8.763248852191943,0.4988888888888889,0.2088888888888889,-0.6233333333333333,-1.1823267642920616,-6.2766749666765405,103.85391944053613
1589478755.1821127,-0.8627043838862559,-2.9914884478672987,8.864192831753556,0.4988888888888889,0.2088888888888889,-0.6233333333333333,-1.6191035989336493,-6.9561055983412325,107.97903398992891
1589478755.1921127,-0.9991049528301886,-3.0266795400943396,8.814889445754718,0.5044444444444445,0.17777777777777778,-0.64,-0.723411704009434,-6.257458726415094,116.22040647110849
1589478755.2021127,-1.097256894049347,-3.11,8.971146589259797,0.5044444444444445,0.17777777777777778,-0.64,-0.658200290275762,-6.134978229317852,123.1029571843251
1589478755.2121127,-1.1195906725559273,-3.15076035836269,8.791988340694909,0.5044444444444445,0.17777777777777778,-0.64,-1.4948834069490888,-7.354897981080453,128.7883822714186
1589478755.2221127,-1.1495922819692064,-3.278267198369128,8.829490352461509,0.5044444444444445,0.17777777777777778,-0.64,-1.869903524615082,-7.683040584038197,133.99178640403426
1589478755.2321126,-1.1256357020115233,-3.3283618720307286,8.881271404023048,0.5036362411132451,0.1709888697957029,-0.6388685153363208,-1.178407712524007,-7.697738299807945,140.8421446982715
1589478755.2421126,-1.1001977155564542,-3.260527241483877,8.830395431112908,0.4989255028808248,0.13141866864337298,-0.6322734818109326,-1.1254119074092792,-8.121704740725766,144.6578426665319
1589478755.2521126,-1.142792827165204,-3.2704502098435713,8.848107592521938,0.4988888888888889,0.13111111111111112,-0.6322222222222222,-1.4971861884776803,-8.847410339565052,146.9521413582602
1589478755.2621126,-1.188614296862068,-3.207128567712644,8.71103927735345,0.4988888888888889,0.13111111111111112,-0.6322222222222222,-1.6717187093570431,-8.77660709640805,147.25216516115302
1589478755.2721126,-1.2863310757322544,-3.1823330108188936,8.694327205558976,0.4988888888888889,0.13111111111111112,-0.6322222222222222,-1.3895813176180842,-8.481243952854253,147.125
1589478755.2821126,-1.3379804732166418,-3.189711496173806,8.834518427302314,0.4988888888888889,0.13111111111111112,-0.6322222222222222,-1.4356968510862873,-8.619590553258861,147.125
1589478755.2921126,-1.4123857068796681,-3.1503214223997236,8.917614293120332,0.5366666666666666,0.09222222222222222,-0.6533333333333333,-1.2241964440006912,-8.527812445997581,148.4713391159924
1589478755.3021126,-1.46,-3.1884183196258666,8.868418319625865,0.5366666666666666,0.09222222222222222,-0.6533333333333333,-1.1299427511691662,-8.873764312207708,149.56991412675376
1589478755.3121126,-1.4676193931398416,-3.1023806068601583,8.79507959542656,0.5366666666666666,0.09222222222222222,-0.6533333333333333,-1.343252528583993,-8.76487879287599,149.74701517150396
1589478755.3221126,-1.5002287884106067,-3.0902287884106068,8.818950189859281,0.5366666666666666,0.09222222222222222,-0.6533333333333333,-1.2340175181084272,-8.593035036216854,149.0676313858132
1589478755.3321126,-1.55376336194518,-3.1437633619451804,8.865792941702033,0.5366666666666666,0.09222222222222222,-0.6533333333333333,-1.150369746960656,-8.425739493921313,148.4402731022049
1589478755.3421125,-1.63059912589535,-3.1405991258953505,8.945206992837198,0.5433333333333333,-0.006666666666666667,-0.6466666666666666,-1.558755463154061,-8.319989073691879,146.18028408401116
1589478755.3521125,-1.6517521642238793,-3.145299134310448,8.84649567155224,0.5433333333333333,-0.006666666666666667,-0.6466666666666666,-1.4118587683209052,-8.319978357761206,142.05261501457102
1589478755.3621125,-1.713481473288353,-3.121712421192346,8.778287578807653,0.5433333333333333,-0.006666666666666667,-0.6466666666666666,-1.185430262139144,-7.946132894591306,137.8459697489216
1589478755.3721125,-1.8620824507088154,-3.0672233990549125,8.829305849763728,0.5433333333333333,-0.006666666666666667,-0.6466666666666666,-1.5408078051165064,-7.947938732279615,133.0756477106078
1589478755.3821125,-1.8892418340981836,-3.026588253441826,8.821895414754541,0.5433333333333333,-0.008351479781814131,-0.6472142309290896,-1.2476307315568238,-7.252369268443176,128.8919126720913
1589478755.3921125,-1.8730669854614168,-2.9538014345763757,8.862332536346457,0.5433333333333333,-0.04429558786351815,-0.6588960660556433,-1.1970843295669276,-7.302915670433072,125.2525717288188
1589478755.4021125,-1.9686767895878525,-2.912407809110629,8.910238611713666,0.5433333333333333,-0.05111111111111112,-0.6611111111111111,-1.2093275488069415,-7.175433839479393,119.49010303687635
1589478755.4121125,-2.02690568329718,-2.8614575271149674,8.844731106290672,0.5433333333333333,-0.05111111111111112,-0.6611111111111111,-0.9363796095444685,-6.675029284164859,116.48767570498916
1589478755.4221125,-1.97,-2.7170714732056283,8.862928526794372,0.5433333333333333,-0.05111111111111112,-0.6611111111111111,-0.8428012346743089,-6.304297119093279,110.75446707535177
1589478755.4321125,-1.9751765910254222,-2.652588295512711,8.939490416879941,0.5427581565527309,-0.05494562298179429,-0.6623573274690832,-1.0215691292725928,-5.910538588409259,106.1365096968663
1589478755.4421124,-2.032316264135798,-2.654521094506221,8.984409660740845,0.5366666666666666,-0.09555555555555556,-0.6755555555555556,-1.119710142361357,-5.55261674575631,100.36553137615978
1589478755.4521124,-2.0510197715599126,-2.57,8.833059314679739,0.5366666666666666,-0.09555555555555556,-0.6755555555555556,-0.701274714449891,-5.271175856650327,94.83757798391069
1589478755.4621124,-2.0677396177277587,-2.5517869599590752,8.943928986653024,0.5366666666666666,-0.09555555555555556,-0.6755555555555556,-0.8132397223643213,-4.985872610798493,88.7850576082407
1589478755.4721124,-1.9779845145291703,-2.470930315381267,8.94116259744371,0.5366666666666666,-0.09555555555555556,-0.6755555555555556,-1.0373064316146308,-4.3871128632292615,83.12645918246211
1589478755.4821124,-1.9669196575785155,-2.4211384591033203,9.057343595425587,0.5366666666666666,-0.09555555555555556,-0.6755555555555556,-0.8989957197314444,-4.110491439462889,79.70326906335325
1589478755.4921124,-2.0744891515544044,-2.39,9.072755424222798,0.531719604562464,-0.12947826712723084,-0.7024110355497984,-1.170278598607513,-4.931329440576425,73.03063775097151
1589478755.5021124,-1.9544803513117892,-2.250860263483842,8.576200878279472,0.5288888888888889,-0.14888888888888888,-0.7177777777777777,-0.38942686634388024,-2.369355928386443,64.69798586870849
1589478755.5121124,-2.0799843138895278,-2.347046828268463,8.910546713236986,0.5288888888888889,-0.14888888888888888,-0.7177777777777777,-1.0844723192437202,-4.54384660029699,58.022756624767325
1589478755.5221124,-2.2850465906122093,-2.379724810589567,8.85385265174606,0.5288888888888889,-0.14888888888888888,-0.7177777777777777,-0.33829900722807627,-2.8136375511625884,49.940912653487764
1589478755.5321124,-2.327666245549558,-2.342333754450442,8.962998736648673,0.5288888888888889,-0.14888888888888888,-0.7177777777777777,-0.018232456644079464,-1.690636843918686,43.158407028827384
1589478755.5421124,-2.2795018308311974,-2.332785975833028,9.070996338337604,0.5136592823141706,-0.1617138207412832,-0.7177777777777777,-0.09017530208714757,-2.436577718784328,37.83544603625046
1589478755.5521123,-2.2,-2.2514580214816564,8.829793849628404,0.5077777777777778,-0.16666666666666666,-0.7177777777777777,0.5465528900443815,-1.3509299745266419,29.045955447884662
1589478755.5621123,-2.217359282950635,-2.3042958800769933,8.610035580269477,0.5077777777777778,-0.16666666666666666,-0.7177777777777777,0.054797017479050414,0.7588014990375829,21.04268660198705
1589478755.5721123,-2.355992261777458,-2.4184642155814364,9.009624754535027,0.5077777777777778,-0.16666666666666666,-0.7177777777777777,-0.5058510586588377,-0.6683026947679507,13.397485563743123
1589478755.5821123,-2.355035916974243,-2.385107750922729,9.079928166051515,0.5077777777777778,-0.16666666666666666,-0.7177777777777777,-0.9366020756439258,-0.5319234432670557,5.844399878953844
1589478755.5921123,-2.389414423330694,-2.432301398785959,8.820376748482449,0.5022222222222222,-0.17333333333333334,-0.7388888888888889,0.6406889185801004,3.609566755740301,-5.275874653602534
1589478755.6021123,-2.3133104051200846,-2.376953021905516,8.751191277381896,0.5022222222222222,-0.17333333333333334,-0.7388888888888889,1.2028208712721034,5.295962613816311,-10.853953261084719
1589478755.6121123,-2.2377988669577458,-2.3515407931295784,8.714747591383105,0.5022222222222222,-0.17333333333333334,-0.7388888888888889,-0.20675991411972722,3.2395874679753183,-21.956356222711364
1589478755.6221123,-2.1621249954894814,-2.404512503157363,9.221762530220474,0.5022222222222222,-0.17333333333333334,-0.7388888888888889,-0.8689062894670372,0.7328904755890737,-29.050781672861113
1589478755.6321123,-2.4378600312878183,-2.4988453023997166,9.282394108444759,0.5022222222222222,-0.17333333333333334,-0.7388888888888889,-1.9933125977744326,-4.92783139998229,-39.55706706219192
1589478755.6421123,-2.5664714458283,-2.549305202649227,8.727588203440662,0.48562669221477067,-0.1820678228109394,-0.7668392552172284,-0.012345357604031992,3.1204075894530767,-45.66315033115342
1589478755.6521122,-2.3891788298325114,-2.546688781513657,8.828331121848635,0.4811111111111111,-0.18444444444444444,-0.7744444444444445,0.6040560924317152,3.8644036502015373,-53.44859393385575
1589478755.6621122,-2.5050674546182283,-2.7425562121818565,8.8187893485273,0.4811111111111111,-0.18444444444444444,-0.7744444444444445,-0.21048077602241422,2.869400854660608,-59.76093930261578
1589478755.6721122,-2.587909393096816,-2.822971170530805,8.85188468212322,0.4811111111111111,-0.18444444444444444,-0.7744444444444445,0.5878603683649364,6.4191875901574225,-65.13961072899463
1589478755.6821122,-2.394999477348274,-2.7615907427926327,8.60636297117053,0.4811111111111111,-0.18444444444444444,-0.7744444444444445,1.3551157150920914,7.350854796897539,-69.63353490268224
1589478755.6921122,-2.151717701894822,-2.7908588509474113,8.649570574526296,0.4622222222222222,-0.20555555555555555,-0.76,0.2687873644746175,5.63764945789847,-76.54063228290607
1589478755.7021122,-2.1857174992400443,-2.8078587496200225,8.64107062518999,0.4622222222222222,-0.20555555555555555,-0.76,0.6406601479379876,7.125140591751951,-81.05623036781842
1589478755.7121122,-2.3429163864173566,-2.9607290966043394,9.18979264753925,0.4622222222222222,-0.20555555555555555,-0.76,-1.3271530353402388,7.7168060706804775,-88.43455257797336
1589478755.7221122,-2.4073981974364393,-2.97684954935911,8.964106308972461,0.4622222222222222,-0.20555555555555555,-0.76,-0.2692483233084153,5.600996646616831,-92.51504218152468
1589478755.7321122,-2.215826810361127,-2.8842938173567783,8.29471960673095,0.4622222222222222,-0.20555555555555555,-0.76,1.692113348459066,3.9911727169597278,-95.30637880506713
1589478755.7421122,-2.242868780548941,-3.1157375610978817,8.606720975895058,0.48867940380535946,-0.21296356639883396,-0.7335428184168628,2.270799390065589,4.26495853699294,-97.62807317124117
1589478755.7521122,-2.589558554901563,-3.2542287395981324,9.749776740409986,0.49,-0.21333333333333332,-0.7322222222222222,-2.4603397097625326,14.406085092348286,-98.7227394966511
1589478755.7621121,-2.303114831112294,-2.805956403952458,8.571293631281417,0.49,-0.21333333333333332,-0.7322222222222222,-0.5537336162482971,4.544513107001363,-99.60940215944503
1589478755.7721121,-2.480452559545248,-3.0818150926259413,9.42514195336601,0.49,-0.21333333333333332,-0.7322222222222222,0.4725263862572229,5.365521109005778,-96.6127229521289
1589478755.7821121,-2.2757972573272385,-2.9157972573272386,8.457536972304382,0.49,-0.21333333333333332,-0.7322222222222222,-2.28475816751815,11.632129772788385,-91.68863437752084
1589478755.792112,-2.3082870962243245,-3.0153611608284328,8.964398065285947,0.5077777777777778,-0.20555555555555555,-0.76,-1.1906242009716186,5.275925807551351,-86.44369113824257
1589478755.802112,-2.5317114122560302,-3.203037586295065,8.651604022841559,0.5077777777777778,-0.20555555555555555,-0.76,1.825604065456405,4.82907717548794,-82.7013338447115
1589478755.812112,-2.668281082696282,-3.287135137827137,8.80229188973829,0.5077777777777778,-0.20555555555555555,-0.76,0.19074335765332803,6.586892103887049,-77.8241894718494
1589478755.822112,-2.6288057656472654,-3.232537177098177,8.828805765647266,0.5077777777777778,-0.20555555555555555,-0.76,-1.5932795772589425,3.0382492509773833,-72.2499885819723
1589478755.832112,-2.5138682450948155,-3.1559121633965437,8.713868245094815,0.5077777777777778,-0.20555555555555555,-0.76,0.6575802002265339,4.7144214257006105,-65.83264368446052
1589478755.842112,-2.7323435430131267,-3.2588282284934365,8.891171771506563,0.4633333333333333,-0.21666666666666667,-0.7111111111111111,-0.37866178595801053,3.0183089297900527,-57.74442389908073
1589478755.852112,-2.766017823451487,-3.2419910882742564,8.908008911725744,0.4633333333333333,-0.21666666666666667,-0.7111111111111111,-0.4312778491429489,3.2813892457147444,-51.37788025370318
1589478755.862112,-2.850163014225298,-3.410489042675894,8.722119184928873,0.4633333333333333,-0.21666666666666667,-0.7111111111111111,0.43342464436755096,3.359717416378316,-41.09513648596693
1589478755.872112,-2.858225874663591,-3.4346776239907726,8.826936370626681,0.4633333333333333,-0.21666666666666667,-0.7111111111111111,0.2318531334102268,2.6038242502883504,-33.43541906958862
1589478755.882112,-2.768946265431088,-3.429287795933069,8.828575591866139,0.4633333333333333,-0.21666666666666667,-0.7111111111111111,-0.2811589279282229,1.968841072071777,-27.130361996136088
1589478755.892112,-2.7186755078768425,-3.4716159141783165,8.827205304726105,0.4550492977244677,-0.18671669177307562,-0.6862590042845143,-0.36490053638552183,1.4908112303078938,-18.250163660936774
1589478755.902112,-2.639840773721767,-3.4912201450728313,8.85251990328478,0.4488888888888889,-0.16444444444444445,-0.6677777777777778,-0.007625906705195501,0.8115048357610426,-10.125659757032494
1589478755.912112,-2.4783233170653007,-3.5354600088734722,8.795296656314282,0.4488888888888889,-0.16444444444444445,-0.6677777777777778,-0.2841250554592022,-0.19797926834187074,-2.4114366958415685
1589478755.922112,-2.3445052115053335,-3.4284490768936298,8.706336807670223,0.4488888888888889,-0.16444444444444445,-0.6677777777777778,-0.051052523969444374,0.31646953139953715,1.0066459743513896
1589478755.932112,-2.2514873983867427,-3.27986723580553,8.654594959354696,0.4488888888888889,-0.16444444444444445,-0.6677777777777778,0.49576676814914783,0.9476260161325758,4.4788338407457395
1589478755.942112,-2.37,-3.3,8.53,0.49,-0.12222222222222222,-0.6322222222222222,-0.9375,-3.0625,6.4375
1589478755.952112,-2.448513934103674,-3.4154616677995207,8.668554001359425,0.49,-0.12222222222222222,-0.6322222222222222,-0.18699915930311595,-1.1573824813079097,7.823040013594247
1589478755.962112,-2.54,-3.4842351886561813,8.901245212289137,0.49,-0.12222222222222222,-0.6322222222222222,0.03670238774346024,-0.41035775405427444,10.77334773042132
1589478755.972112,-2.4993240924998283,-3.382544774583133,8.858310231249572,0.49,-0.12222222222222222,-0.6322222222222222,-0.4152585260413093,-1.1165511562478556,14.501985692719412
1589478755.982112,-2.4425775897742428,-3.4273603384063636,9.071956871580303,0.49,-0.12222222222222222,-0.6322222222222222,0.46700423007954384,0.8557864729412847,18.884126856407192
1589478755.992112,-2.455040174190383,-3.4539379906771344,9.195832311089303,0.49,-0.09,-0.6088888888888889,-1.156501088689892,-4.9080076208292445,21.984716173945046
1589478756.002112,-2.39715759936212,-3.383192621442591,8.797085684494602,0.49,-0.09,-0.6088888888888889,-0.7947349960132483,-2.375644972092738,23.9945277999264
1589478756.012112,-2.3157334865420105,-3.3267429228037186,8.617752359065426,0.49,-0.09,-0.6088888888888889,0.5863061039729796,0.7990420105156864,26.827137522197848
1589478756.022112,-2.350822643671106,-3.363562266003805,9.02658114936885,0.49,-0.09,-0.6088888888888889,-0.19693401051576354,-2.164434112809182,27.375
1589478756.032112,-2.321051680069821,-3.2865532074060217,8.975307025746524,0.49,-0.09,-0.6088888888888889,-1.1812309082974877,-4.028419362882613,27.347188454585126
1589478756.0421119,-2.240737810907431,-3.138698942724576,8.664621206358866,0.4961531992934594,-0.08545198313092128,-0.6094239496970159,-1.2429594204000913,-3.513710352171598,27.47803443751426
1589478756.0521119,-2.2529220741203333,-3.1257906754356863,8.743082492535274,0.5155555555555555,-0.07111111111111111,-0.6111111111111112,0.1601891063796569,-1.9572668858921567,27.73190413926348
1589478756.0621119,-2.2289356031979635,-3.129024302931467,8.842915556262678,0.5155555555555555,-0.07111111111111111,-0.6111111111111112,-1.1609621733423492,-5.159299053339167,27.438054373334396
1589478756.0721118,-2.131468671496705,-3.0683045108675864,8.771015036225288,0.5155555555555555,-0.07111111111111111,-0.6111111111111112,-0.5469768267375397,-3.0847744566206723,27.70126879528161
1589478756.0821118,-2.160694809194955,-3.1474318321823427,8.883262977012611,0.5155555555555555,-0.07111111111111111,-0.6111111111111112,0.8051340660765813,-1.4344766235450508,26.638412686833316
1589478756.0921118,-2.060402489077188,-2.9660239072459382,8.875656787274687,0.5062774593927778,-0.07111111111111111,-0.609951349090764,0.4073972499101587,-1.6167901590664069,20.669753976660175
1589478756.1021118,-1.610544398741834,-2.4541458988628113,8.769034599564481,0.4977777777777778,-0.07111111111111111,-0.6088888888888889,-0.25,-1.4375,16.1875
1589478756.1121118,-1.504565146224356,-2.290776407682235,8.802235923177653,0.4977777777777778,-0.07111111111111111,-0.6088888888888889,0.2111796158882584,-4.665757311217809,5.465073930597994
1589478756.1221118,-1.9015246599349078,-2.551016439956605,8.679491780021698,0.4977777777777778,-0.07111111111111111,-0.6088888888888889,1.5244943357256113,-0.043441750813652646,2.4213495159809733
1589478756.1321118,-2.0057916577234027,-2.66527080203191,8.831604063819132,0.4977777777777778,-0.07111111111111111,-0.6088888888888889,0.5294278099735279,0.7664064176861988,0.21028743650282622
1589478756.1421118,-2.07,-2.8,8.9,0.5077777777777778,-0.07777777777777778,-0.6177777777777778,-1.125,-1.25,-2.1875
1589478756.1521118,-2.07,-2.8,8.9,0.5077777777777778,-0.07777777777777778,-0.6177777777777778,-1.125,-1.25,-2.1875
1589478756.1621118,-2.2686879972069125,-3.0933013292102047,8.985151998802962,0.5077777777777778,-0.07777777777777778,-0.6177777777777778,1.1220666350781814,-0.18560001496296663,-11.826233197835357
1589478756.1721117,-1.7713984706077321,-2.902791969506854,8.556746845332512,0.5077777777777778,-0.07777777777777778,-0.6177777777777778,0.48474306920144894,0.87572060181349,-15.023966298918062
1589478756.1821117,-1.6057386803679707,-3.046638206237368,8.880571223483631,0.5077777777777778,-0.07777777777777778,-0.6177777777777778,0.06455188991102967,0.05174823853869548,-22.599843688018286
1589478756.1921117,-1.7250535869460268,-3.1880285797045476,8.81844105435937,0.5224492077285358,-0.0741099202900883,-0.6257248023344383,0.5908371149946896,1.641239017089891,-30.489241575745872
1589478756.2021117,-1.86,-3.213082965282048,8.842029127299156,0.5344444444444445,-0.07111111111111111,-0.6322222222222222,0.9946749035612457,2.5684557919159166,-39.827353664672664
1589478756.2121117,-1.9273470495362148,-3.200612295243734,8.810203769488849,0.5344444444444445,-0.07111111111111111,-0.6322222222222222,0.6071424166173278,2.3826536905466744,-48.622455965068085
1589478756.2221117,-2.0272544677665847,-3.195462370957178,8.812688145214109,0.5344444444444445,-0.07111111111111111,-0.6322222222222222,0.7442203630352743,2.318279636964726,-54.83978417490565
1589478756.2321117,-2.005920675073624,-3.224079324926376,8.819552405044174,0.5344444444444445,-0.07111111111111111,-0.6322222222222222,1.4514873423695538,4.294759495582571,-57.75495780789851
1589478756.2421117,-1.9084962080173349,-3.135856265799928,8.77830408089563,0.5289102363468561,-0.07111111111111111,-0.6322222222222222,0.9010021668472373,4.231202600216685,-60.67439508847959
1589478756.2521117,-1.8895285275025624,-3.0855521011274343,8.90700990775538,0.5222222222222223,-0.07111111111111111,-0.6322222222222222,0.2229373078237103,2.5775046976426377,-64.14322258284933
1589478756.2621117,-2.019690302523018,-3.2,8.956503647016621,0.5222222222222223,-0.07111111111111111,-0.6322222222222222,1.59790147076408,4.26922904460122,-65.6933068276934
1589478756.2721117,-1.9397146467305464,-3.239499842055386,8.785142676634727,0.5222222222222223,-0.07111111111111111,-0.6322222222222222,0.8776850584395073,4.034385858692218,-65.99374802569233
1589478756.2821116,-1.849740313202175,-3.2750649216994563,8.921298433989126,0.5222222222222223,-0.07111111111111111,-0.6322222222222222,0.06818064870242363,2.254057606216017,-67.32467281864805
1589478756.2921116,-1.9352173730238817,-3.396292885973764,8.936933652875883,0.525914059872183,-0.05634376051126808,-0.6322222222222222,1.1922195593676421,4.189215964513959,-68.59610977968381
1589478756.3021116,-1.78734325824817,-3.3016588281056616,8.748132182891899,0.5288888888888889,-0.04444444444444445,-0.6322222222222222,1.161433837830192,4.49597537041621,-69.63667385692564
1589478756.3121116,-1.7217027251924277,-3.300679564523958,8.904996186117467,0.5288888888888889,-0.04444444444444445,-0.6322222222222222,0.3252895083558699,2.4197632792455446,-71.48151567159005
1589478756.3221116,-1.5654972416877888,-3.1062238457333136,8.675086228318671,0.5288888888888889,-0.04444444444444445,-0.6322222222222222,1.1738761741464143,4.0469037324188655,-72.74545872471548
1589478756.3321116,-1.638859328088361,-3.283184019635774,8.785556310403015,0.5288888888888889,-0.04444444444444445,-0.6322222222222222,0.6991340864762989,4.376312156209594,-73.65202932217133
1589478756.3421116,-1.6916862263364556,-3.3001173580187335,8.643607168710378,0.5648381483025131,-0.0647930818483827,-0.6369702376164745,0.8466517318533793,3.629001963279005,-73.80923152433807
1589478756.3521116,-1.715004052567591,-3.3770170207838826,8.879046199270539,0.5877777777777777,-0.07777777777777778,-0.64,0.6186841457766457,4.625151971284664,-72.68113348868175
1589478756.3621116,-1.6169568329873292,-3.364637888658219,8.846522299377192,0.5877777777777777,-0.07777777777777778,-0.64,0.375,3.5389538143985493,-71.68478416493664
1589478756.3721116,-1.5130000941796948,-3.362333301940102,8.735333396119797,0.5877777777777777,-0.07777777777777778,-0.64,0.9333325485025429,4.442359083631569,-70.75555660199662
1589478756.3821115,-1.4775944214999701,-3.4506362602501945,8.76962231400012,0.5877777777777777,-0.07777777777777778,-0.64,0.9311628359370324,4.123383910935536,-70.61630229843779
1589478756.3921115,-1.418725302129292,-3.4194254747746022,8.821974870516017,0.6846299848668925,-0.18439659398512265,-0.5976780271543364,0.7667190197582966,4.3574956838672545,-70.6875
1589478756.4021115,-1.4329383142363836,-3.508577931250981,8.94857793125098,0.72,-0.22333333333333333,-0.5822222222222222,0.7911728927954795,4.213271072045205,-70.48163553602261
1589478756.4121115,-1.4778091160346156,-3.636741878483077,8.843145303792307,0.72,-0.22333333333333333,-0.5822222222222222,0.8472613950432695,4.486659530605772,-69.85357907435096
1589478756.4221115,-1.4266738838040876,-3.580010825706131,8.680669553521636,0.72,-0.22333333333333333,-0.5822222222222222,0.7833423547551094,3.775108257061313,-68.29177943443887
1589478756.4321115,-1.55005518465635,-3.7879172616061436,9.009255200092618,0.72,-0.22333333333333333,-0.5822222222222222,0.6276724038127581,4.108965577123452,-65.99931019179563
1589478756.4421115,-1.2668667348013254,-3.371594660720369,8.611951128867416,1.0345508102174459,-0.5041234544960271,-0.21003121117958984,1.9520405556071727,3.017823407352349,-62.45250898138685
1589478756.4521115,-1.1442132548382136,-3.167360235485359,8.500584979021594,1.1444444444444444,-0.6022222222222222,-0.08,2.0293409375480524,2.4341678931529116,-60.90417893152912
1589478756.4621115,-1.1800059178163258,-3.1644575951473906,8.993378703258497,1.1444444444444444,-0.6022222222222222,-0.08,-0.13907793024374004,2.7154339423752636,-57.54834809705219
1589478756.4721115,-1.208468869964259,-3.278468869964259,8.777825089352689,1.1444444444444444,-0.6022222222222222,-0.08,0.5667883775316591,5.081639125446763,-51.986009685390286
1589478756.4821115,-1.262712360867018,-3.4843353697659496,8.516274165202109,1.1444444444444444,-0.6022222222222222,-0.08,3.0829253494016235,5.045547744581136,-46.618329288364436
1589478756.4921114,-1.2339816680319704,-3.4256485929993135,8.050927447029911,1.2112910605825786,-0.19532977616401354,-0.2758896490308804,1.8961229990922577,2.3151069918303184,-40.33796798547612
1589478756.5021114,-1.5684484239740963,-4.013187405008921,9.46707989162757,1.272222222222222,0.17555555555555555,-0.4544444444444444,-2.1469491343421665,3.344939453512192,-30.17383780479746
1589478756.5121114,-1.7066542544900327,-4.273308508980065,9.606512755676405,1.272222222222222,0.17555555555555555,-0.4544444444444444,-1.4649002407384955,2.666356362250818,-19.755884237690296
1589478756.5221114,-1.5369892473118278,-4.079405439595193,8.840594560404808,1.272222222222222,0.17555555555555555,-0.4544444444444444,0.18378399746995572,0.7727703984819734,-5.692876344086022
1589478756.5321114,-1.4409913210829215,-4.115422565184404,8.821982642165842,1.272222222222222,0.17555555555555555,-0.4544444444444444,0.5539344269879162,0.842565091878088,7.183473972501341
1589478756.5421114,-1.324171761694867,-4.156310251670695,8.4925152850846,0.9086833499217972,0.15349984991389798,-0.5875392198682401,-0.026731124697852993,-1.310145030570169,18.68010628465804
1589478756.5521114,-1.272181263595952,-3.954531589898799,8.672749456161922,0.7411111111111112,0.14333333333333334,-0.6488888888888888,-1.6239433580819067,-5.0626906388915165,24.87183007424572
1589478756.5621114,-1.2247851420247633,-3.8741629382998646,8.724474040162313,0.7411111111111112,0.14333333333333334,-0.6488888888888888,-1.8365739777338466,-4.561017323899698,27.366760742898762
1589478756.5721114,-1.1071003125191494,-3.874959249954041,8.677479624977021,0.7411111111111112,0.14333333333333334,-0.6488888888888888,-0.6803878914149152,-2.1664968748085056,31.769984374042526
1589478756.5821114,-1.1027256637168141,-3.974088495575221,8.77533628318584,0.7411111111111112,0.14333333333333334,-0.6488888888888888,0.8636061946902656,-1.9936393805309733,33.14275442477876
1589478756.5921113,-1.128634053879658,-4.008559848362639,8.909888691724472,0.7241037981036368,0.14096346184868527,-0.6515375687834956,1.6003160792063236,-1.000463784481368,32.83463310614615
1589478756.6021113,-0.9431337912986588,-3.679452258932141,8.725770726565623,0.6055555555555555,0.12444444444444445,-0.67,-0.7730095772907353,-2.5422777414313233,28.85636789881147
1589478756.6121113,-1.0167106591103174,-3.7745617576275134,8.77835532955516,0.6055555555555555,0.12444444444444445,-0.67,-0.5688028879745362,-3.635279190280258,25.344839298191133
1589478756.6221113,-1.0116293256015363,-3.7141066385510415,8.782410663855105,0.6055555555555555,0.12444444444444445,-0.67,-0.7345167940655947,-2.9778165831984036,21.48841642504801
1589478756.6321113,-0.9763785371888046,-3.5540621617442403,8.76,0.6055555555555555,0.12444444444444445,-0.67,-1.278954693057059,-2.1240818772228236,18.45554352868409
1589478756.6421113,-1.0552669243909019,-3.7305338487818034,8.854045131709071,0.5833504550131359,0.12226747380303075,-0.6756601236676756,0.21023667176121552,-1.665554481704576,15.694345050795649
1589478756.6521113,-1.0471414022080092,-3.7275161934248584,8.867666109911598,0.5488888888888889,0.11888888888888888,-0.6844444444444444,0.6921848902106164,-1.2927598077158104,13.278172994663299
1589478756.6621113,-1.0744900335320418,-3.6841996553651266,8.665361168032787,0.5488888888888889,0.11888888888888888,-0.6844444444444444,-0.5625,-0.5543556725037257,9.86415593563711
1589478756.6721113,-1.186075234177529,-3.8464514050651735,8.75860187342023,0.5488888888888889,0.11888888888888888,-0.6844444444444444,0.15893405858155318,-0.09811914556177825,7.773863805322892
1589478756.6821113,-1.1388688669082363,-3.8086426402898836,8.825791793164234,0.5488888888888889,0.11888888888888888,-0.6844444444444444,0.14564562726471453,-0.6710961218293997,5.784221672705906
1589478756.6921113,-1.118477342807347,-3.7898682799302854,8.77456797157796,0.5457247396880726,0.11192776064709299,-0.6996323606083628,0.04346678509183538,-0.6717597868346964,3.103036181123475
1589478756.7021112,-1.2908643895435783,-4.011481725189927,8.860864389543579,0.5433333333333333,0.10666666666666667,-0.7111111111111111,0.2762345217443321,0.21142026081234672,-0.10339773882873748
1589478756.7121112,-1.2600704504862075,-3.932331811867434,8.659045445524905,0.5433333333333333,0.10666666666666667,-0.7111111111111111,0.6063020936693788,1.1478219884897798,-3.0825994741020044
1589478756.7221112,-1.1241379938576856,-3.6068978710114,9.020682681796886,0.5433333333333333,0.10666666666666667,-0.7111111111111111,0.6810372312737494,-1.9503913773359014,-6.9288526104835775
1589478756.7321112,-0.9617713273141508,-3.2914474727871066,8.860271031980425,0.5433333333333333,0.10666666666666667,-0.7111111111111111,1.6537507383343177,-3.1065764492447894,-9.484137414564172
1589478756.7421112,-0.9147570795607782,-3.1951284916201117,8.57127836640339,0.5474452364134507,0.10292857295746913,-0.7013920674671975,1.5479917164322865,0.3059815064534772,-11.425178193026392
1589478756.7521112,-1.098277095319546,-3.4262447519825843,8.752784947908568,0.5555555555555556,0.09555555555555556,-0.6822222222222222,-1.442378712486394,3.294919141657596,-14.771536308505675
1589478756.7621112,-1.122306755110329,-3.513753891972384,8.85927033978611,0.5555555555555556,0.09555555555555556,-0.6822222222222222,-1.0017006227155814,2.265847096250169,-16.948515974008394
1589478756.7721112,-1.219922208622331,-3.640077791377669,8.946497484020128,0.5555555555555556,0.09555555555555556,-0.6822222222222222,1.1802070583435333,1.8110414116687066,-18.591683666530667
1589478756.7821112,-1.0153274928805895,-3.354477946131606,8.427238973065803,0.5555555555555556,0.09555555555555556,-0.6822222222222222,2.3923121236494858,4.421459587835047,-19.954756418338732
1589478756.7921112,-0.7627079934747145,-3.1111876019575857,8.643086460032627,0.5489258655066159,0.09804168932390793,-0.6847083559905746,0.30493474714518776,1.854384176182708,-24.01305057096248
1589478756.8021111,-0.9007242540904716,-3.3530269489894127,8.751643407122234,0.5377777777777778,0.10222222222222224,-0.6888888888888889,0.22142935915944806,-0.3938983798524225,-30.522206849534808
1589478756.8121111,-1.0864700088479324,-3.497511727684012,8.148622560558255,0.5377777777777778,0.10222222222222224,-0.6888888888888889,3.858507161816998,6.802301923173236,-32.16775179045425
1589478756.8221111,-0.8676114123120698,-3.2639673933940863,8.709836966970432,0.5377777777777778,0.10222222222222224,-0.6888888888888889,1.9582540277617564,0.7315386242165567,-32.58223507132695
1589478756.8321111,-12.582544222961255,-19.5073123457042,8.919894109725991,0.5377777777777778,0.10222222222222224,-0.6888888888888889,-7.094751647522086,5.291946779425867,-52.89379985922102
1589478756.842111,-10.7913657800415,-14.047234484059612,3.647757026976042,0.5377777777777778,0.11963109685803519,-0.6738812383407743,-38.55171194114318,33.755046217694776,-113.56093189964157
1589478756.852111,-1.1520442857142854,1.456448571428571,5.876132857142858,0.5377777777777778,0.13444444444444445,-0.6611111111111111,-47.43305357142857,12.787776785714286,-171.7089107142857
1589478756.862111,0.85034398782344,-1.0762648401826485,15.37283003551497,0.5377777777777778,0.13444444444444445,-0.6611111111111111,-4.862855149670217,-40.110324708269914,-181.09693049213598
1589478756.872111,1.491500213604215,1.8382970997294343,11.280522618313002,0.5377777777777778,0.13444444444444445,-0.6611111111111111,76.1089589167893,3.4165341529406135,-173.40753459201594
1589478756.882111,0.23198113207547177,2.6510526315789473,8.411305858987092,0.5377777777777778,0.13444444444444445,-0.6611111111111111,75.93812065541212,41.818241062562066,-166.8373572492552
1589478756.892111,1.7332553461455142,-0.28584037384334476,13.230010831553864,0.5293735235560507,0.14789125119920773,-0.6611111111111111,-2.653322579147712,7.220346687091882,-149.3033918237242
1589478756.902111,0.16490563438490147,-1.175920650227304,8.193474583275933,0.5044444444444445,0.18777777777777774,-0.6611111111111111,-18.164760986361756,8.189871194379393,-125.85972413555587
1589478756.912111,-0.6761885708423104,-1.8845808966861601,8.692812147327382,0.5044444444444445,0.18777777777777774,-0.6611111111111111,15.001359392633631,16.99005463219452,-115.92924104852776
1589478756.922111,-0.7196184372821366,-2.7247018287123934,9.398044189413847,0.5044444444444445,0.18777777777777774,-0.6611111111111111,7.539967890277255,1.95362022041079,-99.06807730466026
1589478756.932111,-0.9575017442966784,-2.4110006977186713,8.704499651140665,0.5044444444444445,0.18777777777777774,-0.6611111111111111,-6.7000959363173145,4.7467201936697885,-76.007039294247
1589478756.942111,-0.7521554546146624,-2.6425152891618238,8.693832314055879,0.5008516253457508,0.2102328971446133,-0.6696440564705086,-0.18562216103737939,6.1770196284924,-56.53966141802218
1589478756.952111,-0.4223415170392085,-2.9458732136313666,8.74667961402223,0.4955555555555556,0.2433333333333333,-0.6822222222222222,4.058295163063393,3.447094479052156,-40.6056751557347
1589478756.962111,-0.28804973053732463,-2.8626832435124414,8.874633512975116,0.4955555555555556,0.2433333333333333,-0.6822222222222222,-1.2652161926613663,0.985078393184284,-31.972594623196912
1589478756.972111,-0.18384979862591802,-2.81974966437653,8.88874832188265,0.4955555555555556,0.2433333333333333,-0.6822222222222222,-2.5105721393034823,0.045965608465608376,-28.128425333649215
1589478756.982111,-0.25461746753635334,-2.835465412004069,8.823769523068638,0.4955555555555556,0.2433333333333333,-0.6822222222222222,3.1586408278977918,3.0283411749745675,-26.483583044102687
1589478756.992111,-0.43658548261624086,-2.9421363173957276,9.081034647836754,0.4955555555555556,0.2433333333333333,-0.6822222222222222,2.021340733648495,2.361648016276704,-26.091410597809826
1589478757.002111,-0.5189309576837416,-2.687601018135539,8.870808145084315,0.4622222222222222,0.2577777777777778,-0.6466666666666666,-0.6817133312122176,0.7857739420935411,-20.1152163538021
1589478757.012111,-1.0005669673311606,-4.947931478814523,7.989046464033958,0.4622222222222222,0.2577777777777778,-0.6466666666666666,-0.938869097248541,-0.47168953232774946,-18.40886739179868
1589478757.022111,-0.3120371768677266,-3.205634494092564,7.19089277782713,0.4622222222222222,0.2577777777777778,-0.6466666666666666,-7.510517067158213,-4.904950808385893,-45.127079261792666
1589478757.032111,0.4313577312405229,-0.27115118232859337,9.141047907872627,0.4622222222222222,0.2577777777777778,-0.6466666666666666,-3.4061385803860507,4.074658825457973,-68.41060048768493
1589478757.042111,-0.2000100364111661,-2.134288581831762,10.553718840444402,0.46476063029699477,0.26221999190862977,-0.648570472722746,12.240856362617869,15.78858183176174,-60.65399910139109
1589478757.052111,-0.6272493550395873,-5.514520060492839,6.8212721288141624,0.4711111111111111,0.2733333333333333,-0.6533333333333333,3.838932256916644,1.3529601458944933,-43.93245707677253
1589478757.062111,-0.60252877070619,-7.2292122929381,7.691328683522232,0.4711111111111111,0.2733333333333333,-0.6533333333333333,-8.96149193548387,0.9825877288578901,-31.755190170008717
1589478757.072111,0.16437308548239293,-2.8446791464851424,8.568005236287473,0.4711111111111111,0.2733333333333333,-0.6533333333333333,2.168785181306454,1.973852925775625,-30.27000752716324
1589478757.082111,-0.5944160547228649,-5.210939543305503,9.372755256010462,0.4711111111111111,0.2733333333333333,-0.6533333333333333,5.11855572879992,2.9294022231163868,-26.772011115581932
1589478757.0921109,-0.405257282741738,-3.8401889840881274,8.16995446756426,0.4613275397796817,0.28153890928872566,-0.6533333333333333,0.7162454100367197,0.8901055691554469,-18.35077264381885
1589478757.1021109,-0.014275914816319702,-4.315379191663281,8.83337938287244,0.43666666666666665,0.3022222222222222,-0.6533333333333333,-2.2305997394775208,-0.8775843112885107,-7.1974085183680305
1589478757.1121109,-0.1357807796784377,-4.14536304236106,8.841869906761618,0.43666666666666665,0.3022222222222222,-0.6533333333333333,1.6728167902503488,1.5948627119888408,-1.1698204977608104
1589478757.1221108,-0.3454122383252818,-4.002502415458937,8.621251207729468,0.43666666666666665,0.3022222222222222,-0.6533333333333333,1.5904614533011272,3.0741696859903382,0.30793830515297904
1589478757.1321108,0.030495022948083678,-4.237412827084699,8.752935864576504,0.43666666666666665,0.3022222222222222,-0.6533333333333333,-1.2832542319842641,-1.491282708469929,-0.125
1589478757.1421108,-0.11325669070751626,-4.2311627525779345,8.78418623711033,0.43666666666666665,0.3022222222222222,-0.6533333333333333,-0.30668009030219956,-0.8662752577934076,-0.125
1589478757.1521108,-0.14148789309478452,-4.086288136061183,8.807776029155969,0.4444444444444444,0.31555555555555553,-0.64,1.0764981777520086,0.9676982384936084,0.0625
1589478757.1621108,-0.08279393649915784,-4.19,8.750221222252947,0.4444444444444444,0.31555555555555553,-0.64,-0.5261931546796048,-0.2800252645868423,0.0625
1589478757.1721108,-0.10337407371764026,-4.19831296314118,8.690660186700027,0.4444444444444444,0.31555555555555553,-0.64,-0.4853298527571937,-0.021087960735251668,0.036521990183812914
1589478757.1821108,-0.0736861868573983,-4.203686186857398,8.780529280286096,0.4444444444444444,0.31555555555555553,-0.64,0.12169199821189093,0.04607733571747877,-0.019730666070630308
1589478757.1921108,-0.06,-4.185831725640619,8.765835584103135,0.44324027629617857,0.31555555555555553,-0.6411115398291685,0.26042068589845435,-0.09373794230463697,-0.057289657050772824
1589478757.2021108,-0.06368969836487355,-4.142108399065641,8.825783201868717,0.43,0.31555555555555553,-0.6533333333333333,0.375,0.24011687937980297,0.0
1589478757.2121108,-0.10831613747808916,-4.186195389291974,8.731413832124076,0.43,0.31555555555555553,-0.6533333333333333,0.12331231001353482,0.0237788169251592,-0.0193605915374204
1589478757.2221107,-0.0770504616030214,-4.211366974402014,8.68147476919849,0.43,0.31555555555555553,-0.6533333333333333,-0.4197391024968527,-0.13354359001258917,-0.04473910249685271
1589478757.2321107,-0.1113852245329988,-4.2256420408883315,8.708817060979673,0.43,0.31555555555555553,-0.6533333333333333,-0.2134729599937276,-0.27660510222082835,0.017947448889585826
1589478757.2421107,-0.09313452133340828,-4.19,8.820596435999775,0.4280844591851394,0.3145107151110861,-0.6568161348148981,0.21688613750070268,-0.1875,0.0625
1589478757.2521107,-0.11,-4.1780661603038185,8.79088421946832,0.4177777777777778,0.3088888888888889,-0.6755555555555556,0.3190601264241455,-0.09426687737357586,0.04385337547471517
1589478757.2621107,-0.11217166494312306,-4.1608583247156155,8.79656670113754,0.4177777777777778,0.3088888888888889,-0.6755555555555556,0.11963547052740434,0.09785418821096173,0.013572905894519132
1589478757.2721107,-0.1187435367114788,-4.193717683557394,8.665129265770425,0.4177777777777778,0.3088888888888889,-0.6755555555555556,-0.08573552223371256,0.015705791106514988,0.054647104446742506
1589478757.2821107,-0.08506284712072494,-4.244937152879275,8.748734288219818,0.4177777777777778,0.3088888888888889,-0.6755555555555556,-0.4525358082432037,-0.15585720549546916,0.0625
1589478757.2921107,-0.1108743211434022,-4.219125678856598,8.74228141971415,0.4177777777777778,0.3088888888888889,-0.6755555555555556,-0.21055323928060432,0.005464507146263814,0.0625
1589478757.3021107,-0.0806589409575368,-4.18,8.81802317712739,0.4444444444444444,0.31555555555555553,-0.6533333333333333,0.495881619015395,0.06455919049230249,0.12294080950769751
1589478757.3121107,-0.09839832515648791,-4.18,8.764805024530537,0.4444444444444444,0.31555555555555553,-0.6533333333333333,0.3850104677719506,0.11999476611402471,0.06750523388597529
1589478757.3221107,-0.1,-4.192232254380643,8.682232254380644,0.4444444444444444,0.31555555555555553,-0.6533333333333333,-0.23604841012098068,-0.02064523036294208,0.0970968202419614
1589478757.3321106,-0.1,-4.199716462653011,8.68971646265301,0.4444444444444444,0.31555555555555553,-0.6533333333333333,-0.189272108418686,0.11968367474394204,0.00354421683737198
1589478757.3421106,-0.08139441414099988,-4.208605585859,8.755577656564,0.44390217227850004,0.3150907508418889,-0.6538756054992777,-0.04506982323750154,-0.125,0.05378491161875077
1589478757.3521106,-0.09859615305745807,-4.191403846942542,8.824384612229832,0.43721260714432186,0.30935683786973617,-0.6605651706334559,0.1699519132182258,-0.125,-0.053725956609112904
