time,acc_x,acc_y,acc_z,mag_x,mag_y,mag_z,gyr_x,gyr_y,gyr_z
1589478763.7865286,0.49,-4.14,8.74,0.4,0.3055555555555556,-0.62,0.0625,0.5,-2.6875
1589478763.7965286,0.3949006232364888,-4.322430002170475,8.688008123779108,0.4,0.3055555555555556,-0.62,0.7263437567827353,0.8055273479892097,-2.6583671824129484
1589478763.8065286,0.3594891967521446,-4.325036010826184,8.708467590256435,0.4,0.3055555555555556,-0.62,0.8968975067663655,0.653282547364558,-1.6473476420936741
1589478763.8165286,0.40978978779840847,-4.223683687002652,8.775368700265252,0.4,0.3055555555555556,-0.62,0.9578953912466843,0.6657907824933686,-0.6901276525198939
1589478763.8265285,0.443198913836427,-4.1231989138364264,8.823360217232715,0.4063470769951276,0.30368876820404744,-0.6121594931236659,1.0414986422955337,0.875,0.0005040731133987147
1589478763.8365285,0.42886254058840895,-4.127725081176818,8.82371248647053,0.4188888888888889,0.3,-0.5966666666666667,0.41054560661222084,0.3641395257305913,0.007109121322444165
1589478763.8465285,0.4347372650477254,-4.144737265047725,8.793686325238626,0.4188888888888889,0.3,-0.5966666666666667,-0.003284186903431921,-0.003284186903431921,0.003284186903431921
1589478763.8565285,0.43,-4.134654736842105,8.753964210526316,0.4188888888888889,0.3,-0.5966666666666667,-0.1627236842105263,-0.0625,0.0290921052631579
1589478763.8665285,0.43,-4.13,8.75526767171756,0.4188888888888889,0.3,-0.5966666666666667,-0.1227694023536651,0.09653824705791861,-0.031807649411583726
1589478763.8765285,0.42535387578237843,-4.125353875782379,8.77,0.4064992243085648,0.2969025838549189,-0.6075076231744503,0.08711482908040444,0.3080765527202696,0.08269138180067406
1589478763.8865285,0.44969632131164444,-4.137817792786987,8.758121471475341,0.3922222222222223,0.2933333333333333,-0.62,0.11325919672088887,0.375,0.06439799180222217
1589478763.8965285,0.4552125717511998,-4.1352125717512,8.6908502870048,0.3922222222222223,0.2933333333333333,-0.62,0.24734285311000284,0.40580714218500047,-0.0008857156299990621
1589478763.9065285,0.5725650594127467,-4.208376706275164,8.83621231464205,0.3922222222222223,0.2933333333333333,-0.62,0.038577367507938054,-0.1762271269108645,0.031813643654456776
1589478763.9165285,0.5751481048229868,-4.21128164790986,8.93644050932462,0.3922222222222223,0.2933333333333333,-0.62,-0.042306179661974086,-0.2358307114140885,0.044359176045070114
1589478763.9265285,0.36084533365603105,-4.070292982668441,8.755975017815606,0.3922222222222223,0.2933333333333333,-0.62,0.4864013149933444,0.6805956126551302,0.11485350866577924
1589478763.9365284,0.42818839346494214,-4.139094196732471,8.79455794758339,0.4188888888888889,0.2933333333333333,-0.6055555555555555,0.3011322540844112,1.1079257785908783,0.22726450816882232
1589478763.9465284,0.4771979865771812,-4.161459731543624,8.884395973154362,0.4188888888888889,0.2933333333333333,-0.6055555555555555,0.25,0.7945679530201343,0.13391359060402686
1589478763.9565284,0.5025336095986123,-4.181497132944634,8.818742832361586,0.4188888888888889,0.2933333333333333,-0.6055555555555555,-0.35058786681443643,-0.04384607044764621,0.2191098877270756
1589478763.9665284,0.5354528491459739,-4.191362545879555,8.955452849145974,0.4188888888888889,0.2933333333333333,-0.6055555555555555,-0.16855353810822438,0.41289292378355125,0.3873118681949599
1589478763.9765284,0.33929939448306795,-4.069474545862301,8.74292464678179,0.41670558919538514,0.2933333333333333,-0.6102860382248138,0.44406817672123794,1.7814153958286612,0.5010946961202063
1589478763.9865284,0.4159696612169223,-4.1259696612169225,8.745666273386144,0.4122222222222222,0.2933333333333333,-0.62,-0.2621207652115287,0.2602245912691724,0.4253792347884713
1589478763.9965284,0.51055833467807,-4.164692593190254,8.724692593190253,0.4122222222222222,0.2933333333333333,-0.62,-0.46682870743908345,-0.7810735033080523,0.3952517347103437
1589478764.0065284,0.42838715197144883,-4.127552861228581,8.637397149771443,0.4122222222222222,0.2933333333333333,-0.62,-0.23470538267862817,-0.205089344642988,0.24283928964286589
1589478764.0165284,0.35689603878574183,-4.096259710208804,8.64066222246708,0.4122222222222222,0.2933333333333333,-0.62,-0.14853864800837419,0.21469202798743875,0.07808454079665032
1589478764.0265284,0.43,-4.13,8.766314573093323,0.4093557790725852,0.2957902846044508,-0.6220474593925979,-0.40786432733309463,-0.22036432733309463,-0.08553391816672634
1589478764.0365283,0.3323802361092119,-4.0632075299694606,8.662380236109213,0.4044444444444445,0.3,-0.6255555555555555,-0.5068941155020739,-0.41572940881535164,-0.028664706686722274
1589478764.0465283,0.3055075412024602,-4.045855278841722,8.64533367238283,0.4044444444444445,0.3,-0.6255555555555555,-1.09800881263807,-1.3027198788957581,0.0010866801226935355
1589478764.0565283,0.43882710065002145,-4.139178970455014,8.798651165747525,0.4044444444444445,0.3,-0.6255555555555555,-1.806268972203239,-2.427603661734556,-0.12390040685939513
1589478764.0665283,0.37745199634257853,-4.081548629268997,8.700532732318452,0.4044444444444445,0.3,-0.6255555555555555,0.45826448932449987,1.1697552896260768,0.1875
1589478764.0765283,0.6331240475464798,-4.243025714239882,9.016758690386435,0.4044444444444445,0.3,-0.6255555555555555,-0.6350699401658673,-0.6805029756653136,0.1875
1589478764.0865283,0.4040606200832948,-4.11270708005553,8.816626272559,0.4122222222222222,0.2877777777777778,-0.62,-0.43585868810735773,0.5936867335724201,0.20101009370661732
1589478764.0965283,0.44678860929019526,-4.146107234322502,8.782384812386928,0.4122222222222222,0.2877777777777778,-0.62,-1.6535883790324475,-0.5053232419351049,0.3093060548389371
1589478764.1065283,0.2714934943192471,-3.992463909407927,8.628582249053208,0.4122222222222222,0.2877777777777778,-0.62,-1.7887130188608498,0.05036981139150323,0.8092307548089541
1589478764.1165283,0.13225778130221758,-3.771817383669886,8.662962417513947,0.4122222222222222,0.2877777777777778,-0.62,-2.0967777337222806,-0.05114135206321335,1.816903976323317
1589478764.1265283,-0.011484204169183027,-3.4623357421020846,8.800583935525522,0.4097053249755305,0.291732902022579,-0.6171235460037809,-2.6395983881380287,-0.9943733209771133,4.728254701264083
1589478764.1365283,-0.13660483639494836,-3.2660483639494835,8.797346799655568,0.4044444444444445,0.3,-0.6111111111111112,-1.7098790901262917,-0.10725818025258324,9.406301575057405
1589478764.1465282,-0.13874739815640796,-3.1737578055307765,8.826263009217959,0.4044444444444445,0.3,-0.6111111111111112,-1.7383219038061255,-0.5195068577163247,15.620240020071364
1589478764.1565282,-0.10500819329756128,-3.0500163865951224,8.796245220576422,0.4044444444444445,0.3,-0.6111111111111112,-1.1875682774796774,-0.6484332326575202,21.983888522957297
1589478764.1665282,-0.09411950389996539,-2.9870193267213816,8.803360283485734,0.4044444444444445,0.3,-0.6111111111111112,-0.2762522147322974,-0.7733743355803108,30.64534244343523
1589478764.1765282,-0.17447797382566022,-3.0810440523486795,8.791345816779621,0.4079273129755135,0.3024877632364779,-0.6086233478746332,0.03451266358962374,-1.6586454194905351,40.35485985335359
1589478764.1865282,-0.10628969047428617,-2.7152691354075023,8.876068943453571,0.4122222222222222,0.3055555555555556,-0.6055555555555555,-0.6622410621450852,-3.5463788690714226,50.218532552187476
1589478764.1965282,-0.0287744695815262,-2.3658085218614464,8.837868069393975,0.4122222222222222,0.3055555555555556,-0.6055555555555555,-1.300398912788653,-4.405638260461845,57.15853761282382
1589478764.2065282,-0.05043832730270691,-2.4865341455594745,8.756534145559474,0.4122222222222222,0.3055555555555556,-0.6055555555555555,-0.5378440892227362,-3.5704638620436953,62.34862364310906
1589478764.2165282,-0.0454005544005544,-2.5579585585585587,8.81919889119889,0.4122222222222222,0.3055555555555556,-0.6055555555555555,-0.21899168399168398,-3.445735446985447,65.72270356895356
1589478764.2265282,-0.016334026334026336,-2.6335315315315313,8.877331947331948,0.4122222222222222,0.3055555555555556,-0.6055555555555555,-0.654989604989605,-4.208731808731809,68.1570252945253
1589478764.2365282,-0.02,-2.787648532805803,8.902206066600726,0.4188888888888889,0.2855555555555556,-0.6111111111111112,-0.625,-4.284015413781734,72.60022873392681
1589478764.2465281,-0.02696605267163952,-2.825618815649262,8.871686710305983,0.4188888888888889,0.2855555555555556,-0.6111111111111112,-0.668537829197747,-4.69030674379662,75.17483635256508
1589478764.2565281,-0.04890487579077303,-2.787420729825644,8.795547562104614,0.4188888888888889,0.2855555555555556,-0.6111111111111112,-0.712896350871779,-4.784672263153834,76.66012189476933
1589478764.2665281,-0.09744252430180528,-2.8278687702515044,8.771278737849096,0.4188888888888889,0.2855555555555556,-0.6111111111111112,-0.510656148742478,-4.632992111556859,77.87356310754514
1589478764.2765281,-0.18439579555127872,-2.884138939264962,8.911903105222251,0.42361029892544755,0.2827878324306764,-0.6124135690522308,-0.4375,-4.990842092601502,80.0888425737444
1589478764.286528,-0.20768107627965504,-2.853091898293793,8.710097338909655,0.4486204152633332,0.2681267297498468,-0.6193129114902681,-0.4375,-4.942331091084052,81.88374962989008
1589478764.296528,-0.31773043003199875,-2.9270744556309998,9.024060329353,0.4511111111111111,0.26666666666666666,-0.62,-0.5436617107625068,-5.239361390774994,86.05706850464372
1589478764.306528,-0.448008074399827,-2.946996972100065,8.92198183260039,0.4511111111111111,0.26666666666666666,-0.62,0.06243691875135174,-5.843781540624324,89.38176095811406
1589478764.316528,-0.52,-2.9023630848499957,8.696507105459984,0.4511111111111111,0.26666666666666666,-0.62,-0.30158470456245323,-6.632061310562619,95.78937609075044
1589478764.326528,-0.5379822660755359,-2.945525517517251,8.723858128604286,0.4535087465878492,0.252280853806238,-0.6219980295639485,-0.4769679822660755,-6.798253691789727,101.32289409646988
1589478764.336528,-0.5989131955484897,-2.9547094859565446,8.782426497085321,0.4577777777777778,0.22666666666666666,-0.6255555555555555,-1.2567925278219396,-6.371155272919979,107.47419713831478
1589478764.346528,-0.6741674903783466,-2.8972931081621063,8.713544343729627,0.4577777777777778,0.22666666666666666,-0.6255555555555555,-1.0855039012387222,-6.868914172748113,111.84031209909777
1589478764.356528,-0.7419593970392736,-2.9924771861832764,8.914436583222551,0.4577777777777778,0.22666666666666666,-0.6255555555555555,-1.3260150740181609,-6.268020098690881,116.45735928663167
1589478764.366528,-0.7495526632396369,-2.910686864267746,8.852060592803237,0.4577777777777778,0.22666666666666666,-0.6255555555555555,-1.838059170950454,-7.018470414524773,121.23172782456524
1589478764.376528,-0.8806224902735895,-3.0024357431915125,9.127307229574539,0.4577777777777778,0.22666666666666666,-0.6255555555555555,-1.6742218871580132,-7.100389056420993,124.75422942610271
1589478764.386528,-0.9,-2.9736554438128553,8.756388281591605,0.4922222222222222,0.18666666666666668,-0.6255555555555555,-2.4885220813292523,-5.9320616528202885,133.46644075207695
1589478764.396528,-0.9153368228849665,-3.200673645769933,8.933315885575167,0.4922222222222222,0.18666666666666668,-0.6255555555555555,-1.432318928788801,-8.221825928180158,141.38180614729154
1589478764.406528,-0.9364114801537597,-3.221291841230078,8.835119638923683,0.4922222222222222,0.18666666666666668,-0.6255555555555555,-1.2885762644149787,-7.964712996156006,147.28618591543213
1589478764.416528,-0.935191602940242,-3.177787404410363,8.887787404410364,0.4922222222222222,0.18666666666666668,-0.6255555555555555,-0.7686187959412799,-8.481922702141631,151.93193938398966
1589478764.426528,-0.9675112733519433,-3.2150096628730944,8.912501610478849,0.4983372700594088,0.17582635459165416,-0.6294469496337651,-1.0156350654928066,-9.531270130985613,156.00056366759716
1589478764.436528,-0.9993501357572896,-3.218700271514579,8.655681737693307,0.5166666666666667,0.14333333333333334,-0.6411111111111111,-0.8301890272695077,-9.728249321213552,159.76074253334906
1589478764.446528,-1.000910425375754,-3.1831828190318157,8.289659507929922,0.5166666666666667,0.14333333333333334,-0.6411111111111111,-0.9226034719341354,-9.585214762102307,161.6285620831605
1589478764.456528,-1.1079864058461242,-3.263489804384593,8.323120751826913,0.5166666666666667,0.14333333333333334,-0.6411111111111111,-2.386532892427482,-8.581377445192583,162.50691973545648
1589478764.466528,-1.2576171247648327,-3.418574312852751,8.97620153260221,0.5166666666666667,0.14333333333333334,-0.6411111111111111,-1.7976701234341301,-9.744080668104438,163.40472284678566
1589478764.476528,-1.3169596031183557,-3.3452870304748408,8.792246633593196,0.5166666666666667,0.13010315772895503,-0.6458540042523033,-0.9796243798724309,-9.313873139617293,164.32928773919207
1589478764.486528,-1.3796496,-3.25392992,8.824280320000002,0.5166666666666667,0.08444444444444445,-0.6622222222222223,-1.352628,-9.901752,165.875977
1589478764.496528,-1.3125408,-3.24050816,8.877967360000001,0.5166666666666667,0.08444444444444445,-0.6622222222222223,-1.855944,-10.237296,167.260096
1589478764.506528,-1.3372193480628598,-3.279251594834293,8.800374202582853,0.5166666666666667,0.08444444444444445,-0.6622222222222223,-1.4745969153570873,-9.472258149214252,166.278065193714
1589478764.516528,-1.3657771801384533,-3.3306120822750134,8.775777180138453,0.5166666666666667,0.08444444444444445,-0.6622222222222223,-1.009026843966333,-9.1875,163.67954703919517
1589478764.526528,-1.4485968560768243,-3.213820824923033,8.857641649846066,0.5180464089999842,0.07733346472657746,-0.6636019645555398,-1.1429101168267173,-9.175559922115522,159.0908669235631
1589478764.5365279,-1.5255611964034497,-3.2480271984015334,8.926054396803066,0.530398710533887,0.013671602974924271,-0.6759542660894425,-1.303252492507187,-9.068665004995209,154.86851769731075
1589478764.5465279,-1.6099216912855872,-3.173620465286181,8.863463847857355,0.5311111111111111,0.01,-0.6766666666666666,-1.2701807607132258,-8.478840380356614,148.57424630716193
1589478764.5565279,-1.6424147151929844,-3.0801364556912247,8.83,0.5311111111111111,0.01,-0.6766666666666666,-1.4219816060087693,-8.578018393991231,144.21239972276294
1589478764.5665278,-1.6980470829068577,-3.028548618219038,8.837598771750256,0.5311111111111111,0.01,-0.6766666666666666,-1.3512538382804504,-8.524078812691915,139.62633060388947
1589478764.5765278,-1.8658921654379608,-3.083299075346745,8.914107834562039,0.5311111111111111,-0.0014106515612201005,-0.6826002054785011,-1.0864890509808822,-7.3956192209171565,133.92506325752842
1589478764.5865278,-1.837308934337998,-2.9419268030139936,8.923654467169,0.5311111111111111,-0.045555555555555564,-0.7055555555555556,-0.7788616792249731,-6.452553148546825,128.96106364370291
1589478764.5965278,-1.8185918694838192,-2.8531265044129444,8.875632522064723,0.5311111111111111,-0.045555555555555564,-0.7055555555555556,-0.566378042257288,-6.070256084514576,125.28535370419898
1589478764.6065278,-1.8806915183246073,-2.826897172774869,8.790467015706808,0.5311111111111111,-0.045555555555555564,-0.7055555555555556,-1.3024528795811519,-7.499298429319372,119.55806544502617
1589478764.6165278,-1.95,-2.8420955551403773,9.046825925233962,0.5311111111111111,-0.045555555555555564,-0.7055555555555556,-1.6216296261698115,-7.888964493775158,114.41602620717768
1589478764.6265278,-1.95,-2.777981045229886,8.939968408716476,0.5311111111111111,-0.045555555555555564,-0.7055555555555556,-1.0873420435823835,-5.974433989503542,110.18624951169387
1589478764.6365278,-1.9514629341238718,-2.717915830159296,8.995410811115072,0.5155555555555555,-0.10444444444444444,-0.7122222222222222,-0.9010521230087998,-6.6132263542038014,100.52830600221401
1589478764.6465278,-2.038029344991275,-2.7021764827288592,8.885235379102012,0.5155555555555555,-0.10444444444444444,-0.7122222222222222,-1.0977939658892621,-5.580331679081374,94.13419610859899
1589478764.6565278,-2.1575669697714424,-2.714092792191834,8.817876277077556,0.5155555555555555,-0.10444444444444444,-0.7122222222222222,-0.839046536530562,-4.651546536530562,82.87648443808588
1589478764.6665277,-2.2606463504546572,-2.692004353474002,8.84732752870133,0.5155555555555555,-0.10444444444444444,-0.7122222222222222,-0.4709058912333673,-4.283405891233367,76.57207588737141
1589478764.6765277,-2.2564057363110757,-2.6658434417866457,8.91685409817481,0.5143321492902039,-0.10724080162239101,-0.7134456284875739,-0.7205071703888448,-3.7240215111665345,66.82380115633148
1589478764.6865277,-2.157075756231704,-2.59,8.916245453739023,0.5077777777777778,-0.12222222222222222,-0.72,-0.4609659141311097,-3.1315435664862945,57.88606072030515
1589478764.6965277,-2.2321178615675916,-2.564585661188901,8.928232076486127,0.5077777777777778,-0.12222222222222222,-0.72,-0.21397326959489468,-2.6404237476331844,49.979974111129295
1589478764.7065277,-2.26675956054052,-2.485740917965012,8.825740917965012,0.5077777777777778,-0.12222222222222222,-0.72,-0.39120458982505835,-2.0787045898250582,42.48378344753665
1589478764.7165277,-2.4032352715997396,-2.566020747999847,8.906020747999847,0.5077777777777778,-0.12222222222222222,-0.72,-0.7926037399992344,-2.4801037399992345,36.6634957700111
1589478764.7265277,-2.41,-2.51032930845225,8.80060373216246,0.5077777777777778,-0.12222222222222222,-0.72,-0.19093029637760706,-1.0082327113062568,29.475576289791437
1589478764.7365277,-2.47,-2.5212109439576786,8.89121094395768,0.5066666666666667,-0.16111111111111112,-0.7622222222222222,-0.32623290006612665,-0.8626709993387337,21.001709993387337
1589478764.7465277,-2.4803801306613007,-2.496920087107534,8.858846652148744,0.5066666666666667,-0.16111111111111112,-0.7622222222222222,-0.4326673925627808,-0.3605831518593048,15.454616561457673
1589478764.7565277,-2.526798850004957,-2.526563894121146,8.84218796470705,0.5066666666666667,-0.16111111111111112,-0.7622222222222222,-0.8994126102904729,-0.23779369485476357,9.262757757509666
1589478764.7665277,-2.3906316132182974,-2.428420966954257,8.817579358619568,0.5066666666666667,-0.16111111111111112,-0.7622222222222222,-0.9684193390851376,-0.1914475826143578,4.777622904118509
1589478764.7765276,-2.41,-2.3805247966413012,9.047813347327912,0.5063848314333752,-0.16145125708232505,-0.7620375715521347,-0.0005466631680223913,-0.30102007347152976,-0.16107976908947783
1589478764.7865276,-2.4190646496919115,-2.447769699735924,8.82460404916376,0.4744444444444445,-0.2,-0.7411111111111112,-0.046313125550158124,1.1214015583738142,-4.759886545170019
1589478764.7965276,-2.4669244938545303,-2.4887924233038827,8.954509340462296,0.4744444444444445,-0.2,-0.7411111111111112,0.03915088188308935,1.76238161412317,-7.452002779317315
1589478764.8065276,-2.519022527231646,-2.510977472768354,8.838045054463292,0.4744444444444445,-0.2,-0.7411111111111112,0.6400343135601794,2.0883447711867267,-12.87877069773716
1589478764.8165276,-2.511950224260614,-2.5180497757393856,8.82390044852123,0.4744444444444445,-0.2,-0.7411111111111112,-0.15559977068087538,1.8231334097730416,-15.619288099011904
1589478764.8265276,-2.4514945591114823,-2.480996372740988,8.927259974962283,0.4744444444444445,-0.2,-0.7411111111111112,-0.25311366481558756,2.4813180111064748,-19.056499374057072
1589478764.8365276,-2.319473898765712,-2.368120484656324,8.874060242328161,0.4744444444444445,-0.22900580027428627,-0.7877275758376426,0.27443522817347976,1.7424824481938623,-21.805446721775564
1589478764.8465276,-2.6889948965887727,-2.522998298862924,8.848994896588772,0.4744444444444445,-0.2311111111111111,-0.7911111111111111,0.11254252842689587,2.1124362073596563,-24.78737241471931
1589478764.8565276,-2.734058554928821,-2.538019518309607,8.89405855492882,0.4744444444444445,-0.2311111111111111,-0.7911111111111111,-0.2629879577401737,2.6757319366102603,-25.91396387322052
1589478764.8665276,-2.610642950074762,-2.50324213060955,8.957400819465212,0.4744444444444445,-0.2311111111111111,-0.7911111111111111,0.029240781016369885,3.414757170320601,-23.755557362564808
1589478764.8765275,-2.464037516748548,-2.3973604287628403,8.916677087985708,0.4744444444444445,-0.2311111111111111,-0.7911111111111111,0.4873827601607861,3.058424519874944,-20.904896158999552
1589478764.8865275,-2.6662098198516424,-2.463744259978806,8.947350759448957,0.4755555555555556,-0.25222222222222224,-0.76,-1.468606499470152,2.1712292476156834,-16.86045125397386
1589478764.8965275,-2.7628909768973697,-2.473840751683053,9.291982854652007,0.4755555555555556,-0.25222222222222224,-0.76,-1.8193956749164528,3.8973458613842205,-13.560141909236208
1589478764.9065275,-2.540014409221902,-2.395341018251681,8.265384245917387,0.4755555555555556,-0.25222222222222224,-0.76,-1.0249459654178674,2.474963976945245,-9.866294428434198
1589478764.9165275,-2.6608876080691646,-2.4598067243035544,8.692469548511047,0.4755555555555556,-0.25222222222222224,-0.76,-0.571671469740634,2.172780979827089,-6.74373679154659
1589478764.9265275,-2.604964774343299,-2.4180525360838225,8.788859702175655,0.4755555555555556,-0.25222222222222224,-0.76,-1.2936418098304918,1.5478059564869149,-3.291880526995439
1589478764.9365275,-2.5707516564839517,-2.4837582824197573,9.065937096635402,0.47709271529510755,-0.2652880800084139,-0.7661486389582078,-2.004697853024697,0.0874171758024267,2.5497725023664057
1589478764.9465275,-2.58,-2.4743863436475575,8.77680099144479,0.4777777777777778,-0.27111111111111114,-0.7688888888888888,-0.28112506996082187,2.4056828176221314,6.794390141520749
1589478764.9565275,-2.5512947628777285,-2.497842061870452,9.06885220633043,0.4777777777777778,-0.27111111111111114,-0.7688888888888888,-0.8156567014374305,0.6348711330967487,9.731577320141952
1589478764.9665275,-2.4374820475050636,-2.4099856380040507,8.707438961517216,0.4777777777777778,-0.27111111111111114,-0.7688888888888888,-1.578237203093353,-0.0625897624746824,12.250388970723623
1589478764.9765275,-2.375665847103894,-2.4205569214935103,8.86389845045457,0.4777777777777778,-0.27111111111111114,-0.7688888888888888,-0.13952698839270417,1.4736691634741836,14.684776859740408
1589478764.9865274,-2.3551942011983074,-2.3559710059915364,8.537646331755143,0.42513493759398147,-0.3188186850276765,-0.7466801906863498,-0.7216305463610843,0.7182969686177567,14.322210059915363
1589478764.9965274,-2.6419926478947966,-2.5060147042104064,9.26463049986736,0.4066666666666667,-0.33555555555555555,-0.7388888888888889,-0.22174863569181794,-1.1779297097055368,13.762683802630082
1589478765.0065274,-2.67378330238375,-2.442433395232501,8.700346382688444,0.4066666666666667,-0.33555555555555555,-0.7388888888888889,-0.7681505097206958,-2.022368969568348,12.96791744040626
1589478765.0165274,-2.7617405504587156,-2.504449908256881,9.00903119266055,0.4056632008154944,-0.33284619775739044,-0.731864627930683,-0.7899220183486239,-1.9209770642201835,13.021756880733944
1589478765.0265274,-2.8284388990825686,-2.5865401834862385,9.060337614678899,0.3999624872579001,-0.31745427115188585,-0.691959633027523,-0.6616559633027523,-1.472045871559633,13.85548623853211
1589478765.0365274,-2.8778876708680987,-2.6309890378128884,9.080989037812888,0.3955555555555556,-0.3055555555555556,-0.6611111111111111,-0.5294948573140422,-1.0523886860908929,14.539606171223149
1589478765.0465274,-2.868580241434404,-2.5472221729096396,8.99722217290964,0.3955555555555556,-0.3055555555555556,-0.6611111111111111,-0.3840662724125688,-0.7324457993076513,14.714120473104918
1589478765.0565274,-2.8492292522596547,-2.4646146261298276,8.905382556638102,0.3955555555555556,-0.3055555555555556,-0.6611111111111111,-0.32693391243103653,-0.5432841295926751,14.884616739053879
1589478765.0665274,-2.7143466598793955,-2.3969163599342154,8.741820620252174,0.3955555555555556,-0.3055555555555556,-0.6611111111111111,-1.2114544991776959,-1.7578938738350693,15.102788002192812
1589478765.0765274,-2.6240159761923407,-2.347645077923095,8.93069386796147,0.3955555555555556,-0.3055555555555556,-0.6611111111111111,-0.5955634740386875,-0.8853815882214738,16.745164069230167
1589478765.0865273,-2.665573105704172,-2.506719317112515,9.142597347313707,0.4281937287468945,-0.284384848620633,-0.644350968120964,0.0954261325446969,0.5400899538468433,14.17172587041269
1589478765.0965273,-2.4800058277775188,-2.2688910904937294,8.294462445801669,0.43666666666666665,-0.2788888888888889,-0.64,0.09025916126625952,0.6735876381183272,12.819372406639005
1589478765.1065273,-2.8488159088542826,-2.400722561837193,9.469332768134695,0.43666666666666665,-0.2788888888888889,-0.64,-1.219392820489938,-1.0473530483542308,7.8466508262311665
1589478765.1165273,-2.505700920678833,-2.1886151146014607,8.801818154775185,0.43666666666666665,-0.2788888888888889,-0.64,-1.570305876578466,-2.256053574881383,7.5347281097080305
1589478765.1265273,-2.5588952938139893,-2.300091628667298,9.076256560268433,0.43666666666666665,-0.2788888888888889,-0.64,1.4413286156758152,2.737336531016088,7.154908371332702
1589478765.1365273,-1.8213268225926849,-1.781229161482956,8.060643194824584,0.4566666666666666,-0.24444444444444444,-0.6233333333333333,1.883724185120677,0.13110381935804938,2.5425051318736003
1589478765.1465273,-1.8311092691365145,-1.9204930085051175,8.9826910047571,0.4566666666666666,-0.24444444444444444,-0.6233333333333333,-4.1728638100043245,-7.991012865792129,-4.130263892893182
1589478765.1565273,-2.239232737494594,-2.101881216664264,9.972768307625774,0.4566666666666666,-0.24444444444444444,-0.6233333333333333,1.21209861972034,-4.68445698789102,-6.066960907092403
1589478765.1665273,-2.7681400784193126,-2.436729760897978,10.45409364188514,0.4566666666666666,-0.24444444444444444,-0.6233333333333333,-0.21113342815407088,9.045669639424926,-10.232785231029446
1589478765.1765273,-2.568211885907588,-2.223902975320981,8.570899054355348,0.4566666666666666,-0.24444444444444444,-0.6233333333333333,0.7159529484123934,8.320123779503344,-12.933428154070885
1589478765.1865273,-2.434934046071607,-2.13,8.388949736568858,0.475694513880877,-0.22040926901596822,-0.6103142799762421,-2.6492736415029037,-5.576118620928355,-17.61761142945045
1589478765.1965272,-2.5137755036912535,-2.372948960704636,9.775275407952684,0.4777777777777778,-0.21777777777777774,-0.6088888888888889,0.18380076803608292,-0.46517908431376753,-18.575956587877368
1589478765.2065272,-2.480295472321196,-2.400118188928478,8.658155036065004,0.4777777777777778,-0.21777777777777774,-0.6088888888888889,2.3036358303641262,3.3598570435387156,-22.47747023550882
1589478765.2165272,-2.5946276098473042,-2.5021595512620753,8.993239326893113,0.4777777777777778,-0.21777777777777774,-0.6088888888888889,-1.772008413836086,-3.3594090838267374,-29.48281201308819
1589478765.2265272,-2.8396981146774696,-2.616525786849486,9.164788680274228,0.4777777777777778,-0.21777777777777774,-0.6088888888888889,0.37235850342785914,0.7761556851822995,-31.88246070621689
1589478765.2365272,-2.7743372657876475,-2.454939625260236,8.891566042100393,0.4777777777777778,-0.20835340684195644,-0.6088888888888889,1.3908136710617627,1.528614388156373,-33.72439856581078
1589478765.2465272,-2.1669646848457758,-2.3808988228281924,9.115169423334825,0.4777777777777778,-0.20555555555555555,-0.6088888888888889,-0.16854418119505277,-2.0217795410520045,-35.378514751899864
1589478765.2565272,-2.5945914466879527,-2.4345509736025543,8.839061474119712,0.4777777777777778,-0.20555555555555555,-0.6088888888888889,0.4318871700319288,1.6197033660116018,-39.35835122768359
1589478765.2665272,-2.679617454925529,-2.390478181343089,8.879330546119677,0.4777777777777778,-0.20555555555555555,-0.6088888888888889,-1.109459106349621,0.14293180036582176,-38.94527044682519
1589478765.2765272,-2.2828771252096023,-2.072301700167682,9.03002419714304,0.4777777777777778,-0.20555555555555555,-0.6088888888888889,1.3018620126079852,0.18015595483199967,-35.90392248424002
1589478765.2865272,-1.8633116535464298,-1.9314610061271835,8.222045368919911,0.5022222222222222,-0.18666666666666668,-0.6344444444444445,3.0054790208403563,-0.5150168051396958,-34.55093345362971
1589478765.2965271,-2.3124246990938113,-2.355623326921933,9.32819416628661,0.5022222222222222,-0.18666666666666668,-0.6344444444444445,1.3940780472328527,6.86623926751403,-34.39499142392576
1589478765.3065271,-1.9193356996721636,-2.1576279918164114,8.595711257363996,0.5022222222222222,-0.18666666666666668,-0.6344444444444445,0.004506211639428992,1.1652015701644105,-35.276328600655674
1589478765.3165271,-2.568098392378684,-2.6535992855016373,9.636106728192914,0.5022222222222222,-0.18666666666666668,-0.6344444444444445,-0.8650267936885978,1.458720973504019,-36.34125669842215
1589478765.326527,-2.7788123325394465,-2.747249925573087,8.754229867520095,0.5022222222222222,-0.18666666666666668,-0.6344444444444445,2.646872208990771,5.263278226406669,-35.46328194775231
1589478765.336527,-2.63,-2.75,8.79,0.5344444444444445,-0.17222222222222222,-0.6255555555555555,0.25,1.875,-34.875
1589478765.346527,-2.5129065241770565,-2.6464173098489345,8.970143808958374,0.5344444444444445,-0.17222222222222222,-0.6255555555555555,-0.819603865690349,0.6365113134111748,-35.29721205224619
1589478765.356527,-2.33378459237098,-2.507928197456993,9.177928197456993,0.5344444444444445,-0.17222222222222222,-0.6255555555555555,-1.4082367240089755,0.7848728496634256,-35.69932685115931
1589478765.366527,-2.3584100549882168,-2.621025137470542,8.645557737627652,0.5344444444444445,-0.17222222222222222,-0.6255555555555555,2.1889827179890022,3.0348242340926945,-36.07884426551453
1589478765.376527,-2.333062620217995,-2.797749519128019,8.749011754648429,0.5344444444444445,-0.17222222222222222,-0.6255555555555555,2.6604696516349646,2.7584393032699293,-38.31139933746527
1589478765.386527,-2.3755910961466515,-2.759664468761691,9.059313271604939,0.5244071631957434,-0.17685481356777652,-0.6317323440162946,-0.5644991582491583,0.521264438365133,-42.49351296530116
1589478765.396527,-2.364391040453523,-2.8179246387528116,9.28463135841267,0.52,-0.17888888888888888,-0.6344444444444445,-0.2683300212588964,3.1858959546476875,-45.27969698370151
1589478765.406527,-2.2797947384308173,-2.8478233914598183,8.453388905658624,0.52,-0.17888888888888888,-0.6344444444444445,2.443914424036966,6.688395407156291,-47.55402773585344
1589478765.416527,-2.1005049910348705,-2.9297623571600613,9.735870955656061,0.52,-0.17888888888888888,-0.6344444444444445,-0.8642318088152647,-3.5309380603206044,-54.168562836192365
1589478765.426527,-1.9957535885167463,-2.8188038277511964,8.801782296650718,0.52,-0.17888888888888888,-0.6344444444444445,0.3846441387559809,0.7811004784688995,-57.22802033492823
1589478765.436527,-1.8911552857024037,-2.7013478333194714,8.71364592863678,0.5723064127089745,-0.21702898148918273,-0.6486107645531249,0.8149068452133411,5.016769940946519,-63.711412501039675
1589478765.446527,-1.7556114042395632,-2.6328057021197813,9.238356012218828,0.5733333333333334,-0.21777777777777774,-0.6488888888888888,-0.627377811718967,0.9228512913079703,-68.85207234101638
1589478765.456527,-2.002988286671231,-2.8011391351011268,8.969807553524175,0.5733333333333334,-0.21777777777777774,-0.6488888888888888,0.2891091948705613,3.400796386077238,-71.94582238485594
1589478765.466527,-2.039719651240778,-2.872570087189805,8.888855130784709,0.5733333333333334,-0.21777777777777774,-0.6488888888888888,1.057096747149564,4.469626089872569,-74.58732394366197
1589478765.476527,-1.8714353680003806,-2.7956563109567534,8.725288072696133,0.5733333333333334,-0.21777777777777774,-0.6488888888888888,1.0865794043484467,5.353222084780437,-77.14394416956087
1589478765.486527,-1.6035045857298307,-2.6713628944504895,9.041433234882637,0.6452388724804393,-0.4117048379017912,-0.6063992521201443,0.2633855704958806,3.362391671848282,-83.15143352634851
1589478765.496527,-1.571716556052192,-2.6304031784730686,8.973634701340918,0.6466666666666666,-0.4155555555555556,-0.6055555555555555,0.12625993272833985,2.9766341031197796,-84.68184934985779
1589478765.506527,-1.5037157152770169,-2.522568569445966,8.820872868047186,0.6466666666666666,-0.4155555555555556,-0.6055555555555555,0.09117864577626822,3.6809557722508313,-89.40399136262371
1589478765.516527,-1.6095998265502074,-2.793476429412129,9.035568977265688,0.6466666666666666,-0.4155555555555556,-0.6055555555555555,2.334227683825807,6.360384531995292,-92.83018955584464
1589478765.526527,-1.42266429878846,-2.9699320142944305,8.885147302362068,0.6466666666666666,-0.4155555555555556,-0.6055555555555555,0.7203788241959379,8.295423221912316,-96.82546930837619
1589478765.536527,-1.3996113419701783,-3.099222683940357,9.03704962111953,0.9718965751378366,-0.6815274722290122,-0.1432054102501426,-0.31007088731361526,5.7980322659496455,-102.1084392569054
1589478765.546527,-1.3956504589523353,-3.1256504589523355,8.895203671618683,1.1711111111111112,-0.8444444444444444,0.14,1.1101347366092822,7.256282946879493,-108.16729642054042
1589478765.556527,-1.4426895359889398,-3.2846547999654367,8.909275727987557,1.1711111111111112,-0.8444444444444444,0.14,1.4161636999913592,7.030389700164175,-111.01400349952476
1589478765.566527,-1.5552201389616285,-3.563682134003701,8.955494570720296,1.1711111111111112,-0.8444444444444444,0.14,1.5827616005027758,6.721841067001851,-113.34959280402221
1589478765.5765269,-1.4507178212517946,-3.5515564936038913,8.617782468019456,1.1711111111111112,-0.8444444444444444,0.14,1.5774697872249244,7.700604255501511,-114.30539276607598
1589478765.5865269,-1.3280517820041553,-3.6037533961962605,8.845987693782963,1.059115213183457,-0.20706941558787484,-0.46368520590272233,1.4600647275051941,7.231735456288956,-115.47313508870066
1589478765.5965269,-1.2273666483903813,-3.7209963186339783,8.855729615414742,1.0344444444444445,-0.06666666666666668,-0.5966666666666667,1.5522685439022479,7.406805631706744,-117.8681023341427
1589478765.6065269,-1.1971098708339978,-3.6842197416679956,8.78514463402966,1.0344444444444445,-0.06666666666666668,-0.5966666666666667,1.371748923616648,6.960622309041621,-119.01625538191676
1589478765.6165268,-1.16,-3.5944379011294885,8.762997860642727,1.0344444444444445,-0.06666666666666668,-0.5966666666666667,0.9652368820593039,5.9605527248050425,-120.88671039313566
1589478765.6265268,-1.251937023445076,-3.6639424996672436,8.97190964233424,1.0344444444444445,-0.06666666666666668,-0.5966666666666667,1.4745892833374532,5.999828868057272,-119.73849256526782
1589478765.6365268,-1.4705524126455907,-3.935761508596783,9.189179145867998,0.8882567326061503,-0.0351276267948481,-0.6303367227460406,2.3510260676650026,7.142165834719911,-113.96641014975042
1589478765.6465268,-1.4775423181289573,-4.063870009045096,8.591383899728648,0.6533333333333333,0.015555555555555557,-0.6844444444444444,1.7512356247577205,6.793254942499031,-97.52347687039669
1589478765.6565268,-1.4912343348420407,-4.2544185411786115,8.730393476925876,0.6533333333333333,0.015555555555555557,-0.6844444444444444,0.2848841176336798,3.7057253167148088,-83.06395705870312
1589478765.6665268,-0.9648208273208273,-3.888323713323713,8.650030062530062,0.6533333333333333,0.015555555555555557,-0.6844444444444444,0.6689739658489658,2.6104046416546414,-70.97998587061088
1589478765.6765268,-0.936182588118072,-3.8,8.936002823099598,0.6533333333333333,0.015555555555555557,-0.6844444444444444,0.18408529497239168,3.667055880765558,-66.55850147382405
1589478765.6865268,-0.9184691441324545,-3.7484691441324545,8.625668500544974,0.5936229765344313,0.07199411198191495,-0.6999854962140217,0.9037035475164791,3.8949515363056,-64.10668013961696
1589478765.6965268,-0.8578612348822406,-3.6372947167409295,8.891387651177595,0.5722222222222222,0.09222222222222222,-0.7055555555555556,0.7759388924252069,2.0742759388924252,-61.771602482495226
1589478765.7065268,-0.8683127118644067,-3.7970228813559324,9.000521186440677,0.5722222222222222,0.09222222222222222,-0.7055555555555556,0.611197033898305,3.1997563559322035,-60.67447033898305
1589478765.7165267,-0.8668725547900149,-3.7721618252951563,8.639304088910432,0.5722222222222222,0.09222222222222222,-0.7055555555555556,0.5214767337187965,3.0173718104075062,-60.679779195374444
1589478765.7265267,-0.7497311896173576,-3.5374985952255797,8.660537620765284,0.5722222222222222,0.09222222222222222,-0.7055555555555556,0.06472838006851672,2.9090442549257736,-61.22768107995432
1589478765.7365267,-0.7892331747110809,-3.5562664853840924,8.675216859279402,0.5372093058388095,0.12250366341868718,-0.6989314902938288,1.4001019714479945,3.5693745751189665,-62.02302005438477
1589478765.7465267,-0.81,-3.58,8.65,0.5311111111111111,0.12777777777777774,-0.6977777777777778,1.6875,3.625,-62.125
1589478765.7565267,-0.7298745207389334,-3.395711397699547,9.170815615196933,0.5311111111111111,0.12777777777777774,-0.6977777777777778,0.1350688393168351,3.875392122690833,-63.57727431160683
1589478765.7665267,-0.6238079928660267,-3.263807992866027,8.594792668903857,0.5311111111111111,0.12777777777777774,-0.6977777777777778,0.48459096989181705,3.7416090746955155,-64.13339092530448
1589478765.7765267,-0.743847887014343,-3.4497781685625837,8.52586690113755,0.5311111111111111,0.12777777777777774,-0.6977777777777778,0.6875,3.6500396127566814,-64.0001980637834
1589478765.7865267,-0.8921178358984043,-3.74161552261354,9.206986120290813,0.538481310127047,0.1404124046622394,-0.6977777777777778,0.598662779718629,3.743449627041828,-62.927402983665374
1589478765.7965267,-0.9252545254210609,-3.7615271525263654,8.92348559735558,0.5466666666666666,0.15444444444444444,-0.6977777777777778,3.0905418699826854,0.39516763733669125,-59.59377656225405
1589478765.8065267,-0.9577952251241788,-3.885078513058805,9.367597340169844,0.5466666666666666,0.15444444444444444,-0.6977777777777778,2.559118881188912,6.016724082679058,-53.59467758572344
1589478765.8165267,-0.823743009364969,-3.762543102021907,8.729944074919754,0.5466666666666666,0.15444444444444444,-0.6977777777777778,0.13107233859492362,3.840721069525795,-47.24714583540157
1589478765.8265266,-0.9214816596512327,-3.9598945107808605,9.269630787733012,0.5466666666666666,0.15444444444444444,-0.6977777777777778,0.7953053861352117,0.09887466712481752,-43.08035392148441
1589478765.8365266,-0.9561221381093058,-3.8884245753323485,9.05743076070901,0.5324651239126866,0.16731459256523878,-0.6893456117676022,2.9854280142171348,1.4096283004062038,-38.56595330963811
1589478765.8465266,-15.375421937895343,-20.198406771132834,5.571564476710753,0.5111111111111111,0.18666666666666668,-0.6766666666666666,0.475843696089707,2.4795747376365727,-34.07016873921794
1589478765.8565266,-13.713031207422306,-17.60060079153961,5.263765003568416,0.5111111111111111,0.18666666666666668,-0.6766666666666666,-35.128114254201,10.076643904496205,-118.43075650424966
1589478765.8665266,0.14450577803619447,1.576214841194854,3.9896220655570898,0.5111111111111111,0.18666666666666668,-0.6766666666666666,-94.56039228868377,26.437506813721928,-252.965275001817
1589478765.8765266,-1.0071857044612549,1.7157736761541358,5.568500565698694,0.5111111111111111,0.18666666666666668,-0.6766666666666666,-115.42570351842403,7.4290796858708426,-333.2982868203297
1589478765.8865266,-0.3859153952843273,-1.6853495145631068,5.634233703190014,0.4927845584835876,0.21332347048851902,-0.6700024657112036,-16.17073942441054,-9.830985610263522,-321.3029602981969
1589478765.8965266,0.44,-1.37,4.07,0.4866666666666667,0.2222222222222222,-0.6677777777777778,11.0,-7.25,-315.8125
1589478765.9065266,-0.40779036827195453,-1.7269643655881914,9.85579742557527,0.4866666666666667,0.2222222222222222,-0.6677777777777778,110.14127497390785,49.59471603051538,-303.030572846777
1589478765.9165266,-0.6615257889614903,0.33753371333240656,7.7002815237036,0.4866666666666667,0.2222222222222222,-0.6677777777777778,151.5607665438621,63.31331242179897,-285.7430096969276
1589478765.9265265,0.08888553437419133,0.2867037580148939,8.35064349176227,0.4866666666666667,0.2222222222222222,-0.6677777777777778,54.27541044883408,22.210105235918228,-246.81801877569796
1589478765.9365265,-1.176520422702446,-0.789203573972928,9.420799394443126,0.43771339613182414,0.32471813240454894,-0.6616586189609225,-46.62229503087153,3.9302385122298737,-179.33380766148184
1589478765.9465265,-0.9981842221242838,-0.7850639048038784,8.93031291317761,0.4155555555555556,0.3711111111111111,-0.6588888888888889,9.870840678713094,16.847978184222125,-123.14990083737328
1589478765.9565265,-0.08457648911890447,-1.238636246745315,7.799592240187727,0.4155555555555556,0.3711111111111111,-0.6588888888888889,35.50558118229451,18.058695835610273,-87.5580308351281
1589478765.9665265,0.7046342531756462,-1.9541655716162945,8.116368812965398,0.4155555555555556,0.3711111111111111,-0.6588888888888889,20.326899912395973,7.1247809899255365,-50.81080267192291
1589478765.9765265,0.20728601092055676,-9.18847419826194,10.055436437745136,0.4155555555555556,0.3711111111111111,-0.6588888888888889,-18.12281781127432,-3.6151032454049066,-12.076424671229717
1589478765.9865265,0.3376109215017067,-9.736370875995451,8.997281001137656,0.38491214764252313,0.393352294273796,-0.6534521552268993,-6.65486348122867,5.488552332195677,40.79280432309442
1589478765.9965265,1.826316939448502,-1.7740735195937607,9.125368103744764,0.3466666666666667,0.4211111111111111,-0.6466666666666666,11.470702927431265,-4.408339486940866,83.63846249165469
1589478766.0065265,1.67662078458362,-2.365271851342051,9.619277357192017,0.3466666666666667,0.4211111111111111,-0.6466666666666666,4.828501376462492,-12.33491052993806,79.05673606331727
1589478766.0165265,0.4794357112510138,-4.171096520026263,8.685537831678962,0.3466666666666667,0.4211111111111111,-0.6466666666666666,-7.0778093739137145,-0.6779817311034723,67.38079110501718
1589478766.0265265,-0.01578911931053051,-5.100797947152646,8.606842176137894,0.3466666666666667,0.4211111111111111,-0.6466666666666666,-0.39278567046712753,-1.0341125026184277,74.9760058503157
1589478766.0365264,0.749231040564374,-2.30584126984127,8.88731746031746,0.3481912600431119,0.4209586517734666,-0.647657652361356,3.3604497354497354,-0.8005401234567902,90.73037918871252
1589478766.0465264,-0.2932313502271359,-3.1985542663236823,8.651173170598216,0.3688888888888889,0.4188888888888889,-0.6611111111111111,-1.1324400689617424,-4.558140290624488,96.86734784631383
1589478766.0565264,-0.26472217245527374,-2.634349773489289,8.343737554708095,0.3688888888888889,0.4188888888888889,-0.6611111111111111,-0.6341148166159043,-4.426374420926007,111.71598980061938
1589478766.0665264,-0.30100482190076217,-3.2530144657022864,8.928180121325246,0.3688888888888889,0.4188888888888889,-0.6611111111111111,-3.0094202053196453,-10.027725929382486,126.99781264582361
1589478766.0765264,-0.4470934956006907,-3.5928122687279007,8.878656689416989,0.3688888888888889,0.4188888888888889,-0.6611111111111111,-2.8404356138475455,-8.886144231559904,137.4501685716635
1589478766.0865264,-0.47188197767145135,-3.6690590111642742,8.733999645578592,0.3731242247031721,0.4174771102841279,-0.6580522574674621,-0.9911726918305865,-6.234560517455254,146.24634502923976
1589478766.0965264,-0.36919201001958957,-3.9604550563601917,8.86454606763223,0.3888888888888889,0.4122222222222222,-0.6466666666666666,-1.2771504383570442,-8.895838016635087,157.52873205626386
1589478766.1065264,9.164524126899494,-16.145523860303918,8.363175153292456,0.3888888888888889,0.4122222222222222,-0.6466666666666666,-2.1940982404692084,-10.802635963743002,162.7071947480672
1589478766.1165264,4.764232705443028,-7.300774975774621,6.980944435253244,0.3888888888888889,0.4122222222222222,-0.6466666666666666,-6.546081397272577,-19.061640294486068,118.14973499799106
1589478766.1265264,-1.2030613592699329,-0.18535722862632098,7.099747238232469,0.3888888888888889,0.4122222222222222,-0.6466666666666666,-0.8312732648895285,1.0009456051873187,71.5721586815562
1589478766.1365263,-0.7409765130104279,-2.8601880908293538,8.387370626644577,0.4191877551462387,0.38887719412229693,-0.6531238020985608,6.952197641555404,12.835176883344703,43.62926980801092
1589478766.1465263,-0.11775766691309555,-4.080608764371479,8.926166415988988,0.4566666666666666,0.36,-0.6611111111111111,0.13313852703495055,-4.724908863792796,21.742353799678792
1589478766.1565263,-0.21948226897350623,-4.291275176562909,8.618724823437091,0.4566666666666666,0.36,-0.6611111111111111,-4.406400638989574,-6.088927216845409,6.756772915810321
1589478766.1665263,-0.20541338874870121,-4.242293305625649,8.683120083123052,0.4566666666666666,0.36,-0.6611111111111111,0.24658601751521458,-1.4283341991984564,-0.6634165800801544
1589478766.1765263,-0.24758547097382172,-4.184277775468064,8.684829058052356,0.4566666666666666,0.36,-0.6611111111111111,0.8000266771989634,-0.4496259995288183,-0.38319977410995165
1589478766.1865263,-0.27664837373023465,-4.108714228301389,8.62670325253953,0.4566666666666666,0.36,-0.6611111111111111,-0.25350354772100503,1.8027489640931833,0.01641513879072598
1589478766.1965263,-0.04463907204750233,-4.2455148962612625,8.86456208789312,0.4633333333333333,0.3333333333333333,-0.6677777777777778,-0.2504811509648911,-1.0384985500742223,-0.1009985500742224
1589478766.2065263,-0.10851751526559847,-4.1044676552959,8.765094348285203,0.4633333333333333,0.3333333333333333,-0.6677777777777778,0.28457715440062437,0.313931867223727,0.1449629264037464
