time,acc_x,acc_y,acc_z,mag_x,mag_y,mag_z,gyr_x,gyr_y,gyr_z
1589478804.3490436,-0.24,-4.22,8.88,0.4833333333333333,0.13666666666666666,-0.6322222222222222,0.125,-1.0625,0.1875
1589478804.3590436,-0.4203113676840877,-4.091206165939938,8.708274887919917,0.4833333333333333,0.13666666666666666,-0.6322222222222222,0.44698458515015665,0.1717742430756004,0.3484922925750783
1589478804.3690436,-0.2918902193493695,-4.217899756278478,8.965799512556957,0.4711111111111111,0.14222222222222222,-0.6322222222222222,0.01050121860760835,0.07300121860760835,0.2526253046519021
1589478804.3790436,-0.37189170287167533,-4.129009219031472,8.788018438062943,0.4711111111111111,0.14222222222222222,-0.6322222222222222,0.45495390484264064,0.5174539048426406,0.36373847621066013
1589478804.3890436,-0.37287607023379765,-4.134247859532405,8.677388913039369,0.4711111111111111,0.14222222222222222,-0.6322222222222222,0.09927895065111797,-0.1498929766202347,0.19690175584494132
1589478804.3990436,-0.37,-4.183860570453278,8.745265369087866,0.4711111111111111,0.14222222222222222,-0.6322222222222222,-0.8300599829323531,-0.7116285653329832,0.07017428693340336
1589478804.4090436,-0.47786447058823533,-4.160037647058823,8.754007529411764,0.4711111111111111,0.14222222222222222,-0.6322222222222222,-0.3757058823529411,0.2612294117647058,0.21231176470588234
1589478804.4190435,-0.36603013665691503,-4.179422113573518,8.75,0.47549134595261316,0.14660245706372424,-0.6278419873807202,0.08212940327816294,0.6500470885264297,0.2714352983609185
1589478804.4290435,-0.3278278818672595,-4.18072403937758,8.70181009844395,0.4777777777777778,0.14888888888888888,-0.6255555555555555,0.24547475389012385,-0.4035606541759288,0.12952524610987615
1589478804.4390435,-0.40975264117289634,-4.156074207648131,8.707975264117291,0.4777777777777778,0.14888888888888888,-0.6255555555555555,0.49922700366530115,-0.03873679413551817,0.025309198533879543
1589478804.4490435,-0.4031027588113926,-4.15,8.716724310297153,0.4777777777777778,0.14888888888888888,-0.6255555555555555,0.4784461212856018,-0.6519579690723842,0.042026939357199075
1589478804.4590435,-0.3685632369568729,-4.1428544123189575,8.770019113767296,0.4777777777777778,0.14888888888888888,-0.6255555555555555,0.34818015398697033,-0.732040461960911,0.017840076993485166
1589478804.4690435,-0.3399706013932383,-4.166705864809015,8.836735263415777,0.4777777777777778,0.15333986635705815,-0.6159117710411889,0.06213251741547898,-0.625,0.0
1589478804.4790435,-0.358060220857153,-4.18,8.86,0.4777777777777778,0.15555555555555556,-0.6111111111111112,-0.1209587934524021,-0.2742472392855875,0.0
1589478804.4890435,-0.34074760076775434,-4.18,8.773364203454895,0.4777777777777778,0.15555555555555556,-0.6111111111111112,-0.004672504798464483,-0.31016374760076776,-0.06016374760076776
1589478804.4990435,-0.37,-4.150071573653158,8.82996421317342,0.4777777777777778,0.15555555555555556,-0.6111111111111112,-0.12544733533223715,0.06294733533223716,0.06272366766611857
1589478804.5090435,-0.37,-4.166298674920205,8.821850662539898,0.4777777777777778,0.15555555555555556,-0.6111111111111112,-0.22686671825128157,0.16436671825128157,0.11343335912564079
1589478804.5190434,-0.4279868656716418,-4.141006567164179,8.713690746268657,0.4895899170812604,0.1426695854063018,-0.6315138971807629,-0.37080597014925376,0.5499179104477612,0.18540298507462688
1589478804.5290434,-0.2259930938912742,-4.204911288307322,8.71,0.49,0.14222222222222222,-0.6322222222222222,-0.7227390445035098,0.04089143324473521,0.07158698516549672
1589478804.5390434,-0.32684046510069364,-4.190526589149885,8.787893643400462,0.49,0.14222222222222222,-0.6322222222222222,-0.506582364373555,0.527404877190631,0.021930394062259155
1589478804.5490434,-0.25041055718475075,-4.18,8.65756598240469,0.49,0.14222222222222222,-0.6322222222222222,0.18951612903225812,0.5559017595307918,0.0
1589478804.5590434,-0.3328082457628337,-4.18,8.71669278208243,0.49,0.14222222222222222,-0.6322222222222222,0.21177835199746992,0.029965642654859626,0.0
1589478804.5690434,-0.42621363371528453,-4.176213633715284,8.822718197708292,0.49,0.14222222222222222,-0.6296979780324119,0.24332394639735871,0.027301417751019574,0.047329578558943486
1589478804.5790434,-0.3572006500466789,-4.143085992877148,8.716458628678122,0.49,0.14222222222222222,-0.6255555555555555,0.4375,-0.6021295079699873,0.06892915182739187
1589478804.5890434,-0.2686320820379565,-4.221367917962044,8.962185513433251,0.49,0.14222222222222222,-0.6255555555555555,0.04196150990673286,-0.75,-0.10701649575425734
1589478804.5990434,-0.38395377428079663,-4.129287558396853,8.734345340545858,0.49,0.14222222222222222,-0.6255555555555555,0.7747110892549791,-0.0721277969018933,0.02025832923530857
1589478804.6090434,-0.34724280609366187,-4.1509300357344365,8.805514387812677,0.49,0.14222222222222222,-0.6255555555555555,0.4543210457024638,0.125,-0.02844649238292271
1589478804.6190434,-0.3493228361669243,-4.158270865533231,8.895187403400309,0.4860902885110767,0.15004164520006869,-0.6294652670444788,0.2866535452086553,0.125,0.08411418083462133
1589478804.6290433,-0.3852619454558966,-4.127107081816155,8.775011518168983,0.4833333333333333,0.15555555555555556,-0.6322222222222222,0.07403210225161627,0.17269357954967673,0.23519357954967673
1589478804.6390433,-0.3716083494208494,-4.162913851351352,8.638041747104248,0.4833333333333333,0.15555555555555556,-0.6322222222222222,-0.6130550193050194,-0.08071157094594594,0.058420306467181465
1589478804.6490433,-0.2460707893487234,-4.204241151331409,8.80073784563685,0.4833333333333333,0.15555555555555556,-0.6322222222222222,-1.1780143916426198,-0.29450359791065495,-0.0625
1589478804.6590433,-0.2449044166117337,-4.187547791694133,8.74780268072951,0.4833333333333333,0.15555555555555556,-0.6322222222222222,-0.688694792353329,1.1843138870577896,0.1246017358822237
1589478804.6690433,-0.2358728627794827,-4.22861814993424,8.849309074967119,0.4777777777777778,0.15555555555555556,-0.64,-1.224090311266988,-1.7520440596229725,0.06789785181937746
1589478804.6790433,-0.5484686540990793,-4.155066199035511,8.812533099517756,0.4777777777777778,0.15555555555555556,-0.64,0.1550087680841734,1.465853792196405,0.3552101600175362
1589478804.6890433,-0.40305500142490736,-4.159274722143061,8.66160444571103,0.4777777777777778,0.15555555555555556,-0.64,0.018131946423482453,-0.34134546879452854,0.4329670133941294
1589478804.6990433,-0.4255196098131268,-4.152896078037375,8.784974517289882,0.4777777777777778,0.15555555555555556,-0.64,0.044399512266408495,-0.588799024532817,0.6594975613320424
1589478804.7090433,-0.339979872525998,-4.131246226098625,8.8149949681315,0.4777777777777778,0.15555555555555556,-0.64,0.4141332606507883,0.31268869506876884,1.0625628983562563
1589478804.7190433,-0.27440265627993105,-4.153584062320413,8.833584062320414,0.4777777777777778,0.15555555555555556,-0.628805312559862,0.2751660174956899,0.315265627993104,1.075083008747845
1589478804.7290432,-0.36380598661469443,-4.156548503346326,8.750559682282857,0.4777777777777778,0.15555555555555556,-0.62,-0.09771456939030669,0.07042913878061338,0.3023552989630065
1589478804.7390432,-0.32562642776265865,-4.192915714824895,8.77722095309986,0.4777777777777778,0.15555555555555556,-0.62,-0.4379270872648537,-0.41144643531117775,0.035592260781470375
1589478804.7490432,-0.3800152636358367,-4.183328245454721,8.810668701818113,0.4777777777777778,0.15555555555555556,-0.62,-0.36246184091040823,-0.35828245454721097,0.06667938636319726
1589478804.7590432,-0.40809860191317143,-4.154762325239147,8.783336276674024,0.4777777777777778,0.15555555555555556,-0.62,-0.12202906548933039,-0.288677336276674,0.125
1589478804.7690432,-0.3644689667017325,-4.17212413319307,8.783186199789606,0.4697885074580581,0.15555555555555556,-0.62,0.006637916228343241,-0.5757758324566865,0.05586208377165676
1589478804.7790432,-0.35178097646372297,-4.165342929391169,8.777123905854891,0.4633333333333333,0.15555555555555556,-0.62,0.11386889710173118,0.08303345652596761,0.0
1589478804.7890432,-0.34357316087308004,-4.16642683912692,8.69287793047696,0.4633333333333333,0.15555555555555556,-0.62,0.044664510913500405,0.008993532740501214,0.0401677445432498
1589478804.7990432,-0.36334301257075646,-4.17,8.735591046092773,0.4633333333333333,0.15555555555555556,-0.62,0.09726255237815187,0.020893828567227823,0.013868723810924063
1589478804.8090432,-0.3761136367506087,-4.163886363249391,8.772227273501217,0.4633333333333333,0.15555555555555556,-0.62,0.23963068907391327,0.40639206722173976,0.11463068907391326
1589478804.8190432,-0.40105893152193867,-4.167019643840646,8.801058931521938,0.47347281888093345,0.14619603043469392,-0.618440079146523,0.26862722599596106,0.4495089039838443,0.1875
1589478804.8290431,-0.3140306411953849,-4.177997446567051,8.913966805371667,0.4777777777777778,0.14222222222222222,-0.6177777777777778,0.20001595895592963,-0.024872328352562922,-0.012436164176281461
1589478804.8390431,-0.3536293216110253,-4.172046334798622,8.780926695972436,0.4777777777777778,0.14222222222222222,-0.6177777777777778,0.5851832600689082,0.7697873351550434,-0.11221040750861352
1589478804.8490431,-0.3944963804064234,-4.145503619593576,8.70937952449197,0.4777777777777778,0.14222222222222222,-0.6177777777777778,0.18991727299452466,0.4258660842244515,-0.08672440561496345
1589478804.8590431,-0.35455417457137284,-4.1669638836190845,8.749142213790535,0.4777777777777778,0.14222222222222222,-0.6177777777777778,-0.2636145635715679,-0.1454218453573518,-0.0625
1589478804.869043,-0.30195231513476156,-4.21675190048376,8.8831202487906,0.48317515165476466,0.14516624433694233,-0.6148337556630576,-0.4171993780234969,-0.29299844505874223,-0.0625
1589478804.879043,-0.3178845074937886,-4.185542999118378,8.813484010579465,0.5022222222222222,0.15555555555555556,-0.6044444444444445,0.11785936122465335,-0.048218722449306695,-0.013928127755069332
1589478804.889043,-0.35757025286768157,-4.1744859494264634,8.72121487356616,0.5022222222222222,0.15555555555555556,-0.6044444444444445,0.042055775873097084,-0.28446281608460194,0.048481408042300965
1589478804.899043,-0.3633427867157889,-4.161671393357895,8.71,0.5022222222222222,0.15555555555555556,-0.6044444444444445,0.10410758302631927,-0.05223104243420179,-0.04160758302631927
1589478804.909043,-0.380395078214422,-4.166798359404807,8.764386875238458,0.5022222222222222,0.15555555555555556,-0.6044444444444445,-0.04495898512018312,-0.2549384776802747,0.02247949256009156
1589478804.919043,-0.3979022582367537,-4.17,8.805804516473508,0.4829055909768244,0.15555555555555556,-0.614980788760116,-0.125,0.06950202581739379,-0.13505645591884166
1589478804.929043,-0.3744383502065866,-4.161479450068862,8.792958900137723,0.4777777777777778,0.15555555555555556,-0.6177777777777778,-0.125,-0.02551374827844491,-0.08099312586077755
1589478804.939043,-0.3752558214605373,-4.170511642921075,8.774232535618388,0.4777777777777778,0.15555555555555556,-0.6177777777777778,-0.25639553651343305,-0.29244218889850776,-0.0625
1589478804.949043,-0.37656601750938,-4.13535822762194,8.7256601750938,0.4777777777777778,0.15555555555555556,-0.6177777777777778,-0.41792478113274967,-0.5643871716991246,-0.0625
1589478804.959043,-0.3753218922885853,-4.071287569154341,8.686609461442927,0.4777777777777778,0.15555555555555556,-0.6177777777777778,-1.3315456700914532,-0.5877145195890257,0.004023653607316241
1589478804.969043,-0.27949017441401625,-4.073248362402336,9.019905295556784,0.4824310104437955,0.15555555555555556,-0.629876182709424,-4.261152434693394,-1.337581879883198,-0.042197734985399735
1589478804.979043,-0.4649861983708997,-3.75611488374456,8.945477807319097,0.4833333333333333,0.15555555555555556,-0.6322222222222222,-4.447281798784102,0.7420365446817159,0.33786366869316353
1589478804.989043,-0.6346593050425868,-3.439447501319062,8.713830557021181,0.4833333333333333,0.15555555555555556,-0.6322222222222222,-4.166091147207356,-0.2449357428205321,1.0993324602396926
1589478804.999043,-0.6562668910128536,-3.4,8.695067564051415,0.4833333333333333,0.15555555555555556,-0.6322222222222222,-3.3808066922236293,-0.7183277246786588,1.5633445506426824
1589478805.009043,-0.6360368447299716,-3.411981577635014,8.769907888175071,0.4833333333333333,0.15555555555555556,-0.6322222222222222,-3.162154580656517,0.048963741969550334,2.349078881750711
1589478805.019043,-0.526562685876677,-3.3078752230520125,8.760166765800895,0.492331000619283,0.15140278603896343,-0.6322222222222222,-3.5460932853083076,0.5,2.866796642654154
1589478805.029043,-0.37347012023688464,-3.150895495603278,8.908209008793444,0.4977777777777778,0.14888888888888888,-0.6322222222222222,-3.594682807920081,1.1497203445594306,2.24137105940061
1589478805.039043,-0.23975363760438595,-2.672746998542645,8.777218533854589,0.4977777777777778,0.14888888888888888,-0.6322222222222222,-3.514304633463647,1.375,0.2649668046912952
1589478805.049043,-0.29262393977674084,-2.6969854855758078,8.810886333754414,0.4977777777777778,0.14888888888888888,-0.6322222222222222,-1.0729217690582384,3.0274787955348166,1.8672384567789835
1589478805.059043,-0.33241444080099325,-2.7916397122027314,8.914054153003725,0.4977777777777778,0.14888888888888888,-0.6322222222222222,0.067906147527936,1.4837815574161917,7.1456137977141765
1589478805.069043,-0.37643194567463834,-2.855859167404783,8.921849719515796,0.4795691040908047,0.152413148312174,-0.6286979627989371,-0.09829864186595805,-0.693838573959256,14.737092190729259
1589478805.079043,-0.41728378725337234,-2.94489641143128,8.927612624177907,0.4633333333333333,0.15555555555555556,-0.6255555555555555,-0.5074605494440385,-1.2764921098888078,21.68978112100804
1589478805.089043,-0.5076768678705839,-3.041826005776468,8.838546838988243,0.4633333333333333,0.15555555555555556,-0.6255555555555555,-0.30031070397059256,-1.6234464801470374,27.636173673308633
1589478805.099043,-0.5712421616008307,-3.1093475656029077,8.789347565602908,0.4633333333333333,0.15555555555555556,-0.6255555555555555,-0.46079053001557696,-1.9452635100051923,33.00172619523106
1589478805.109043,-0.5938129496402877,-3.150359712230216,8.82,0.4633333333333333,0.15555555555555556,-0.6255555555555555,-0.6034172661870504,-2.1510791366906474,37.50944244604317
1589478805.1190429,-0.6329125376992676,-3.164261094355881,8.82286945282206,0.4692316530231222,0.15364258700751593,-0.6265120398295754,-0.5625,-2.4644011202068072,42.37903920723826
1589478805.1290429,-0.7458750413223141,-3.1499305785123966,8.812097190082644,0.5044444444444445,0.14222222222222222,-0.6322222222222222,-0.6372396694214876,-2.7495661157024793,50.88993388429752
1589478805.1390429,-0.8338257357184073,-3.2138257357184075,8.736174264281592,0.5044444444444445,0.14222222222222222,-0.6322222222222222,-0.855705424120023,-3.2898514137334103,59.760098095787654
1589478805.1490428,-0.8548716358883266,-3.2553850923350205,8.720256728223347,0.5044444444444445,0.14222222222222222,-0.6322222222222222,-1.0016045513959178,-3.915075032677548,67.44884811643261
1589478805.1590428,-0.8248249559945238,-3.291578609147551,8.765964348579253,0.5044444444444445,0.14222222222222222,-0.6322222222222222,-1.0400222821379677,-4.519732614344388,74.11234842558186
1589478805.1690428,-0.7835411935519899,-3.354788354863929,8.84416477420796,0.4993293870915702,0.13592676701868467,-0.6349764838737699,-1.0221324596999366,-4.977867540300063,80.99971613119392
1589478805.1790428,-0.7928463109923785,-3.4056926219847568,8.875692621984756,0.49,0.12444444444444445,-0.64,-1.0802894437023651,-5.062026105916555,86.06689272805846
1589478805.1890428,-0.8239338476276912,-3.4379503857207685,8.854099228558464,0.49,0.12444444444444445,-0.64,-1.2371899107548026,-5.636776458427873,91.11931503050471
1589478805.1990428,-0.8657975254766804,-3.546740720537552,8.81710123726166,0.49,0.12444444444444445,-0.64,-1.1915740993280604,-5.772191366442687,94.39450577719373
1589478805.2090428,-0.9069371794121662,-3.5946125641175666,8.820774871764867,0.49,0.12444444444444445,-0.64,-1.327028845591247,-5.75,96.48131570222144
1589478805.2190428,-0.9657587802176322,-3.5780804065941223,8.853839186811754,0.49,0.11252485103856708,-0.635364602564381,-1.4627512706066332,-5.898994917573467,98.41796442301427
1589478805.2290428,-1.0423875601267927,-3.6027422250792456,8.811063994857358,0.49,0.10444444444444444,-0.6322222222222222,-1.1100777492075455,-5.631649967858489,100.31190565912264
1589478805.2390428,-1.063938725321198,-3.6503063733940104,8.731509802569583,0.49,0.10444444444444444,-0.6322222222222222,-1.2026807671975912,-5.7784467006826175,101.8088082350778
1589478805.2490427,-1.0819153635480168,-3.680957681774008,8.705478840887004,0.49,0.10444444444444444,-0.6322222222222222,-1.3407572444562241,-6.0,102.95712684424419
1589478805.2590427,-1.1030890624775223,-3.6961781249550443,8.731623437342655,0.49,0.10444444444444444,-0.6322222222222222,-1.370419921453541,-6.077226561938055,103.5726464833916
1589478805.2690427,-1.1091228978752177,-3.708245795750435,8.773860285126522,0.49,0.10444444444444444,-0.6322222222222222,-1.4835543351603298,-6.228072446880439,103.83662678204077
1589478805.2790427,-1.2087944938006443,-3.6846986234501613,8.83469862345016,0.5222222222222223,0.05666666666666665,-0.6466666666666666,-1.1765840085912331,-6.095633603436493,103.44880162061897
1589478805.2890427,-1.274996379435192,-3.702997827661115,8.83800868935554,0.5222222222222223,0.05666666666666665,-0.6466666666666666,-0.9562364228819696,-6.01873642288197,102.81254525706011
1589478805.2990427,-1.3529133190759686,-3.7497479914455814,8.759621987168373,0.5222222222222223,0.05666666666666665,-0.6466666666666666,-1.1044291755775195,-6.125787526732559,102.1471458778876
1589478805.3090427,-1.42,-3.7874971010928,8.8275086967216,0.5222222222222223,0.05666666666666665,-0.6466666666666666,-1.1563587090199936,-6.031286236339998,101.76542570013001
1589478805.3190427,-1.4452700453725276,-3.769169980554631,8.84638999351821,0.5274366760292517,0.03781441059509835,-0.6518811204736962,-1.3698123784664435,-6.012187297444073,100.7761866492651
1589478805.3290427,-1.4958736525444973,-3.7402105790925044,8.845873652544498,0.5366666666666666,0.004444444444444445,-0.6611111111111111,-1.2377632238656304,-5.80026322386563,99.54592316370018
1589478805.3390427,-1.5584245292319827,-3.7038424529231984,8.804678300305628,0.5366666666666666,0.004444444444444445,-0.6611111111111111,-1.211515330769989,-5.7740153307699895,97.24105540767032
1589478805.3490427,-1.6369439261203707,-3.7133887852240743,8.730499067016666,0.5366666666666666,0.004444444444444445,-0.6611111111111111,-1.1864602770486101,-5.74896027704861,95.34134341693286
1589478805.3590426,-1.67,-3.694017371974313,8.781339123991437,0.5366666666666666,0.004444444444444445,-0.6611111111111111,-1.0895652375267577,-5.543804287419727,92.89228192409024
1589478805.3690426,-1.6842582689641512,-3.6504944873572325,8.789011025285536,0.5366666666666666,-0.0066453203054510235,-0.6653357833967856,-1.125,-5.378090545982703,90.17255892255892
1589478805.3790426,-1.7505483439710194,-3.62315055200966,8.804383517336554,0.5366666666666666,-0.01888888888888889,-0.67,-1.0547939667069173,-5.1720879334138345,86.49912805114714
1589478805.3890426,-1.8171915257648954,-3.61,8.767370169082126,0.5366666666666666,-0.01888888888888889,-0.67,-0.8980317783816425,-4.994521185587762,83.03409319645732
1589478805.3990426,-1.8586457864343742,-3.61,8.767968679651561,0.5366666666666666,-0.01888888888888889,-0.67,-0.870768082607419,-4.791829793481453,80.00993197611824
1589478805.4090426,-1.8959526842301477,-3.6054420902199578,8.82051059401019,0.5366666666666666,-0.01888888888888889,-0.67,-0.923256531937368,-4.639243468062632,77.64858312880577
1589478805.4190426,-1.9415598980986704,-3.592411457686094,8.879148440412576,0.5366666666666666,-0.01888888888888889,-0.67,-0.8825358052690444,-4.679964194730956,75.57182606872126
1589478805.4290426,-1.9883409279204638,-3.546877847970174,8.872292615990057,0.5422222222222223,-0.05333333333333334,-0.67,-0.7643288499378624,-4.158842300124275,70.71709785366612
1589478805.4390426,-2.077013884486147,-3.562281747289672,8.841408736448361,0.5422222222222223,-0.05333333333333334,-0.67,-0.7883804602802257,-3.9660218411209027,66.69314255373106
1589478805.4490426,-2.141430199069532,-3.53214150077539,8.787143399689844,0.5422222222222223,-0.05333333333333334,-0.67,-0.7276768759692376,-3.700884379846188,62.982003829477485
1589478805.4590425,-2.178208894467248,-3.496865565317684,8.800447776383189,0.5422222222222223,-0.05333333333333334,-0.67,-0.6930972047898504,-3.4944027952101497,59.597944723362396
1589478805.4690425,-2.1478550262138136,-3.445710052427627,8.823091710356357,0.5422222222222223,-0.061188359547146874,-0.6737820496585029,-0.7634060861636653,-3.260447534381886,56.93472665450953
1589478805.4790425,-2.1788566503878197,-3.487469528460623,8.85114334961218,0.5422222222222223,-0.08333333333333333,-0.6844444444444444,-0.6408154471211064,-2.969130894242213,54.43292926909345
1589478805.4890425,-2.272806941923775,-3.4934335299455537,8.771253176043556,0.5422222222222223,-0.08333333333333333,-0.6844444444444444,-0.6914161751361162,-3.0410404378402904,50.377196290834846
1589478805.4990425,-2.327523178807947,-3.52,8.76314238410596,0.5422222222222223,-0.08333333333333333,-0.6844444444444444,-0.5428600993377484,-2.8202400662251654,47.353621688741725
1589478805.5090425,-2.35,-3.5122554405689708,8.803233678293088,0.5422222222222223,-0.08333333333333333,-0.6844444444444444,-0.4375,-2.7015965035560665,44.2556055960138
1589478805.5190425,-2.3158283370967325,-3.4726626696773857,8.857085831451634,0.5414628519354829,-0.09434420249105291,-0.6916584621684676,-0.4588572893145423,-2.603642710685458,40.735204326611125
1589478805.5290425,-2.2033920539730136,-3.3702848575712143,8.8931071964018,0.54,-0.11555555555555555,-0.7055555555555556,-0.46116004497751123,-2.465400112443778,36.11202211394303
1589478805.5390425,-2.0941066128909522,-3.254106612890952,8.886248763412222,0.54,-0.11555555555555555,-0.7055555555555556,-0.2767768815158664,-2.0781095426527663,30.711932120843162
1589478805.5490425,-2.1181479768786127,-3.1925515735388568,8.840699550417469,0.54,-0.11555555555555555,-0.7055555555555556,-0.1424887604367373,-1.174383429672447,21.47609344894027
1589478805.5590425,-2.202953398991112,-3.174317799663704,8.840454800224197,0.54,-0.11555555555555555,-0.7055555555555556,-0.3153425014012331,-0.7613700056049324,15.625070061654256
1589478805.5690424,-2.26209151325338,-3.210152522088967,8.862244035342346,0.5319389911644132,-0.11555555555555555,-0.7024207187861607,-0.35076261044483487,-0.6007626104448349,10.835510401548138
1589478805.5790424,-2.3217113866967303,-3.244634598521859,8.886827007390705,0.52,-0.11555555555555555,-0.6977777777777778,-0.3262025554302894,-0.547236314668671,6.14616059125642
1589478805.5890424,-2.3604474486353166,-3.2595525513646835,8.817013518858925,0.52,-0.11555555555555555,-0.6977777777777778,-0.06529655397072853,-0.34235172301463573,2.3880069572096705
1589478805.5990424,-2.3142630815063785,-3.2253288518829732,8.767021923458865,0.52,-0.11555555555555555,-0.6977777777777778,-0.07445191352837827,-0.3563870216179054,-0.4545527461614849
1589478805.6090424,-2.237368115499198,-3.1292101443739977,8.760614009624932,0.52,-0.11555555555555555,-0.6977777777777778,-0.23464975937667096,-0.31633756015583225,-2.7774215109617293
1589478805.6190424,-2.3140982366397087,-3.2301637277328483,8.864098236639709,0.5228415897660661,-0.11686705852450913,-0.6977777777777778,0.14959068066787948,0.36270465966606025,-6.878085655361228
1589478805.6290424,-2.2914341036401953,-3.1923901727336585,8.841434103640195,0.5337539500991653,-0.12190353252440106,-0.6977777777777778,0.24402456816585313,0.3154877159170734,-9.050065067814622
1589478805.6390424,-2.239900351699883,-3.167462631887456,8.870099648300117,0.5344444444444445,-0.12222222222222222,-0.6977777777777778,0.030782898593200478,0.4682828985932005,-12.51243314038687
1589478805.6490424,-2.2959986715636473,-3.1889087286082676,8.810363757130578,0.5344444444444445,-0.12222222222222222,-0.6977777777777778,0.3193204461983277,0.759093928264437,-14.535259728842698
1589478805.6590424,-2.18708255951376,-3.1687523214587205,8.82,0.5344444444444445,-0.12222222222222222,-0.6977777777777778,0.42706398784399796,1.1276380212730035,-17.963764139794023
1589478805.6690423,-2.1800011818335303,-3.189996454499409,8.82,0.5344444444444445,-0.12222222222222222,-0.6977777777777778,0.25002954583825765,1.4374482947830491,-19.999660222860037
1589478805.6790423,-2.1813142350332595,-3.2054570288248336,8.859599822616408,0.5344444444444445,-0.10666666666666667,-0.72,-0.028393569844789357,1.25,-24.215353658536586
1589478805.6890423,-2.211190158006446,-3.270595079003223,8.945718103922648,0.5344444444444445,-0.10666666666666667,-0.72,0.3787192437701439,1.2983501690118702,-26.35114672588633
1589478805.6990423,-2.208906634194319,-3.2926560194834087,8.78749877057818,0.5344444444444445,-0.10666666666666667,-0.72,0.17383292742898626,1.7197328056576822,-30.018534997541156
1589478805.7090423,-2.197351474196533,-3.3342920638751457,8.862648525803468,0.5344444444444445,-0.10666666666666667,-0.72,0.051082770202324934,1.5753401411849886,-32.28081633884397
1589478805.7190423,-2.2410885527893982,-3.388316414592049,8.832772138197349,0.5301322294707896,-0.10451055917983923,-0.7218480921315663,0.44802240879969574,2.1875,-34.304427639469914
1589478805.7290423,-2.257377825513841,-3.4226221744861594,8.835792608504613,0.5188888888888888,-0.09888888888888887,-0.7266666666666667,0.28620380315383487,2.1086114094615045,-36.56518210223112
1589478805.7390423,-2.2195841273399846,-3.4522495235960093,8.785085080147965,0.5188888888888888,-0.09888888888888887,-0.7266666666666667,0.3520793633000785,2.2296785674251764,-38.22341665732541
1589478805.7490423,-2.175496176086551,-3.4446183081514645,8.752633603805261,0.5188888888888888,-0.09888888888888887,-0.7266666666666667,0.47733777513523595,2.5625,-39.61188007134863
1589478805.7590423,-2.141161805639598,-3.3970539352131994,8.830622453507605,0.5188888888888888,-0.09888888888888887,-0.7266666666666667,0.3454354754124813,2.4520225704949774,-41.07417100326758
1589478805.7690423,-2.108860658357303,-3.3877721316714604,8.88445573665708,0.5203741344412485,-0.09616593870956286,-0.7311224033237457,0.16677253116011503,2.2710450623202303,-42.22278683285395
1589478805.7790422,-2.107538533033847,-3.4346015025946866,8.876111842614824,0.5255555555555556,-0.08666666666666667,-0.7466666666666667,0.5044584075594454,2.7971158314615443,-43.277273255363646
1589478805.7890422,-2.186333670859092,-3.548444894478789,8.804665316563632,0.5255555555555556,-0.08666666666666667,-0.7466666666666667,0.7826339666382435,3.197219409507568,-43.984036919100404
1589478805.7990422,-2.200136701574866,-3.597260772243984,8.727260772243985,0.5255555555555556,-0.08666666666666667,-0.7466666666666667,0.3758543848429131,2.9537657886321846,-44.825348249260536
1589478805.8090422,-2.16669109049809,-3.650827227375477,8.780827227375477,0.5255555555555556,-0.08666666666666667,-0.7466666666666667,0.22369119767713774,2.822840342193468,-45.52539290864448
1589478805.8190422,-2.1339971938576663,-3.6590007015355837,8.789000701535583,0.5255555555555556,-0.08666666666666667,-0.7466666666666667,0.5812806921817757,2.9250087691947932,-46.39382453815574
1589478805.8290422,-2.1619206830074362,-3.731920683007436,8.856158633985128,0.5333333333333333,-0.05333333333333334,-0.7533333333333333,0.372521343982374,3.122521343982374,-47.63452561277885
1589478805.8390422,-2.1696215918479758,-3.739621591847976,8.840756816304049,0.5333333333333333,-0.05333333333333334,-0.7533333333333333,0.6131747452492426,3.3631747452492426,-47.92330969429909
1589478805.8490422,-2.0811508363032942,-3.668460334521318,8.74288491636967,0.5333333333333333,-0.05333333333333334,-0.7533333333333333,0.5360614546208822,2.883407818068677,-47.93628490882691
1589478805.8590422,-2.012910762424829,-3.650672795557706,8.763583557982535,0.5333333333333333,-0.05333333333333334,-0.7533333333333333,0.6310640883850602,2.7378718232298795,-47.61893591161494
1589478805.8690422,-2.041237915373893,-3.7524758307477852,8.887524169252215,0.5340898371729345,-0.05298946795169647,-0.7537459717912975,0.6565521156526822,2.663684855434147,-47.558631514456586
1589478805.8790421,-2.0595411492317406,-3.790305900512173,8.849923524871956,0.5455555555555556,-0.04777777777777778,-0.76,0.18797796955027013,3.2466542131481093,-47.5
1589478805.8890421,-1.9927279343889797,-3.8227279343889795,8.815759781296599,0.5455555555555556,-0.04777777777777778,-0.76,0.25,2.8579504100688773,-47.4393994532415
1589478805.8990421,-1.9703908968259602,-3.8003908968259603,8.741302989419868,0.5455555555555556,-0.04777777777777778,-0.76,0.25,2.997556894837748,-47.25325747354967
1589478805.9090421,-2.031190802951648,-3.8739885036895596,8.756370109592856,0.5455555555555556,-0.04777777777777778,-0.76,0.25,3.0275287407761002,-46.702744296596855
1589478805.919042,-2.052713636508088,-3.915464772618934,8.842713636508087,0.5433291667108047,-0.04777777777777778,-0.764047979717729,0.26138494295611275,2.9602698859122256,-45.60733665427273
1589478805.929042,-2.0097389579420515,-3.9434203473526495,8.816840694705299,0.5333333333333333,-0.04777777777777778,-0.7822222222222223,0.2911228290459409,2.9556141452297044,-43.505062042332284
1589478805.939042,-1.9926684515841142,-3.95,8.803315484158858,0.5333333333333333,-0.04777777777777778,-0.7822222222222223,0.26667782240071397,2.716644355198572,-41.87887661758144
1589478805.949042,-1.9599449481865285,-3.925966968911917,8.751362694300518,0.5333333333333333,-0.04777777777777778,-0.7822222222222223,0.2958103950777202,2.5749311852331607,-40.170122247409324
1589478805.959042,-1.8603469704816158,-3.873795960642154,8.816897980321077,0.5333333333333333,-0.04777777777777778,-0.7822222222222223,0.23922190574831692,2.4698342827550492,-38.458991455204554
1589478805.969042,-1.905637861082092,-3.9391275722164183,8.847382716649255,0.5337210790149252,-0.04826245987976753,-0.7809620487570489,0.203858020942154,2.635905347294769,-36.926183158815384
1589478805.979042,-1.8615552315242905,-3.9338880788107264,8.82,0.5377777777777778,-0.05333333333333334,-0.7677777777777778,0.3652798029731844,2.7159793104061456,-35.36877734013799
1589478805.989042,-1.8764720108115798,-3.9711800270289492,8.82,0.5377777777777778,-0.05333333333333334,-0.7677777777777778,0.27204993242762643,2.3896747634966924,-34.110174087772954
1589478805.999042,-1.8981635737009543,-4.038163573700954,8.750817868504772,0.5377777777777778,-0.05333333333333334,-0.7677777777777778,-0.016589342523860025,2.301022335630965,-31.80362539766702
1589478806.009042,-1.8987810832627827,-4.036585812447087,8.73634324978835,0.5377777777777778,-0.05333333333333334,-0.7677777777777778,0.11889778700950956,2.1676773444114117,-29.963386722057056
1589478806.019042,-1.929104541476223,-4.060447729261888,8.828656812214334,0.5377777777777778,-0.05308459485450636,-0.7684244978227279,-0.11380676845278616,1.8833949236604104,-28.390865992414664
1589478806.029042,-1.9127890693377418,-4.068605465331129,8.804183604006614,0.5377777777777778,-0.048552519260483866,-0.7802078943671864,0.09013663327822619,2.0363524749586697,-26.402417825537295
1589478806.039042,-1.8827903452754626,-3.98,8.803257928347223,0.5377777777777778,-0.04777777777777778,-0.7822222222222223,-0.1875,1.767439657971642,-23.106146498538802
1589478806.049042,-1.897922935382617,-3.98,8.712462387704296,0.5377777777777778,-0.04777777777777778,-0.7822222222222223,-0.1875,1.8620183461413573,-21.309151423314212
1589478806.059042,-1.9583349288143879,-4.040009572886327,8.769990427113672,0.5377777777777778,-0.04777777777777778,-0.7822222222222223,-0.13540669491007598,1.6354665254496201,-16.94856483084506
1589478806.069042,-1.9517625936539722,-3.992115112384767,8.820352518730795,0.5389136714658933,-0.04863949023083091,-0.7824572347094185,-0.19190648413493078,1.363983789662673,-13.401663329075026
1589478806.079042,-2.021775462140064,-4.056221560611447,8.83933234091717,0.57,-0.07222222222222223,-0.7888888888888889,-0.39026950764308566,0.9652881154461429,-7.425167470227515
1589478806.089042,-2.072542546266158,-4.057287268669208,8.826946898539942,0.57,-0.07222222222222223,-0.7888888888888889,-0.5625,0.6069817725285966,-2.411972240305031
1589478806.099042,-2.0879034002162684,-4.0239517001081335,8.741855100324402,0.57,-0.07222222222222223,-0.7888888888888889,-0.5378018743241619,0.16280187432416196,3.334453472305659
1589478806.109042,-2.118254708185717,-4.033455155696439,8.789127354092857,0.57,-0.07222222222222223,-0.7888888888888889,-0.4456810553794518,0.0461378892410964,8.7999720305799
1589478806.119042,-2.080876973430882,-3.8897076755230393,8.771753946861763,0.57,-0.0718649367503815,-0.7893111353556097,-0.6286540559620074,-0.33259730779104096,15.58145416185342
1589478806.129042,-2.114080777756445,-3.8861211666346676,8.83,0.57,-0.06,-0.8033333333333333,-0.8265145829333427,-1.0510097219555619,23.853019784266838
1589478806.139042,-2.128722357006964,-3.9080835355104466,8.83,0.57,-0.06,-0.8033333333333333,-1.1010441938805788,-1.2340294625870525,28.931817586790707
1589478806.149042,-2.1474102982025207,-3.9266731709556715,8.655936043708822,0.57,-0.06,-0.8033333333333333,-1.1527642271756846,-1.518550136590069,37.01430895755377
1589478806.159042,-2.1866571741059455,-3.989348521430488,8.777988608927133,0.57,-0.06,-0.8033333333333333,-1.0166429352648632,-1.9498932086918839,42.48228915165397
1589478806.1690419,-2.229933964794981,-3.9201056563280297,8.829920757753978,0.57,-0.06,-0.8033333333333333,-1.1248349119874532,-2.43675710394354,47.24273612744795
1589478806.1790419,-2.29,-3.968720747889023,8.82018275030157,0.5966666666666667,-0.07222222222222223,-0.81,-1.3102156212303981,-2.753426568154403,53.04715018094089
1589478806.1890419,-2.2853396757114495,-3.8922327928524156,8.816019027134349,0.5966666666666667,-0.07222222222222223,-0.81,-1.2166270268034414,-3.073426125082727,59.81131080410324
1589478806.1990418,-2.2645208471211116,-3.8575347452018534,8.753562541363335,0.5966666666666667,-0.07222222222222223,-0.81,-1.346744705493051,-3.680641958967571,63.71484116479153
1589478806.2090418,-2.3345886273287086,-3.959177254657417,8.825411372671292,0.5966666666666667,-0.07222222222222223,-0.81,-1.5529403597318574,-3.6727982013407123,70.43315194091511
1589478806.2190418,-2.3591090498090264,-4.008218099618053,8.800890950190974,0.5966666666666667,-0.07222222222222223,-0.81,-1.501856146231195,-3.928219268844025,74.41772059396679
1589478806.2290418,-2.4122306484777467,-3.984461296955493,8.81417298635831,0.5755555555555556,-0.14,-0.8311111111111111,-1.600720776492958,-4.361058447014084,79.0651559287183
1589478806.2390418,-2.38,-3.917365559201859,8.771558914413012,0.5755555555555556,-0.14,-0.8311111111111111,-1.5164652549883824,-4.5625,82.59913137470956
1589478806.2490418,-2.392846508596922,-3.904282169532307,8.675693017193845,0.5755555555555556,-0.14,-0.8311111111111111,-1.6428423730512807,-4.6249483056794825,85.7317957667051
1589478806.2590418,-2.474402980829399,-3.9255970191706013,8.819726378064736,0.5755555555555556,-0.14,-0.8311111111111111,-1.722481369816258,-4.972481369816258,88.73616246657944
1589478806.2690418,-2.498262699812276,-3.901737300187724,8.764053700438023,0.5755555555555556,-0.14,-0.8311111111111111,-1.573358126173275,-4.823358126173275,91.37067310427214
1589478806.2790418,-2.5180513844082903,-3.7555889247336784,8.90441107526632,0.5384499320496258,-0.23426834079884884,-0.8190768548389177,-1.6189105762759068,-5.376605762759069,94.15738650869172
1589478806.2890418,-2.5,-3.73,8.81,0.5344444444444445,-0.24444444444444444,-0.8177777777777778,-1.5,-5.1875,98.0
1589478806.2990417,-2.4458052010983686,-3.6261266354385397,8.769353900823777,0.5344444444444445,-0.24444444444444444,-0.8177777777777778,-1.5846793732837992,-5.3286322888063316,99.29841705701826
1589478806.3090417,-2.402451960182858,-3.511225980091429,8.764903920365716,0.5344444444444445,-0.24444444444444444,-0.8177777777777778,-1.7225811877857158,-5.710487126714294,101.82219207021433
1589478806.3190417,-2.427997330852914,-3.5040053382941725,8.792002669147086,0.5344444444444445,-0.24444444444444444,-0.8177777777777778,-1.5500667286771546,-5.475133457354309,103.21228313179925
1589478806.3290417,-2.460673106822281,-3.4386537863554385,8.920360703994694,0.4867307227208967,-0.2802297357371053,-0.7632478100937232,-1.883413835278509,-6.189754399966832,102.9915861647215
1589478806.3390417,-2.5,-3.3698652548760086,8.815656537804005,0.4722222222222222,-0.2911111111111111,-0.7466666666666667,-1.2907199580874649,-5.268939916174929,102.60606008382507
1589478806.3490417,-2.5,-3.2619217265023255,8.769395025643854,0.4722222222222222,-0.2911111111111111,-0.7466666666666667,-1.7244216345888712,-6.136343269177742,101.73865673082226
1589478806.3590417,-2.629212804915896,-3.169212804915896,8.841417354602445,0.4722222222222222,-0.2911111111111111,-0.7466666666666667,-2.156495368071504,-7.2239153373471545,100.43307076686736
1589478806.3690417,-2.713822543603749,-3.253822543603749,8.8544342374775,0.4722222222222222,-0.2911111111111111,-0.7466666666666667,-1.871751055179691,-6.410360157656259,100.39239300788282
1589478806.3790417,-2.6900871846308156,-3.132801995730782,8.79448319316925,0.44,-0.3033333333333333,-0.7088888888888889,-1.4375,-5.528019957307821,100.41648503201914
1589478806.3890417,-2.8666350050658562,-3.1826540020263425,8.856729989868287,0.44,-0.3033333333333333,-0.7088888888888889,-1.4457937563323202,-5.9585312183384,100.13714380699088
1589478806.3990417,-2.926889116292669,-3.2056297054308898,8.772814852715443,0.44,-0.3033333333333333,-0.7088888888888889,-1.4648143410569403,-5.625925096849645,100.66898207367882
1589478806.4090416,-3.018862656238579,-3.2362875520795265,8.788143776039762,0.44,-0.3033333333333333,-0.7088888888888889,-1.2732027995029602,-5.29060489913018,100.9084965006213
1589478806.4190416,-2.971603125990073,-3.0356109409652547,8.88732812334988,0.44,-0.3033333333333333,-0.7088888888888889,-1.4324902312810224,-6.101621079311437,100.87666992290633
1589478806.4290416,-2.94,-2.97,8.98,0.4155555555555556,-0.3322222222222222,-0.6966666666666667,-2.1875,-6.75,100.0
1589478806.4390416,-2.94,-2.9500299271240262,8.956035912548831,0.4155555555555556,-0.3322222222222222,-0.6966666666666667,-1.8879489068603934,-6.350598542480524,99.62556113357549
1589478806.4490416,-2.971769839659022,-2.8882301603409783,8.831044448954739,0.4155555555555556,-0.3322222222222222,-0.6966666666666667,-0.8418155063933428,-5.352877004262228,98.22854170895069
1589478806.4590416,-3.096585351077364,-2.7426341404309458,8.823170702154728,0.4155555555555556,-0.3322222222222222,-0.6966666666666667,-1.8042683111532947,-5.850304933459884,95.25152466729942
1589478806.4690416,-3.138935762030736,-2.7595743048122943,8.907871524061472,0.4155555555555556,-0.3322222222222222,-0.6966666666666667,-1.7513302974615803,-5.691490892384741,94.4574544619237
1589478806.4790416,-2.955021718733711,-2.5987684609236545,8.85998262501303,0.4222222222222222,-0.3466666666666667,-0.6733333333333333,-1.445251416061438,-5.374891406331446,93.7580771970671
1589478806.4890416,-2.8092699030475727,-2.474879417590437,8.976584077561942,0.4222222222222222,-0.3466666666666667,-0.6733333333333333,-1.8551783976787017,-6.103650484762136,91.98172694339229
1589478806.4990416,-2.9275012048697695,-2.527262535884165,8.782260126144626,0.4222222222222222,-0.3466666666666667,-0.6733333333333333,-1.4107099826079668,-5.328117469563942,89.56173909854787
1589478806.5090415,-3.165594317062878,-2.5892657195104793,8.836328597552399,0.4222222222222222,-0.3466666666666667,-0.6733333333333333,-0.4558570122380081,-3.9619760163173443,85.76092804895204
1589478806.5190415,-3.26482214286809,-2.571035571426382,8.896893285720854,0.4222222222222222,-0.3466666666666667,-0.6733333333333333,-1.3067029762908244,-4.806702976290825,83.43547410688286
1589478806.5290415,-3.183272963643699,-2.407187429954723,8.938042766844488,0.40703032929374433,-0.3466666666666667,-0.6733333333333333,-1.1087579011072757,-4.558490608329224,80.9688522661048
1589478806.5390415,-3.195394728894437,-2.37,8.96269736444722,0.4033333333333333,-0.3466666666666667,-0.6733333333333333,-0.9847861759317051,-4.847861759317052,79.93092118509271
1589478806.5490415,-3.200370310635141,-2.3507406212702815,8.835184348891971,0.4033333333333333,-0.3466666666666667,-0.6733333333333333,-1.3009277926518499,-4.63888664881778,78.42360327086223
1589478806.5590415,-3.2716106570966046,-2.2863460825807964,8.901610657096604,0.4033333333333333,-0.3466666666666667,-0.6733333333333333,-1.063851885081235,-4.625,77.4301371633087
1589478806.5690415,-3.2493575635461873,-2.172458152510849,8.895614538127713,0.4033333333333333,-0.3466666666666667,-0.6733333333333333,-1.0,-4.523393908865468,75.66340863298203
1589478806.5790415,-3.2684404008114587,-2.157110100202865,8.939770701420054,0.39780325539777195,-0.3687869784089124,-0.659113132927604,-1.4888193889469479,-4.588876252535809,74.82368061105305
1589478806.5890415,-3.2653457390568827,-2.15,8.966436173962078,0.3955555555555556,-0.37777777777777777,-0.6533333333333333,-1.345301449683983,-4.428219203026245,74.45049311576325
1589478806.5990415,-3.44,-2.1486289029336856,8.850457032355438,0.3955555555555556,-0.37777777777777777,-0.6533333333333333,-0.38166505518347327,-4.134521507404962,74.86833494481652
1589478806.6090415,-3.4395931057924938,-2.059778057704997,8.879852038469998,0.3955555555555556,-0.37777777777777777,-0.6533333333333333,-0.8150430887969128,-4.749768810109371,74.43726881010937
1589478806.6190414,-3.3473424909523524,-2.009459540519465,8.84630636034631,0.3955555555555556,-0.37777777777777777,-0.6533333333333333,-1.3916094315477976,-4.697353688041109,74.3848536880411
1589478806.6290414,-3.43,-1.9967621051636089,8.979136561376963,0.38666666666666666,-0.38333333333333336,-0.6377777777777778,-1.0571035086060148,-4.6142070172120295,74.64253859703045
1589478806.6390414,-3.4288056730529983,-1.85,8.939402836526499,0.38666666666666666,-0.38333333333333336,-0.6377777777777778,-0.8230747698432446,-4.1368188604130385,75.44247636227918
1589478806.6490414,-3.339352717449259,-1.85,8.89467635872463,0.38666666666666666,-0.38333333333333336,-0.6377777777777778,-1.615106147584687,-5.022030400241709,75.81519701062808
1589478806.6590414,-3.2898981118858854,-1.8199235839144141,8.880019104021397,0.38666666666666666,-0.38333333333333336,-0.6377777777777778,-0.8126393001560162,-4.187818400356608,77.1246815996434
1589478806.6690414,-3.0762234533702677,-1.659667590027701,8.920083102493075,0.38666666666666666,-0.38333333333333336,-0.6377777777777778,-1.1047726223453371,-4.855551708217913,76.45694829178208
1589478806.6790414,-3.2706164261535724,-1.655154106538393,9.015154106538393,0.3774811647564187,-0.39836415464101194,-0.6377777777777778,-1.907598432210939,-5.422356582932478,75.46740156778907
1589478806.6890414,-3.168091777112726,-1.5497064272481118,8.863082513894826,0.3744444444444445,-0.4033333333333333,-0.6377777777777778,-0.08635278609092205,-3.2830269345874306,75.62408258515035
1589478806.6990414,-3.0570840204401555,-1.532628310836947,9.042402736212056,0.3744444444444445,-0.4033333333333333,-0.6377777777777778,-1.4739497444980558,-5.204315030843462,75.57071347136547
1589478806.7090414,-3.14561276114517,-1.5018365970279546,8.943264686625797,0.3744444444444445,-0.4033333333333333,-0.6377777777777778,-1.1154308771303296,-4.267851119973018,75.47448936571236
1589478806.7190413,-3.273165209364343,-1.5038608682273904,8.959304341136953,0.3744444444444445,-0.4033333333333333,-0.6377777777777778,-0.5284782943152389,-3.793315213210595,74.5711957357881
1589478806.7290413,-3.3159658830788827,-1.4801705846055853,8.978068233842235,0.357872547003103,-0.40664771282160167,-0.647058040344929,-1.3071692310754592,-4.334514769402257,73.5909116921117
1589478806.7390413,-3.448696111092786,-1.4385506481512023,8.891352376554408,0.3466666666666667,-0.4088888888888889,-0.6533333333333333,-1.6693831018900287,-4.419383101890029,73.27687229936998
1589478806.7490413,-3.4257664396284833,-1.3970073065015478,8.86,0.3466666666666667,-0.4088888888888889,-0.6533333333333333,-0.4283761609907122,-3.8485402476780184,73.003193498452
1589478806.7590413,-3.363039566892019,-1.3336474802704232,8.972705039459154,0.3466666666666667,-0.4088888888888889,-0.6533333333333333,-1.18540920354459,-4.571807579389662,71.64608808953054
1589478806.7690413,-3.3677042242584254,-1.3068873272247243,8.956887327224724,0.3466666666666667,-0.4088888888888889,-0.6533333333333333,-1.0092429919242119,-3.9990317790029506,71.12913738546358
1589478806.7790413,-3.7025850318672306,-1.2714927115542374,9.083034012746891,0.338220062682737,-0.43739617733465147,-0.6670590648072191,0.07213313245409236,-4.228231289834038,70.58426871016596
1589478806.7890413,-3.6722781547773864,-1.2604556309554773,8.975467571465728,0.3377777777777778,-0.4388888888888889,-0.6677777777777778,-0.8294369044522734,-4.369304613056534,70.26423846735867
1589478806.7990413,-3.6890041079951557,-1.2504979460024221,8.865477406026642,0.3377777777777778,-0.4388888888888889,-0.6677777777777778,-1.647041887303208,-3.959285137605965,70.01244865006055
1589478806.8090413,-3.333721499329396,-1.0999879997176405,8.869375750017646,0.3377777777777778,-0.4388888888888889,-0.6677777777777778,-0.7499249982352526,-4.347689063272077,70.0
1589478806.8190413,-3.215165339126237,-1.0847314077292354,8.933223107249175,0.3377777777777778,-0.4388888888888889,-0.6677777777777778,-0.7204287016922788,-4.803073121999624,67.79377698661732
1589478806.8290412,-3.1347305793343514,-1.0729041309984726,8.95688594465954,0.3356752980736215,-0.4402029387039865,-0.6622587685543676,-0.7352169395801513,-4.773574308244237,64.98464861648847
1589478806.8390412,-3.1571308016877637,-1.05,9.028270042194093,0.3288888888888889,-0.4444444444444444,-0.6444444444444445,-0.9994725738396624,-4.106012658227848,56.652426160337555
1589478806.8490412,-3.2941650251696215,-0.949376231122784,8.918877216021011,0.3288888888888889,-0.4444444444444444,-0.6444444444444445,-1.4184859925585467,-4.207293718537973,50.30812267454585
1589478806.8590412,-3.3499427824744106,-0.9100572175255895,8.94565800154428,0.3288888888888889,-0.4444444444444444,-0.6444444444444445,-0.9339239046506563,-3.4021374903482546,47.52677988081332
1589478806.8690412,-3.296118352450469,-0.8925739702815433,9.092911235662148,0.3288888888888889,-0.4444444444444444,-0.6444444444444445,-0.07252223996350365,-2.961760297184567,46.47573970281543
1589478806.8790412,-3.032902391203282,-0.8586451195601641,8.983741434721969,0.3276272355066849,-0.4463369245177504,-0.6444444444444445,-0.4072600206173064,-3.258468002748974,46.71129201786833
1589478806.8890412,-2.883491277519616,-0.8265087224803839,8.91915212919936,0.32666666666666666,-0.4477777777777778,-0.6444444444444445,-0.3720385465071989,-2.431577093014398,46.328397577512
1589478806.8990412,-3.0469558863328823,-0.8461593143888136,8.975778800180423,0.32666666666666666,-0.4477777777777778,-0.6444444444444445,-0.4134957149300857,-2.6371132160577355,42.814211772665764
1589478806.9090412,-3.1955212663895107,-0.8235992964502719,8.96359929645027,0.32666666666666666,-0.4477777777777778,-0.6444444444444445,-1.3190158298688839,-2.92050087943716,37.7409358010873
1589478806.9190412,-2.941481874112636,-0.772020255560814,8.975319829626123,0.32666666666666666,-0.4477777777777778,-0.6444444444444445,-0.8337553241836252,-2.2649420255560813,34.759261713203976
1589478806.9290411,-2.6755982411478825,-0.75,8.99,0.32086656895266014,-0.4564779243487876,-0.6570113228247919,0.06000732855048985,-3.071270153513847,30.813700532284194
1589478806.9390411,-2.826650825196578,-0.75,9.023330165039315,0.32,-0.4577777777777778,-0.6588888888888889,-0.9686460403525448,-1.8438836624038712,26.833669964572714
1589478806.9490411,-3.0313852390604508,-0.6928715869798499,8.92390437581972,0.32,-0.4577777777777778,-0.6588888888888889,-0.26936479074758557,-1.9195525813759389,23.319586860617623
1589478806.959041,-3.254934426229508,-0.7118852459016394,8.893622950819672,0.32,-0.4577777777777778,-0.6588888888888889,0.3360655737704918,-1.4818647540983605,21.13309426229508
1589478806.969041,-3.3402085166285413,-0.7431943222476391,9.02854038360021,0.32,-0.4577777777777778,-0.6588888888888889,-0.30337739750131965,-1.063803228928383,19.0542645463077
1589478806.979041,-3.277048557244803,-0.7029320508842694,8.982330127210673,0.31150162029854866,-0.468237322025718,-0.6464681800944599,-1.1544901877133107,-1.735436704933292,16.52536456717344
1589478806.989041,-3.455341249850066,-0.7031294230538563,8.81717644236536,0.3055555555555556,-0.4755555555555556,-0.6377777777777778,-0.5574997001319418,-2.042941105913398,12.806322718004079
1589478806.999041,-3.5621120486471196,-0.7632388988403884,8.853238898840388,0.3055555555555556,-0.4755555555555556,-0.6377777777777778,0.4014006080889978,0.05191589280663722,10.648784411237862
1589478807.009041,-3.640877915736873,-0.7558244168526254,8.980492456752684,0.3055555555555556,-0.4755555555555556,-0.6377777777777778,0.3671039079933627,-0.9721622227308271,9.019941685262536
1589478807.019041,-3.7384756379319195,-0.7294573086204241,8.92728654310212,0.3055555555555556,-0.4755555555555556,-0.6377777777777778,0.2697027262925502,-0.7724463469733532,7.495959978436104
1589478807.029041,-3.5680391489361702,-0.7115849645390071,9.132451063829787,0.31584059889676913,-0.468075524034673,-0.6508678329393223,-0.7492854609929078,-0.9634397163120567,5.9580265957446805
1589478807.039041,-3.5899872125399606,-0.7025015984325048,9.030031968650098,0.31777777777777777,-0.4666666666666667,-0.6533333333333333,-0.5157149118284006,-1.296825048984222,4.6721047746725795
1589478807.049041,-3.6256173281416424,-0.7,8.896707583244574,0.31777777777777777,-0.4666666666666667,-0.6533333333333333,-0.1797833982294704,-0.5290613923277051,3.336416991147352
1589478807.059041,-3.6802261186924787,-0.7,8.998144239923834,0.31777777777777777,-0.4666666666666667,-0.6533333333333333,-0.21549706442399238,-0.7197367899079657,1.5755117423040303
1589478807.069041,-3.598285856276712,-0.6751746347281582,8.99966683232283,0.31777777777777777,-0.4666666666666667,-0.6533333333333333,0.0904755988470331,-0.4289695358314283,0.045338435543186506
1589478807.079041,-3.5519748774313453,-0.7112747140064729,9.110448937738328,0.31777777777777777,-0.4658527823173576,-0.6533333333333333,-0.1743719357836383,-0.27030994648636525,-1.6903058608645496
1589478807.089041,-3.552696421583547,-0.664267794251924,9.019321274838036,0.31777777777777777,-0.4655555555555556,-0.6533333333333333,0.12712101613113613,-0.026673714074525012,-3.540068318187747
1589478807.099041,-3.788698303092632,-0.7195661010308774,8.996166409559489,0.31777777777777777,-0.4655555555555556,-0.6533333333333333,0.35770801194936214,0.4414560836455349,-6.006444513822571
1589478807.109041,-3.830426844769014,-0.7216724827251507,8.946263086131589,0.31777777777777777,-0.4655555555555556,-0.6533333333333333,-0.11187920316147076,0.2969295255482887,-8.741778558387836
1589478807.119041,-3.7057406199988145,-0.6868312488886255,8.977921877778437,0.31777777777777777,-0.4655555555555556,-0.6533333333333333,-0.02289061110781815,0.5495117361152273,-10.576132861122636
1589478807.129041,-3.677743039496809,-0.6986458236980853,9.077291647396171,0.3204301688609338,-0.4644945991222932,-0.6559857244164894,0.426215197484044,0.6633030015724725,-12.118163791508648
1589478807.139041,-3.8214039824502195,-0.73,9.029009449881878,0.3233333333333333,-0.4633333333333333,-0.6588888888888889,0.2794465069186635,0.9896641916976038,-14.509797924400946
1589478807.149041,-3.92395417914445,-0.7531232196333357,9.000830959511115,0.3233333333333333,-0.4633333333333333,-0.6588888888888889,-0.5155804908333942,0.5273993864582572,-16.8058746013196
1589478807.159041,-3.9945196820227946,-0.7677885260032564,9.01,0.3233333333333333,-0.4633333333333333,-0.6588888888888889,0.042674312805286885,0.5558914376017623,-17.980174312805286
1589478807.169041,-4.023567991371443,-0.803919978428607,9.037135982742885,0.3233333333333333,-0.4633333333333333,-0.6588888888888889,0.5043998382145524,1.3457995416078985,-18.950699514643656
1589478807.179041,-4.158186314122248,-0.8285457542748165,9.084183017099265,0.3109894660474872,-0.4756772006191795,-0.6664851149109481,0.03747939360636132,0.6726916798655331,-20.96823989074571
1589478807.189041,-3.92127100073046,-0.8152154857560263,8.964331628926223,0.3088888888888889,-0.4777777777777778,-0.6677777777777778,-0.016298392987582178,1.1006208911614317,-21.66581446311176
1589478807.199041,-3.942493540254005,-0.8324987080508011,8.969497157711762,0.3088888888888889,-0.4777777777777778,-0.6677777777777778,0.0,0.9750193792379849,-22.26247416101602
1589478807.2090409,-3.9721665005327744,-0.86,8.95029697865466,0.3088888888888889,-0.4777777777777778,-0.6677777777777778,0.029302581376963534,0.7676180696387447,-23.164130976523563
1589478807.2190409,-3.74536362187877,-0.8734318166298682,8.851181799558418,0.3088888888888889,-0.4777777777777778,-0.6677777777777778,0.125,1.1296875355655203,-25.04005673411786
1589478807.2290409,-4.04610564010743,-0.8839122649955238,8.98303491495076,0.3251228489008256,-0.4764249477767831,-0.6677777777777778,0.048903312444046554,1.0543867502238138,-28.106255595344674
1589478807.2390409,-4.187239881912739,-0.9114932546084926,8.987239881912739,0.33555555555555555,-0.4755555555555556,-0.6677777777777778,0.164027367752566,1.742082103257698,-30.32013683876283
1589478807.2490408,-4.276253468343484,-0.960557097041548,8.947771611833806,0.33555555555555555,-0.4755555555555556,-0.6677777777777778,0.055536286980649385,1.5129702533242044,-31.544306961911282
1589478807.2590408,-4.124965728145102,-0.9649973637034693,8.829992969875917,0.33555555555555555,-0.4755555555555556,-0.6677777777777778,0.18756590741326584,1.4375988611198989,-32.15627746142219
1589478807.2690408,-3.921082411230388,-0.9633763831544178,8.910387448389761,0.33555555555555555,-0.4755555555555556,-0.6677777777777778,0.25595788604459124,1.665590421139554,-33.09278901734104
1589478807.2790408,-3.628638386736136,-0.9640738709473284,9.022839032210433,0.3390946953450381,-0.4826338351345207,-0.6677777777777778,-0.22453830657919716,1.0841028223680047,-37.081828632902315
1589478807.2890408,-3.3943133195307107,-0.9356866804692892,8.997156659765356,0.3422222222222222,-0.4888888888888889,-0.6677777777777778,-0.3125,0.9375,-39.75
1589478807.2990408,-3.1584607759841403,-0.93,9.020703362058502,0.3422222222222222,-0.4888888888888889,-0.6677777777777778,-0.44189601286563907,1.1100280171541854,-41.56154418011894
1589478807.3090408,-2.9813796747338848,-0.957448130106446,9.07803422768628,0.3422222222222222,-0.4888888888888889,-0.6677777777777778,0.82951880203098,3.1603343514008095,-44.219171241526844
1589478807.3190408,-3.2168248307428247,-1.0040627443501478,8.95807189854105,0.3422222222222222,-0.4888888888888889,-0.6677777777777778,1.4729820253647372,3.8496078478115763,-45.52376632974158
1589478807.3290408,-3.4058726959580783,-1.0158726959580784,8.977145736377294,0.3461464733449782,-0.4935979902361961,-0.6717020289005338,0.04312177067682943,2.583804371724871,-45.919147825131006
1589478807.3390408,-3.3265992953829038,-1.0571861672538476,9.103400704617096,0.3477777777777778,-0.4955555555555556,-0.6733333333333333,0.28947246430558127,2.7148270906730945,-46.265181717040605
1589478807.3490407,-3.26,-1.1074524079887784,8.99114220826932,0.3477777777777778,-0.4955555555555556,-0.6733333333333333,1.178943874824661,3.5294652995791864,-47.2145856990181
1589478807.3590407,-3.376318278849776,-1.1636193545686662,8.869324013226738,0.3477777777777778,-0.4955555555555556,-0.6733333333333333,0.3753897911347369,3.060972228035662,-50.06939067012683
1589478807.3690407,-3.473770020067396,-1.21,9.020655030101095,0.3477777777777778,-0.4955555555555556,-0.6733333333333333,-0.21618004808602476,2.554312123736322,-52.675218185604486
1589478807.3790407,-3.4379888268156424,-1.2279888268156425,8.946745810055866,0.3477777777777778,-0.5030509000620733,-0.6700853507138423,0.8483763966480447,3.4922311452513966,-54.83397346368715
1589478807.3890407,-3.6413123657951245,-1.3357187065807756,8.982468738158394,0.3477777777777778,-0.5288888888888889,-0.6588888888888889,1.0056642351900973,3.4058592269799166,-58.54316265630921
1589478807.3990407,-3.8067003169386076,-1.4221997887075948,8.950050475407911,0.3477777777777778,-0.5288888888888889,-0.6588888888888889,0.5071898110106821,3.590312830144383,-62.01248679422467
1589478807.4090407,-3.6399014681571926,-1.434996481005614,8.894989443016842,0.3477777777777778,-0.5288888888888889,-0.6588888888888889,0.40631598114473705,3.5312280062850876,-64.34460775488158
1589478807.4190407,-3.4045975829262023,-1.4410079712008228,8.872661352532784,0.3477777777777778,-0.5288888888888889,-0.6588888888888889,0.7522660066855233,3.935732193365904,-66.50276420673696
1589478807.4290407,-3.2469471942041657,-1.5294719420416576,8.998943884083316,0.32076091142824426,-0.6060799356018417,-0.6442225900134279,0.40594065203135254,3.8625206882553167,-71.5117571745308
1589478807.4390407,-3.2687747680890538,-1.5627814471243042,9.058609276437847,0.3088888888888889,-0.64,-0.6377777777777778,0.12334415584415584,3.5869202226345083,-73.30422077922078
1589478807.4490407,-3.538994797180117,-1.6227937566161401,8.986814567895673,0.3088888888888889,-0.64,-0.6377777777777778,0.8900130070497083,4.75,-78.56217482375729
1589478807.4590406,-3.745517964679613,-1.7477589823398065,8.943879491169904,0.3088888888888889,-0.64,-0.6377777777777778,0.8125,4.841415606603965,-81.68840288585154
1589478807.4690406,-3.7062571756601606,-1.8344064293915041,8.967625717566015,0.3088888888888889,-0.64,-0.6377777777777778,0.8824196326061998,4.8326205510907005,-84.0212543053961
1589478807.4790406,-3.1911192092339453,-1.7974153085801872,8.858762864024524,0.291510386798322,-0.781200329485856,-0.5588504141164531,0.9782308642747661,4.953654321373831,-87.4003135850355
1589478807.4890406,-2.9823478065746665,-1.8007391450690005,8.816913048356334,0.2822222222222222,-0.8566666666666667,-0.5166666666666667,1.086413104454168,5.753804835633344,-92.8114159093459
1589478807.4990406,-3.051651216685979,-1.918868288914639,8.969693897257628,0.2822222222222222,-0.8566666666666667,-0.5166666666666667,0.4870998696407879,5.041859791425261,-98.32482075608343
1589478807.5090406,-3.4228887858054042,-2.0831821871738376,8.926817812826162,0.2822222222222222,-0.8566666666666667,-0.5166666666666667,1.061333062739186,6.601443813058101,-102.97527687579729
1589478807.5190406,-3.5445528824330457,-2.1570426690876077,8.86431911030413,0.2822222222222222,-0.8566666666666667,-0.5166666666666667,1.6065166817975487,7.482977757603268,-106.07075578756242
1589478807.5290406,-3.1770432150185903,-2.1145072025030984,8.898418090574777,0.30783428260540757,-1.01603059793982,-0.31793604998972846,1.4207077043418193,6.894773867815275,-109.04664992177817
1589478807.5390406,-2.7723165529010236,-2.092081911262799,8.90442832764505,0.3422222222222222,-1.23,-0.05111111111111112,0.9811220136518771,6.311033489761092,-113.14497120307168
1589478807.5490406,-2.7604272151898734,-2.218966244725739,8.833707805907173,0.3422222222222222,-1.23,-0.05111111111111112,0.931039029535865,6.318960970464135,-119.53889767932489
1589478807.5590405,-2.748141285099924,-2.2954711611434355,8.85573298760435,0.3422222222222222,-1.23,-0.05111111111111112,1.3025194472552493,7.067571306602581,-124.80268150771566
1589478807.5690405,-2.9159228824273073,-2.405922882427307,8.877940019665683,0.3422222222222222,-1.23,-0.05111111111111112,1.5376874385447394,8.150214215479702,-128.59831305309734
1589478807.5790405,-3.0662351447269884,-2.5998811578159082,8.921413408003126,0.8687455547234795,-1.0533375660686572,0.0015412221390146072,1.2264696545436786,7.711030345456321,-133.42569514537817
1589478807.5890405,-3.1742006294891456,-2.666776692760875,8.88612944879348,1.1866666666666668,-0.9466666666666668,0.03333333333333333,1.4798543297554676,8.262135824388668,-134.4375
1589478807.5990405,-3.0975145335837584,-2.7225681066094265,8.89,1.1866666666666668,-0.9466666666666668,0.03333333333333333,1.4723370002683123,8.192454834093551,-134.36116850013417
1589478807.6090405,-2.89,-2.766796081145063,8.899611756564811,1.1866666666666668,-0.9466666666666668,0.03333333333333333,1.1298530429398697,7.48240202862658,-134.29004898568672
1589478807.6190405,-2.799996337816118,-2.7505259302964333,8.910525930296433,1.1866666666666668,-0.9466666666666668,0.03333333333333333,1.052638806941873,7.430925871294582,-134.01972238611626
1589478807.6290405,-2.6844530771462654,-2.760729230471646,8.910364615235823,1.1060529926102638,-0.7100079521153702,-0.26378563676026523,1.6386730713433701,7.854004803507528,-133.30110577388052
1589478807.6390405,-2.7665425436814304,-2.9248138155221453,8.898058512799675,1.0311111111111109,-0.49,-0.54,1.835438845997562,8.20728057700122,-133.21941487200326
1589478807.6490405,-2.9192667790651794,-3.1525698604584425,8.84073322093482,1.0311111111111109,-0.49,-0.54,1.5418557412921046,8.345757703483159,-133.40022688955054
1589478807.6590405,-3.036148409893993,-3.3021319199057717,8.78409893992933,1.0311111111111109,-0.49,-0.54,1.412912249705536,8.261778563015312,-132.62293875147233
1589478807.6690404,-3.0734653135917482,-3.3830693728165033,8.853069372816503,1.0311111111111109,-0.49,-0.54,1.5625,7.82776368324738,-131.49608010314424
1589478807.6790404,-3.0135834838388242,-3.4765666064644707,8.917016877374353,0.9428267353110099,-0.4334542221115055,-0.5750219011438418,1.5009380643955907,7.4981238712088185,-129.96646322476178
1589478807.6890404,-2.8969210773341034,-3.469230269333526,8.859615134666763,0.7622222222222222,-0.31777777777777777,-0.6466666666666666,1.4615405444436422,7.6634594555563575,-128.22594591667269
1589478807.6990404,-2.7885229146731274,-3.4979320805423786,8.82059083413075,0.7622222222222222,-0.31777777777777777,-0.6466666666666666,1.5946731783292953,7.560653643341409,-126.15084899322027
1589478807.7090404,-2.747933349912957,-3.5377766724695348,8.809206665008706,0.7622222222222222,-0.31777777777777777,-0.6466666666666666,1.4186458592389952,7.423604202934594,-124.58827095249937
1589478807.7190404,-2.5065207926891877,-3.417150836841565,8.875232775438956,0.7622222222222222,-0.31777777777777777,-0.6466666666666666,1.3075341410822467,7.216267070541123,-122.69058424889619
1589478807.7290404,-2.2479581135587963,-3.247112938256283,8.867112938256282,0.7201096976591858,-0.2605479367049333,-0.6682628331092495,1.4964784362395285,7.523326481538939,-120.25132446478436
1589478807.7390404,-2.2148274845178415,-3.3645514597463873,8.864827484517841,0.6755555555555556,-0.2,-0.6911111111111111,1.3755750516071954,6.877156443526983,-118.84425317015629
1589478807.7490404,-2.26326120269329,-3.53326120269329,8.852143951706525,0.6755555555555556,-0.2,-0.6911111111111111,1.2682435570002322,6.462726375667518,-118.50563036916647
1589478807.7590404,-2.21154226109992,-3.5153732167002403,8.74383095560032,0.6755555555555556,-0.2,-0.6911111111111111,1.5528608681255,7.23320869781175,-117.889613054996
1589478807.7690403,-2.153414761856812,-3.5584700432987613,8.806940086597523,0.6755555555555556,-0.2,-0.6911111111111111,1.625,7.522033279629444,-116.49196455543249
1589478807.7790403,-1.9103258339798292,-3.4936384794414272,8.910853374709077,0.6411180070683562,-0.15707783811740367,-0.7005939143177312,1.4284813809154384,6.939536462373933,-115.34692591155935
1589478807.7890403,-1.764947694918726,-3.4712003101727897,8.946294459319082,0.5988888888888889,-0.10444444444444444,-0.7122222222222222,1.1875,6.007501938579935,-115.45302692797262
1589478807.7990403,-1.8876795563943876,-3.587795578574668,8.84197237706477,0.5988888888888889,-0.10444444444444444,-0.7122222222222222,1.1875,6.736222366091677,-115.68314916823948
1589478807.8090403,-1.9003530033840947,-3.637798434856176,8.749428722504229,0.5988888888888889,-0.10444444444444444,-0.7122222222222222,1.1068276755499153,6.473844648900169,-113.63791772419627
1589478807.8190403,-1.9545131342402533,-3.795440446483673,8.845177761678606,0.5988888888888889,-0.10444444444444444,-0.7122222222222222,1.3163638010142478,6.788156712012665,-110.57331998443746
1589478807.8290403,-1.95207474791758,-4.027170100832968,8.81377575624726,0.5929138048614155,-0.0777557357883969,-0.7070438160650787,1.7393686979395002,6.8454899167032,-105.4056060938185
1589478807.8390403,-1.8891539248091693,-4.031186835659763,8.87915392480917,0.5822222222222222,-0.03,-0.6977777777777778,0.9925822771264833,5.590041138563242,-101.09966143913633
1589478807.8490403,-1.8404879686047713,-4.096096251161829,8.8067078901167,0.5822222222222222,-0.03,-0.6977777777777778,1.3894760792109884,5.68445019622018,-96.57701803418362
1589478807.8590403,-1.711401007949729,-4.061401007949729,8.669647006726693,0.5822222222222222,-0.03,-0.6977777777777778,1.9210562385340446,6.092112477068089,-92.11179701832444
1589478807.8690403,-1.4837985323549034,-3.8302068045363575,8.621834556370914,0.5822222222222222,-0.03,-0.6977777777777778,1.7433789192795197,5.75920613742495,-88.59722314876585
1589478807.8790402,-1.3682814272288297,-3.772083805943546,8.89461872508669,0.574187848606295,-0.0006981668125006744,-0.6973051675650762,0.9295783776776745,4.410915675535535,-86.05088594160158
1589478807.8890402,-1.42,-3.91,9.09,0.5633333333333334,0.03888888888888889,-0.6966666666666667,0.75,4.375,-84.9375
1589478807.8990402,-1.381874665679134,-3.824217997778052,8.842185326914374,0.5633333333333334,0.03888888888888889,-0.6966666666666667,1.166995844134469,4.851566679010822,-80.88668322840802
1589478807.9090402,-1.425422566568706,-3.910845133137412,8.648309733725176,0.5633333333333334,0.03888888888888889,-0.6966666666666667,0.9036089589455873,3.5691012111497016,-75.74779588565322
1589478807.9190402,-1.2746712512244367,-3.8686850048977472,8.771314995102253,0.5633333333333334,0.03888888888888889,-0.6966666666666667,0.9543672410691082,4.0583906403054595,-67.87607450572736
1589478807.9290402,-1.2482634462708264,-3.806087815423609,8.810439077118044,0.562246615395447,0.04823466315471236,-0.6966666666666667,0.3491767304036677,3.8627744231987773,-63.64283750792053
1589478807.9390402,-1.2,-3.79,8.73,0.5577777777777778,0.08666666666666667,-0.6966666666666667,0.5,3.8125,-60.375
1589478807.9490402,-1.1359881762724637,-3.780855453753209,8.885457286195445,0.5577777777777778,0.08666666666666667,-0.6966666666666667,0.7286136561697718,2.8408919612784698,-58.20317026638717
1589478807.9590402,-1.1190826673028749,-3.694348801145175,8.754541333651437,0.5577777777777778,0.08666666666666667,-0.6966666666666667,0.6579133365143743,2.923909996421329,-56.40671000835023
1589478807.9690402,-1.05,-3.5944351298239745,8.774300288497722,0.5577777777777778,0.08666666666666667,-0.6966666666666667,0.2955311598444621,3.2106869590667726,-55.29637391813355
1589478807.9790401,-1.0651864987159105,-3.690372997431821,8.913491500550323,0.5589830554536437,0.09389833272186214,-0.6981129998777058,0.37203436468142353,3.1680093555093554,-54.84491561697444
1589478807.9890401,-1.1084103328365624,-3.834769001490313,8.886136777612188,0.5633333333333334,0.12,-0.7033333333333334,0.6676291604570292,3.7102583209140585,-55.50138681900977
1589478807.9990401,-1.0652076231794236,-3.8935417681172253,8.837498782593299,0.5633333333333334,0.12,-0.7033333333333334,0.4153639492673425,2.962231340475453,-56.22136050732657
1589478808.00904,-1.02,-3.9,8.743747103608078,0.5633333333333334,0.12,-0.7033333333333334,0.598477325388944,2.965719132737504,-56.746896722939425
1589478808.01904,-1.0139888624946454,-3.881966587483936,8.746066825032129,0.5633333333333334,0.12,-0.7033333333333334,0.7243735153238055,3.6680191012111063,-57.1690632423381
1589478808.02904,-1.035802272087128,-3.8889925828560696,8.824347009670454,0.5610302631990737,0.12334992019528683,-0.7020771132601008,0.1141559477983288,2.891324758238663,-57.456506431321
1589478808.03904,-1.1792346138329821,-4.103588462055672,8.789234613832983,0.5511111111111111,0.13777777777777778,-0.6966666666666667,0.9198557756959075,3.3654326729122777,-56.259879701017525
1589478808.04904,-1.1152815501425115,-4.058893200162871,8.744446600081435,0.5511111111111111,0.13777777777777778,-0.6966666666666667,0.9001820315681062,3.105036406313621,-54.019174690426574
1589478808.05904,-1.022656977315133,-3.9260872041638026,8.703284886575664,0.5511111111111111,0.13777777777777778,-0.6966666666666667,0.6875,2.9960755671216734,-51.16577015614259
1589478808.06904,-1.0188672461339756,-3.85602401647642,8.737614409885852,0.5511111111111111,0.13777777777777778,-0.6966666666666667,0.6775600411910496,2.80256004119105,-48.38930123573149
1589478808.07904,-0.9163779802422592,-3.819420707229378,8.715652424337629,0.5511111111111111,0.13777777777777778,-0.6966666666666667,0.5860517680734457,2.7110517680734456,-45.644053042203375
1589478808.08904,-1.047678092399404,-4.142193740685544,8.86451564828614,0.52,0.17,-0.7066666666666667,0.5137108792846498,2.249198956780924,-41.08867362146051
1589478808.09904,-1.1060190760059614,-4.15886259314456,8.8228435171386,0.52,0.17,-0.7066666666666667,0.6178912071535022,2.71801043219076,-37.963263785394936
1589478808.10904,-0.890739308210852,-3.9,8.797404133053377,0.52,0.17,-0.7066666666666667,0.9467413526356503,2.6365689578959,-32.805620786827276
1589478808.11904,-0.9220550621669626,-3.8506514209591476,8.833734014209591,0.52,0.17,-0.7066666666666667,1.5484805173179397,2.4760324156305504,-30.001720692717583
1589478808.12904,-0.835763027027027,-3.6391001081081082,8.585148108108108,0.5211781861861862,0.17538599399399402,-0.7059934174174174,1.5,1.1231486486486486,-27.62699189189189
1589478808.13904,-0.7133524152796918,-3.432889854765186,8.682398671331143,0.5277777777777778,0.20555555555555555,-0.7022222222222222,1.4761564012862645,0.03269550160783066,-24.960985812219512
1589478808.14904,-0.8292077922077922,-3.6104285714285713,8.918714285714286,0.5277777777777778,0.20555555555555555,-0.7022222222222222,1.3849025974025975,0.6943181818181818,-21.508441558441557
1589478808.15904,-0.7753638345293786,-3.442388988219158,8.786787087609298,0.5277777777777778,0.20555555555555555,-0.7022222222222222,2.195709544686375,1.8042904553136252,-18.026401271155308
1589478808.16904,-0.7258379400341135,-3.2271291177739876,8.306992047019174,0.5277777777777778,0.20555555555555555,-0.7022222222222222,2.360919165245268,0.36512684696163256,-14.441362179157847
1589478808.17904,-0.7649294446714228,-3.183533737703888,8.826414092209058,0.5209403535972568,0.21087355214040526,-0.6971574635699844,0.4282209528897828,0.4447853483767561,-10.658684669537069
1589478808.18904,-5.1117826235871675,-10.77296814704875,6.947380751227309,0.4977777777777778,0.2288888888888889,-0.68,1.6480377326178788,1.9782423792670396,-6.37803973056285
1589478808.19904,-13.484584235209235,-26.871725288600288,6.888106060606061,0.4977777777777778,0.2288888888888889,-0.68,-18.010287022005773,-0.04694827741702734,-43.43943903318904
1589478808.20904,-9.981168216058247,-23.967492253042103,12.31910110094979,0.4977777777777778,0.2288888888888889,-0.68,-52.38249974806641,-14.685545940090192,-136.4412632580052
1589478808.21904,2.261077865592581,-1.4479779654419604,12.724854372218179,0.4977777777777778,0.2288888888888889,-0.68,-40.17690263839293,-26.746016602074835,-185.620279366718
1589478808.22904,-0.49305302171300935,-0.9510986816497149,4.930947892162669,0.4977777777777778,0.2288888888888889,-0.68,1.481101600974803,6.704606610367414,-191.9199988576554
1589478808.23904,0.7168941506423171,-1.161399719540304,13.861065424477362,0.5066666666666667,0.24,-0.6877777777777778,76.78444899340758,56.27744153060073,-183.05921386663658
1589478808.24904,0.7439362679518383,-0.9315417224093745,9.628974065537307,0.5066666666666667,0.24,-0.6877777777777778,77.16472876807272,38.48879873793136,-171.52406070179399
1589478808.2590399,0.45692852087756547,-2.6514720452937013,12.359879688605803,0.5066666666666667,0.24,-0.6877777777777778,-47.31232307147912,-16.38742922859165,-134.42122257607926
1589478808.2690399,0.0037124163940574634,-1.6854582960015003,7.88878273914946,0.5066666666666667,0.24,-0.6877777777777778,-6.314833673660743,14.393898589377617,-114.68921248932136
1589478808.2790399,-0.8267305820517812,-3.3155571345143082,8.488048471870743,0.5017200484502412,0.24641723444293037,-0.685772392014362,25.38833949776134,21.679926270196614,-106.3286828401791
1589478808.2890399,-7.726056063850495,-11.29264707027448,8.610521705275453,0.4681533104059871,0.28996327298682756,-0.6721642549693941,14.876053630523652,2.5434835507105333,-96.68391570955811
1589478808.2990398,-1.1955721342707333,-5.583389138974592,9.077385227521791,0.4655555555555556,0.2933333333333333,-0.6711111111111111,-15.125386719606157,2.0746621735538584,-11.494252946234383
1589478808.3090398,1.3572279264242237,-0.7818621550081764,5.541651071434593,0.4655555555555556,0.2933333333333333,-0.6711111111111111,-2.971300558056413,-1.5936620133866102,72.17005652217895
1589478808.3190398,1.0977039915224303,-3.090785548883394,10.905226853487186,0.4655555555555556,0.2933333333333333,-0.6711111111111111,5.539274991169198,-9.042297087797795,77.88066520467837
1589478808.3290398,0.30084944773237965,-2.656135076114821,7.2779086622147675,0.4648100558069859,0.2941533830567599,-0.671260211060825,4.40274788745767,4.670569990821914,70.11016670886477
1589478808.3390398,3.5863458897390625,-12.575542475966255,8.96654895036296,0.4211111111111111,0.3422222222222222,-0.68,-8.474966892289583,-8.546105552285658,48.18111143810084
1589478808.3490398,-0.5065780597683798,0.22845531523456852,7.857906927376937,0.4211111111111111,0.3422222222222222,-0.68,-2.3104243814420835,-3.3448932117838535,18.79568129820506
1589478808.3590398,-0.5446169131073001,-3.10703734202141,8.714359314023843,0.4211111111111111,0.3422222222222222,-0.68,10.385211548100678,13.955889065912427,12.684745444130177
1589478808.3690398,0.1987071712434213,-4.2182693065053165,8.549176184168127,0.4211111111111111,0.3422222222222222,-0.68,3.8623549998209885,-1.811591511224087,6.114961870323297
1589478808.3790398,0.1978728517951336,-4.456934022460439,8.61582886676876,0.4211111111111111,0.3422222222222222,-0.68,-4.556817094180705,-6.478943338437979,0.4841064743916963
1589478808.3890398,0.06061483538278463,-4.3559777865926215,8.769485918286394,0.4544444444444444,0.3377777777777778,-0.68,1.3370091233637447,0.8106108687028957,-0.4606852439508132
1589478808.3990397,-0.16181187477282424,-4.229960807244338,8.813780520568294,0.4544444444444444,0.3377777777777778,-0.68,2.28421760671334,2.9835317334892615,0.22465706338796088
1589478808.4090397,-0.0027284795423297703,-4.196818433237985,8.628183226132718,0.4544444444444444,0.3377777777777778,-0.68,-0.4914562163187255,-0.37213363465398164,-0.06533870916762807
1589478808.4190397,0.06707301085426748,-4.349114114403594,8.741360735699551,0.4544444444444444,0.3377777777777778,-0.68,-1.1679218319227285,-2.4123850469451886,-0.34948620563342264
1589478808.4290397,-0.08656731380979006,-4.219732788370703,8.757533401453662,0.4544444444444444,0.3377777777777778,-0.68,0.550423904451599,0.11459397713470487,-0.0462487227438354
1589478808.4390397,-0.04995608108108108,-4.2375274493243245,8.767505489864865,0.4544444444444444,0.33194017454954955,-0.6733284534534535,0.20267894847972967,1.0160024282094595,0.0
1589478808.4490397,0.018298260701686647,-4.240850869649157,8.72255260894747,0.4544444444444444,0.33,-0.6711111111111111,-0.14495651754216615,-0.603728258771083,0.11436412938554154
1589478808.4590397,0.003575477824385276,-4.248212261087807,8.744636783263422,0.4544444444444444,0.33,-0.6711111111111111,0.223113054390368,-0.419693472804816,0.022346736402408002
1589478808.4690397,-0.03598625707356508,-4.2253516572352465,8.735351657235247,0.4544444444444444,0.33,-0.6711111111111111,0.08715642683912692,0.38732821341956347,0.10827607113985449
1589478808.4790397,-0.012867825383993534,-4.256176232821342,8.766176232821342,0.4544444444444444,0.33,-0.6711111111111111,-0.4908043654001617,0.09834781729991915,0.011949272433306388
1589478808.4890397,-0.0006981667301748592,-4.2386036665396505,8.740349083365087,0.44,0.3377777777777778,-0.6666666666666666,0.0065453130953893055,-0.18313645793640712,0.055954686904610695
1589478808.4990396,-0.018456327532918412,-4.203087344934163,8.749228163766459,0.44,0.3377777777777778,-0.6666666666666666,0.1730280706211101,-0.07214795291925992,-0.11052807062111011
1589478808.5090396,-0.016067275348390198,-4.21,8.709100913022585,0.44,0.3377777777777778,-0.6666666666666666,0.16853976453628064,-0.05301988226814032,-0.03405964680442095
1589478808.5190396,-0.045031353536866145,-4.208757838384217,8.757515676768433,0.44,0.3377777777777778,-0.6666666666666666,0.03920946970406005,-0.0155270201972933,0.1094729798027067
1589478808.5290396,-0.013626902270557628,-4.2009067255676396,8.741813451135279,0.44,0.3377777777777778,-0.6666666666666666,-0.10799889560676112,-0.11366593040450741,0.011334069595492588
1589478808.5390396,-0.026443498880836823,-4.224665248321256,8.772886997761674,0.4582705543120409,0.33138308376856346,-0.6666666666666666,-0.3305437360104603,-0.07361406599738493,-0.1541578020078452
1589478808.5490396,-0.002568500880241954,-4.238715749559879,8.753578747799395,0.4622222222222222,0.33,-0.6666666666666666,0.08657969575226832,0.016053130501512212,0.008026565250756106
1589478808.5590396,-0.020807641889595573,-4.2267694324416185,8.71,0.4622222222222222,0.33,-0.6666666666666666,0.25,0.125,0.05745223819002768
1589478808.5690396,-0.029205690343954007,-4.190794309656046,8.715560167592322,0.4622222222222222,0.33,-0.6666666666666666,0.20532008184741304,0.1001778232485628,-0.00496443535028744
1589478808.5790396,-0.02103205690343954,-4.1989679430965605,8.772775601675923,0.4622222222222222,0.33,-0.6666666666666666,-0.2544467991815258,-0.15524822176751435,-0.056049644353502875
1589478808.5890396,-0.02687819069069069,-4.227512762762763,8.78687819069069,0.44693735402068735,0.3261787829496163,-0.6758375875875876,-0.3125,-0.1445113081831832,0.06646607545045044
1589478808.5990396,-0.03,-4.24,8.816779290399944,0.44,0.3244444444444444,-0.68,-0.1451294350003527,0.09816075333286306,0.18079018833321575
1589478808.6090395,-0.01490590198284894,-4.224905901982849,8.729435411897093,0.44,0.3244444444444444,-0.68,0.11084528151798531,-0.06367622521438826,0.04599283108920879
1589478808.6190395,-0.0207352755251323,-4.202205826575397,8.752205826575397,0.44,0.3244444444444444,-0.68,0.05330905593584626,0.004595472032076869,0.0625
1589478808.6290395,-0.028310726606101108,-4.224932179818303,8.774932179818302,0.44,0.3244444444444444,-0.68,-0.04138408257626383,0.051942041288131915,0.0625
1589478808.6390395,-0.01,-4.24,8.787016601562499,0.4744444444444445,0.3377777777777778,-0.6577777777777778,-0.371270751953125,-0.003729248046875,-0.113812255859375
1589478808.6490395,-0.01,-4.237609847956479,8.73681313060864,0.4744444444444445,0.3377777777777778,-0.6577777777777778,-0.28262309945599107,-0.047561549727995533,0.05254103315199703
1589478808.6590395,-0.009448424404176616,-4.210551575595823,8.701103151191646,0.4744444444444445,0.3377777777777778,-0.6577777777777778,0.07284204242168844,0.125,-0.055605305052207704
1589478808.6690395,-0.0009348274845178414,-4.220311609161506,8.721869654969037,0.4744444444444445,0.3377777777777778,-0.6577777777777778,0.24220977096235133,0.12110488548117566,0.058604885481175664
1589478808.6790395,-0.025672662931288708,-4.22855755431043,8.771345325862576,0.4744444444444445,0.3377777777777778,-0.6577777777777778,0.03606114223926077,0.018030571119630384,-0.044469428880369616
1589478808.6890395,-0.02058058194289447,-4.239419418057106,8.78,0.449325996292163,0.3377777777777778,-0.678709817904679,-0.17661408857072866,-0.1177427257138191,-0.12137136285690955
1589478808.6990395,-0.019272138680033416,-4.25,8.771993525480367,0.4477777777777778,0.3377777777777778,-0.68,-0.16475433375104429,-0.12045086675020886,0.12045086675020886
1589478808.7090394,-0.010512113617376775,-4.25,8.675633249791144,0.4477777777777778,0.3377777777777778,-0.68,0.10899644945697573,-0.06570071010860484,0.06570071010860484
1589478808.7190394,-0.009885561476296281,-4.229885561476297,8.760457754094814,0.4477777777777778,0.3377777777777778,-0.68,0.1875,0.12428475922685175,-0.06321524077314825
1589478808.7290394,-0.0016383192087618213,-4.221638319208762,8.793446723164953,0.4477777777777778,0.3377777777777778,-0.68,0.1875,0.07273949505476138,-0.11476050494523862
1589478808.7390394,0.0,-4.2002347734948176,8.799471759636662,0.4622222222222222,0.3244444444444444,-0.6522222222222223,-0.18786683358565273,-0.12536683358565273,-0.06213316641434727
1589478808.7490394,0.0,-4.239310585769187,8.711551182019333,0.4622222222222222,0.3244444444444444,-0.6522222222222223,-0.2489227902643531,-0.1864227902643531,-0.001077209735646914
1589478808.7590394,-0.01,-4.22,8.692510222098317,0.4622222222222222,0.3244444444444444,-0.6522222222222223,-0.1218622223771025,-0.1843622223771025,-0.056224444754205
1589478808.7690394,-0.009853736615520477,-4.220146263384479,8.74014626338448,0.4622222222222222,0.3244444444444444,-0.6522222222222223,-0.05975756154100894,-0.12134341538801192,0.06067170769400596
1589478808.7790394,-0.0040662600728557236,-4.225933739927145,8.745933739927144,0.4622222222222222,0.3244444444444444,-0.6522222222222223,0.04875762363395518,0.023343498178606925,-0.011671749089303463
1589478808.7890394,0.0,-4.224930916775032,8.780414499349805,0.4487046669556422,0.3210650556277994,-0.659544231324953,0.061636459687906375,0.061636459687906375,0.0008635403120936247
1589478808.7990394,0.0,-4.232255982238303,8.785488035523395,0.4355555555555555,0.31777777777777777,-0.6666666666666666,-0.11489983348408848,0.0,0.02420005550530384
1589478808.8090394,-0.026031316886335473,-4.248677105628778,8.683228943712216,0.4355555555555555,0.31777777777777777,-0.6666666666666666,-0.13326808982013444,-0.05423191017986557,0.05423191017986557
1589478808.8190393,-0.03,-4.256804094499344,8.69721637799738,0.4355555555555555,0.31777777777777777,-0.6666666666666666,0.04510236248361846,0.02255118124180923,-0.02255118124180923
1589478808.8290393,-0.016297984576130273,-4.225744961440325,8.76480806169548,0.4355555555555555,0.31777777777777777,-0.6666666666666666,0.2106375963991858,-0.023137596399185806,0.023137596399185806
1589478808.8390393,-0.02250515005856929,-4.22250515005857,8.796252575029285,0.443197591702459,0.33028292783634705,-0.6666666666666666,0.09368562426788382,-0.14065718786605808,-0.01565718786605809
1589478808.8490393,-0.02167864512915392,-4.2383213548708465,8.808321354870847,0.4477777777777778,0.3377777777777778,-0.6666666666666666,-0.20803387177115207,0.07254233971394008,0.041516935885576034
1589478808.8590393,-0.011718760428021623,-4.231718760428022,8.694062645992302,0.4477777777777778,0.3377777777777778,-0.6666666666666666,-0.19824225267513515,0.07324225267513515,0.0625
1589478808.8690393,-0.03,-4.22,8.74000226044041,0.4477777777777778,0.3377777777777778,-0.6666666666666666,-0.18747880837116432,3.5319381392808037e-06,3.5319381392808037e-06
1589478808.8790393,-0.03,-4.22,8.771605477800591,0.4477777777777778,0.3377777777777778,-0.6666666666666666,0.10880135438054517,0.0493835590634242,0.0493835590634242
1589478808.8890393,-0.002683575736076624,-4.2291054747546415,8.807316424263924,0.4295668282684955,0.31956682826849553,-0.6707135443353961,0.07368156556698593,-0.051318434433014065,0.005590782783492967
1589478808.8990393,-0.018658516121299294,-4.211341483878701,8.744695193575453,0.42777777777777776,0.31777777777777777,-0.6711111111111111,-0.11242358863718088,-0.004192137120939708,-0.05830786287906029
1589478808.9090393,-0.02928817178787519,-4.21,8.684270969272749,0.42777777777777776,0.31777777777777777,-0.6711111111111111,-0.125,0.05805107367421996,0.11165322102265987
1589478808.9190392,-0.03,-4.219447598253275,8.708342794759826,0.42777777777777776,0.31777777777777777,-0.6711111111111111,-0.006905021834061137,0.0034525109170305684,0.006905021834061137
1589478808.9290392,-0.02431173189164384,-4.214311731891644,8.75550614486685,0.42777777777777776,0.31777777777777777,-0.6711111111111111,0.07110335135445198,0.03555167567722599,-0.07110335135445198
1589478808.9390392,-0.010659483267135948,-4.214670258366432,8.804010775099297,0.44386422326215474,0.31777777777777777,-0.6690354407260302,0.06662177041959966,0.004121770419599664,-0.0374326556293995
1589478808.9490392,-0.01920968942418296,-4.239209689424183,8.781580621151633,0.4622222222222222,0.31777777777777777,-0.6666666666666666,-0.06003027945057175,-0.0625,0.0625
1589478808.9590392,-0.011805502522156796,-4.223611005044313,8.722638517655097,0.4622222222222222,0.31777777777777777,-0.6666666666666666,-0.16493121847304004,-0.11371560923652002,0.11371560923652002
1589478808.9690392,-0.003947146110335708,-4.232105707779328,8.72210570777933,0.4622222222222222,0.31777777777777777,-0.6666666666666666,-0.1875,-0.125,0.04933932637919636
1589478808.9790392,0.0,-4.233731416485302,8.767611501088188,0.4622222222222222,0.31777777777777777,-0.6666666666666666,-0.10914270606627227,-0.16417864696686385,0.07835729393372773
1589478808.9890392,-0.017967288309493634,-4.224010903896835,8.795989096103165,0.44625129928045004,0.32509778412609003,-0.6746521281375527,0.0123637012895568,-0.15006814935522161,0.0501362987104432
1589478808.9990392,-0.03,-4.22,8.749984469108679,0.4355555555555555,0.33,-0.68,-0.09379853403538013,-0.020800977309746574,0.0
1589478809.0090392,-0.011446253427872623,-4.238553746572127,8.693615633569681,0.4355555555555555,0.33,-0.68,-0.18298045803789809,-0.05798045803789807,0.11596091607579614
1589478809.0190392,-0.028446845228245192,-4.230776577385877,8.736117113070613,0.4355555555555555,0.33,-0.68,-0.1875,0.052792782676532465,0.06735360866173376
1589478809.0290391,-0.016755289079229123,-4.216755289079229,8.753244710920772,0.4355555555555555,0.33,-0.68,-0.06333083511777302,-0.10305888650963599,0.0625
1589478809.0390391,-0.018126805367655124,-4.201873194632345,8.816887637573586,0.4454883176715785,0.3417387188643907,-0.6691642595097932,0.10158506709568906,-0.03512239935646641,-0.08987760064353359
1589478809.0490391,-0.02,-4.226220091150779,8.786299848082034,0.4477777777777778,0.34444444444444444,-0.6666666666666666,-0.09350075958982149,-0.05462518989745537,-0.125
1589478809.059039,-0.028780318282043908,-4.23,8.700977135461605,0.4477777777777778,0.34444444444444444,-0.6666666666666666,-0.17987698926277443,-0.007623010737225579,0.03963096778832326
1589478809.069039,-0.015152986202034445,-4.237423506898983,8.704847013797966,0.4477777777777778,0.34444444444444444,-0.6666666666666666,-0.0019123275254305516,-0.09279383623728472,0.016103081881357638
