time,acc_x,acc_y,acc_z,mag_x,mag_y,mag_z,gyr_x,gyr_y,gyr_z
1589479262.5099738,-0.29,-4.45,8.68,0.5155555555555555,0.2644444444444444,-0.6444444444444445,0.1875,-0.3125,1.75
1589479262.5199738,-0.19311828702099648,-4.488752685191602,8.757505370383203,0.5155555555555555,0.2644444444444444,-0.6444444444444445,0.3086021412237544,-0.9785617767306494,1.5077957175524912
1589479262.5299737,-0.23764772167054016,-4.470940911331784,8.693293189661244,0.5155555555555555,0.2644444444444444,-0.6444444444444445,0.43161930417635047,-0.34484382703007255,1.0235227832945981
1589479262.5399737,-0.19955544303797468,-4.494266734177216,8.778978025316457,0.5155555555555555,0.2644444444444444,-0.6444444444444445,0.38694430379746836,-0.3125,0.8483329113924051
1589479262.5499737,-0.212964624432631,-4.482776531675527,8.863152717189736,0.5155555555555555,0.2644444444444444,-0.6444444444444445,0.3032355486480281,0.046322256759859404,0.5254421945921124
1589479262.5599737,-0.24393652778863442,-4.47,8.965746111154537,0.5155555555555555,0.2690899537073226,-0.6382504320939403,0.16289670132103495,0.5302582466974126,0.13829340264206988
1589479262.5699737,-0.28906897011485494,-4.456977009961715,8.866281594636293,0.5155555555555555,0.27111111111111114,-0.6355555555555555,-0.11918106321784344,0.7470905316089217,0.0625
1589479262.5799737,-0.1336854921058833,-4.589195664126934,8.994873929777707,0.5155555555555555,0.27111111111111114,-0.6355555555555555,-1.0039765140208938,0.17451987275155134,0.17849638677244523
1589479262.5899737,-0.312076484974944,-4.483382134122355,8.797343891634883,0.5155555555555555,0.27111111111111114,-0.6355555555555555,-0.2050156920761429,1.4541006772819784,0.40187107698096425
1589479262.5999737,-0.19902483564645726,-4.566376004382761,8.857909057706355,0.5155555555555555,0.27111111111111114,-0.6355555555555555,-0.30596580533235934,0.5372420562454348,0.9486052775748721
1589479262.6099737,-0.33352941176470585,-4.5097912713472486,8.727134724857684,0.5201475859160869,0.2619270503900485,-0.6110647269660552,-0.5,-0.2777514231499051,2.0290559772296017
1589479262.6199737,-0.4747250649906216,-4.468945012998124,8.613164961005626,0.5222222222222223,0.2577777777777778,-0.6,0.2826886373358781,0.239969643621047,3.667439287242094
1589479262.6299736,-0.24851781766029918,-4.5162964364679405,8.687160727446567,0.5222222222222223,0.2577777777777778,-0.6,-0.4448327291197738,-1.086038184969026,5.934420004780591
1589479262.6399736,-0.3795936505956465,-4.453964323582611,8.586442025821743,0.5222222222222223,0.2577777777777778,-0.6,0.3223488274184494,0.40089191043472816,5.552651172581551
1589479262.6499736,-0.2576535159641169,-4.49671052377737,8.813552618886852,0.5222222222222223,0.2577777777777778,-0.6,-0.014254364811420839,0.11074563518857916,1.4614859650815086
1589479262.6599736,-0.27340931007276237,-4.465492241606031,8.853295344963618,0.5281565900080847,0.2745918198377215,-0.6128577968693687,0.04190409397738232,0.0,0.034326510037696156
1589479262.6699736,-0.29451752718424457,-4.46,8.864517527184244,0.5288888888888889,0.2766666666666667,-0.6144444444444445,0.1986018173522926,0.09073454490152841,0.0
1589479262.6799736,-0.2545254774965303,-4.469094904500694,8.860905095499305,0.5288888888888889,0.2766666666666667,-0.6144444444444445,-0.09105891877602273,-0.1592157656466856,-0.17052945938801137
1589479262.6899736,-0.24047915098234451,-4.498562547052966,8.850479150982345,0.5288888888888889,0.2766666666666667,-0.6144444444444445,-0.6010424508827744,-0.6635424508827744,-0.1279946936396532
1589479262.6999736,-0.24,-4.507657674917618,8.872973024752856,0.5288888888888889,0.2766666666666667,-0.6144444444444445,-0.4814185952946586,-0.6396395317648862,-0.0771395317648862
1589479262.7099736,-0.24,-4.503578867761452,8.802946413137425,0.5203273792374916,0.2688186161528858,-0.6337078411600884,-0.3171037705272256,-0.42433961754537597,-0.1026320764909248
1589479262.7199736,-0.2508526468827504,-4.494573676558625,8.7382947062345,0.5155555555555555,0.2644444444444444,-0.6444444444444445,-0.28391452150859486,-0.41424356452578465,-0.125
1589479262.7299736,-0.25199134873933204,-4.481991348739332,8.615887533611318,0.5155555555555555,0.2644444444444444,-0.6444444444444445,-0.11228371848330149,-0.2997837184833015,-0.125
1589479262.7399735,-0.25,-4.48,8.636320621246895,0.5155555555555555,0.2644444444444444,-0.6444444444444445,-0.0625,-0.17762402930172605,-0.08881201465086302
1589479262.7499735,-0.25,-4.475076313567579,8.694618432162109,0.5155555555555555,0.2644444444444444,-0.6444444444444445,-0.0009539195947262449,0.09041128141845814,-0.09327304020263688
1589479262.7599735,-0.2724865927397816,-4.4812432963698905,8.7818381300344,0.5124324176750303,0.2713153477816,-0.6475675823249697,0.09763530115590881,0.41790590346772644,-0.08986469884409119
1589479262.7699735,-0.28188722060436444,-4.49,8.894902235165084,0.51,0.2766666666666667,-0.65,0.02359025755455542,0.7028194848908892,-0.1639097424454446
1589479262.7799735,-0.32536655091374656,-4.470557192465537,8.825747834017328,0.51,0.2766666666666667,-0.65,0.16202339612052336,0.6284824529096075,0.01502924515065418
1589479262.7899735,-0.18845203732295093,-4.540773981338525,8.970920319527421,0.51,0.2766666666666667,-0.65,0.02052846210646439,0.47071138484258573,-0.012682922736121371
1589479262.7999735,-0.2256812886639351,-4.515324977906323,8.985324977906323,0.51,0.2766666666666667,-0.65,-0.3615040270747971,0.3093554169679441,-0.019785138989314693
1589479262.8099735,-0.2879889381291009,-4.4989944690645505,8.852066371225394,0.5209932399677839,0.2766666666666667,-0.65,0.4556623381084888,1.6553857913360128,0.16864629496032155
1589479262.8199735,-0.1979794626172463,-4.535392514377982,8.81876449137321,0.5222222222222223,0.2766666666666667,-0.65,-0.23383157350459916,0.2198368529908017,0.14325935702752227
1589479262.8299735,-0.2468688226988503,-4.506565588650575,8.68838364822161,0.5222222222222223,0.2766666666666667,-0.65,-0.5082069858132185,-0.27462095743965576,0.28787904256034424
1589479262.8399734,-0.3251,-4.4256,8.5491,0.5222222222222223,0.2766666666666667,-0.65,0.6043750000000001,0.8543750000000001,0.19624999999999998
1589479262.8499734,-0.2757770906424055,-4.443238389724684,8.586476779449367,0.5222222222222223,0.2766666666666667,-0.65,0.00971363303006878,-0.22441948623416774,-0.006153247705694642
1589479262.8599734,-0.21562200609667587,-4.500717707318085,8.777511975613297,0.5144736836041816,0.2766666666666667,-0.6514088252032801,-0.0686303734732389,-0.4040071646309852,-0.1417464176845074
1589479262.8699734,-0.2494741798184489,-4.49797544163622,8.825100757090663,0.51,0.2766666666666667,-0.6522222222222223,0.28593355681946586,0.002026912501412459,-0.04453322159026707
1589479262.8799734,-0.2993028476899445,-4.465174288077514,8.728954271534917,0.51,0.2766666666666667,-0.6522222222222223,0.754357201937847,0.4720179014533853,0.060321399031076445
1589479262.8899734,-0.29475475823684344,-4.474918252745614,8.768855538438602,0.51,0.2766666666666667,-0.6522222222222223,0.5676092033990956,0.19363104407891463,-0.061478159320180886
1589479262.8999734,-0.29796602927037713,-4.484011323576541,8.868079265035787,0.51,0.2766666666666667,-0.6522222222222223,0.4004246341202863,-0.062146138233094755,-0.15007077235338107
1589479262.9099734,-0.27014531976231104,-4.494927340118845,8.924782020356533,0.5127374111771358,0.2837839357272199,-0.6379876841011158,0.2554494910866624,-0.3061422603988939,-0.15670412425722186
1589479262.9199734,-0.26558830685807644,-4.488823386283848,8.87852862456116,0.5155555555555555,0.2911111111111111,-0.6233333333333333,-0.020219246411067468,-0.4705846570961799,-0.09007308213702249
1589479262.9299734,-0.25896646674965107,-4.4910335332503495,8.774832333748256,0.5155555555555555,0.2911111111111111,-0.6233333333333333,-0.006459582814680703,-0.1810404171853193,-0.0625
1589479262.9399734,-0.2571882911392405,-4.485623417721519,8.72281170886076,0.5155555555555555,0.2911111111111111,-0.6233333333333333,-0.0625,-0.16992681962025316,-0.017573180379746832
1589479262.9499733,-0.26,-4.486325011348162,8.713674988651839,0.5155555555555555,0.2911111111111111,-0.6233333333333333,-0.10203132092600999,-0.10843735814798003,-0.039531320926009986
1589479262.9599733,-0.25337677001953124,-4.49,8.723246459960938,0.5243865288628472,0.28669562445746527,-0.622597418891059,-0.042209625244140625,-0.0625,-0.14529037475585938
1589479262.9699733,-0.25652205136870565,-4.49,8.762610256843528,0.5288888888888889,0.28444444444444444,-0.6222222222222222,0.12228846316323083,0.2636025684352822,-0.22826282105441026
1589479262.9799733,-0.25268322802986787,-4.4826832280298685,8.728782596209076,0.5288888888888889,0.28444444444444444,-0.6222222222222222,0.1417701751866743,0.5289596496266513,-0.2042701751866743
1589479262.9899733,-0.2725096667280427,-4.472496777757319,8.79253544466949,0.5288888888888889,0.28444444444444444,-0.6222222222222222,0.3125805560670226,0.7031854170502669,-0.04681458294973301
1589479262.9999733,-0.28,-4.476450977137878,8.85225488568939,0.5288888888888889,0.28444444444444444,-0.6222222222222222,0.375,0.7903186071117381,-0.0403186071117381
1589479263.0099733,-0.28,-4.490854657896462,8.913418631585847,0.5252706695900682,0.2735897865479824,-0.6180009663735981,0.27323758222066824,0.405450328882673,-0.0625
1589479263.0199733,-0.3249679075738126,-4.46252674368849,8.905032092426188,0.5222222222222223,0.2644444444444444,-0.6144444444444445,0.00013371844244758346,-0.12486628155755242,-0.0625
1589479263.0299733,-0.23335815811112415,-4.507422530247856,8.848983906965817,0.5222222222222223,0.2644444444444444,-0.6144444444444445,-0.5752011629272877,-0.9565517443909315,-0.0625
1589479263.0399733,-0.33251131221719454,-4.430158371040724,8.701153846153845,0.5222222222222223,0.2644444444444444,-0.6144444444444445,-0.33017533936651583,-0.155118778280543,0.03959276018099547
1589479263.0499732,-0.23605450301286574,-4.48436729819228,8.775353672439064,0.5222222222222223,0.2644444444444444,-0.6144444444444445,-0.17253406438304109,-0.0149659356169589,0.0625
1589479263.0599732,-0.2526208951700941,-4.486776915587289,8.759728557519253,0.5222222222222223,0.2644444444444444,-0.6329686234784633,-0.3951442775794412,-0.37123631723364703,-0.014684079308411757
1589479263.0699732,-0.27477338574062443,-4.477613307129688,8.715871102376564,0.5222222222222223,0.2644444444444444,-0.6444444444444445,-0.15886171161132157,-0.12216732175780537,0.010888779707032434
1589479263.0799732,-0.25872118417859746,-4.485639407910702,8.676394079107013,0.5222222222222223,0.2644444444444444,-0.6444444444444445,0.04323889832564912,-0.003275903906818728,-0.019261101674350883
1589479263.0899732,-0.27,-4.491150779483518,8.659027728192312,0.5222222222222223,0.2644444444444444,-0.6444444444444445,0.1465771153159586,-0.006076698798048341,-0.0901538141140069
1589479263.0999732,-0.2761733568592854,-4.475306572562858,8.77025363917071,0.5222222222222223,0.2644444444444444,-0.6444444444444445,0.2353330392589325,0.07174955888839876,0.05325044111160124
1589479263.1099732,-0.28,-4.481392606457651,8.862785212915302,0.5174683096760776,0.2691983569905891,-0.6333519818367737,0.05379620963968179,0.0,0.08043206987989393
1589479263.1199732,-0.28536538209463885,-4.49,8.890730764189279,0.5155555555555555,0.27111111111111114,-0.6288888888888889,-0.03353363809149299,-0.26826910473194393,-0.004567276182985983
1589479263.1299732,-0.2950699780970412,-4.49,8.854370197126629,0.5155555555555555,0.27111111111111114,-0.6288888888888889,-0.12587472621301554,-0.7534989048520622,-0.09418736310650777
1589479263.1399732,-0.27350863005152615,-4.4635086300515265,8.823245684974237,0.5155555555555555,0.27111111111111114,-0.6288888888888889,-0.3116782966334712,-1.3311421243559232,-0.125
1589479263.1499732,-0.29476865006997754,-4.421026124941686,8.841589550023325,0.5155555555555555,0.27111111111111114,-0.6288888888888889,-0.44743468764578653,-1.7173040629373595,-0.23365203146867977
1589479263.1599731,-0.39330106742690446,-4.390226524343079,8.85977347565692,0.5090399051176085,0.27111111111111114,-0.6321467141078625,-0.4389157771442463,-1.9971684457115075,-0.4652105571393843
1589479263.1699731,-0.7305468863934665,-4.256583053813621,8.801435029896455,0.5022222222222222,0.27111111111111114,-0.6355555555555555,-0.03217514948228084,-2.7249434884060086,-0.32502825579699574
1589479263.1799731,-0.8343541343851246,-4.2,8.77,0.5022222222222222,0.27111111111111114,-0.6355555555555555,0.17389333004648544,-2.217706719256233,1.768233201859417
1589479263.189973,-0.832645065782615,-4.2039675986739224,8.766032401326077,0.5022222222222222,0.27111111111111114,-0.6355555555555555,0.12137335543462396,-1.925607524863952,2.676196545109568
1589479263.199973,-0.8474109774555882,-4.232200669162751,8.740906157890544,0.5022222222222222,0.27111111111111114,-0.6355555555555555,-0.314927208635386,-1.4245548872779414,5.093244642714889
1589479263.209973,-0.29777834787070295,-4.515149386273039,8.904828906342503,0.5240479228883539,0.26659544890432524,-0.6415764384979368,-0.7540059991317046,0.028177665074791802,9.808222658562576
1589479263.219973,-0.13,-4.57,8.95,0.5344444444444445,0.2644444444444444,-0.6444444444444445,-0.875,0.25,10.9375
1589479263.229973,0.15130811470408786,-4.60704942037828,8.813444783404515,0.5344444444444445,0.2644444444444444,-0.6444444444444445,-0.8053233679072606,0.048146735814521044,11.322765405735204
1589479263.239973,0.18758225630828954,-4.5643327178904505,8.772292051318468,0.5344444444444445,0.2644444444444444,-0.6444444444444445,-1.0489602565923402,0.3125,9.57966730578043
1589479263.249973,0.005006550759534004,-4.474065365957296,8.816405226443823,0.5344444444444445,0.2644444444444444,-0.6444444444444445,-1.2285130661095571,0.2509804008356645,7.222712545589745
1589479263.259973,-0.2443631669535284,-4.358296947187245,8.85,0.5310282231683627,0.2680616199132369,-0.6428368109027589,-1.3011963266600235,0.11369632666002355,5.103711839840566
1589479263.269973,-0.4495424655637849,-4.198071918045269,8.82935730601509,0.5155555555555555,0.28444444444444444,-0.6355555555555555,-1.275803367481138,0.03669663251886205,3.6427696926697584
1589479263.279973,-0.5293279267393582,-4.0260486593457765,8.759578984129448,0.5155555555555555,0.28444444444444444,-0.6355555555555555,-1.3319331807069963,0.019433180706996237,3.3513663614139926
1589479263.289973,-0.5431707799175468,-3.7512201389281072,8.738292200824532,0.5155555555555555,0.28444444444444444,-0.6355555555555555,-1.375,0.44664362963799625,3.6935957530919974
1589479263.299973,-0.54,-3.71,8.77,0.5155555555555555,0.28444444444444444,-0.6355555555555555,-1.375,0.625,3.8125
1589479263.309973,-0.6649278824685183,-3.42786616950969,8.861617844065375,0.5155555555555555,0.2796404790965834,-0.6311519206533496,-1.725185875680986,0.3800557627042958,3.6222397740466197
1589479263.319973,-0.4519277605005807,-2.9308261830716775,9.10419348795384,0.5155555555555555,0.27111111111111114,-0.6233333333333333,-2.4985246730862904,1.1536681779010078,3.1870082243620965
1589479263.329973,0.021786511835640912,-2.5560786065207686,8.806093494119398,0.5155555555555555,0.27111111111111114,-0.6233333333333333,-1.0157064165550096,3.520014515408665,6.76547379782641
1589479263.339973,-0.1462352071005917,-2.519437869822485,8.503145956607495,0.5155555555555555,0.27111111111111114,-0.6233333333333333,-0.3188178007889546,0.6106231508875739,13.014376849112427
1589479263.349973,-0.26,-2.6614623111226567,8.745965709832445,0.5155555555555555,0.27111111111111114,-0.6233333333333333,-0.2839898038706326,-2.0098673529029742,19.098329869680043
1589479263.359973,-0.2926073881801779,-2.7921718210882847,8.842177835459466,0.5155555555555555,0.274734154242242,-0.6313040282218212,-0.34509235225222373,-1.097852236396442,24.869442641891677
1589479263.369973,-0.30376919825278287,-2.8386924052416513,8.889692827955473,0.5155555555555555,0.2766666666666667,-0.6355555555555555,-0.8350975764407496,-1.645677751162463,29.070205720727067
1589479263.379973,-0.3151721884597791,-2.9511479230651942,8.823565096168506,0.5155555555555555,0.2766666666666667,-0.6355555555555555,-0.4942603846740291,-1.9030214663791414,32.553132283430266
1589479263.389973,-0.326006223420807,-3.073962659475158,8.763900425267089,0.5155555555555555,0.2766666666666667,-0.6355555555555555,-0.22464993257960794,-1.8496499325796079,35.63563297375791
1589479263.399973,-0.32923273748178683,-3.1192327374817865,8.84615089377732,0.5155555555555555,0.2766666666666667,-0.6355555555555555,-0.5047953907388322,-2.129795390738832,37.927989178719926
1589479263.409973,-0.3590440314154732,-3.1490440314154733,8.80143395287679,0.5155555555555555,0.2766666666666667,-0.6355555555555555,-0.3184748036532926,-1.9434748036532925,39.511714168947016
1589479263.419973,-0.40622644031546584,-3.238742146771822,8.946687608608475,0.51,0.27111111111111114,-0.6233333333333333,-0.5728512230985162,-2.6850103595775967,42.34316100788664
1589479263.429973,-0.471874128042164,-3.2712447682529837,8.87500697566269,0.51,0.27111111111111114,-0.6233333333333333,-0.75,-2.44527980158115,44.4528852115951
1589479263.4399729,-0.49549714623469215,-3.3045028537653076,8.813874286558674,0.51,0.27111111111111114,-0.6233333333333333,-0.7742142909917066,-2.6289285450414672,47.82557167661021
1589479263.4499729,-0.5316788612478383,-3.2753284555008646,8.836350405746973,0.51,0.27111111111111114,-0.6233333333333333,-0.8270985765597978,-2.5104928827989887,50.369527404549686
1589479263.4599729,-0.6028607559755419,-3.2819071706503613,8.860790439132852,0.5217649620159348,0.263403032548947,-0.627795905132481,-0.8065400917176209,-2.453340397443024,54.27297804335742
1589479263.4699728,-0.66,-3.2982579000091063,8.836090519989073,0.5422222222222223,0.25,-0.6355555555555555,-0.9320986248975502,-2.4266972497951005,58.334446999362534
1589479263.4799728,-0.6877920883164673,-3.27,8.83294388224471,0.5422222222222223,0.25,-0.6355555555555555,-1.3947504599816007,-3.496751379944802,62.22320607175713
1589479263.4899728,-0.7251833786699183,-3.27,8.774449863990244,0.5422222222222223,0.25,-0.6355555555555555,-1.40051941656505,-3.90281164993903,66.9967932182722
1589479263.4999728,-0.7632506068550344,-3.3323448878531896,8.805719584425672,0.5422222222222223,0.25,-0.6355555555555555,-1.0421837071560345,-4.176178512476939,71.2193695989902
1589479263.5099728,-0.8262175846732809,-3.4645983578515223,8.87810879233664,0.5476280837799825,0.24774755768426654,-0.6328526247766755,-0.6739800718439959,-4.6368200478959976,75.6116382996921
1589479263.5199728,-0.8558075040783034,-3.5532300163132136,8.919037520391518,0.5555555555555556,0.24444444444444444,-0.6288888888888889,-1.0343597063621532,-4.743984502446982,80.355220228385
1589479263.5299728,-0.8944503735325507,-3.6044503735325506,8.865357524012808,0.5555555555555556,0.24444444444444444,-0.6288888888888889,-1.159685165421558,-4.8391141942369265,83.84871931696905
1589479263.5399728,-0.9258187992722863,-3.5892684050939963,8.798362401455428,0.5555555555555556,0.24444444444444444,-0.6288888888888889,-0.963632504548211,-4.921602486355367,87.13087477258945
1589479263.5499728,-0.9298937952993422,-3.559929196866228,8.7902478109682,0.5555555555555556,0.24444444444444444,-0.6288888888888889,-0.939491338137333,-5.002433857723407,88.44590787213541
1589479263.5599728,-0.9035355482005949,-3.54235703213373,8.851750387531945,0.5555555555555556,0.24444444444444444,-0.6288888888888889,-1.4337084712388455,-5.606477020403033,90.53260243411957
1589479263.5699728,-0.9750110078277886,-3.581263759784736,8.854988992172212,0.5422222222222223,0.20555555555555555,-0.6444444444444445,-1.4140796997309197,-5.578021801614481,93.32774660591977
1589479263.5799727,-0.999020152595787,-3.5811946425609555,8.853261734947752,0.5422222222222223,0.20555555555555555,-0.6444444444444445,-1.4585570782882733,-5.8125,94.66099011030022
1589479263.5899727,-1.06,-3.6093896396920284,8.79170570584541,0.5422222222222223,0.20555555555555555,-0.6444444444444445,-1.4961852480751785,-5.701975413458631,95.80262293270684
1589479263.5999727,-1.110586007289359,-3.606862002429786,8.783841206317444,0.5422222222222223,0.20555555555555555,-0.6444444444444445,-1.396077503037233,-5.605387515186164,97.40267008504252
1589479263.6099727,-1.2367722058962936,-3.62996042278889,8.82984169115556,0.5511462908543201,0.19440046976543326,-0.6541121854625505,-1.3120052848611243,-5.707921070717603,99.33638407668974
1589479263.6199727,-1.3049198493813878,-3.6435696611081227,8.813409359870898,0.5688888888888889,0.17222222222222222,-0.6733333333333333,-1.2256858526089296,-5.826371705217859,101.92405190962883
1589479263.6299727,-1.308092590415078,-3.6687037005929684,8.891833330533672,0.5688888888888889,0.17222222222222222,-0.6733333333333333,-1.4021990643530262,-6.159837941576658,104.56770842082277
1589479263.6399727,-1.2627024726088245,-3.5992278649689076,8.829227864968907,0.5688888888888889,0.17222222222222222,-0.6733333333333333,-1.1802612340835061,-5.680261234083506,106.59892980085876
1589479263.6499727,-1.3333396068590548,-3.566641572563781,8.853414889167713,0.5688888888888889,0.17222222222222222,-0.6733333333333333,-1.2295979715600167,-5.792215600167294,109.68867628607278
1589479263.6599727,-1.3557821491118338,-3.5463128596447335,8.933687140355266,0.5643296013676924,0.16380507602924416,-0.6754376198815779,-1.5296785088816613,-6.355272313610207,111.27287066862647
1589479263.6699727,-1.3809480619105636,-3.5735779071341547,8.847584495284508,0.5544444444444444,0.14555555555555555,-0.68,-1.4420857587653986,-6.680234984883354,112.02828730652949
1589479263.6799726,-1.4131949771577945,-3.620236484010456,8.842070456599808,0.5544444444444444,0.14555555555555555,-0.68,-1.857987442894486,-7.367971746512594,111.4415722033567
1589479263.6899726,-1.4890954414499091,-3.6065327639402547,8.869799145910381,0.5544444444444444,0.14555555555555555,-0.68,-1.713568378251364,-7.138506058315114,110.0998753601275
1589479263.6999726,-1.5397799037666342,-3.5441754379369974,8.761977670851817,0.5544444444444444,0.14555555555555555,-0.68,-1.2912081328471543,-6.222527911435231,108.892862848658
1589479263.7099726,-1.6102333999675835,-3.628249500243125,8.840933599870333,0.5548982777147453,0.14479052232847683,-0.6802333999675834,-1.438958749797396,-6.1293762493921875,107.60311875303906
1589479263.7199726,-1.6355918580375781,-3.4744081419624218,8.910680236604035,0.5933333333333334,0.08,-0.7,-1.4926017745302713,-6.360203549060543,105.3888591684064
1589479263.7299726,-1.6825923596599783,-3.4612961798299895,8.85870382017001,0.5933333333333334,0.08,-0.7,-1.0698314601042787,-5.75,103.03588763668824
1589479263.7399726,-1.722752289073815,-3.4552293983356654,8.853761445369075,0.5933333333333334,0.08,-0.7,-0.9266054201340305,-5.715596386577313,101.26834941208239
1589479263.7499726,-1.732644040369629,-3.382067878891113,8.866203636673339,0.5933333333333334,0.08,-0.7,-1.1120757569305455,-5.4597474768981815,99.48771717838436
1589479263.7599726,-1.7575084839397048,-3.365836161313235,8.836476008207718,0.5943060268855392,0.07610922579117671,-0.7009726935522058,-1.2864760082077185,-5.2097370471943805,97.67950191381895
1589479263.7699726,-1.856813195485755,-3.398937731828585,9.043360823928657,0.5998229553047641,0.0540415121142767,-0.7064896219714308,-1.493360823928656,-6.399324737589772,95.50721134874911
1589479263.7799726,-2.071239853573134,-3.434380073213433,8.911239853573134,0.6,0.05333333333333334,-0.7066666666666667,-1.113895299485384,-5.024019841901427,93.2670433444745
1589479263.7899725,-2.1594403252810332,-3.38916048792155,8.997668022004305,0.6,0.05333333333333334,-0.7066666666666667,-1.4348765247548434,-5.61712957426453,92.24795951925377
1589479263.7999725,-2.0576657399009797,-3.2276657399009796,8.60599443940588,0.6,0.05333333333333334,-0.7066666666666667,-1.206232623143371,-4.31605156930671,91.49704035891108
1589479263.8099725,-2.1013180392215167,-3.2713180392215166,8.8679082353291,0.6,0.05333333333333334,-0.7066666666666667,-2.02471323540344,-5.251457983318218,90.71753501390148
1589479263.8199725,-2.172022610224846,-3.3120100489888205,8.817952267303102,0.5844444444444444,0.021111111111111112,-0.73,-1.1624528953649038,-5.125,89.20045534480593
1589479263.8299725,-2.108122316444826,-3.290829755259768,8.92938841777587,0.5844444444444444,0.021111111111111112,-0.73,-1.3801859703735508,-5.074235522219837,86.81931790736367
1589479263.8399725,-2.126894412550207,-3.3075776502008285,8.804472062751035,0.5844444444444444,0.021111111111111112,-0.73,-1.368400784387946,-4.743400784387946,82.74029635354236
1589479263.8499725,-2.1046230480774613,-3.244120445514076,8.805879554485923,0.5844444444444444,0.021111111111111112,-0.73,-0.9588568776701927,-4.365892194175482,78.15012079998507
1589479263.8599725,-2.0341976828790505,-3.0797945933844515,8.970205406615548,0.5844444444444444,0.021111111111111112,-0.73,-1.0566698848902072,-4.610424712225518,73.11275092815433
1589479263.8699725,-2.027109977949283,-2.889842888643881,8.868125689084895,0.5555555555555556,-0.012222222222222223,-0.7588888888888888,-1.4321337513781698,-4.425785556780595,65.73481429162072
1589479263.8799725,-2.121928765469363,-2.772062330214307,8.920044521581648,0.5555555555555556,-0.012222222222222223,-0.7588888888888888,-2.0871660881376397,-4.94983304406882,59.2530608587383
1589479263.8899724,-2.17,-2.73,8.89,0.5555555555555556,-0.012222222222222223,-0.7588888888888888,-2.3125,-5.0625,57.1875
1589479263.8999724,-2.04892055818042,-2.6459470387869466,8.837221404241292,0.5555555555555556,-0.012222222222222223,-0.7588888888888888,0.1556408636413581,-1.7792042083287551,56.56924651137238
1589479263.9099724,-2.2424823645753214,-2.774988243050214,8.993914295132402,0.5555555555555556,-0.012222222222222223,-0.7588888888888888,-0.5356513020547193,-2.4128886935501592,55.35948522140424
1589479263.9199724,-2.2410802683321767,-2.743693422777392,8.937897807592464,0.5611111111111111,-0.05111111111111112,-0.78,-1.0234485439638112,-2.476551456036189,54.7205290821703
1589479263.9299724,-2.1794456422868307,-2.7218891284573665,8.895995687767408,0.5611111111111111,-0.05111111111111112,-0.78,0.18057052858538558,-3.161060202809689,54.32777178856585
1589479263.9399724,-2.2147714179833575,-2.7289542835966714,8.768822895259913,0.5611111111111111,-0.05111111111111112,-0.78,0.6221427247919684,-1.6597147357073072,54.151142910083216
1589479263.9499724,-2.3239549890249385,-2.758351360643165,8.835054081929496,0.5611111111111111,-0.05111111111111112,-0.78,-1.3797867135641182,-1.4375,52.94369330653479
1589479263.9599724,-2.3962050449320023,-2.7673561161035556,8.862068348310666,0.5611111111111111,-0.05111111111111112,-0.78,-1.3620728230583286,-1.9892087077666858,52.323291292233314
1589479263.9699724,-2.384105879636432,-2.706158819454649,9.211523541636055,0.5422222222222223,-0.1111111111111111,-0.7866666666666666,-0.9486765045445958,-4.815505678120867,52.53849262159155
1589479263.9799724,-2.4545406074854634,-2.811810911228195,8.894567266315413,0.5422222222222223,-0.1111111111111111,-0.7866666666666666,-0.0682424064317051,-0.578416580952581,53.19881819517622
1589479263.9899724,-2.225322411258139,-2.554757753973255,8.671976300497095,0.5422222222222223,-0.1111111111111111,-0.7866666666666666,-1.3785291080305258,-2.4639683102289434,52.09223596233284
1589479263.9999723,-2.137225372820836,-2.3932465168381993,8.928925995939228,0.5422222222222223,-0.1111111111111111,-0.7866666666666666,-1.8373678498914794,-5.905258874186095,51.08279073023875
1589479264.0099723,-2.4595115924721,-2.5785347774162997,8.892185479553598,0.5422222222222223,-0.11371595125991205,-0.7866666666666666,0.8809506650743318,-0.5152627352468805,52.20276273524688
1589479264.0199723,-2.450875303710415,-2.5526259111312437,8.754004859366635,0.5422222222222223,-0.1597761579888994,-0.7866666666666666,-1.2241447205864184,-0.7851467590495409,52.47264675904954
1589479264.0299723,-2.34735879132303,-2.455169450412364,9.171172638436481,0.5422222222222223,-0.16444444444444445,-0.7866666666666666,-2.9240851756878508,-1.9884347494628873,53.30234683623259
1589479264.0399723,-2.3077012595182222,-2.4885062975911114,8.737245342656003,0.5422222222222223,-0.16444444444444445,-0.7866666666666666,0.7255698960777741,-3.163069896077774,54.692531487955556
1589479264.0499723,-2.344793588485443,-2.4649311961618148,8.65837160614982,0.5422222222222223,-0.16444444444444445,-0.7866666666666666,-0.08400256242503534,-2.553468814742122,54.0334001199433
1589479264.0599723,-2.5073965310739474,-2.518698265536974,9.258524819234353,0.5423668593847807,-0.17051920527190012,-0.7857988436913158,-3.8487570975469105,0.8968207980304307,52.17419071330347
1589479264.0699723,-2.5178571111209846,-2.527562091793664,8.450248367174657,0.5433333333333333,-0.2111111111111111,-0.78,-0.7613548007286622,0.7196233394055183,51.09860265695117
1589479264.0799723,-2.9464744301772785,-2.7977773581552405,9.531109432620962,0.5433333333333333,-0.2111111111111111,-0.78,-0.9360629470831296,2.1755245590260808,48.76916070555827
1589479264.0899723,-2.6123351802952253,-2.510478983593784,8.603712393402882,0.5433333333333333,-0.2111111111111111,-0.78,-2.97979118869313,-1.090569672308558,44.46519631184797
1589479264.0999722,-2.8029379376193506,-2.5859713558243156,8.82099522597072,0.5433333333333333,-0.2111111111111111,-0.78,-2.037619350732018,-0.38624681731381283,42.1638128580522
1589479264.1099722,-2.889707352005092,-2.6260187778485045,8.827669796308085,0.5433333333333333,-0.2111111111111111,-0.78,-1.8707550922978995,-2.138321530872056,40.328306015276894
1589479264.1199722,-3.062568673188734,-2.6304954217874177,8.934550360338404,0.5264363053998538,-0.2723628373699745,-0.8190743770961715,-0.8026385649131358,-0.9678915851408281,37.78658435748355
1589479264.1299722,-3.0066813935293846,-2.575066270882231,8.94,0.5255555555555556,-0.27555555555555555,-0.8211111111111111,-2.2186119356620186,-2.124723871324037,35.06332838602789
1589479264.1399722,-2.9650769523447162,-2.481578616950442,8.976842766099114,0.5255555555555556,-0.27555555555555555,-0.8211111111111111,-2.320819461618948,-2.4442725672976313,34.08436459621421
1589479264.1499722,-2.7815538856653665,-2.345931132883097,9.248137734233804,0.5255555555555556,-0.27555555555555555,-0.8211111111111111,-1.9218562731855797,-2.4941429658518026,33.78514220488918
1589479264.1599722,-2.3626230831315578,-2.095770782889427,8.822623083131559,0.5187355394135055,-0.2775957313245449,-0.8155152004304547,-2.2405669895076676,-3.954499596448749,32.565778853914445
1589479264.1699722,-2.403906376109766,-2.186594027441485,8.863906376109766,0.41139897767016415,-0.30970495919648466,-0.7274441754102771,-0.12479822437449561,-1.2710855528652134,32.61738297013721
1589479264.1799722,-2.521390516560695,-2.201656900635831,8.954171549682084,0.3955555555555556,-0.3144444444444445,-0.7144444444444444,-0.07858278269542451,1.2422417196525788,31.81213377384366
1589479264.1899722,-2.530489454452208,-2.150978908904417,8.976410667350471,0.3955555555555556,-0.3144444444444445,-0.7144444444444444,-2.4734878838387075,-3.0135545547791525,29.855625761266747
1589479264.1999722,-2.6293998367643057,-2.236535231703999,8.806946948399384,0.3955555555555556,-0.3144444444444445,-0.7144444444444444,-0.5433096037000091,0.0012866146730751704,28.304780311961547
1589479264.2099721,-2.8880489707082617,-2.3354304888002178,8.981915480185,0.3955555555555556,-0.3144444444444445,-0.7144444444444444,0.6928811100027206,0.23901559807744627,26.878406411535323
1589479264.2199721,-2.69,-2.24,9.02,0.4244444444444445,-0.28444444444444444,-0.6788888888888889,-1.625,-2.5625,23.625
1589479264.2299721,-2.686790830945559,-2.223954154727794,8.971862464183381,0.4244444444444445,-0.28444444444444444,-0.6788888888888889,-1.4344555873925502,-2.5223853868194843,23.013252148997136
1589479264.239972,-2.6656938437372237,-2.1292346093430594,8.689856906160568,0.4244444444444445,-0.28444444444444444,-0.6788888888888889,-0.5989808598541089,-2.164475878467067,19.556821971897662
1589479264.249972,-2.665094408967703,-2.0992243610358186,8.59174009586377,0.4244444444444445,-0.28444444444444444,-0.6788888888888889,-0.9359265172049432,-1.231916433132724,18.661687799574278
1589479264.259972,-2.780708871227087,-2.169877643527664,8.681662455398845,0.4244444444444445,-0.28444444444444444,-0.6788888888888889,0.9909811871181149,1.778876854872054,18.942695173121393
1589479264.269972,-2.7803312828037696,-2.179503075794345,9.08231897962639,0.4455555555555555,-0.2588888888888889,-0.6577777777777778,-1.825958363903155,-3.092522504091653,16.41886534228794
1589479264.279972,-2.7260596994628408,-2.116244645406949,9.211963010811179,0.4455555555555555,-0.2588888888888889,-0.6577777777777778,-2.122688175698647,-4.262179574352349,15.704303222955055
1589479264.289972,-2.359427113283496,-1.9479474554341576,9.147923734905119,0.4455555555555555,-0.2588888888888889,-0.6577777777777778,0.3620233431569868,-1.1894385242955723,17.810709729010927
1589479264.299972,-2.5252454715353654,-2.0157822383553765,8.959493782346176,0.4455555555555555,-0.2588888888888889,-0.6577777777777778,-0.8156638603364001,-2.272910751509488,18.328892098548017
1589479264.309972,-3.184788132426575,-2.411798819221284,9.693544578133174,0.4460699665362993,-0.2589623761718523,-0.6576748955816291,2.034722741200209,1.7471881772662732,18.295138629399894
1589479264.319972,-2.2836138928331216,-1.9259483596143787,8.126285031014124,0.476544457730281,-0.26331587491384967,-0.6515799973428327,4.091750896793961,-2.12198382968388,17.26662455160302
1589479264.329972,-2.93,-2.37709252041034,9.789980219908081,0.4844444444444445,-0.2644444444444444,-0.65,0.7479213935268679,0.05256026140748926,14.46161910718095
1589479264.339972,-2.93,-2.214418717396785,9.03354703589505,0.4844444444444445,-0.2644444444444444,-0.65,-1.6413500882347236,5.441129986231504,11.614827554443734
1589479264.349972,-2.7267871440654075,-1.9117175077530306,8.975392350343013,0.4844444444444445,-0.2644444444444444,-0.65,-0.4297082041161545,3.962837139366601,8.76465792688657
1589479264.359972,-1.6152444319142938,-1.7698184381167184,9.172474391504558,0.4844444444444445,-0.2644444444444444,-0.65,-2.794692698054694,-2.146706136641293,9.848609153275069
1589479264.369972,-2.0058644649178743,-1.9526044987796565,9.653937641548847,0.4844444444444445,-0.23777777777777775,-0.6444444444444445,-3.9163831108863434,-13.792511378878164,-2.6664916774775174
1589479264.379972,-2.312602304578013,-1.8638125194643413,8.631301152289005,0.4844444444444445,-0.23777777777777775,-0.6444444444444445,1.1790836188103395,-0.1787994394269698,-11.112998287137962
1589479264.389972,-2.469349735284958,-1.9596026160074742,8.70967486764248,0.4844444444444445,-0.23777777777777775,-0.6444444444444445,0.25383836810962324,1.18185534101526,-16.664469791342263
1589479264.399972,-2.0829615567157096,-1.73344091124822,9.09703844328429,0.4844444444444445,-0.23777777777777775,-0.6444444444444445,-3.112986473659231,-4.063478879924062,-17.218497864261984
1589479264.409972,-2.2673638499103665,-1.8175829881931136,9.059010632379303,0.4844444444444445,-0.23777777777777775,-0.6444444444444445,-0.606096811831613,-2.2403721332756383,-15.458437326142054
1589479264.419972,-1.9926671570715087,-1.7183599829648843,8.903619187734716,0.49593884565583046,-0.23059377702066153,-0.6480364448230026,2.7818101746099346,1.2667302257152815,-13.059789867977855
1589479264.429972,-2.310715544379987,-1.9125044053299542,8.950357772189992,0.5022222222222222,-0.22666666666666666,-0.65,1.564515809689746,0.013416457124754986,-14.218915199873285
1589479264.439972,-2.3273243312808125,-1.970635159482844,8.958662165640407,0.5022222222222222,-0.22666666666666666,-0.65,-1.290119438889659,0.32483121151523553,-16.39881848060665
1589479264.449972,-2.426959894861794,-2.039667627607258,8.863040105138206,0.5022222222222222,-0.22666666666666666,-0.65,0.02138269459046982,2.2862286967949803,-17.309384008818043
1589479264.459972,-2.56444856554129,-2.06,8.905962593120938,0.5022222222222222,-0.22666666666666666,-0.65,2.6427563797749247,0.8603978443493423,-19.873831035029323
1589479264.469972,-2.5088204054649625,-1.9668717496694579,8.925384530630232,0.5155555555555555,-0.22,-0.68,-0.6464742177170559,-0.9769212758924636,-22.822756445570736
1589479264.479972,-2.3606638300701395,-1.9113303194495228,8.807997872552605,0.5155555555555555,-0.22,-0.68,-0.3500232689558887,1.6166855034404812,-22.820847737925074
1589479264.4899719,-2.472203237709005,-2.0298409400658177,8.891652428281754,0.5155555555555555,-0.22,-0.68,0.5649484343316824,0.875994124588638,-22.25443668350896
1589479264.4999719,-2.51,-2.07,8.968350537034455,0.5155555555555555,-0.22,-0.68,-0.1524489119821455,1.8337634258613476,-22.546005370344538
1589479264.5099719,-2.492878322788114,-2.1470475474534862,9.23538599678423,0.5155555555555555,-0.22,-0.68,-1.1505943431685774,-0.2117044101985841,-24.221162479901437
1589479264.5199718,-2.7255894609490525,-2.2165414706277726,8.931327597795402,0.5406850980567879,-0.22,-0.6716234858329225,1.4556761661513642,1.6755998790159965,-24.971178921898105
1589479264.5299718,-2.6970630225658545,-2.2486246516227637,8.895687674188618,0.5422222222222223,-0.22,-0.6711111111111111,2.3406162905690913,2.5281162905690913,-26.25232850849591
1589479264.5399718,-2.3638500960922486,-2.0926265214606024,9.075970531710443,0.5422222222222223,-0.22,-0.6711111111111111,-1.9080317104420246,-0.9069106342088404,-29.48144218449712
1589479264.5499718,-2.633605345464885,-2.155769121410293,8.995288598237135,0.5422222222222223,-0.22,-0.6711111111111111,-1.7764429911856696,-0.595553738982087,-30.161057008814332
1589479264.5599718,-2.4229502572898802,-2.0990842153704556,8.740799062879136,0.5422222222222223,-0.22,-0.6711111111111111,0.22284075220683608,1.410340752206836,-29.87599882859892
1589479264.5699718,-2.30131083111779,-2.076823488614033,8.712436712518784,0.5439253008643831,-0.24724925827457325,-0.6711111111111111,0.830568720379147,2.0420182637845334,-30.3434863021616
1589479264.5799718,-2.26711682037769,-2.12,8.733725296442689,0.5466666666666666,-0.2911111111111111,-0.6711111111111111,0.19916556873078606,2.101716897233201,-32.38984272068511
1589479264.5899718,-2.581864883715337,-2.3150696264941435,8.993097477091801,0.5466666666666666,-0.2911111111111111,-0.6711111111111111,1.3472666490295582,1.3340703840881214,-33.961481456985496
1589479264.5999718,-2.197124339894383,-2.1321029451668787,8.641287440773132,0.5466666666666666,-0.2911111111111111,-0.6711111111111111,0.14726356216994718,3.501073650044877,-35.60139535369137
1589479264.6099718,-2.218416888970656,-2.244682181951982,8.797023272927973,0.5466666666666666,-0.2911111111111111,-0.6711111111111111,0.7915267684665624,1.664577775733603,-38.035185355533066
1589479264.6199718,-1.8173878082559896,-1.9973878082559895,8.75211050705914,0.4744444444444445,-0.5811111111111111,-0.5733333333333334,0.6785959753601918,2.1551783388800465,-41.9066601897596
1589479264.6299717,-1.9040880997168075,-2.0840880997168076,9.246302168385803,0.4744444444444445,-0.5811111111111111,-0.5733333333333334,-0.8928468073671374,1.775864563738967,-45.21210880170329
1589479264.6399717,-2.000127764127764,-2.1909379852579853,8.883240884520886,0.4744444444444445,-0.5811111111111111,-0.5733333333333334,-0.3066375921375921,2.6536498771498773,-48.176437346437346
1589479264.6499717,-2.2062358722358724,-2.4135347420147424,8.94919547911548,0.4744444444444445,-0.5811111111111111,-0.5733333333333334,1.0845921375921375,4.50862285012285,-50.49515356265356
1589479264.6599717,-2.0245994267776717,-2.410111004958828,8.84831081388472,0.4744444444444445,-0.5811111111111111,-0.5733333333333334,1.4620837314043946,4.313887561985351,-53.31820094627178
1589479264.6699717,-2.001824725741049,-2.47025209819885,8.925890359287083,1.272222222222222,-0.7855555555555556,0.2088888888888889,1.0594862949108854,3.8297944236632824,-57.6657537799013
1589479264.6799717,-2.4369044101467954,-2.7471209882752334,8.596284537767579,1.272222222222222,-0.7855555555555556,0.2088888888888889,1.0182855672209474,3.211783508314211,-59.93179380284789
1589479264.6899717,-2.25399243140965,-2.9272185430463575,8.041296121097446,1.272222222222222,-0.7855555555555556,0.2088888888888889,4.933774834437086,3.8570837275307475,-59.915740302743615
1589479264.6999717,-2.074788283868101,-2.9808050211993855,8.534871970524524,1.272222222222222,-0.7855555555555556,0.2088888888888889,2.284565875469812,8.057991659106477,-57.77476463127881
1589479264.7099717,-1.9840208171508467,-3.06896877427373,9.469034954171198,1.272222222222222,-0.7855555555555556,0.2088888888888889,-1.9613290352648751,0.8374533944384019,-59.078169178188595
1589479264.7199717,-2.0302164833482754,-3.044837637488793,8.668900964334915,0.9636127450623087,-0.3439680110015331,-0.4376019670585719,1.6251038682731629,3.7548394415166957,-61.020191445627695
1589479264.7299716,-1.4213054499366287,-2.949564850021124,8.93116039994367,0.8622222222222222,-0.1988888888888889,-0.65,4.971843754400789,8.09135157020138,-66.33345655541473
1589479264.7399716,-1.5099049429657794,-2.9200316856780733,9.009915504858471,0.8622222222222222,-0.1988888888888889,-0.65,-1.1808988170680186,-2.6759479298690323,-76.23937209547951
1589479264.7499716,-2.09998430110091,-3.2300470966972696,8.630643654862686,0.8622222222222222,-0.1988888888888889,-0.65,1.6876962362386232,5.440443543579349,-83.44466262270974
1589479264.7599716,-2.0916493780056435,-3.2550518659830687,8.97237550176861,0.8622222222222222,-0.1988888888888889,-0.65,1.7918827749294544,7.003241623941815,-87.24747128492508
1589479264.7699716,-2.081140196431981,-3.2997719607136036,9.24293078212172,0.6766666666666666,-0.13444444444444445,-0.7155555555555555,0.42630883943912945,3.757126227699879,-91.12927573661993
1589479264.7799716,-2.125626948940413,-3.2908746102119175,8.967112916569441,0.6766666666666666,-0.13444444444444445,-0.7155555555555555,2.4282127023185764,4.03516843087758,-91.29610105852655
1589479264.7899716,-2.166295585412668,-3.8435076775431862,9.747576775431861,0.6766666666666666,-0.13444444444444445,-0.7155555555555555,2.9085592610364683,6.330974088291747,-90.34839851247601
1589479264.7999716,-2.0199635575691914,-3.8399854230276764,9.034806855116713,0.6766666666666666,-0.13444444444444445,-0.7155555555555555,0.030543927903083024,7.828432483009948,-91.93790997734659
1589479264.8099716,-1.97,-3.75947808700848,8.595158918024499,0.6766666666666666,-0.13444444444444445,-0.7155555555555555,1.4161299496702133,8.123912681267667,-94.60145531220554
1589479264.8199716,-1.978394010124587,-3.9230622328655005,8.635910151868805,0.6393599550018356,-0.07755170915557712,-0.6978348675147608,2.1427994937706507,7.957574873442662,-98.98260404983479
1589479264.8299716,-1.9977882592796348,-4.007435358079027,8.612564641920974,0.6322222222222222,-0.06666666666666668,-0.6944444444444444,1.840146759004563,7.048087036018252,-102.03382677745057
1589479264.8399715,-2.0824641890035713,-4.092701228366233,9.093836976570778,0.6322222222222222,-0.06666666666666668,-0.6944444444444444,1.3169444880499195,2.4849078725324754,-105.25206771712256
1589479264.8499715,-2.366447053145093,-4.349253072693109,8.895762527796453,0.6322222222222222,-0.06666666666666668,-0.6944444444444444,1.8055950595576702,3.804654505180052,-103.26847817655272
1589479264.8599715,-2.277048854759698,-4.485881106844962,8.527254071229976,0.6322222222222222,-0.06666666666666668,-0.6944444444444444,2.9166887329537934,8.160606712564544,-95.28777472527473
1589479264.8699715,-1.988630963150594,-4.46,8.51581207406067,0.6289932921885156,-0.0485846584779098,-0.7067143785725294,2.1399342621072313,7.746226856040046,-84.16494029310657
1589479264.8799715,-2.31815379623621,-4.787266926238373,9.585520224962146,0.6266666666666667,-0.03555555555555556,-0.7155555555555555,1.1072963984425697,2.6320706251351935,-73.47658446895954
1589479264.8899715,-2.016393579955448,-4.197437122784304,8.642456828437066,0.6266666666666667,-0.03555555555555556,-0.7155555555555555,1.6508422500618778,3.706820107381528,-68.09494649962873
1589479264.8999715,-1.7938848170950195,-3.940575914524903,9.712094205022964,0.6266666666666667,-0.03555555555555556,-0.7155555555555555,2.39073951920258,1.4383835792696829,-63.80664272451872
1589479264.9099715,-1.5049546573171966,-3.6749546573171967,8.379403971277348,0.6266666666666667,-0.03555555555555556,-0.7155555555555555,3.0685744867343154,3.2025376731955637,-61.405966608232475
1589479264.9199715,-18.354532239155922,-20.960569753810084,15.818137162954278,0.619399374755764,0.009663149667839002,-0.683256480395988,4.073388042203986,31.991082942555686,90.50088657678779
1589479264.9299715,-5.740590388192238,-4.302694546109077,3.207966640667186,0.6166666666666667,0.02666666666666667,-0.6711111111111111,4.3125,42.1875,147.1875
1589479264.9399714,0.6790761185357352,-1.3402905287623463,-0.5108832074375362,0.6166666666666667,0.02666666666666667,-0.6711111111111111,-17.227229808251014,144.1892431725741,399.5333018593841
1589479264.9499714,1.8518662716885312,-1.911577091268162,11.37922485540979,0.6166666666666667,0.02666666666666667,-0.6711111111111111,-34.1287514106362,84.03402278177458,377.018452884751
1589479264.9599714,0.6017586083641129,-1.3023841296318361,4.864370308590492,0.6166666666666667,0.02666666666666667,-0.6711111111111111,0.4022995353270602,-100.2813207434767,326.1162427022519
1589479264.9699714,7.114979591836735,-0.4742448979591837,20.285714285714292,0.6142585034013606,0.018639455782312925,-0.6727165532879819,-30.041326530612245,-202.5232142857143,296.2454081632653
1589479264.9799714,5.100602709334767,-0.31817153517765306,16.974303506000204,0.6133333333333333,0.015555555555555557,-0.6733333333333333,-20.432867491344247,-79.90082019563684,276.9778616508118
1589479264.9899714,-0.536647177339707,-0.7521384268952713,5.486378145616877,0.6133333333333333,0.015555555555555557,-0.6733333333333333,3.842151266147829,28.596864753288823,256.36310640777464
1589479264.9999714,0.3145797546012272,-0.7129141104294479,7.591223926380368,0.6133333333333333,0.015555555555555557,-0.6733333333333333,-10.215874233128835,-26.105099693251532,239.0169286809816
1589479265.0099714,2.3249172881099294,-0.7047083317560662,11.369921641367302,0.6133333333333333,0.015555555555555557,-0.6733333333333333,-17.349273195290912,-51.00908742476436,212.6394745807624
1589479265.0199714,0.23079620879739027,-1.4519903813702328,9.198092023849702,0.5971768477894026,-0.1119011637354533,-0.689489818877264,7.680936410169874,11.79461096580043,173.7343433597705
1589479265.0299714,-1.0796043693776392,-1.0423971911143748,7.386964384064623,0.5933333333333334,-0.14222222222222222,-0.6933333333333334,-4.190804571323664,-7.777320084450153,145.92773258215533
1589479265.0399714,-1.5988660710108995,-1.507260841090892,9.695268278991438,0.5933333333333334,-0.14222222222222222,-0.6933333333333334,-6.950478317818216,-16.5766448753333,128.36327595078822
1589479265.0499713,-1.7237798919366096,-1.2139714588557688,7.734498591039529,0.5933333333333334,-0.14222222222222222,-0.6933333333333334,2.295002714511,-0.9878945735632474,121.30532431943331
1589479265.0599713,-1.6965922785092613,-1.2636308859629546,8.616398125418433,0.5933333333333334,-0.14222222222222222,-0.6933333333333334,-1.282456482927918,-7.66721992858737,114.56985047980362
1589479265.0699713,-1.7328177966101694,-1.3740148305084745,8.789427966101696,0.5571433615819209,-0.2165583804143126,-0.6855084745762712,-2.444518008474576,-6.220405190677966,105.1253310381356
1589479265.0799713,-1.7250265943888388,-1.3592675922306998,8.710785596546978,0.5522222222222222,-0.22666666666666666,-0.6844444444444444,-2.32918627967441,-5.770931398372049,102.6662744065118
1589479265.0899713,-1.6323695345557123,-1.2309732016925246,8.653765867418901,0.5522222222222222,-0.22666666666666666,-0.6844444444444444,-2.8191995768688294,-8.220997884344147,92.86600846262341
1589479265.0999713,-1.64208733580415,-1.2641746716083,9.329877719789224,0.5522222222222222,-0.22666666666666666,-0.6844444444444444,-1.9347707561203138,-6.355813352494769,85.03512562085571
1589479265.1099713,-1.549446563384712,-1.1995572507077696,9.037454191569676,0.5522222222222222,-0.22666666666666666,-0.6844444444444444,-1.1428355516671909,-4.283595716027053,79.497773474363
1589479265.1199713,-1.5635704065314369,-1.1970827371433381,9.186124905311,0.5375068503399452,-0.24844541705243667,-0.7003370460773036,-1.7027396683780827,-5.151760163285919,73.29880165810958
1589479265.1299713,-1.4727698087431693,-1.196538592896175,9.105078551912568,0.5244444444444445,-0.2677777777777778,-0.7144444444444444,-2.7721140710382515,-4.471162056010929,64.0202143101093
1589479265.1399713,-1.3534794701168134,-1.1268336801335008,8.767084200333752,0.5244444444444445,-0.2677777777777778,-0.7144444444444444,-1.6498781907332247,-4.185151373122643,55.559542326788765
1589479265.1499712,-1.3605079737096857,-1.0564171804147349,8.451577928363989,0.5244444444444445,-0.2677777777777778,-0.7144444444444444,-0.7003681153513017,-2.5740338564222753,49.337070744382736
1589479265.1599712,-7.094947965941344,-3.9865615473562492,10.453220855671187,0.5244444444444445,-0.2677777777777778,-0.7144444444444444,1.445199989488069,1.2036423841059603,51.343004309891725
1589479265.1699712,-13.280483787661407,-7.6206490674318506,7.513749784791965,0.515272947553005,-0.29035377012593655,-0.7095059461182847,10.120254662840747,31.518131276901006,196.6290243902439
1589479265.1799712,-2.1575480002058987,-2.809233283574407,5.3244821639985584,0.51,-0.3033333333333333,-0.7066666666666667,-11.629835409481647,-11.897663367992998,284.94224854583825
1589479265.1899712,0.4069089099054256,-1.568038825286212,10.298596316575411,0.51,-0.3033333333333333,-0.7066666666666667,-20.860191637630663,-62.83213041314087,271.42508710801394
1589479265.1999712,0.20667087807959578,-1.0746111255620379,12.357567165842964,0.51,-0.3033333333333333,-0.7066666666666667,-8.267931793690313,-43.300801716770096,245.60796700234104
1589479265.2099712,-0.6469837790442788,-0.8926874177992108,8.018274148765162,0.51,-0.3033333333333333,-0.7066666666666667,2.2303083442934386,4.531537702761947,220.6296397778752
1589479265.2199712,-8.108652200867947,2.1619026658400493,7.010552386856789,0.47029310463594404,-0.3311281600881725,-0.7122256320176344,-2.3859287817730936,19.578799209547427,132.00534717916923
1589479265.2299712,-3.403345917200573,0.8686026462420822,6.09835907581175,0.4544444444444444,-0.3422222222222222,-0.7144444444444444,7.231379430822004,63.33385892153838,15.05663874621122
1589479265.2399712,-0.15180546810273388,0.24343661971830988,4.528993206296604,0.4544444444444444,-0.3422222222222222,-0.7144444444444444,16.71587613918807,21.621791632145815,-46.66096934548467
1589479265.2499712,0.7579166072362475,-0.643251557076974,10.940161650739315,0.4544444444444444,-0.3422222222222222,-0.7144444444444444,-14.936427280939476,-76.89725372034422,-14.756882042504635
1589479265.2599711,1.055159093159093,-1.1932862092862093,11.998516186516188,0.4544444444444444,-0.3422222222222222,-0.7144444444444444,-18.82045218295218,-61.26016731016731,18.23851103851104
1589479265.2699711,-0.6965500212655359,-1.0646668399414017,9.157818392325504,0.4258774265026332,-0.37555040982100196,-0.7102784209945969,-0.9551873139265634,0.4091518595529493,27.18147033457776
1589479265.2799711,-4.906248428297266,-1.2151829792866125,7.45358811461849,0.4011111111111111,-0.4044444444444445,-0.7066666666666667,7.2138673813778045,19.43769439481173,28.38517884322679
1589479265.289971,-5.4580945347119645,-1.367311669128508,7.974268833087149,0.4011111111111111,-0.4044444444444445,-0.7066666666666667,-1.081702363367799,-1.5747784342688327,12.562038404726735
1589479265.299971,-3.6813978494623654,-0.945483870967742,9.420645161290322,0.4011111111111111,-0.4044444444444445,-0.7066666666666667,-2.8931451612903225,-10.842741935483872,1.758736559139785
1589479265.309971,-3.5758051164633877,-0.781451279115847,9.650656510061204,0.4011111111111111,-0.4044444444444445,-0.7066666666666667,-0.9884458522301969,-5.715963629959051,1.1305933798599799
1589479265.319971,-3.9172730090827366,-0.79,9.031776558479804,0.4034389369374955,-0.39978879279167573,-0.7221855055092291,-0.17458693697882763,2.0772226355435692,0.04958693697882763
1589479265.329971,-3.8058679752927356,-0.8022066012353632,9.128028724089583,0.4044444444444445,-0.3977777777777778,-0.7288888888888889,-0.09741748455795976,-0.5061697108643752,-0.02758251544204024
1589479265.339971,-3.7496964691708285,-0.8058459804512156,9.221843726317017,0.4044444444444445,-0.3977777777777778,-0.7288888888888889,0.0,-1.508607246264161,-0.09903737782009678
1589479265.349971,-3.9091052326330713,-0.7961789534733857,9.021547557674959,0.4044444444444445,-0.3977777777777778,-0.7288888888888889,0.0,0.6595385197834772,-0.014736918417321818
1589479265.359971,-3.917722762588802,-0.7989108949644794,8.981485214396148,0.4044444444444445,-0.3977777777777778,-0.7288888888888889,0.027846546763997886,0.5946777697320782,-0.07673273381998943
1589479265.369971,-3.851885828287424,-0.8004714570718561,9.155707185607785,0.4012682634683965,-0.3977777777777778,-0.7278301618968729,0.032723303349550245,-0.6577233033495502,-0.16066991004865072
1589479265.379971,-3.8624733831369817,-0.7812544361438364,9.109390526503427,0.3977777777777778,-0.3977777777777778,-0.7266666666666667,0.02732988705051127,-0.13306203309079712,-0.007840225898977461
1589479265.389971,-3.924809621400065,-0.7725951892999676,9.04923848560026,0.3977777777777778,-0.3977777777777778,-0.7266666666666667,0.046280066875202246,0.37024053500161797,0.01384020062560673
1589479265.399971,-3.931151816898269,-0.7905759084491343,9.02701567957197,0.3977777777777778,-0.3977777777777778,-0.7266666666666667,-0.06609942780708924,0.06609942780708924,-0.125
1589479265.409971,-3.9178888799935954,-0.7908253942838844,9.009539668561365,0.3977777777777778,-0.3977777777777778,-0.7266666666666667,-0.03898807141141622,0.15367064286286125,-0.06765871427427747
1589479265.419971,-3.896579866907035,-0.7833159733814071,8.986475707195478,0.3929880384490787,-0.3999884266987158,-0.7218769273379676,0.04177516636620596,-0.08192283723932248,-0.02072483363379404
1589479265.429971,-3.9035670077672298,-0.7811890025890766,9.057063000863026,0.38333333333333336,-0.4044444444444445,-0.7122222222222222,-0.018356244606090494,-0.49650628775736655,-0.09921248921218098
1589479265.439971,-3.8670738989798457,-0.7690246329932819,9.034958945011198,0.38333333333333336,-0.4044444444444445,-0.7122222222222222,-0.0625,-0.11229472505598408,-0.13109604379198805
1589479265.449971,-3.9066719526376996,-0.7822239842125666,8.996111992106284,0.38333333333333336,-0.4044444444444445,-0.7122222222222222,0.010400148007188914,0.0625,-0.04860009867145928
1589479265.459971,-3.888774996183789,-0.7793874980918944,9.018162494275684,0.38333333333333336,-0.4044444444444445,-0.7122222222222222,0.0956640684628301,0.0625,-0.0663281369256602
1589479265.469971,-3.901309640924742,-0.7813096409247418,9.058690359075259,0.38333333333333336,-0.3928572990107668,-0.7146362108542383,0.08965737211018199,-0.01897211633054599,-0.05431474422036399
1589479265.479971,-3.884285055574431,-0.7814298888511382,9.115719555404553,0.38333333333333336,-0.37777777777777777,-0.7177777777777777,0.16071840265980683,-0.23215520797942046,-0.05356319468038635
1589479265.489971,-3.8644253954681487,-0.7951915348439504,9.056552372808893,0.38333333333333336,-0.37777777777777777,-0.7177777777777777,0.09015872167592989,-0.08537035057716971,-0.09734127832407011
1589479265.499971,-3.884580391160782,-0.8,9.014460502921006,0.38333333333333336,-0.37777777777777777,-0.7177777777777777,0.0308753492506985,0.186750698501397,-0.125749301498603
1589479265.509971,-3.9099559109705666,-0.7933039406470446,9.04660788129409,0.38333333333333336,-0.37777777777777777,-0.7177777777777777,0.0625,0.25,-0.020649629044028214
1589479265.519971,-3.890825985161761,-0.7805506567745074,9.021101313549014,0.38333333333333336,-0.37777777777777777,-0.7177777777777777,0.0625,0.25,0.05905839515932863
1589479265.529971,-3.922583923270153,-0.7824880109614067,9.06746403288422,0.38333333333333336,-0.4044444444444445,-0.7266666666666667,0.0,-0.10885047956154373,-0.0625
1589479265.5399709,-3.8709421147021787,-0.7918842294043577,9.082463082382569,0.38333333333333336,-0.4044444444444445,-0.7266666666666667,-0.017664650665852634,-0.4257235662227649,-0.05661178311138246
1589479265.5499709,-3.8872266439076673,-0.8027733560923328,9.006386678046166,0.38333333333333336,-0.4044444444444445,-0.7266666666666667,-0.07458368894269893,-0.08666737788539786,-0.045166524422920434
1589479265.5599709,-3.8976357649565405,-0.79,9.014185410260756,0.38333333333333336,-0.4044444444444445,-0.7266666666666667,0.08067059293513788,0.23861765489189646,-0.09544706195675859
1589479265.5699708,-3.89,-0.79,9.062325815320651,0.38333333333333336,-0.4028939008973433,-0.7212397642518125,-0.0625,0.014536345754073808,0.014536345754073808
1589479265.5799708,-3.89,-0.7846234812093812,9.07268825939531,0.38333333333333336,-0.3977777777777778,-0.7033333333333334,-0.012095136337948578,-0.038309727324102844,0.012095136337948578
1589479265.5899708,-3.8820660354454968,-0.7779339645545036,9.048264141781987,0.38333333333333336,-0.3977777777777778,-0.7033333333333334,0.1002063607671765,-0.2877063607671765,-0.075412721534353
1589479265.5999708,-3.8729730396693194,-0.784053920661361,9.008919119007958,0.38333333333333336,-0.3977777777777778,-0.7033333333333334,0.006755506200259116,-0.1942555062002591,0.0
1589479265.6099708,-3.8876334448693433,-0.7738167224346718,9.037633444869343,0.38333333333333336,-0.3977777777777778,-0.7033333333333334,-0.053436454349904405,0.05677257608349266,-0.023854515216698534
1589479265.6199708,-3.8964746223271765,-0.7905761330184712,9.060576133018472,0.38607529374552957,-0.3977777777777778,-0.7092089627880396,0.0625,0.18389916863455505,-0.08453361045514832
1589479265.6299708,-3.89,-0.7946553614331366,9.074885120477713,0.3911111111111111,-0.3977777777777778,-0.72,0.0625,0.09446799701429871,-0.061064005971402574
1589479265.6399708,-3.8854327968682036,-0.7891344062635929,9.047163984341017,0.3911111111111111,-0.3977777777777778,-0.72,0.09104501957372771,0.010819921705089164,0.0
1589479265.6499708,-3.8756498435656765,-0.7912996871313536,9.028700312868645,0.3911111111111111,-0.3977777777777778,-0.72,0.043434566856439455,-0.016246089141919273,-0.02718847771452018
1589479265.6599708,-3.8808144902873076,-0.7836048300957692,9.04,0.3911111111111111,-0.3977777777777778,-0.72,-0.03996981190144287,0.1925905642956714,-0.0625
1589479265.6699708,-3.902366444968891,-0.79,9.04236644496889,0.3968957543683997,-0.39620014779851725,-0.7160559250518487,0.029580562111134953,0.25333887577773007,-0.0625
1589479265.6799707,-3.903695182991229,-0.7836951829912293,9.046847591495615,0.4155555555555556,-0.3911111111111111,-0.7033333333333334,0.085594893695183,0.0625,-0.0625
1589479265.6899707,-3.890855030536805,-0.7708550305368049,9.040427515268401,0.4155555555555556,-0.3911111111111111,-0.7033333333333334,0.005343940855030538,0.0625,-0.0625
1589479265.6999707,-3.862706412865637,-0.7845871742687258,9.003532064328185,0.4155555555555556,-0.3911111111111111,-0.7033333333333334,0.07941508041023185,-0.13675475876930443,0.0
1589479265.7099707,-3.872828574427882,-0.7742428616418224,9.04141428721394,0.4155555555555556,-0.3911111111111111,-0.7033333333333334,0.10732140982574008,0.01767859017425992,0.01767859017425992
1589479265.7199707,-3.89280665470361,-0.7887733811855592,9.05280665470361,0.4155555555555556,-0.3911111111111111,-0.707387390127437,0.0,0.1074584081024362,0.1074584081024362
1589479265.7299707,-3.890828549224097,-0.76,9.064585725387952,0.4155555555555556,-0.3911111111111111,-0.7177777777777777,0.0,-0.023482351024091852,0.005178432650605427
1589479265.7399707,-3.8833605866904515,-0.7700817600713543,9.039754719785938,0.4155555555555556,-0.3911111111111111,-0.7177777777777777,-0.021003666815321342,-0.18801100044596403,-0.0625
1589479265.7499707,-3.887885515905054,-0.79,8.98563862425319,0.4155555555555556,-0.3911111111111111,-0.7177777777777777,-0.053689649604392056,-0.29047412401098016,-0.053689649604392056
1589479265.7599707,-3.8737012693066797,-0.7797240480199903,9.05657468267333,0.4155555555555556,-0.3911111111111111,-0.7177777777777777,0.14813293316674814,0.021408233291687038,0.0625
1589479265.7699707,-3.896490889269584,-0.7670182214608317,9.053509110730417,0.41341109899807926,-0.3944252712453927,-0.7140737164512277,0.25767014483725276,0.0625,0.07346597103254945
1589479265.7799706,-3.8837491821155945,-0.7925016357688114,9.073749182115595,0.4033333333333333,-0.41,-0.6966666666666667,0.04686477644492912,0.0625,0.05470283533260634
1589479265.7899706,-3.882067297064964,-0.7839663514675181,9.040336485324818,0.4033333333333333,-0.41,-0.6966666666666667,0.025841213312047154,-0.011869090015964631,-0.037710303328011785
1589479265.7999706,-3.8777003522921145,-0.7861498238539428,9.0069512330224,0.4033333333333333,-0.41,-0.6966666666666667,-0.07687279817428488,-0.10093639908714244,0.0
1589479265.8099706,-3.888027528675704,-0.7839449426485923,9.053944942648593,0.4033333333333333,-0.41,-0.6966666666666667,0.0,-0.05017205422314912,0.0
1589479265.8199706,-3.8821960375391034,-0.7956079249217936,9.065607924921794,0.4033333333333333,-0.41,-0.6966666666666667,0.0,-0.013725234619395205,0.0
1589479265.8299706,-3.898430047310997,-0.7994766824369992,9.069476682437,0.38333333333333336,-0.3977777777777778,-0.72,0.05922926523124457,0.18422926523124458,0.0065414695375108625
1589479265.8399706,-3.872561642993298,-0.79,9.047191785033512,0.38333333333333336,-0.3977777777777778,-0.72,0.016010268708110436,0.060958925167558256,0.10898973129188956
1589479265.8499706,-3.88,-0.79,9.013041325871717,0.38333333333333336,-0.3977777777777778,-0.72,0.07200414334911752,-0.125,0.05299585665088248
1589479265.8599706,-3.875504150048507,-0.79,9.038991699902985,0.38333333333333336,-0.3977777777777778,-0.72,0.11095046890158457,-0.11095046890158457,-0.014049531098415436
1589479265.8699706,-3.863586767614215,-0.79,9.068804410795263,0.38253627386350775,-0.3985748372476034,-0.7190700972852034,0.0625,-0.04008270241115484,-0.055027567470384946
1589479265.8799706,-3.8887229069697757,-0.79,9.060425697676742,0.3769504651178276,-0.40416064599328355,-0.7125533204152433,0.0625,0.1170181685610979,-0.0026606104796340346
1589479265.8899705,-3.9,-0.7873929630399064,9.054785926079813,0.37666666666666665,-0.4044444444444445,-0.7122222222222222,0.0625,0.15223611399648718,-0.07611805699824359
1589479265.8999705,-3.89904338609867,-0.7819132278026599,9.04191322780266,0.37666666666666665,-0.4044444444444445,-0.7122222222222222,0.06847883688331224,-0.1130423262333755,0.044563489350063254
1589479265.9099705,-3.8846728104260513,-0.7920092156390771,9.06,0.37666666666666665,-0.4044444444444445,-0.7122222222222222,0.07505759774423162,-0.049942402255768376,-0.10835253258141055
1589479265.9199705,-3.870249991403322,-0.7703749871049826,9.06,0.37666666666666665,-0.4044444444444445,-0.7122222222222222,-0.060156330593858554,-0.18515633059385855,-0.0632812231353805
1589479265.9299705,-3.9,-0.78,9.060986036560907,0.3977777777777778,-0.41,-0.7477777777777778,0.016976753070619473,-0.09104649385876105,0.016976753070619473
1589479265.9399705,-3.896591457780692,-0.78,9.005455277040923,0.3977777777777778,-0.41,-0.7477777777777778,0.05539887037644183,0.0071011296235581655,0.0411966111293255
1589479265.9499705,-3.87,-0.7829424954792044,8.987654972875227,0.3977777777777778,-0.41,-0.7477777777777778,0.018390596745027125,-0.02945298372513562,-0.10660940325497287
1589479265.9599705,-3.8742732852229045,-0.79,9.034273285222904,0.3977777777777778,-0.41,-0.7477777777777778,0.0625,-0.2099379510352735,-0.0758540163215755
1589479265.9699705,-3.8884174141768395,-0.79,9.048417414176841,0.3977777777777778,-0.41,-0.7477777777777778,0.0625,-0.07733674209212923,-0.12005441930262359
1589479265.9799705,-3.892799160435524,-0.78,9.081602518693428,0.3911111111111111,-0.4044444444444445,-0.7266666666666667,0.0349895054440509,0.04500524727797455,-0.07251574183392365
1589479265.9899704,-3.9,-0.7770714314573148,9.036571451658519,0.3911111111111111,-0.4044444444444445,-0.7266666666666667,0.10669644660821785,-0.0366071067835643,0.04419644660821785
1589479265.9999704,-3.8981414909860437,-0.7755755270418687,8.991151054083737,0.3911111111111111,-0.4044444444444445,-0.7266666666666667,0.05088431866277357,-0.14823136267445286,-0.011615681337226434
1589479266.0099704,-3.887733383048453,-0.8,9.046799850854642,0.3911111111111111,-0.4044444444444445,-0.7266666666666667,-0.014166355947171146,-0.23583364405282886,-0.0625
1589479266.0199704,-3.8789532771999338,-0.8,9.07,0.3911111111111111,-0.40374662924440047,-0.7254454900665896,-0.04941596499917451,-0.1744159649991745,-0.05268697374938088
1589479266.0299704,-3.8616414891860655,-0.8,9.07,0.3911111111111111,-0.3922054372351549,-0.70524840405041,0.16698138517417865,0.041981385174178654,0.10961103888063398
1589479266.0399704,-3.8841216493155177,-0.7920608246577588,9.081148454791377,0.3911111111111111,-0.3911111111111111,-0.7033333333333334,-0.023859537667021882,0.08635953766702188,0.012880154110992706
1589479266.0499704,-3.897874579883597,-0.7989372899417986,8.98487794081482,0.3911111111111111,-0.3911111111111111,-0.7033333333333334,0.10507418640872204,-0.04257418640872204,0.05585806213624068
1589479266.0599704,-3.8866052762568444,-0.7733947237431558,9.026789447486312,0.3911111111111111,-0.3911111111111111,-0.7033333333333334,0.17689148830263812,-0.17689148830263812,-0.11439148830263812
1589479266.0699704,-3.8716927398136955,-0.7883072601863045,9.056614520372609,0.3911111111111111,-0.3911111111111111,-0.7033333333333334,0.13028981191779848,-0.13028981191779848,-0.06778981191779848
1589479266.0799704,-3.883133767053721,-0.7784331164731395,9.092165582365697,0.38333333333333336,-0.3977777777777778,-0.7266666666666667,0.0625,-0.02332791182848829,-0.125
1589479266.0899704,-3.897472465596072,-0.775055068807856,9.02725219036465,0.38333333333333336,-0.3977777777777778,-0.7266666666666667,0.0467029099754499,0.1243116399017996,-0.125
1589479266.0999703,-3.891630974752079,-0.7916309747520792,8.966523899008317,0.38333333333333336,-0.3977777777777778,-0.7266666666666667,0.010193592200494912,-0.0625,-0.10461281559901017
1589479266.1099703,-3.8994347591493477,-0.7994347591493479,8.997739036597391,0.38333333333333336,-0.3977777777777778,-0.7266666666666667,0.058967244683424194,-0.0625,-0.0070655106331516115
1589479266.1199703,-3.8701120765646646,-0.77,9.080224153129329,0.3834142775189243,-0.39774041892288964,-0.7267849697071458,0.18644928220627124,-0.311099042941695,-0.12464976073542375
1589479266.1299703,-3.8829329481872357,-0.7747113678751762,9.110577264249647,0.3977777777777778,-0.3911111111111111,-0.7477777777777778,0.0,-0.0330539507801483,-0.0330539507801483
1589479266.1399703,-3.8662240477968632,-0.79,9.055103808812547,0.3977777777777778,-0.3911111111111111,-0.7477777777777778,0.0,0.0625,0.04953323375653473
1589479266.1499703,-3.8876201464597706,-0.79,8.974279121241377,0.3977777777777778,-0.3911111111111111,-0.7477777777777778,-0.0297481692528668,0.0625,0.0148740846264334
1589479266.1599703,-3.878163187055463,-0.7918368129445371,9.027347251778147,0.3977777777777778,-0.3911111111111111,-0.7477777777777778,-0.10203983819328617,0.0625,0.051019919096643086
1589479266.1699703,-3.870122121891835,-0.7998778781081651,9.05951151243266,0.3977777777777778,-0.3911111111111111,-0.7477777777777778,-0.0015265236479361927,0.0625,0.0007632618239680963
1589479266.1799703,-3.8903192152336987,-0.7993615695326025,9.098084708597806,0.37666666666666665,-0.38333333333333336,-0.7122222222222222,-0.12100980957876514,0.18151471436814773,0.0019950952106174264
1589479266.1899703,-3.8999996272203687,-0.7800003727796313,9.039998881661106,0.37666666666666665,-0.38333333333333336,-0.7122222222222222,-3.4948090436338558e-06,0.0,0.06250232987269576
1589479266.1999702,-3.884364131143874,-0.7956358688561257,8.993092393431622,0.37666666666666665,-0.38333333333333336,-0.7122222222222222,-0.14658627052617845,0.0,0.16022418035078562
1589479266.2099702,-3.8813238533643255,-0.7986761466356745,8.993971560092977,0.37666666666666665,-0.38333333333333336,-0.7122222222222222,-0.125,0.125,0.0
1589479266.2199702,-3.8940680309314373,-0.7859319690685627,9.032204092794313,0.37666666666666665,-0.38333333333333336,-0.7122222222222222,-0.125,0.125,0.0
1589479266.2299702,-3.892124214002178,-0.787875785997822,9.097254715986931,0.38191719066521473,-0.39470946866352075,-0.7122222222222222,-0.07577633751361226,0.026552675027224512,-0.049223662486387744
1589479266.2399702,-3.89,-0.7979793713599787,9.086061885920063,0.38333333333333336,-0.3977777777777778,-0.7122222222222222,-0.01262892900013337,0.14961321299959987,0.03724214199973326
1589479266.2499702,-3.8888591881945844,-0.7977183763891686,8.986844870832494,0.38333333333333336,-0.3977777777777778,-0.7122222222222222,-0.05536992621615189,0.2982398524323038,-0.0625
1589479266.2599702,-3.881179992310368,-0.7823599846207364,9.03292004613779,0.38333333333333336,-0.3977777777777778,-0.7122222222222222,-0.007374951939801172,0.20224990387960234,-0.0625
1589479266.2699702,-3.871025433584467,-0.7889745664155332,9.057949132831066,0.38333333333333336,-0.3977777777777778,-0.7122222222222222,-0.05609104009708247,0.13140895990291754,0.04968208019416494
1589479266.2799702,-3.8857517929529157,-0.79,9.09150358590583,0.40433572393722067,-0.40302837542874964,-0.7349748120431002,-0.0625,0.07577564702213907,-0.03594870595572186
1589479266.2899702,-3.8834143737564903,-0.7734143737564906,9.076099383704566,0.41,-0.4044444444444445,-0.7411111111111112,-0.032009753967098556,-0.009150410054835738,0.0
