time,acc_x,acc_y,acc_z,mag_x,mag_y,mag_z,gyr_x,gyr_y,gyr_z
1589479282.905839,0.08,-4.4,8.75,0.4744444444444445,0.3322222222222222,-0.6255555555555555,0.1875,0.25,0.0625
1589479282.915839,0.04800011084323995,-4.37400005542162,8.7300002771081,0.4533333333333333,0.3511111111111111,-0.6255555555555555,0.3125,0.125,0.125
1589479282.925839,0.06,-4.391403922891024,8.73719215421795,0.4533333333333333,0.3511111111111111,-0.6255555555555555,0.169950963862193,-0.160098072275614,0.08936274096554825
1589479282.935839,0.0684840573711775,-4.395757971314412,8.72,0.4533333333333333,0.3511111111111111,-0.6255555555555555,0.16855071713971886,-0.42802535856985946,0.08901267928492972
1589479282.945839,0.08134254413509176,-4.388657455864908,8.725370176540368,0.4533333333333333,0.3511111111111111,-0.6255555555555555,0.2873272974670295,-0.516781801688647,0.09143639662270603
1589479282.955839,0.09,-4.381275388936905,8.757449222126189,0.4567343704984154,0.34870204311917796,-0.627397784019975,0.125,-0.6170288191443388,-0.125
1589479282.965839,0.08375562680138605,-4.383755626801386,8.721266880404158,0.48,0.3322222222222222,-0.64,0.14451366624566858,-0.4454180025259885,-0.10548633375433142
1589479282.975839,0.07512906262386049,-4.385387187871582,8.649225624256836,0.48,0.3322222222222222,-0.64,0.21955664139912803,-0.1875,0.03366992419738406
1589479282.985839,0.08531564632342416,-4.4,8.657209524263969,0.48,0.3322222222222222,-0.64,0.21677721047859905,-0.1875,0.025331631435797114
1589479282.9958389,0.09,-4.391165802082921,8.69,0.48,0.3322222222222222,-0.64,0.24271373698174475,-0.2979274739634895,-0.03489313150912763
1589479283.0058389,0.08775145993162449,-4.377751459931624,8.69,0.4770019465754993,0.3322222222222222,-0.64,0.3265533754273469,-0.4796601262820408,0.0
1589479283.0158389,0.08089051739649616,-4.3708905173964965,8.69,0.4678540231953282,0.3322222222222222,-0.64,0.36943426627189896,-0.6083027988156969,0.0
1589479283.0258389,0.0764540179356427,-4.376772991032179,8.68322700896782,0.4666666666666667,0.3322222222222222,-0.64,0.29233119395111656,-0.6835128362933005,0.022162387902233162
1589479283.0358388,0.09,-4.3828832683351635,8.707177691113552,0.4666666666666667,0.3322222222222222,-0.64,0.2231598576350763,-0.9375,-0.08934014236492371
1589479283.0458388,0.09208270849138159,-4.397917291508619,8.734165416982764,0.4666666666666667,0.3322222222222222,-0.64,0.16146614385773012,-0.9375,-0.0989661438577301
1589479283.0558388,0.09948254265097653,-4.3905174573490235,8.748965085301952,0.4666666666666667,0.3322222222222222,-0.64,0.06896821686279352,-0.9375,-0.006468216862793516
1589479283.0658388,0.10277745287687255,-4.382777452876873,8.776112735615637,0.48,0.3322222222222222,-0.64,-0.2395772414413604,-0.2882045975977327,-0.04514091951954654
1589479283.0758388,0.06786802962600233,-4.371943441268287,8.670783191528432,0.48,0.3322222222222222,-0.64,-0.3938089153455347,-0.0625,0.018808915345534673
1589479283.0858388,0.06262656920673121,-4.357444909394587,8.516861227348647,0.48,0.3322222222222222,-0.64,-0.9520920511485067,-0.2769133546452111,0.04105866453547889
1589479283.0958388,0.20069332882387755,-4.405464614864294,8.554188720723767,0.48,0.3322222222222222,-0.64,-1.7485256193455652,-0.17726917223302618,0.009448719032721738
1589479283.1058388,0.025471012944845554,-4.3724214978425255,8.639476652283504,0.4816841115905498,0.333906333812772,-0.6453330200367412,-0.529614538385953,1.9138612380911693,0.0625
1589479283.1158388,0.14448929527207852,-4.365510704727921,8.533946996729112,0.4866666666666667,0.3388888888888889,-0.6611111111111111,-0.07865698409158489,-0.08417428635147195,0.014029047725245318
1589479283.1258388,0.1,-4.388683027060557,8.574732108242227,0.4866666666666667,0.3388888888888889,-0.6611111111111111,0.141462161743041,0.7766462161743041,-0.0450613514770877
1589479283.1358387,0.0894093936708499,-4.356469797890283,8.505892627426318,0.4866666666666667,0.3388888888888889,-0.6611111111111111,0.6323825791143765,0.5697986049569767,0.1066275263714588
1589479283.1458387,0.07720062643324571,-4.364401252866491,8.665606577549081,0.4866666666666667,0.3388888888888889,-0.6611111111111111,0.6724823815649645,0.3050156608311427,0.16499804239610716
1589479283.1558387,0.09238098215123003,-4.39238098215123,8.8,0.4803173809300533,0.3354496924482233,-0.6492062003549609,0.2827377231096246,0.520832030883686,0.08035658466443688
1589479283.1658387,0.08429446207482233,-4.396073615518706,8.776441693112234,0.46,0.3244444444444444,-0.6111111111111112,0.1629600969919099,0.1629600969919099,0.011119709024270313
1589479283.1758387,0.038403861154446176,-4.386400643525741,8.700407078783151,0.46,0.3244444444444444,-0.6111111111111112,0.14749597796411856,0.08000804407176287,0.08000804407176287
1589479283.1858387,0.05933008162452717,-4.38624527174995,8.636245271749951,0.46,0.3244444444444444,-0.6111111111111112,0.10943410312562214,-0.13661531953016126,0.0
1589479283.1958387,0.18384197909036426,-4.396305187454219,8.658621229273491,0.46,0.3244444444444444,-0.6111111111111112,-0.054802473862955316,-0.31433958180728505,0.0
1589479283.2058387,0.14892904707997603,-4.375357428247986,8.707499334088034,0.46,0.3244444444444444,-0.6111111111111112,-0.01116130884997004,0.38391905840047935,0.0
1589479283.2158387,0.13027884167223946,-4.348837416661601,8.539768374977202,0.4744444444444445,0.3322222222222222,-0.64,0.3656959896244959,-0.4171492187974953,0.0625
1589479283.2258387,0.03678318844103999,-4.4338334650536,8.9222505927412,0.4744444444444445,0.3322222222222222,-0.64,-0.32489690356050005,0.3796887348775001,0.0625
1589479283.2358387,0.09940444202578144,-4.385297778987109,8.64589333696133,0.4744444444444445,0.3322222222222222,-0.64,0.154388881330567,0.1875,0.058777762661133964
1589479283.2458386,0.07087275942995136,-4.399563620285025,8.688690860855072,0.4744444444444445,0.3322222222222222,-0.64,0.06522737321859799,0.1875,-0.11954525356280402
1589479283.2558386,0.054365607292436564,-4.39,8.737089595138375,0.47622302519321497,0.3322222222222222,-0.6367662168204173,-0.07952492403711917,0.10680996961484766,0.11590498480742384
1589479283.2658386,0.07988397988505748,-4.389651939655172,8.719535919540231,0.4866666666666667,0.3322222222222222,-0.6177777777777778,0.1867748742816092,0.0007251257183908046,0.0632251257183908
1589479283.2758386,0.08372695482551086,-4.3737269548255115,8.673136522587244,0.4866666666666667,0.3322222222222222,-0.6177777777777778,0.125,-0.044741834574303585,0.125
1589479283.2858386,0.08565365107870021,-4.4,8.7017365981508,0.4866666666666667,0.3322222222222222,-0.6177777777777778,0.0597865653893756,-0.141310942315626,0.125
1589479283.2958386,0.05104064772581561,-4.394479676137093,8.76619919034273,0.4866666666666667,0.3322222222222222,-0.6177777777777778,-0.010746963785239323,0.09700202414317378,0.10774898792841311
1589479283.3058386,0.08,-4.38,8.743553373408506,0.48365480590922105,0.33151945471215155,-0.6177777777777778,0.10241104431915768,0.19314723892021057,0.05685276107978942
1589479283.3158386,0.08,-4.383810225622575,8.826656841283947,0.4533333333333333,0.3244444444444444,-0.6177777777777778,-0.14881391014109538,0.29762782028219076,-0.023813910141095386
1589479283.3258386,0.08,-4.386590758571501,8.685452137144022,0.4533333333333333,0.3244444444444444,-0.6177777777777778,-0.1875,0.2684612053594172,-0.0625
1589479283.3358386,0.08662611851057689,-4.386626118510577,8.606504474042307,0.4533333333333333,0.3244444444444444,-0.6177777777777778,-0.27032648138221105,0.18673972207331657,0.020326481382211048
1589479283.3458385,0.09291155468761647,-4.398582310937524,8.661417689062477,0.4533333333333333,0.3244444444444444,-0.6177777777777778,-0.4020577734380823,0.4640816699214383,0.1875
1589479283.3558385,0.061648603926596206,-4.392329720785319,8.667670279214681,0.4533333333333333,0.3244444444444444,-0.6177777777777778,-0.24574301963298104,0.5813177352752642,0.1875
1589479283.3658385,0.03202257980038991,-4.389711060028516,8.670288939971485,0.4744444444444445,0.3388888888888889,-0.6488888888888888,0.010835248930660226,0.5480530014257864,0.0018058748217767043
1589479283.3758385,0.09807947465148595,-4.378079474651486,8.666556322560401,0.4744444444444445,0.3388888888888889,-0.6488888888888888,0.375,0.07450328342821283,0.05049671657178717
1589479283.3858385,0.08794755719608593,-4.3720524428039145,8.615131107009784,0.4744444444444445,0.3388888888888889,-0.6488888888888888,0.38782776752446285,0.11217223247553713,0.0
1589479283.3958385,0.07334192290281019,-4.38665807709719,8.651645192742974,0.4744444444444445,0.3388888888888889,-0.6488888888888888,0.47911298185743634,0.02088701814256365,0.0
1589479283.4058385,0.06857739582292396,-4.398577395822924,8.772133906265614,0.4757089814907343,0.3384146874965302,-0.6482566203657439,0.6161087238932748,0.12055436194663735,0.0625
1589479283.4158385,0.05181193164784651,-4.381811931647847,8.79728210252823,0.49061161631302536,0.33282619943817104,-0.6408053029545985,0.5113245727990406,0.06816228639952034,0.0625
1589479283.4258385,0.08,-4.388339858587039,8.768379010109273,0.4922222222222222,0.3322222222222222,-0.64,0.3648688131829603,-0.08349646467597732,0.0625
1589479283.4358385,0.08,-4.380170046163735,8.711190323146146,0.4922222222222222,0.3322222222222222,-0.64,0.007439519663413829,0.12074884590662069,0.0625
1589479283.4458385,0.057343020729011165,-4.387970937812966,8.701883751251867,0.4922222222222222,0.3322222222222222,-0.64,-0.3037428431057614,0.05857551822527919,0.045893879556319794
1589479283.4558384,0.05291683749093318,-4.41,8.786110883345422,0.4890893226949236,0.3296294777858372,-0.637407255563615,-0.625,-0.11892325522722255,0.0
1589479283.4658384,0.07395492407907578,-4.3948873101976895,8.701639392632606,0.46,0.3055555555555556,-0.6133333333333333,-0.4549822397240064,-0.11917258675866452,0.05667258675866452
1589479283.4758384,0.06539768209527022,-4.368096523142905,8.60079536419054,0.46,0.3055555555555556,-0.6133333333333333,-0.18057429583403609,-0.3006032696431583,0.12002897380912224
1589479283.4858384,0.07000240471323795,-4.388000480942647,8.622001923770592,0.46,0.3055555555555556,-0.6133333333333333,-0.48750300589154744,-0.44999699410845256,-0.050003005891547436
1589479283.4958384,0.03398065923495766,-4.380796131846991,8.593184527387965,0.46,0.3055555555555556,-0.6133333333333333,-0.44247582404369706,-0.49502417595630294,-0.004975824043697077
1589479283.5058384,0.08214145050291159,-4.39,8.656424351508734,0.46103106876066113,0.306903876242574,-0.6152368448914769,-0.2321545791424034,-1.4240749073583907,-0.06696135521439915
1589479283.5158384,0.10878602435150873,-4.39,8.736358073054527,0.4738599376507265,0.3236800894065055,-0.6389209105346745,-0.010116463737427195,-2.0346797247220754,-0.1224708840656432
1589479283.5258384,0.26810271508014394,-4.255145022353069,8.753247737433213,0.4744444444444445,0.3244444444444444,-0.64,0.09123868716606695,-1.932477374332134,-0.6147468923781485
1589479283.5358384,0.32,-4.16,8.71,0.4744444444444445,0.3244444444444444,-0.64,-0.13588638844356515,-1.173408346693045,-2.729774959920865
1589479283.5458384,0.32,-4.16,8.71,0.4744444444444445,0.3244444444444444,-0.64,-0.18059487669270388,0.16784630078111662,-6.753538902343351
1589479283.5558383,0.266490329191751,-4.246186755475855,8.783712053285512,0.4744444444444445,0.3262317293596914,-0.638212715084753,-0.9523344434481875,1.4839006660689125,-14.31517388241322
1589479283.5658383,0.07375832483350334,-4.304578708425831,8.75460090798184,0.4744444444444445,0.3388888888888889,-0.6255555555555555,-1.4088830723385533,1.7760532289354214,-18.603935421291574
1589479283.5758383,0.058243227862508545,-4.371543648987025,8.647832631459138,0.4744444444444445,0.3388888888888889,-0.6255555555555555,-1.2454846488732074,1.6527092106760757,-20.38659692977464
1589479283.5858383,0.21391454658274978,-4.5395186596932895,8.755240670153356,0.4744444444444445,0.3388888888888889,-0.6255555555555555,-1.426203350766776,1.7767374346245899,-20.16076256537541
1589479283.5958383,0.09200592066311428,-4.5819861851194,8.689985198342216,0.4744444444444445,0.3388888888888889,-0.6255555555555555,-1.124938326425893,2.07482114663509,-19.224864318136966
1589479283.6058383,0.12667598643973021,-4.473947855869709,8.581843567609129,0.4744444444444445,0.3388888888888889,-0.6262683628653642,-0.6589268863803166,0.7206121343445286,-17.9214386817181
1589479283.6158383,-0.14296075960495855,-4.5111177211851246,8.753836708378513,0.4744444444444445,0.3388888888888889,-0.64,-1.3395015825103302,2.359988131172523,-13.122448568414265
1589479283.6258383,-0.17983588781760104,-4.400492336547197,8.59404448612373,0.4744444444444445,0.3388888888888889,-0.64,-1.416324766286669,1.783814252849984,-10.625695095683263
1589479283.6358383,-0.23244154611304868,-3.9203008853210064,8.766889613471738,0.4744444444444445,0.3388888888888889,-0.64,-1.3814799719338795,-0.274039354479229,-5.736620870049735
1589479283.6458383,-0.33631013063128135,-3.755842293167138,8.74092246734218,0.4744444444444445,0.3388888888888889,-0.64,-1.4355781930371256,-1.518298439853891,-4.059576015849103
1589479283.6558383,-0.45883258388101,-3.4246365156231984,8.856530900495793,0.4744444444444445,0.3388888888888889,-0.6373115479713543,-2.5670435547100197,-0.8197963507436873,-2.735407298512625
1589479283.6658382,-0.41,-3.27,9.06,0.4744444444444445,0.3388888888888889,-0.6255555555555555,-4.5,-1.125,-2.125
1589479283.6758382,-0.22152933197694133,-2.271105459477789,8.984611732790777,0.4744444444444445,0.3388888888888889,-0.6255555555555555,-4.205514581213971,0.5830154289589693,-0.12249915225500185
1589479283.6858382,-0.2759005588193151,-2.3994641066055307,8.658734775755839,0.4744444444444445,0.3388888888888889,-0.6255555555555555,-2.7459252758274824,1.8201658547069781,7.671236925060898
1589479283.6958382,-0.2156706433270153,-2.5948528264020516,8.707688148065559,0.4744444444444445,0.3388888888888889,-0.6255555555555555,-1.2761038019846136,0.12683966997435614,17.597126212509757
1589479283.7058382,-0.20365664327439525,-2.83304073391618,8.70427255263261,0.4744444444444445,0.3388888888888889,-0.6255555555555555,-0.24696896930254442,-1.5357965460461833,30.62836427255263
1589479283.7158382,-0.23870999900309042,-2.9216100089721864,8.719679992024723,0.46,0.3322222222222222,-0.6488888888888888,-1.1713749875386303,-2.4697500249227393,39.955438141760546
1589479283.7258382,-0.2303473232977769,-2.996874090320008,8.652778586382215,0.46,0.3322222222222222,-0.6488888888888888,-1.0668415412222112,-2.6788169175555776,45.33891062705612
1589479283.7358382,-0.22546074592663432,-3.142764475559806,8.624584724202018,0.46,0.3322222222222222,-0.6488888888888888,-0.45449378394471407,-2.772753108027643,52.84200709117483
1589479283.7458382,-0.24816495552227494,-3.27898973313365,8.768378051641074,0.46,0.3322222222222222,-0.6488888888888888,-0.2652920373143754,-2.8673539813428124,56.86254420706952
1589479283.7558382,-0.22268505234071947,-3.337801158403741,8.861944842977842,0.46,0.3322222222222222,-0.6488888888888888,-0.3780388171528774,-3.2164368457410064,60.303111217386686
1589479283.7658381,-0.17409544079758038,-3.458737537806654,8.91795227960121,0.4659840932004033,0.34518775748976266,-0.6339286558878807,-0.4375,-3.7677061162764645,65.39655679399574
1589479283.7758381,-0.2083211464768906,-3.5006569171815123,8.858686165636975,0.4666666666666667,0.3466666666666667,-0.6322222222222222,-0.7249085985766794,-4.147810031672793,67.72855732384453
1589479283.7858381,-0.21286542879740875,-3.52,8.730477571466235,0.4666666666666667,0.3466666666666667,-0.6322222222222222,-1.1934696433279348,-4.193469643327935,69.87219643327936
1589479283.795838,-0.260256864148243,-3.52,8.738376144024707,0.4666666666666667,0.3466666666666667,-0.6322222222222222,-1.2922018003088396,-4.29220180030884,70.8595180030884
1589479283.805838,-0.2704709667416079,-3.527959144119699,8.730941933483216,0.4668759852184924,0.3463178024136238,-0.6323443247107873,-1.1894623614233661,-4.375,72.0801612528103
1589479283.815838,-0.2948583223505698,-3.422280603147531,8.77971664470114,0.47771480993358656,0.32825309455513346,-0.6386669724612588,-1.2910763431273742,-4.375,72.99468708814636
1589479283.825838,-0.3521293452293891,-3.3408517380917555,8.634889571449467,0.48,0.3244444444444444,-0.64,-0.9866915923163181,-4.429514955389791,74.50936540149188
1589479283.835838,-0.40386834855734377,-3.3622104848899106,8.528289318337166,0.48,0.3244444444444444,-0.64,-0.7047694132024276,-4.28108494376437,76.22516259657408
1589479283.845838,-0.46468174568653037,-3.3969609975351602,8.65860374075685,0.48,0.3244444444444444,-0.64,-0.9762577932434392,-4.769764027838191,77.79979520081194
1589479283.855838,-0.5148342509078131,-3.4986353519971884,8.77760220217875,0.48,0.3244444444444444,-0.64,-0.7197859318261685,-4.644371559095701,80.06712691812112
1589479283.865838,-0.54,-3.6066330992447333,8.901708625944083,0.4866666666666667,0.2855555555555556,-0.6322222222222222,-0.843907347290314,-4.8021357824301045,83.89384026765602
1589479283.875838,-0.54,-3.626086705073737,8.849796917054073,0.4866666666666667,0.2855555555555556,-0.6322222222222222,-0.716486031096381,-4.784783237315657,85.9967413306048
1589479283.885838,-0.5411380417019434,-3.486130658213393,8.75,0.4866666666666667,0.2855555555555556,-0.6322222222222222,-1.0,-5.122154895745141,87.20883828191144
1589479283.895838,-0.5824294630727126,-3.3457398255527773,8.75,0.4866666666666667,0.2855555555555556,-0.6322222222222222,-1.0,-5.018926342318219,87.98305243261336
1589479283.905838,-0.5978891243263162,-3.398891243263163,8.828891243263163,0.4866666666666667,0.2855555555555556,-0.6322222222222222,-1.1479210811184302,-5.246535135197384,88.17430702703948
1589479283.915838,-0.5514628891339385,-3.5221793197048092,8.757134277716515,0.5066666666666667,0.2533333333333333,-0.6622222222222223,-1.3884330732038341,-5.441977691067945,88.24085694291288
1589479283.925838,-0.6653127491729578,-3.643144795996268,8.72867181270676,0.5066666666666667,0.2533333333333333,-0.6622222222222223,-1.52185087793706,-5.486450292645687,87.52929531766901
1589479283.935838,-0.7322483227644517,-3.728313757926661,8.498431210366695,0.5066666666666667,0.2533333333333333,-0.6622222222222223,-1.5343959654443526,-5.287908969763809,85.71486995680544
1589479283.945838,-0.7630859296020587,-3.705185552798456,8.61407223600772,0.5066666666666667,0.2533333333333333,-0.6622222222222223,-1.148925879974267,-4.950622644977484,85.23303234996783
1589479283.955838,-0.7887016495200874,-3.774806598080349,8.696104948560262,0.5066666666666667,0.2533333333333333,-0.6622222222222223,-1.120942654750273,-5.167213273751365,83.31327770274153
1589479283.965838,-0.8058745524731484,-3.692689961397684,8.771435486129167,0.5428253695221713,0.23834070044202657,-0.6666318201314302,-0.6785282116927016,-4.79063618817129,81.69926070564235
1589479283.975838,-0.8433819157421506,-3.652818263118459,8.792818263118457,0.5522222222222222,0.2344444444444445,-0.6677777777777778,-0.5660228288980736,-4.392614144490368,78.83886079085394
1589479283.985838,-0.911546514808644,-3.7021649715266207,8.837835028473378,0.5522222222222222,0.2344444444444445,-0.6677777777777778,-0.625,-4.664948213264367,77.0702307089747
1589479283.995838,-1.0665867630926746,-3.7337638646243856,8.814704830780482,0.5522222222222222,0.2344444444444445,-0.6677777777777778,-0.6485241539024093,-4.375,75.48604649981716
1589479284.005838,-1.1262302441799048,-3.7678458538170885,8.85730731727136,0.5522222222222222,0.2344444444444445,-0.6677777777777778,-0.8615365863568033,-4.375,74.7937560943404
1589479284.015838,-1.1647515336723755,-3.7309938653104973,8.785745398982874,0.5377777777777778,0.2,-0.6622222222222223,-1.1348990284841158,-4.572399028484116,74.96409125635704
1589479284.025838,-1.1947840121522832,-3.6252159878477164,8.69564796354315,0.5377777777777778,0.2,-0.6622222222222223,-1.1800249810120573,-4.617524981012058,75.51972520886737
1589479284.035838,-1.2341317913658338,-3.593098843524375,8.595164739207293,0.5377777777777778,0.2,-0.6622222222222223,-1.1314559240091155,-4.581867772027347,76.21538293612761
1589479284.0458379,-1.2698636934807148,-3.619897770110536,8.639829616850895,0.5377777777777778,0.2,-0.6622222222222223,-1.1872870210636168,-4.74936106319085,76.99701829489064
1589479284.0558379,-1.3228535545194984,-3.6426515233654992,8.670202031153998,0.5377777777777778,0.2,-0.6622222222222223,-1.3290720210343707,-4.891572021034371,77.8022414525281
1589479284.0658379,-1.2885910901847157,-3.657344129973612,8.731408909815285,0.5614421965816387,0.18041565340370122,-0.6556941066901226,-0.6864878149738707,-4.6620951259895484,78.70511137269105
1589479284.0758379,-1.281769710931114,-3.683539421862228,8.773539421862226,0.57,0.17333333333333334,-0.6533333333333333,-0.4375,-4.5625,78.9375
1589479284.0858378,-1.2973825953970681,-3.685234809205864,8.70879145063225,0.57,0.17333333333333334,-0.6533333333333333,-0.7143473273900556,-4.608641221231676,77.92239313290312
1589479284.0958378,-1.3355915622133905,-3.7155915622133904,8.745251197391216,0.57,0.17333333333333334,-0.6533333333333333,-0.6271272801385916,-4.18010547233262,74.37408921838377
1589479284.1058378,-1.4155513528117643,-3.6913925662897062,8.838607433710292,0.57,0.17333333333333334,-0.6533333333333333,-0.6301984831525724,-3.9617989887683818,70.32132174147979
1589479284.1158378,-1.4482371026702496,-3.6947113080107488,8.868237102670248,0.5764066354101941,0.14313062354241815,-0.6789598749741098,-0.8419456750671799,-3.94851810831094,67.74961568257196
1589479284.1258378,-1.5207947462154943,-3.7440394033837934,8.835628895814782,0.5777777777777777,0.13666666666666666,-0.6844444444444444,-1.0173850734639358,-3.947434327693678,64.05090299421194
1589479284.1358378,-1.5341336980027986,-3.6439972649790104,8.762264660984608,0.5777777777777777,0.13666666666666666,-0.6844444444444444,-1.30917464381122,-4.1141712250349824,61.75827065576899
1589479284.1458378,-1.5683358121960045,-3.628335812196004,8.701664187803996,0.5777777777777777,0.13666666666666666,-0.6844444444444444,-0.5520058688748644,-2.888775274349801,57.91641878039957
1589479284.1558378,-1.5855529993673434,-3.6222235003163283,8.645564502214299,0.5777777777777777,0.13666666666666666,-0.6844444444444444,-0.6458093690688446,-3.152721861160637,54.93101886466901
1589479284.1658378,-1.6296509762826408,-3.629127440706602,8.799650976282642,0.5577777777777778,0.10222222222222224,-0.7111111111111111,-0.6787744070660193,-2.8125,50.685648752111895
1589479284.1758378,-1.6117109005752903,-3.584277251438226,8.78171090057529,0.5577777777777778,0.10222222222222224,-0.7111111111111111,-0.23027251438225793,-2.8125,47.37794729356915
1589479284.1858377,-1.7594444034167835,-3.6640624769219405,8.667916697437413,0.5577777777777778,0.10222222222222224,-0.7111111111111111,-0.5961370405927677,-2.754123279915319,43.85178039534254
1589479284.1958377,-1.7418032747642074,-3.6606010915880693,8.716393450471585,0.5577777777777778,0.10222222222222224,-0.7111111111111111,-0.625,-2.5150272897017283,40.21789570067506
1589479284.2058377,-1.795682135103172,-3.6878410675515862,8.803523202654757,0.5577777777777778,0.10222222222222224,-0.7111111111111111,-0.14648165145711617,-2.064983319506469,37.78141492948299
1589479284.2158377,-1.8595362226131458,-3.719768111306573,8.830115944346714,0.5511884073422535,0.09014170975709437,-0.7330756792295253,-0.4317027826643211,-2.0603260434991206,33.35308052134975
1589479284.2258377,-1.8506340925955074,-3.691902277786522,8.914293166640434,0.5511111111111111,0.09,-0.7333333333333333,-0.37896307872192114,-1.8283523148876846,30.092969329705664
1589479284.2358377,-1.85,-3.6665031731096476,8.73202538487718,0.5511111111111111,0.09,-0.7333333333333333,-0.5218551680647034,-1.4698379411823588,27.525317310964745
1589479284.2458377,-1.914516017555379,-3.649247330407437,8.701505339185127,0.5511111111111111,0.09,-0.7333333333333333,-0.6969083699070394,-1.34139790752324,25.530916300929604
1589479284.2558377,-2.0159234055423236,-3.6744425541567427,8.73722127707837,0.5511111111111111,0.09,-0.7333333333333333,-0.8483776605799402,-1.168989357680239,23.40630316434161
1589479284.2658377,-2.0593873554073077,-3.6906126445926923,8.759387355407307,0.5490250321317094,0.07539744714418806,-0.7583662810861538,-0.7576580574086541,-1.2971838851826918,21.748764459269232
1589479284.2758377,-2.06,-3.602446568315833,8.663691225147417,0.5488888888888889,0.07444444444444444,-0.76,-0.3122328415791666,-1.038895525986979,20.702523893553124
1589479284.2858377,-2.0536072133690593,-3.564428853476237,8.637214426738119,0.5488888888888889,0.07444444444444444,-0.76,-0.21004508355662108,-1.0799098328867578,20.043086086236073
1589479284.2958376,-2.1176003147128246,-3.6176003147128246,8.73985051140834,0.5488888888888889,0.07444444444444444,-0.76,-0.13468725413060584,-0.8609362706530291,19.75
1589479284.3058376,-2.093813559322034,-3.605875706214689,8.717782485875706,0.5488888888888889,0.07444444444444444,-0.76,-0.162694209039548,-0.737111581920904,19.56152895480226
1589479284.3158376,-2.0110831915880625,-3.472166383176125,8.814379928869647,0.5532530969194028,0.06644339638850232,-0.7694557840661135,-0.5148156022885417,-1.301216754291016,18.94652659656719
1589479284.3258376,-1.8915605614064015,-3.25353022402671,8.839181797572186,0.5555555555555556,0.06222222222222223,-0.7744444444444445,-0.43238623482615773,-0.9446966262030874,18.602462078275387
1589479284.3358376,-1.7783906800325116,-3.0994395150365754,8.703634855052831,0.5555555555555556,0.06222222222222223,-0.7744444444444445,-0.14466565632619885,-0.7368895624492008,17.835217844080194
1589479284.3458376,-1.859455382843984,-3.251019689119171,8.886801842256764,0.5555555555555556,0.06222222222222223,-0.7744444444444445,-0.06909038572251008,0.0886442141623488,17.414542314335062
1589479284.3558376,-1.9236398687448728,-3.3542912223133716,8.756743232157508,0.5555555555555556,0.06222222222222223,-0.7744444444444445,-0.5893201394585726,-0.5308910992616899,16.08189602132896
1589479284.3658376,-2.179027253012587,-3.5917098526682913,8.949027253012588,0.5593496389367077,0.056910505488609174,-0.7744444444444445,-1.4329350086073913,-1.3902515705694292,15.089931867468533
1589479284.3758376,-2.3078826333419222,-3.582704199948467,8.630816799793868,0.5611111111111111,0.054444444444444434,-0.7744444444444445,-0.35291927016232916,0.9948950012883278,15.930164583870138
1589479284.3858376,-2.2299687147753677,-3.525538174875204,8.80230912562398,0.5611111111111111,0.054444444444444434,-0.7744444444444445,-0.7988500954659428,-1.5219413517057347,16.673850095465944
1589479284.3958375,-2.1395047215263054,-3.359009443052611,8.543794565426865,0.5611111111111111,0.054444444444444434,-0.7744444444444445,-0.5955025052996723,-0.08621603391790345,17.86798997880131
1589479284.4058375,-2.2304747304304877,-3.5177629846077867,8.772780064202815,0.5611111111111111,0.054444444444444434,-0.7744444444444445,-0.9489412708864927,-0.9860186537986666,18.62796706519055
1589479284.4158375,-2.2758220492999204,-3.6332881971996827,8.818355901400158,0.5461680645500749,0.012252312977989378,-0.7902664937443651,-0.12306582281721146,-0.22473411063045523,19.85082198530729
1589479284.4258375,-2.28,-3.6662785206601614,8.818139260330081,0.5422222222222223,0.0011111111111111113,-0.7944444444444444,-0.5363149018190579,-0.3953333935670401,20.074129622936997
1589479284.4358375,-2.212300631095812,-3.5752208835341364,8.725220883534137,0.5422222222222223,0.0011111111111111113,-0.7944444444444444,-1.0259968445209409,-0.2884394721744119,19.850939472174414
1589479284.4458375,-2.2744223621563506,-3.592948241437567,8.687868530179696,0.5422222222222223,0.0011111111111111113,-0.7944444444444444,-0.8924301182614038,-0.4825698817385962,19.307395177392106
1589479284.4558375,-2.2020684509931923,-3.5251259908607664,8.618183530728341,0.5422222222222223,0.0011111111111111113,-0.7944444444444444,-0.44525669122447076,-0.4400855637414902,18.820256691224472
1589479284.4658375,-2.1737766228472437,-3.472074459050919,8.904947178912327,0.5527896101543305,-0.027949205702186446,-0.773309668580228,-1.4883657732939297,-0.4740692618635144,17.38663422670607
1589479284.4758375,-2.1860408273350975,-3.4397958633245116,8.784611870606678,0.5555555555555556,-0.03555555555555556,-0.7677777777777778,-1.1706620956458709,-0.009182779023313048,16.911479316622557
1589479284.4858375,-2.241515299535955,-3.5230305990719097,8.765909423955899,0.5555555555555556,-0.03555555555555556,-0.7677777777777778,-0.7902463277624647,0.23200734447507065,16.329544066850424
1589479284.4958375,-2.2407328768702306,-3.419030822786269,8.83,0.5555555555555556,-0.03555555555555556,-0.7677777777777778,-1.0411493994513221,-0.8642872374760817,15.330821921755769
1589479284.5058374,-2.223629598486441,-3.391852007567795,8.645258356106789,0.5555555555555556,-0.03555555555555556,-0.7677777777777778,-0.8462949337817953,-1.6481500945974354,14.94305497162077
1589479284.5158374,-2.254565497534738,-3.38234760197221,8.643696492604212,0.5609324107276259,-0.05014987673688928,-0.7716183886149709,-1.1627755911026445,0.5877916993500669,15.350275591102644
1589479284.5258374,-2.4488053698024035,-3.5332570767761076,8.829934637236663,0.5633333333333334,-0.05666666666666665,-0.7733333333333333,-2.2495914827291466,1.153027427221077,15.270969505756952
1589479284.5358374,-2.4926752114047903,-3.5726752114047904,8.796752114047903,0.5633333333333334,-0.05666666666666665,-0.7733333333333333,-1.7675211404790367,0.45064085535927745,15.965758788241024
1589479284.5458374,-2.4394421867440736,-3.54833236574746,8.690552007740687,0.5633333333333334,-0.05666666666666665,-0.7733333333333333,-1.0937318577648767,0.2951409046927915,16.83683176100629
1589479284.5558374,-2.4831446932006633,-3.6031446932006634,8.836805140961857,0.5633333333333334,-0.05666666666666665,-0.7733333333333333,-0.9769654332504146,0.3125,17.259827166252073
1589479284.5658374,-2.3624958520976533,-3.5039736904479737,8.789655131547761,0.568106186300071,-0.09484949040056885,-0.788447367728003,-0.9105090068736668,0.9389369518843328,17.464490993126333
1589479284.5758374,-2.350861217156973,-3.464531776330564,8.642809342016617,0.57,-0.11,-0.7944444444444444,-1.2382944082640917,-0.22026583202335503,16.410116775207726
1589479284.5858374,-2.356147546069368,-3.460765030712912,8.762376993236954,0.57,-0.11,-0.7944444444444444,-1.5481556741329032,-1.2694670223987095,15.365095861512689
1589479284.5958374,-2.3719685155215533,-3.471312343681036,8.84409445343534,0.57,-0.11,-0.7944444444444444,-1.4336448984846255,-1.142388185964396,14.64165026850081
1589479284.6058373,-2.5115147803217264,-3.5537760524561812,8.722656314737089,0.57,-0.11,-0.7944444444444444,-0.9835342622448795,-0.3633360654261164,14.142632131212508
1589479284.6158373,-2.5959589210591436,-3.59,8.871472407819846,0.5488127251230444,-0.1275457120074789,-0.7802092441364898,-1.382918831972284,-1.6541078940856222,13.554581168027715
1589479284.6258373,-2.5967379293778525,-3.581158619585235,8.714420690207383,0.4988888888888889,-0.1688888888888889,-0.7466666666666667,-0.8401293137961406,-0.526293137961406,14.290775882776844
1589479284.6358373,-2.5212811239393518,-3.5602135206565584,8.700427041313118,0.4988888888888889,-0.1688888888888889,-0.7466666666666667,-0.7526690082069829,-0.875,14.377669008206983
1589479284.6458373,-2.455124839032766,-3.5304993561310627,8.709250965803406,0.4988888888888889,-0.1688888888888889,-0.7466666666666667,-0.3507721955930748,-0.41795365932179135,13.762483903276577
1589479284.6558373,-2.41015183731327,-3.452039036092029,8.776225602442482,0.4988888888888889,-0.1688888888888889,-0.7466666666666667,-0.334192018318613,-0.41296103205757284,12.706615963362774
1589479284.6658373,-2.3359115656754907,-3.300938788105892,8.815469394052945,0.4893492087983679,-0.16071202023987088,-0.7262244950441217,-0.8380527145281813,-1.1222364273590937,11.54557828377455
1589479284.6758373,-2.479641825305735,-3.3616848062690465,8.8817564412079,0.4755555555555556,-0.14888888888888888,-0.6966666666666667,-1.1742836506114696,-1.1245522816321685,11.25
1589479284.6858373,-2.5108680623491817,-3.4361736124698363,8.708038218222136,0.4755555555555556,-0.14888888888888888,-0.6966666666666667,-0.4676433183330072,-0.4290582403965303,12.027734298571708
1589479284.6958373,-2.514445768772348,-3.416221692491061,8.662002383790226,0.4755555555555556,-0.14888888888888888,-0.6966666666666667,-0.32084326579261024,-0.5791865315852205,12.633343265792611
1589479284.7058372,-2.5902530679130744,-3.4319102065138454,8.69547755162846,0.4755555555555556,-0.14888888888888888,-0.6966666666666667,-0.8483163721345972,-1.1206122791009479,13.229285767490364
1589479284.7158372,-2.7043664333624964,-3.507929790026247,8.757929790026246,0.492004755192638,-0.12385749813680696,-0.6680593629500017,-0.5438356663750364,-0.8117937080781569,15.033015729804607
1589479284.7258372,-2.769997948411884,-3.5579987690471304,8.837996717459013,0.5011111111111111,-0.11,-0.6522222222222223,-0.4124846130891322,-0.7999794841188429,17.274899985079358
1589479284.7358372,-2.8196980060282866,-3.5996980060282864,8.745268374681196,0.5011111111111111,-0.11,-0.6522222222222223,-0.3768874623232089,-0.7772649547878507,19.69777779387897
1589479284.7458372,-2.7755375778866123,-3.569862560578476,8.753112387497115,0.5011111111111111,-0.11,-0.6522222222222223,-0.518593425472448,-1.430780276417344,22.03046712736224
1589479284.7558372,-2.714949343020121,-3.519330675142606,8.76371200726509,0.5011111111111111,-0.11,-0.6522222222222223,-0.6523833257655306,-1.6404666969378778,23.05539986377955
1589479284.7658372,-2.6797329712604663,-3.4853088934147998,8.744157049106134,0.502192552362274,-0.10931181011289634,-0.6522222222222223,-0.6543194161575017,-1.494469902692917,23.770451459606246
1589479284.7758372,-2.6894152121289334,-3.4663998598547585,8.88433845075806,0.5133333333333333,-0.10222222222222224,-0.6522222222222223,-0.3832693655242706,-1.5790387310485412,25.261924289718436
1589479284.7858372,-2.5870954999612734,-3.3770954999612735,8.748381999845094,0.5133333333333333,-0.10222222222222224,-0.6522222222222223,-0.4717755208736736,-1.9959796878630625,26.02420416698939
1589479284.7958372,-2.593756322172471,-3.3736294255207295,8.707512644344941,0.5133333333333333,-0.10222222222222224,-0.6522222222222223,-0.35231609049544077,-1.99682758370647,26.25
1589479284.8058372,-2.675400627316795,-3.416149843170801,8.830374607927002,0.5133333333333333,-0.10222222222222224,-0.6522222222222223,-0.15875392072996863,-1.6082856608212146,26.22593651981751
1589479284.8158371,-2.7020053186250372,-3.3848021274500146,8.782401063725006,0.5112225177013909,-0.09968924346389137,-0.65559952723333,-0.6574867034374077,-2.1574867034374074,26.48120013789028
1589479284.8258371,-2.5418850826139603,-3.3109425413069804,8.725030662864732,0.5077777777777778,-0.09555555555555556,-0.6611111111111111,-0.27593404554509593,-1.5715279676575133,27.036949240264054
1589479284.8358371,-2.391104179456123,-3.2222083589122468,8.637760448640307,0.5077777777777778,-0.09555555555555556,-0.6611111111111111,-0.08378822319191648,-1.1115876623915315,25.832423553616167
1589479284.845837,-2.439871428040578,-3.212604511166438,8.625755638958047,0.5077777777777778,-0.09555555555555556,-0.6611111111111111,-1.0488345843707034,-1.9931672921853516,23.64630169819033
1589479284.855837,-2.5607465858554055,-3.198359636349325,8.784921090952025,0.5077777777777778,-0.09555555555555556,-0.6611111111111111,-1.2733308079814238,-2.105415403990712,22.03358308079814
1589479284.865837,-2.683734560590166,-3.2688751649690366,8.91514060437887,0.5077777777777778,-0.08564929180813584,-0.649553803405788,-0.31835851578626784,-1.4112297384183277,22.340527816317554
1589479284.875837,-2.69836007290565,-3.280524065615085,8.6567201458113,0.5077777777777778,-0.07555555555555556,-0.6377777777777778,0.806662203820796,-0.6849376139150785,22.535450091132063
1589479284.885837,-2.634985949336157,-3.2299812657815425,8.589915696016941,0.5077777777777778,-0.07555555555555556,-0.6377777777777778,0.21959889427384538,-1.2805767390241916,22.156513449947056
1589479284.895837,-2.550638639893197,-3.216879546631066,8.698925973353678,0.5077777777777778,-0.07555555555555556,-0.6377777777777778,-0.30306616625343974,-1.4085633326975997,21.75671266653952
1589479284.905837,-2.48741879790238,-3.198237999193223,8.789304396934249,0.5077777777777778,-0.07555555555555556,-0.6377777777777778,-0.3309499798305769,-1.319937474788221,20.64470754336426
1589479284.915837,-2.5551744123258575,-3.2188808092443932,8.892394614636956,0.5096309762370456,-0.0762762438452708,-0.6391161988872489,-1.009175096295763,-2.161927625184492,18.65952023110983
1589479284.925837,-2.488609839145239,-3.144391804626042,8.818262298931549,0.5277777777777778,-0.08333333333333333,-0.6522222222222223,0.125,-1.3323463367382882,14.340737642362335
1589479284.935837,-2.5029971999688887,-3.0938535428171425,8.757278914210158,0.5277777777777778,-0.08333333333333333,-0.6522222222222223,0.03526410710119002,-1.4316726783075366,11.52093339231547
1589479284.945837,-2.3378016078010275,-2.91219200742955,8.619513596656702,0.5277777777777778,-0.08333333333333333,-0.6522222222222223,-0.556419958208782,-1.3338599558870476,8.740800127695389
1589479284.955837,-2.401500869487671,-2.9815008694876712,8.649833236723593,0.5277777777777778,-0.08333333333333333,-0.6522222222222223,-0.49426751237347843,-1.4643203504704152,5.110929348553084
1589479284.965837,-2.52210002387643,-3.116575017907323,8.677043730600401,0.5249631956051043,-0.08333333333333333,-0.6502118063845983,0.8207809888515437,-0.21375029845537863,2.351875447683068
1589479284.975837,-2.4230003334166876,-3.0430003334166873,8.841009002250562,0.52,-0.08333333333333333,-0.6466666666666666,0.8123749687421855,-0.11888128282070509,-0.9126500375093773
1589479284.985837,-2.5569267652551355,-3.1134633826275677,8.869226097343494,0.52,-0.08333333333333333,-0.6466666666666666,-0.5696754235434647,-1.4999600430693654,-4.8822353589394165
1589479284.995837,-2.6693157099697884,-3.171102719033233,8.716463746223566,0.52,-0.08333333333333333,-0.6466666666666666,1.2333648036253777,0.19439199395770393,-6.722432024169184
1589479285.005837,-2.3788117993676345,-2.9961851465938487,8.834321464501294,0.52,-0.08333333333333333,-0.6466666666666666,0.2542217591261857,-0.7431205536792183,-10.135083941146881
1589479285.015837,-2.268234189104571,-2.9272049154664996,8.920733406386976,0.5273528490920476,-0.07557199262506088,-0.6474836498991163,-1.017469278334377,-1.184745812460864,-13.540427363807138
1589479285.025837,-2.2093860325815675,-3.0365984480646184,8.82897672096928,0.54,-0.06222222222222223,-0.6488888888888888,1.6773111698507057,2.0289342923265417,-16.571012671870037
1589479285.035837,-2.0180145548596498,-2.918035347516292,8.819916829373431,0.54,-0.06222222222222223,-0.6488888888888888,0.7507797246240839,1.9007277429824785,-21.273648477318254
1589479285.045837,-1.8927279180610486,-2.872107291349762,8.719133962072812,0.54,-0.06222222222222223,-0.6488888888888888,-0.5289270865023832,0.8868775986208295,-27.467434844336275
1589479285.055837,-1.8480148099093947,-3.01567713193462,8.575621444267181,0.54,-0.06222222222222223,-0.6488888888888888,0.32166024502573676,1.1900510971975558,-34.18575976039252
1589479285.065837,-1.8807117112543783,-3.182087161784862,8.9141583329103,0.5454782532672273,-0.06222222222222223,-0.6648256256662775,0.8104757855728717,1.7520242144271283,-44.85933137468907
1589479285.075837,-1.7942532809125642,-3.0839083005703527,8.944943241596988,0.5522222222222222,-0.06222222222222223,-0.6844444444444444,-0.8146561271388227,2.2933405781051,-57.26031687801097
1589479285.085837,-1.87541070332058,-3.2176205658684047,8.668950687260876,0.5522222222222222,-0.06222222222222223,-0.6844444444444444,0.6664349227717161,4.18485044400359,-67.62430476831514
1589479285.0958369,-1.8235004272287099,-3.3121422468161286,8.531212515766773,0.5522222222222222,-0.06222222222222223,-0.6844444444444444,1.7825889042600807,4.935277393497986,-74.78566851120966
1589479285.1058369,-1.8493027160039555,-3.4404822574339398,8.60222546742405,0.5522222222222222,-0.06222222222222223,-0.6844444444444444,1.3359603178253572,4.796411816112044,-81.1812892394729
1589479285.1158369,-1.927214364695592,-3.5722850824352648,8.674352482960078,0.5543888274589841,-0.056650951613406025,-0.6720638430915196,0.9834737510933607,5.520538676084696,-86.42763809350915
1589479285.1258368,-1.920292277985906,-3.627661776112752,9.082755598831548,0.5597726726776288,-0.042806778194034154,-0.6412990132706932,1.7189454639974915,5.260960424471474,-89.9752075322232
1589479285.1358368,-1.957765901153561,-3.7371277383850146,8.457447348925813,0.56,-0.042222222222222223,-0.64,1.4993319398878189,5.6030532331463645,-92.60438935337072
1589479285.1458368,-1.9207752143083923,-3.7889146999682506,8.812557942639433,0.56,-0.042222222222222223,-0.64,-0.5813941951529262,2.135176341411789,-93.29796473171764
1589479285.1558368,-1.6682676083970962,-3.8270394349617423,8.484253482440652,0.56,-0.042222222222222223,-0.64,2.158855699431038,6.678732587796743,-90.58415489503629
1589479285.1658368,-1.630863252893859,-3.8494820482636847,9.007914459485972,0.56,-0.042222222222222223,-0.64,1.2705022562291544,4.06042770257014,-91.05170933882675
1589479285.1758368,-1.5767786471917926,-3.976970613806295,8.806706659711354,0.5788888888888889,0.0011111111111111113,-0.6677777777777778,1.8354829594853068,6.626949660928534,-96.69139932185706
1589479285.1858368,-1.6326845829754162,-4.188206732932467,8.8220885998282,0.5788888888888889,0.0011111111111111113,-0.6677777777777778,3.3544632265717675,7.764899578680411,-100.82374115433386
1589479285.1958368,-1.2922450063164832,-3.8416018235412586,8.66580091177063,0.5788888888888889,0.0011111111111111113,-0.6677777777777778,1.5463437631593402,5.120980107654845,-108.46397430381369
1589479285.2058368,-1.153149130074565,-3.7097605633802817,8.542578293289147,0.5788888888888889,0.0011111111111111113,-0.6677777777777778,1.622007042253521,6.5111640430820215,-114.05352112676056
1589479285.2158368,-1.4027366520505546,-3.843052618003611,8.600104462213052,0.580584787779784,-0.0022806866706789326,-0.6620117215487347,2.67763412432293,9.617108911529533,-121.5894618906371
1589479285.2258368,-1.5028682586530722,-3.864341293265361,8.946898309632411,0.5844444444444444,-0.01,-0.6488888888888888,0.8013482693855648,7.1763482693855645,-128.89778977730077
1589479285.2358367,-1.3866921629481195,-3.913211553969844,8.657884460301556,0.5844444444444444,-0.01,-0.6488888888888888,0.6135831846729063,6.630770264656289,-132.22764442462307
1589479285.2458367,-1.316571517442695,-4.080361056610997,8.708706991434177,0.5844444444444444,-0.01,-0.6488888888888888,1.56099559745418,6.753288450495287,-134.51635551753841
1589479285.2558367,-1.6246223242844255,-4.578738620519971,8.820468301484459,0.5844444444444444,-0.01,-0.6488888888888888,1.3781626753055032,7.923526818666447,-138.45104773230543
1589479285.2658367,-1.8387131326617308,-5.017480883602379,8.582497269086055,0.5969489959676876,-0.010833636768216208,-0.6505561624253213,3.37540963709188,12.6644636029858,-140.5468237953635
1589479285.2758367,-1.4038601041478174,-4.6509823672517445,8.565707421034643,0.6177777777777778,-0.012222222222222223,-0.6533333333333333,4.06954078452661,12.514682228522027,-139.50764144399542
1589479285.2858367,-0.9702963311382878,-4.202573578820052,8.553168256954711,0.6177777777777778,-0.012222222222222223,-0.6533333333333333,1.845291291493079,8.722143361107378,-138.53712958607713
1589479285.2958367,-0.7236888523047977,-3.963012027953232,8.532030473054697,0.6177777777777778,-0.012222222222222223,-0.6533333333333333,-0.18041299892487572,5.15514232798011,-138.845388934619
1589479285.3058367,-1.2399637442320368,-4.395168094924193,9.114087013843111,0.6177777777777778,-0.012222222222222223,-0.6533333333333333,-0.06528098220171391,3.0516026697429135,-143.36245468029006
1589479285.3158367,-1.4319682487365413,-4.564132058888156,8.6532762030323,0.6177777777777778,-0.012222222222222223,-0.6533333333333333,1.422753927708196,7.8037141562294,-143.6024603109207
1589479285.3258367,-1.3841047536417188,-4.418540115987032,8.894435362345313,0.7866666666666666,-0.07777777777777778,-0.6044444444444445,1.5439032604228504,8.14824021644824,-137.61638659299513
1589479285.3358366,-1.392341988384011,-4.545063204646396,8.767944140758456,0.7866666666666666,-0.07777777777777778,-0.6044444444444445,0.5081087717799795,6.589196489579774,-132.31844678852067
1589479285.3458366,-1.33,-4.621302164142101,8.520540475695388,0.7866666666666666,-0.07777777777777778,-0.6044444444444445,1.085917880964187,7.734720644923943,-126.65632847614326
1589479285.3558366,-1.33,-4.728643612341848,8.66813496697004,0.7866666666666666,-0.07777777777777778,-0.6044444444444445,2.0503137046337914,7.441208872502759,-122.79874518146484
1589479285.3658366,-1.307272203510016,-4.655656798439994,8.691212994149973,0.8327067206366089,-0.09694803915775374,-0.5761604522444799,0.8491125243751108,6.456435029250133,-115.33328532175146
1589479285.3758366,-1.228872827274971,-4.679855445474739,8.809855445474739,1.1122222222222222,-0.21333333333333332,-0.4044444444444445,0.2984103409371364,5.763186193279977,-107.23554454747382
1589479285.3858366,-1.2402914852443154,-4.855672714078374,8.673183841315916,1.1122222222222222,-0.21333333333333332,-0.4044444444444445,0.4411435655539429,5.476457426221577,-95.36925344702468
1589479285.3958366,-1.2376756404891431,-5.084540382201144,8.602121634816571,1.1122222222222222,-0.21333333333333332,-0.4044444444444445,0.913513623471428,5.321959129585716,-85.21764716138932
1589479285.4058366,-1.122049694146166,-4.752631289888832,8.632354601064334,1.1122222222222222,-0.21333333333333332,-0.4044444444444445,1.081804064163021,4.817087807510937,-74.74488310323277
1589479285.4158366,-0.9486097026399293,-4.539910693840165,8.66,1.1930300122491557,-0.13965564242642325,-0.3779046310532457,1.2252670188753312,4.498106742124374,-63.845484804867674
1589479285.4258366,-0.8199307386389025,-4.785034630680548,8.705103892041645,1.5655555555555556,0.2,-0.25555555555555554,0.959260076410921,2.943743297287636,-50.00729199249296
1589479285.4358366,-0.7803734788082249,-4.9033613092740245,8.703927822073016,1.5655555555555556,0.2,-0.25555555555555554,-0.3364456567352077,1.834111414183802,-41.92530423835501
1589479285.4458365,-0.7737554445978966,-4.975021778391586,8.596086263677893,1.5655555555555556,0.2,-0.25555555555555554,-0.15143949856581324,1.9775177945394666,-36.27770105173696
1589479285.4558365,-0.722342550969441,-4.748287245152794,8.67,1.5655555555555556,0.2,-0.25555555555555554,0.503936225763974,2.0850133950869547,-31.564083571720474
1589479285.4658365,-0.7317470174170086,-4.723976139336069,8.682229121919061,1.484804528280487,0.22989340913548217,-0.32291278263355755,0.30158114114369566,1.6844868468621739,-26.71572156178891
1589479285.4758365,-0.7436176555438023,-4.7809558611404945,8.743014712953169,1.1033333333333333,0.3711111111111111,-0.6411111111111111,0.23492643523415713,1.337316088085393,-21.80091835753438
1589479285.4858365,-0.7920180786614098,-4.6599548033464755,8.783348398884508,1.1033333333333333,0.3711111111111111,-0.6411111111111111,0.03325800557745939,0.8331450139436485,-17.465047119915376
1589479285.4958365,-0.7654689361702127,-4.578580992907801,8.61410780141844,1.1033333333333333,0.3711111111111111,-0.6411111111111111,0.7915460992907801,1.149741134751773,-9.482833333333334
1589479285.5058365,-0.6030010250638153,-4.362502562659538,8.687985649106587,1.1033333333333333,0.3711111111111111,-0.6411111111111111,-0.42185898337788674,0.11409613490643783,-3.440487257049826
1589479285.5158365,-0.6352656107314922,-4.358914255124854,8.444273073653052,1.0117702133912734,0.3608724235776539,-0.6525199343626776,0.09873020121548005,0.7038093963535599,1.0431617438674938
1589479285.5258365,-0.6423351585907635,-4.31329682818473,8.636043806178325,0.7555555555555555,0.3322222222222222,-0.6844444444444444,-0.271720993904329,-1.3226314701932018,4.826752505424114
1589479285.5358365,-0.6035532069970846,-4.577631195335277,8.416401846452867,0.7555555555555555,0.3322222222222222,-0.6844444444444444,-0.3391110908649174,-1.7256362366375122,8.660327077259476
1589479285.5458364,-0.5799855102463258,-4.669981887807907,8.659978265369489,0.7555555555555555,0.3322222222222222,-0.6844444444444444,1.271097469468019,0.6463012316290622,13.395508823225006
1589479285.5558364,-0.6536892010535558,-4.7226690079016675,8.745290605794557,0.7555555555555555,0.3322222222222222,-0.6844444444444444,-0.40443371378402104,-2.0163849868305532,15.956628621597893
1589479285.5658364,-0.63779721963592,-4.62440556072816,8.68321668218448,0.7212900832254221,0.3256138811299822,-0.6873814849298845,-0.7097914726939994,-1.9947567181429993,18.3822057501525
1589479285.5758364,-0.6229012804792249,-4.657746798801938,8.74419743904155,0.6,0.3022222222222222,-0.6977777777777778,-0.01408250748788871,-1.4234174925121112,21.8611059460872
1589479285.5858364,-0.6026638042291274,-4.6655460140970915,8.725982825374764,0.6,0.3022222222222222,-0.6977777777777778,0.034662588106820186,-1.640283741189318,23.786295976868857
1589479285.5958364,-0.5847235623806688,-4.604170687142006,8.599447124761339,0.6,0.3022222222222222,-0.6977777777777778,-0.3636943378020489,-1.613694337802049,25.678072840748115
1589479285.6058364,-0.6153318066411111,-4.608722059043163,8.658304873798976,0.6,0.3022222222222222,-0.6977777777777778,-0.0807736346891024,-1.4634527306217953,27.20992121770299
1589479285.6158364,-0.7052978859705317,-4.218174247277386,8.67855861627162,0.5934813865755569,0.2986198305929248,-0.6986354900704677,0.4526345291479821,-2.269738949391416,28.58267937219731
1589479285.6258364,-0.5851227236737925,-3.8622486144101345,7.9657244655581945,0.5577777777777778,0.2788888888888889,-0.7033333333333334,1.2789489311163895,-3.0625,30.431116389548695
1589479285.6358364,-0.6272783574904369,-4.289430117879726,9.68082229566213,0.5577777777777778,0.2788888888888889,-0.7033333333333334,-0.5154278019204247,-2.6139227536495877,32.75632985505738
1589479285.6458364,-0.4279891269891587,-3.864380428580486,8.85201087301084,0.5577777777777778,0.2788888888888889,-0.7033333333333334,-1.390149503899068,-0.7171194446205541,33.89014950389907
1589479285.6558363,-0.4612286819248082,-3.9242116274646546,8.818771318075193,0.5577777777777778,0.2788888888888889,-0.7033333333333334,-0.933105623533887,-1.8805038673682877,33.43310562353389
1589479285.6658363,-0.5867920449632511,-4.197168179853005,8.760752269779507,0.5549262621895567,0.27906710861315276,-0.7045808714031802,-0.5701740164288802,-2.1096519671422396,31.39442823173368
1589479285.6758363,-0.5859101821192053,-4.071662665562914,8.57249399834437,0.54,0.28,-0.7111111111111111,-1.0037924254966888,-1.8887662975993376,29.67373370240066
1589479285.6858363,-0.628301533264719,-3.933778534293933,8.299427598764943,0.54,0.28,-0.7111111111111111,-0.3064203810730213,-3.354961668382023,28.143845829044942
1589479285.6958363,-0.6133744734625105,-4.021289385004212,8.337723251895536,0.54,0.28,-0.7111111111111111,3.1442028222409437,-2.899947346251053,27.625
1589479285.7058363,-0.5859011098227597,-3.8923324913036277,8.963109988404836,0.54,0.28,-0.7111111111111111,-0.2592709541162829,-0.696994833940699,27.509718713765114
1589479285.7158363,-0.5511628292198112,-3.657849097233725,8.650465462978302,0.54,0.28,-0.7111111111111111,-3.515984760642703,-1.8368446662249462,26.532704571807187
1589479285.7258363,-0.6194934324492508,-3.8261519702652245,8.748962478346424,0.5222222222222223,0.2822222222222222,-0.7122222222222222,0.44066604719218283,-1.6460365546006492,26.32689962831531
1589479285.7358363,-0.5489523873593569,-3.847314283792193,8.882990464017222,0.5222222222222223,0.2822222222222222,-0.7122222222222222,0.8815475790040196,0.6465474108209017,26.591428547402412
1589479285.7458363,-0.47569460173650435,-3.6213892034730084,8.597274679124197,0.5222222222222223,0.2822222222222222,-0.7122222222222222,-1.5035788859003398,-1.8959439293129483,24.684782288127597
1589479285.7558362,-0.5652164688456996,-3.7878247032685497,8.803584996297111,0.5222222222222223,0.2822222222222222,-0.7122222222222222,-0.5135956045715658,-2.4446443225716057,21.886236264286143
1589479285.7658362,-0.6995388402954303,-3.989308260443146,9.08902003562779,0.5222222222222223,0.2822222222222222,-0.7122222222222222,0.7456766277696603,-0.8180843557975219,17.951010538219812
1589479285.7758362,-0.6824782544905788,-3.814782544905787,8.240195342793065,0.551425131404591,0.28416908283438014,-0.6995676282431957,0.09293454339670093,-1.2505436377355328,14.980705445285155
1589479285.7858362,-0.38,-3.9422168649164173,8.790554216229104,0.5555555555555556,0.28444444444444444,-0.6977777777777778,0.4236445942723925,0.5366717884865022,14.231099491350307
1589479285.7958362,-0.3787176476344244,-4.026411761827878,8.783070600322912,0.5555555555555556,0.28444444444444444,-0.6977777777777778,-0.2147793434121043,-2.4663235725818287,10.77389732863643
1589479285.8058362,-0.35937992001683855,-4.058052410018943,8.617257629972636,0.5555555555555556,0.28444444444444444,-0.6977777777777778,-1.183624500105241,-1.5718888128814985,6.00715112607872
1589479285.8158362,-0.293461785860476,-3.9787018303023216,8.724374597976727,0.5552911135801025,0.28369919887725864,-0.6982585813695106,-0.6932050757265658,0.09195368691889363,1.282582158938074
1589479285.8258362,-0.46159964830011724,-3.9034290738569752,8.527998241500587,0.5433333333333333,0.25,-0.72,1.875,4.25,-11.375
1589479285.8358362,-0.5189660023446659,-3.82147713950762,8.81483001172333,0.5433333333333333,0.25,-0.72,1.875,4.25,-11.375
1589479285.8458362,-0.49288571680324256,-3.5741285575821657,8.573928539959468,0.5433333333333333,0.25,-0.72,0.0805357300202661,0.1778570799189356,-20.26991089523306
1589479285.8558362,-0.5074651115203601,-3.4901395539185596,8.386616329036219,0.5433333333333333,0.25,-0.72,0.17957847350112544,-0.0915694700225087,-21.55941144874156
1589479285.8658361,-0.47313484755473706,-3.627460609781052,8.74708410067526,0.5433333333333333,0.25,-0.72,0.07229639860855332,2.054072027828934,-22.36402701043585
1589479285.8758361,-0.44847212165097755,-3.6637219406227373,8.647610427226647,0.5244444444444445,0.25,-0.72,-0.017016654598117326,0.6451393917451123,-25.652425778421435
1589479285.8858361,-0.48298515568428674,-3.760358435916003,8.88229905865315,0.5244444444444445,0.25,-0.72,0.9320917813178855,0.47257422157856627,-27.29179489500362
1589479285.895836,-0.3480717092566326,-3.5650298788569303,8.385784872230102,0.5244444444444445,0.25,-0.72,1.151344548561862,2.926568639988839,-29.36691992001302
1589479285.905836,-0.23940436661781891,-3.521786900146543,8.711191266764363,0.5244444444444445,0.25,-0.72,-0.8414956222523141,0.6146179209408448,-32.370698770149694
1589479285.915836,-0.23162403309280455,-3.545127900721586,8.726751933814391,0.5244444444444445,0.25,-0.72,-0.4038518614702554,1.2953971043796026,-35.58008634921813
1589479285.925836,-0.37409122069375256,-3.830598692929939,8.889258717608884,0.507591670094298,0.26516749691513186,-0.7132588902599414,1.4886402586719072,2.5750622686348885,-38.619921392989355
1589479285.935836,-0.5177148608644169,-4.057358436944938,8.70146737714624,0.5022222222222222,0.27,-0.7111111111111111,1.7582548845470694,4.003143872113677,-41.01205447010065
1589479285.945836,-0.5792466119233594,-4.192800253688497,9.031172641698378,0.5022222222222222,0.27,-0.7111111111111111,1.3606966419654183,6.260349906535817,-41.184301772481476
1589479285.955836,-0.46024150477334935,-3.8917873356031776,8.380144702583618,0.5022222222222222,0.27,-0.7111111111111111,2.5857492155684625,4.9915454553040925,-41.84057993691167
1589479285.965836,-9.051340916925197,-23.93298517752499,13.930175801447778,0.5022222222222222,0.27,-0.7111111111111111,-57.40503274732851,-4.408544467425026,-157.25071096173735
1589479285.975836,2.123858413639733,6.498802816901408,0.5726167531504818,0.5111111111111111,0.28444444444444444,-0.6966666666666667,-80.83274647887325,-22.22106653076353,-247.40358598962194
1589479285.985836,1.7130457454373074,-3.5707482025756496,13.949616022754208,0.5111111111111111,0.28444444444444444,-0.6966666666666667,-48.90295883700719,-22.647852966737773,-254.85110018171764
1589479285.995836,-0.02116254954373681,-1.198853580975205,3.117547469812886,0.5111111111111111,0.28444444444444444,-0.6966666666666667,37.97773844363536,66.54949044842843,-241.47244849755737
1589479286.005836,2.2623183013538517,-2.820751728839973,13.631981688906203,0.5111111111111111,0.28444444444444444,-0.6966666666666667,110.0508558975358,25.537227281581767,-228.99524203759617
1589479286.015836,-1.0712248952956078,-1.2111732735950131,2.324080257134508,0.5111111111111111,0.28444444444444444,-0.6966666666666667,125.47257840654524,57.91263148923736,-213.36925830330185
1589479286.025836,-5.73,-11.17,10.34,0.4455555555555555,0.3911111111111111,-0.6877777777777778,-45.3125,34.8125,-89.125
1589479286.035836,-1.5828185221128512,-5.2177092287074265,9.905859790193633,0.4455555555555555,0.3911111111111111,-0.6877777777777778,-33.70924603724756,1.9306633855538635,-47.317583414205835
1589479286.045836,2.181735112936345,-3.0996765913757702,11.41514887063655,0.4455555555555555,0.3911111111111111,-0.6877777777777778,7.961932109856264,-33.57652079055441,-15.455130261806982
1589479286.055836,0.5508929982276698,-3.018653242510303,6.713972368730114,0.4455555555555555,0.3911111111111111,-0.6877777777777778,13.285124970639107,16.686468364971923,5.703545728256923
1589479286.065836,0.7130213385063046,-3.5892003448647483,9.572644142687789,0.4455555555555555,0.3911111111111111,-0.6877777777777778,-4.567837994395948,-5.16080666020045,31.955076651578835
1589479286.075836,0.45019355958684143,-3.233006466452565,8.920412941584932,0.4134910405153874,0.41676272314324564,-0.6850293907743348,-4.110887184272199,-8.878306462112663,47.64072536021179
1589479286.085836,-0.18,-4.058118066561015,9.582496038034865,0.4066666666666667,0.4222222222222222,-0.6844444444444444,-0.493091323296355,3.366333201267829,63.90998910459588
1589479286.095836,-0.18186087809893217,-3.675817463840924,7.82885248966049,0.4066666666666667,0.4222222222222222,-0.6844444444444444,1.954834743089469,-5.608966457929294,75.08157990046031
1589479286.105836,-0.19696752302472129,-3.820902569074164,8.493328550654386,0.4066666666666667,0.4222222222222222,-0.6844444444444444,-2.693141056713524,-3.8296921958313135,83.79778599127484
1589479286.115836,-0.15630538051381482,-3.698916141541445,8.403871837130394,0.4066666666666667,0.4222222222222222,-0.6844444444444444,-1.930725884634028,-6.574386815317499,91.98104217159477
1589479286.125836,-0.34,-3.9,8.86,0.4211111111111111,0.4133333333333333,-0.6844444444444444,-0.3125,-4.125,103.5
1589479286.135836,-0.3492837743462404,-3.9789120819430432,8.88785132303872,0.4211111111111111,0.4133333333333333,-0.6844444444444444,-0.3270058974160006,-4.57468281989602,105.57434333048809
1589479286.1458359,1.4684642295471324,-3.0740456398241167,7.081769425811214,0.4211111111111111,0.4133333333333333,-0.6844444444444444,-2.5522775780723435,-13.660754405109607,96.44117493661136
1589479286.1558359,0.233797300932568,-2.1052952385222383,8.355271924318508,0.4211111111111111,0.4133333333333333,-0.6844444444444444,-2.929873845498565,-1.1058848749103287,48.72748582092898
1589479286.1658359,-1.030852246410375,-3.785126661203549,9.802636548259521,0.4211111111111111,0.4133333333333333,-0.6844444444444444,2.8113353760644175,7.403545533901022,25.59761909003456
1589479286.1758358,-0.20945210160610572,-4.631191099973422,8.66761855944109,0.4502835470166601,0.3895883273637004,-0.6925855893483186,2.2961968903064127,-2.7321567566541365,9.459004917036868
1589479286.1858358,0.19261620533467533,-4.338608152994464,8.25805374937091,0.4688888888888889,0.3744444444444445,-0.6977777777777778,-1.1821036738802215,-3.955222697533971,0.8622760442878712
1589479286.1958358,-0.28119016368128474,-4.356771541074737,8.632257180358247,0.4688888888888889,0.3744444444444445,-0.6977777777777778,1.7554721278567018,2.1916040958925262,0.11226065472513902
1589479286.2058358,0.06312590183924399,-4.325155573620568,8.67828147545981,0.4688888888888889,0.3744444444444445,-0.6977777777777778,-0.7473148054059546,-2.001481048673915,-0.17944441621786403
1589479286.2158358,-0.07326023778071333,-4.427445178335535,8.644184940554823,0.4688888888888889,0.3744444444444445,-0.6977777777777778,-0.6940389696169088,0.44920739762219286,-0.01961690885072656
1589479286.2258358,-0.09,-4.3567957487704225,8.750939001639438,0.4688888888888889,0.36982198604280125,-0.6916144999089202,0.8292441630391769,0.793335547515405,0.21667773757702527
1589479286.2358358,-0.011710887465690753,-4.447219807868253,8.8,0.4688888888888889,0.36777777777777776,-0.6888888888888889,-0.3349010750228729,-0.2884406450137238,0.006683154162854532
1589479286.2458358,-0.017233603691791357,-4.413831981541043,8.655327926164173,0.4688888888888889,0.36777777777777776,-0.6888888888888889,-0.60105011536848,-0.13165990770521604,0.09042004614739198
1589479286.2558358,-0.02,-4.382904925544101,8.685475372279495,0.4688888888888889,0.36777777777777776,-0.6888888888888889,0.006987399770904901,0.044344215349369984,-0.035266323024054996
1589479286.2658358,-0.04068822858823962,-4.442064685764719,8.706896076196081,0.4688888888888889,0.36777777777777776,-0.6888888888888889,-0.04740190490199686,0.019399523774500785,-0.0625
1589479286.2758358,-0.041606550788706925,-4.436426203154827,8.718393449211293,0.45676501780590995,0.36777777777777776,-0.7010127599718678,-0.07254094242941828,0.05245905757058173,-0.0625
1589479286.2858357,-0.04,-4.421892352016763,8.68756940806705,0.4544444444444444,0.36777777777777776,-0.7033333333333334,0.19086399947616556,-0.0388455997904662,0.0388455997904662
1589479286.2958357,-0.04,-4.4373332986038765,8.619333454886434,0.4544444444444444,0.36777777777777776,-0.7033333333333334,-0.18333246509689521,-0.0625,0.0625
1589479286.3058357,-0.03267665016009387,-4.469293399359625,8.653940099039437,0.4544444444444444,0.36777777777777776,-0.7033333333333334,-0.25,-0.15404187299882666,0.0625
1589479286.3158357,-0.02333426939998128,-4.446671346999906,8.683331461200037,0.4544444444444444,0.36777777777777776,-0.7033333333333334,-0.041695918749414945,-0.1875,0.020839183749882993
1589479286.3258357,-0.03845185218086524,-4.436150617393622,8.72075308696811,0.46674567923168797,0.3602603565189068,-0.686931686950342,0.1009413587101359,-0.07217592386959226,0.03844135871013591
1589479286.3358357,-0.029153342792401688,-4.429576671396201,8.7452116643019,0.4744444444444445,0.3555555555555556,-0.6766666666666666,0.125,-0.16286450943436184,0.02992709811312763
1589479286.3458357,-0.023602110817941953,-4.426801055408971,8.661586279683377,0.4744444444444445,0.3555555555555556,-0.6766666666666666,-0.087532981530343,-0.099967018469657,-0.0850131926121372
1589479286.3558357,-0.024260805758412243,-4.447217582724763,8.637217582724762,0.4744444444444445,0.3555555555555556,-0.6766666666666666,-0.22336996400992348,-0.03586996400992348,-0.017390107970229565
1589479286.3658357,-0.02,-4.454686582523684,8.665940252428948,0.4744444444444445,0.3555555555555556,-0.6766666666666666,-0.15037342231907747,0.07033543690789673,0.12891771845394837
1589479286.3758357,-0.02,-4.4212477179866125,8.720253194818742,0.471249746442957,0.36258389115882816,-0.6920012170738068,-0.02655964748326524,0.0796789424497957,0.15155964748326523
1589479286.3858356,-0.04356428696719874,-4.415709524644799,8.75,0.4688888888888889,0.36777777777777776,-0.7033333333333334,0.0,0.19636905805998947,0.125
1589479286.3958356,-0.02448511608033044,-4.42,8.667076627261073,0.4688888888888889,0.36777777777777776,-0.7033333333333334,-0.11960101837345108,0.09053197550206524,0.08513299387551632
1589479286.4058356,-0.051859789179972096,-4.453487831343978,8.67860370485196,0.4688888888888889,0.36777777777777776,-0.7033333333333334,-0.2921494729499302,-0.05232473647496512,0.0625
1589479286.4158356,-0.046014488725844405,-4.446014488725845,8.703985511274157,0.4688888888888889,0.36777777777777776,-0.7033333333333334,-0.05027166360958257,0.06861416819520871,0.0625
1589479286.4258356,-0.02465871121718377,-4.432329355608592,8.71767064439141,0.47315035799522676,0.3635163086714399,-0.7033333333333334,0.0625,-0.1147076372315036,0.0625
1589479286.4358356,-0.034152155887230515,-4.415847844112769,8.72,0.4744444444444445,0.3622222222222222,-0.7033333333333334,0.10672548714759536,-0.0990490257048093,0.018274512852404647
1589479286.4458356,-0.04,-4.417465072001288,8.66774449599099,0.4744444444444445,0.3622222222222222,-0.7033333333333334,0.031686599983910324,-0.015843299991955162,0.0
1589479286.4558356,-0.024315334668951704,-4.427842332665524,8.665684665331048,0.4744444444444445,0.3622222222222222,-0.7033333333333334,-0.09802915831905187,-0.14704373747857782,0.0
1589479286.4658356,-0.03964679736487023,-4.443097864909913,8.696195729819827,0.4744444444444445,0.3622222222222222,-0.7033333333333334,-0.2068616556869593,-0.10563834431304071,0.0
1589479286.4758356,-0.05,-4.429672959099189,8.715081760225203,0.46428092399403875,0.3622222222222222,-0.6959930130080404,-0.09119499296241099,0.0010220028150356025,-0.0635220028150356
1589479286.4858356,-0.02909474168327457,-4.423936838877816,8.72696841943891,0.4544444444444444,0.3622222222222222,-0.6888888888888889,0.0625,0.0625,-0.08144737850682202
1589479286.4958355,-0.02,-4.416852992872733,8.683985475054566,0.4544444444444444,0.3622222222222222,-0.6888888888888889,-0.01966879454541942,0.02141560272729029,-0.02141560272729029
1589479286.5058355,-0.02738278986059848,-4.432148369581796,8.667382789860598,0.4544444444444444,0.3622222222222222,-0.6888888888888889,-0.15478487325748103,-0.046142436628740506,0.0
1589479286.5158355,-0.03,-4.433371018696974,8.683257962606051,0.4544444444444444,0.3622222222222222,-0.6888888888888889,-0.22893113314391306,-0.10393113314391306,0.0828622662878261
1589479286.5258355,-0.022128517853203494,-4.437871482146797,8.721485928587187,0.44919678967991344,0.3569745674576913,-0.6853904523792015,-0.053212946330087274,0.1209838170873909,0.125
1589479286.5358355,-0.02,-4.432812263823355,8.686873582940132,0.4477777777777778,0.3555555555555556,-0.6844444444444444,0.04492335110403007,0.14257664889596994,-0.009770053312090216
1589479286.5458355,-0.02,-4.43,8.653927552766685,0.4477777777777778,0.3555555555555556,-0.6844444444444444,0.12946853013880966,0.05803146986119034,-0.0625
1589479286.5558355,-0.04096817928064439,-4.43,8.660968179280644,0.4477777777777778,0.3555555555555556,-0.6844444444444444,-0.03091853417337906,0.0,-0.018816293165324183
1589479286.5658355,-0.03134600086780445,-4.436217999710732,8.701089998553659,0.4477777777777778,0.3555555555555556,-0.6844444444444444,-0.16386249819207405,-0.07772499638414809,0.0
1589479286.5758355,-0.03411527745140824,-4.4258847225485916,8.734115277451409,0.45797214482601706,0.3602606480393583,-0.69385462941205,-0.23161024203565073,0.0073307261069522345,0.08822048407130148
1589479286.5858355,-0.03405167004320778,-4.425948329956792,8.722155010129624,0.4622222222222222,0.3622222222222222,-0.6977777777777778,-0.06411468885024293,0.0625,0.125
1589479286.5958354,-0.03,-4.442489669421487,8.66004132231405,0.4622222222222222,0.3622222222222222,-0.6977777777777778,-0.015560433884297523,-0.015560433884297523,0.08596978305785125
1589479286.6058354,-0.023973836457981273,-4.4258953458319255,8.648078490626057,0.4622222222222222,0.3622222222222222,-0.6977777777777778,-0.0625,0.012827044275234109,-0.05049056641285114
1589479286.6158354,-0.02,-4.415385087073829,8.681540348295314,0.4622222222222222,0.3622222222222222,-0.6977777777777778,-0.16347038263428992,0.0625,-0.024029617365710076
1589479286.6258354,-0.02,-4.433060394725697,8.719590592088545,0.4622222222222222,0.3622222222222222,-0.6919731578996904,-0.08674506592879128,0.02168626648219782,0.02168626648219782
1589479286.6358354,-0.027850996796484076,-4.44,8.722149003203517,0.4622222222222222,0.3622222222222222,-0.6888888888888889,0.04906872997802547,0.04906872997802547,0.0
1589479286.6458354,-0.03,-4.41126510501837,8.66253021003674,0.4622222222222222,0.3622222222222222,-0.6888888888888889,0.15229654681759297,0.0625,0.0
