time,acc_x,acc_y,acc_z,mag_x,mag_y,mag_z,gyr_x,gyr_y,gyr_z
1589477846.7887692,-0.54,-4.32,8.82,0.5377777777777778,0.2644444444444444,-0.6255555555555555,-0.0625,0.3125,-2.125
1589477846.7987692,-0.5367260602271543,-4.330089090340731,8.88008909034073,0.5377777777777778,0.2644444444444444,-0.6255555555555555,0.041481061790142756,0.35509469104928626,-1.8755568146295718
1589477846.8087692,-0.55,-4.344441818856969,8.927790905715154,0.5421008075556906,0.26814989853979826,-0.6255555555555555,-0.20843179286365324,0.4930227357121156,-1.826306839280289
1589477846.8187692,-0.55,-4.34,8.95,0.5455555555555556,0.27111111111111114,-0.6255555555555555,-0.375,0.4375,-1.6875
1589477846.8287692,-0.5656326003515443,-4.346897801054633,8.887469598593823,0.5455555555555556,0.27111111111111114,-0.6255555555555555,-0.08979624780284823,0.3318887434085447,-1.8028056282957277
1589477846.8387692,-0.58,-4.3796578897697245,8.85068422046055,0.5455555555555556,0.27111111111111114,-0.6255555555555555,0.09695728340883353,0.0625,-1.9698190944696112
1589477846.8487692,-0.5666628024923924,-4.343325604984785,8.883337197507608,0.5455555555555556,0.27111111111111114,-0.6255555555555555,0.07635668743660338,0.09028582814084915,-1.8332850311549052
1589477846.8587692,-0.55,-4.304074654956085,8.897037327478044,0.5475306705701938,0.27111111111111114,-0.6275306705701937,-0.0625,0.032416483688833125,-1.6805501097867002
1589477846.8687692,-0.5515155388471178,-4.302124310776942,8.89,0.5522222222222222,0.27111111111111114,-0.6322222222222222,-0.053027882205513785,-0.17802788220551377,-1.8598605889724311
1589477846.8787692,-0.56,-4.364793409705238,8.869173638820955,0.5522222222222222,0.27111111111111114,-0.6322222222222222,0.016270594671128846,-0.19008237868451539,-2.1738117840133864
1589477846.8887691,-0.5569498970266444,-4.365250514866778,8.828300617840133,0.5522222222222222,0.27111111111111114,-0.6322222222222222,0.17687886150083665,-0.2987474256661089,-2.2743737128330546
1589477846.8987691,-0.550201441626979,-4.398992791865105,8.868791350238125,0.5522222222222222,0.27111111111111114,-0.6322222222222222,0.42994593898828676,-0.13003604067447547,-2.190018020337238
1589477846.9087691,-0.56,-4.396174102285093,8.924496813306389,0.5522222222222222,0.27111111111111114,-0.6290007081541358,0.43540338877662055,-0.12290338877662055,-2.0687898336701385
1589477846.9187691,-0.550489050820719,-4.336222627051797,8.93524452541036,0.5522222222222222,0.27111111111111114,-0.6255555555555555,0.4405565676294933,-0.1280565676294933,-1.7263914190737333
1589477846.928769,-0.5372954931316561,-4.312704506868344,8.911068451921592,0.5522222222222222,0.27111111111111114,-0.6255555555555555,0.35809683207285076,-0.04559683207285074,-1.5455968320728508
1589477846.938769,-0.5268876493423285,-4.315331474013493,8.861556175328834,0.5522222222222222,0.27111111111111114,-0.6255555555555555,0.27359561677910527,0.038904383220894734,-1.5
1589477846.948769,-0.5131141818877307,-4.29,8.891799273214115,0.5522222222222222,0.27111111111111114,-0.6255555555555555,0.023572726403366162,0.23053636320168308,-1.5973181839915847
1589477846.958769,-0.5197991775843932,-4.29,8.938594243090751,0.5522222222222222,0.27111111111111114,-0.6255555555555555,-0.05998971980491537,0.18875514009754232,-1.8062242995122884
1589477846.968769,-0.5598990915443746,-4.349495457721873,8.960100908455626,0.5455555555555556,0.27111111111111114,-0.6255555555555555,-0.34217330538085255,0.5,-1.9690653389238295
1589477846.978769,-0.57,-4.4,8.95,0.5455555555555556,0.27111111111111114,-0.6255555555555555,-0.5,0.5,-1.9375
1589477846.988769,-0.5761569360630854,-4.436941616378513,8.88227370330606,0.5455555555555556,0.27111111111111114,-0.6255555555555555,-0.5,0.4230382992114324,-1.8990191496057163
1589477846.998769,-0.5645313469894475,-4.44066418373681,8.84,0.5455555555555556,0.27111111111111114,-0.6255555555555555,-0.33081160769708257,0.15747206703910613,-1.4157743637492242
1589477847.008769,-0.5364670544685352,-4.401167636171338,8.84,0.547714577824784,0.26993346260062284,-0.6267332040660438,-0.0514595452141724,-0.1543786356425172,-0.632297726070862
1589477847.018769,-0.5206780764997866,-4.358643847000427,8.83796577050064,0.5577777777777778,0.2644444444444444,-0.6322222222222222,0.0,-0.00847595624733284,-0.37076202187633356
1589477847.028769,-0.5301150781168082,-4.340115078116808,8.809654765649576,0.5577777777777778,0.2644444444444444,-0.6322222222222222,0.0021577146901541363,-0.12428076176994862,-0.3125
1589477847.038769,-0.54,-4.346933550606554,8.792265797573782,0.5577777777777778,0.2644444444444444,-0.6322222222222222,0.17791734564548253,-0.08166530870903495,-0.33166530870903493
1589477847.048769,-0.5363550319096712,-4.33,8.874579872361316,0.5577777777777778,0.2644444444444444,-0.6322222222222222,0.033875797741777125,-0.11915684830633284,-0.4602810505645557
1589477847.058769,-0.5269943212123114,-4.326994321212312,8.933062466664575,0.5577777777777778,0.26644823030290354,-0.6345599723904245,-0.20014196969221598,0.018785492423053995,-0.556356477269162
1589477847.068769,-0.5162209358232206,-4.293546550762544,9.002441871646441,0.5577777777777778,0.27111111111111114,-0.64,-0.4222383022097429,0.015261697790257128,-0.8528340577341
1589477847.078769,-0.5064557710064636,-4.248227885503232,8.977595198522623,0.5577777777777778,0.27111111111111114,-0.64,-0.5553785780240074,-0.08465143120960296,-1.2911357340720222
1589477847.088769,-0.49096435826408125,-4.240482179132041,8.923375253924284,0.5577777777777778,0.27111111111111114,-0.64,-0.7974319021237304,-0.18147276084949215,-2.017295706371191
1589477847.098769,-0.5583943297354851,-4.179843838075951,8.907564667320822,0.5577777777777778,0.27111111111111114,-0.64,-0.26943020731121736,0.17908124386730412,-3.2525926950458257
1589477847.108769,-0.6400137074439813,-4.069982376143453,8.904995104484293,0.554722820563031,0.2694447708121583,-0.6363895960189355,-0.5155852239348757,0.37501223878926904,-3.7812561193946346
1589477847.118769,-0.44935714971055746,-4.376294655707295,8.948544631720344,0.5455555555555556,0.2644444444444444,-0.6255555555555555,-0.8830356286180318,0.4445871445933412,-3.521149494674897
1589477847.128769,-0.503014999840087,-4.476903124700163,8.861350625259858,0.5455555555555556,0.2644444444444444,-0.6255555555555555,-0.2123125019989126,1.1572304666261553,-3.0600273451242526
1589477847.138769,-0.51,-4.531920592874788,8.747231762850085,0.5455555555555556,0.2644444444444444,-0.6255555555555555,0.14759925890651507,1.0918051876543944,-1.5932133396827286
1589477847.148769,-0.51,-4.5,8.76,0.5455555555555556,0.2644444444444444,-0.6255555555555555,0.1875,0.8125,-0.875
1589477847.158769,-0.576885926064053,-4.484429630320265,8.85467111090392,0.546507078147095,0.26496345676710226,-0.6249500411791213,0.6201342594750827,0.9562083352757447,-0.29790277842524826
1589477847.168769,-0.5373984776195506,-4.294796955239101,8.910867174126816,0.5577777777777778,0.27111111111111114,-0.6177777777777778,0.5137214553665732,0.3507825873183523,-0.13583967658520596
1589477847.1787689,-0.49547701050456344,-4.232738505252282,8.912738505252282,0.5577777777777778,0.27111111111111114,-0.6177777777777778,-0.13615302651971758,-0.6532686843464783,-0.363460855433098
1589477847.1887689,-0.47,-4.207142634126034,8.916071707342457,0.5577777777777778,0.27111111111111114,-0.6177777777777778,-0.4754481708903575,-0.732141463287714,-0.9040237810272155
1589477847.1987689,-0.4824337670481266,-4.155132465903747,8.965542208810158,0.5577777777777778,0.27111111111111114,-0.6177777777777778,-0.7069277610126979,-0.42650567291111463,-2.032982981266656
1589477847.2087688,-0.5441492924273523,-4.063411472399265,8.992682294479854,0.5499180199968793,0.2746344508059967,-0.6196749606904084,-0.9176974181700335,-0.17073565950091824,-3.3643661553419033
1589477847.2187688,-0.5987325886698411,-3.977964042543723,9.00262471630101,0.5255555555555556,0.2855555555555556,-0.6255555555555555,-1.4957584219660895,-0.19598315606782074,-5.41573027457612
1589477847.2287688,-0.54,-4.01,9.04,0.5255555555555556,0.2855555555555556,-0.6255555555555555,-1.5625,-0.0625,-6.25
1589477847.2387688,-0.54,-3.9868932360742706,8.847443633952254,0.5255555555555556,0.2855555555555556,-0.6255555555555555,-1.2255263594164456,0.4670300066312998,-6.923947281167109
1589477847.2487688,-0.6408738600451467,-3.9191261399548534,8.880639638826185,0.5255555555555556,0.2855555555555556,-0.6255555555555555,-1.2074887133182843,0.44949322799097063,-7.773986455981941
1589477847.2587688,-0.7696379232505643,-3.7903620767494357,8.888213995485328,0.5255555555555556,0.2855555555555556,-0.6255555555555555,-1.4441873589164786,0.5915124153498872,-8.058024830699773
1589477847.2687688,-0.7040267542745127,-3.6737437833520894,8.971231350056268,0.5255555555555556,0.2644444444444444,-0.6322222222222222,-2.2070506770247214,0.33413007768541036,-7.882695937851672
1589477847.2787688,-0.5289280139398119,-3.6432918285112716,8.879875485533814,0.5255555555555556,0.2644444444444444,-0.6322222222222222,-2.302213035902276,1.047847769267071,-7.311721784586343
1589477847.2887688,-0.24403988139067442,-3.5737156958347427,8.815960118609325,0.5255555555555556,0.2644444444444444,-0.6322222222222222,-0.9113153993114291,1.4677369201377142,-5.32465695834743
1589477847.2987688,-0.11383570179012198,-3.477525222267488,8.94616429820988,0.5255555555555556,0.2644444444444444,-0.6322222222222222,-0.31067273359054853,1.5855595029835365,-3.922315715689329
1589477847.3087687,-0.23140343851016965,-3.576776039133793,8.82046056583803,0.5278801257417843,0.26521930117318737,-0.6314473654934794,0.7994786451926652,1.6454215178648053,-1.0509858540492605
1589477847.3187687,-0.1197685411972176,-3.038943617125502,8.967655775448222,0.5455555555555556,0.27111111111111114,-0.6255555555555555,-0.4191394386205545,0.0874629543450573,0.8191023929656118
1589477847.3287687,-0.21297308827189024,-3.096486544135945,9.076485833125956,0.5455555555555556,0.27111111111111114,-0.6255555555555555,-0.6722954957517153,-0.5793909310675815,0.4729727327668954
1589477847.3387687,-0.2577059262682641,-3.118852963134132,8.822999751146504,0.5455555555555556,0.27111111111111114,-0.6255555555555555,0.026655097941626016,-0.20661728109779948,0.3797793202744499
1589477847.3487687,-0.5029843313494473,-3.0053751164014737,9.002390785052025,0.5455555555555556,0.27111111111111114,-0.6255555555555555,-0.7397465484432568,-0.21176844204218798,1.9310080873719584
1589477847.3587687,-0.4070435485219136,-3.1309565072023626,9.11617397119055,0.544135267584879,0.2737487887709392,-0.6281932332153836,-1.027717603298877,-1.0282609149926165,4.78695564347608
1589477847.3687687,-0.20377883128929197,-3.2059837163763785,8.909606513449448,0.5377777777777778,0.2855555555555556,-0.64,0.12597521385138616,-0.5826831907657426,7.733760177264763
1589477847.3787687,-0.2962657039711191,-3.28124476534296,8.881244765342961,0.5377777777777778,0.2855555555555556,-0.64,1.0638086642599278,0.024386281588447634,7.438546931407942
1589477847.3887687,-0.270308200103146,-3.2898972666322845,8.889897266632286,0.5377777777777778,0.2855555555555556,-0.64,-1.0993166580711708,-1.543879577101599,5.7080466735430635
1589477847.3987687,-0.3491888666234455,-3.345250780927683,8.872315818942653,0.5377777777777778,0.2855555555555556,-0.64,0.019543451995049213,0.10038696440148523,4.757004405610892
1589477847.4087687,-0.3924494607178641,-3.369971120410208,8.977377261743383,0.5377777777777778,0.2855555555555556,-0.64,0.4057987564095008,-0.01548962692285022,3.907242735899098
1589477847.4187686,-0.44932088409074333,-3.2328862426143408,8.940339557954628,0.5455555555555556,0.27111111111111114,-0.6177777777777778,0.07205006747392224,0.003183355824640747,3.6441001349478443
1589477847.4287686,-0.4187256546794077,-3.3629159676125173,8.955637172660296,0.5455555555555556,0.27111111111111114,-0.6177777777777778,0.5022954810708293,0.14659849369027644,4.504590962141659
1589477847.4387686,-0.30725091049419934,-3.333127276235498,8.8641236342587,0.5455555555555556,0.27111111111111114,-0.6177777777777778,-0.006227237645015801,-0.19609090470562698,4.888318238826849
1589477847.4487686,-0.2849115007820861,-3.2810951263686507,8.887455750391043,0.5455555555555556,0.27111111111111114,-0.6177777777777778,-0.34209063966411457,-0.21024609986004775,4.01258283938421
1589477847.4587686,-0.2503819873219725,-3.2206684778134522,8.870190993660986,0.5455555555555556,0.27111111111111114,-0.6177777777777778,0.30533773771301553,0.059515724047089824,2.825630814192805
1589477847.4687686,-0.310100805199644,-3.340201610399288,8.990201610399287,0.5388776883111507,0.28351286456500596,-0.6244556450221826,-0.009468599283807,-0.20580716606983918,1.2026570035809652
1589477847.4787686,-0.3754860186418109,-3.2792676431424765,9.013661784287617,0.5377777777777778,0.2855555555555556,-0.6255555555555555,-0.4085386151797603,-0.26905792276964047,-1.6211717709720372
1589477847.4887686,-0.457674120942813,-3.307674120942813,8.855348241885626,0.5377777777777778,0.2855555555555556,-0.6255555555555555,-0.15259581481839257,-0.05231627946290572,-2.539257208751932
1589477847.4987686,-0.47056834902884054,-3.3280477486756914,8.888616097704531,0.5377777777777778,0.2855555555555556,-0.6255555555555555,0.16464188493231313,0.07063438051795175,-2.8282537522071807
1589477847.5087686,-0.55542948057681,-3.443767473513832,9.08919695409064,0.5377777777777778,0.2855555555555556,-0.6255555555555555,-0.7032560513537374,-0.4115311396409652,-2.635387544143614
1589477847.5187685,-0.6357135689737351,-3.435713568973735,8.925714823269699,0.5455555555555556,0.2788888888888889,-0.64,-0.607168615006397,-0.455370581742468,0.20528434889496527
1589477847.5287685,-0.6829801545654041,-3.4755629233851733,8.88331122984448,0.5455555555555556,0.2788888888888889,-0.64,0.578642305123557,0.09478461024711382,4.59147505009064
1589477847.5387685,-0.7419599114732659,-3.498040088526734,8.827639203259395,0.5455555555555556,0.2788888888888889,-0.64,0.1667594059654947,-0.43499446707912076,9.56695463004879
1589477847.5487685,-0.7553983546222126,-3.5034958865555317,8.897300822688894,0.5455555555555556,0.2788888888888889,-0.64,-0.6284554963195497,-0.9459349290972072,14.488818264234682
1589477847.5587685,-0.7780996969040919,-3.5602492422602294,8.885950151547954,0.5455555555555556,0.2788888888888889,-0.64,-0.380159565111496,-0.9814057764126434,17.858548759201128
1589477847.5687685,-0.8848591800356507,-3.605809863339275,8.943239453357101,0.5455555555555556,0.28855047204066814,-0.6338517198125041,-0.25,-1.642275698158051,24.713799762329174
1589477847.5787685,-1.0553543746388507,-3.5518110267599177,8.978267678880986,0.5455555555555556,0.2911111111111111,-0.6322222222222222,-0.8351378344989738,-2.687008089744356,34.79478624942714
1589477847.5887685,-1.1723866685496398,-3.561909334839712,8.881670667984748,0.5455555555555556,0.2911111111111111,-0.6322222222222222,-0.9315333286259003,-3.2649166784352492,42.345916890269734
1589477847.5987685,-1.2653980885102847,-3.635398088510285,8.960737793476001,0.5455555555555556,0.2911111111111111,-0.6322222222222222,-0.7929604716393102,-4.0955082588821945,56.02753480157906
1589477847.6087685,-1.2395443896306737,-3.610227805184663,9.017721948153367,0.5457074256786644,0.29083268255207834,-0.6327031442787333,-1.3806951296165788,-5.331009171253881,67.86149430487038
1589477847.6187685,-1.2235664082588902,-3.618216795870555,8.93783204129445,0.5510334194692588,0.2810683606026552,-0.6495687912822824,-1.5804198967638712,-5.980114664482581,78.34704458010324
1589477847.6287684,-1.1277419098354138,-3.7390323606583444,8.932096684423948,0.5522222222222222,0.2788888888888889,-0.6533333333333333,-0.9667349129363123,-6.564517571757971,93.02924485171344
1589477847.6387684,-1.1144023216983383,-3.7923907132066472,8.885408125944183,0.5522222222222222,0.2788888888888889,-0.6533333333333333,-1.5086556810050091,-7.314869404468475,98.74025602289895
1589477847.6487684,-1.1,-3.878864456472711,8.864542174109156,0.5522222222222222,0.2788888888888889,-0.6533333333333333,-1.7251599853405504,-7.767742867613893,106.99485157307171
1589477847.6587684,-1.1,-3.863098782138024,8.927604871447903,0.5522222222222222,0.2788888888888889,-0.6533333333333333,-1.3802858592692828,-8.01408152909337,110.3943251014885
1589477847.6687684,-1.0842088523721178,-3.8086867214418234,8.96249204876756,0.5455555555555556,0.2588888888888889,-0.6611111111111111,-1.625,-8.5,117.4375
1589477847.6787684,-1.0524039992041385,-3.8640066653402307,8.812019996020693,0.5455555555555556,0.2588888888888889,-0.6611111111111111,-1.6099750049741346,-8.520033326701155,117.61279160863509
1589477847.6887684,-1.0781345726865617,-3.91,8.940672863432807,0.5455555555555556,0.2588888888888889,-0.6611111111111111,-1.4433294603544953,-8.709193777518534,119.39765104617469
1589477847.6987684,-1.062350506152862,-3.91,8.86175253076431,0.5455555555555556,0.2588888888888889,-0.6611111111111111,-1.4926546682723065,-8.363917322093855,117.47396793738005
1589477847.7087684,-1.0667951573296786,-3.855638741362572,8.945132202615499,0.5455555555555556,0.2588888888888889,-0.6611111111111111,-1.6274091999314717,-8.27003026668951,115.44624093426988
1589477847.7187684,-1.0876853449793964,-3.821157327510302,8.936943965061811,0.5622583813694298,0.2186056031024861,-0.6738838602628974,-1.5216998908181594,-8.028933187757547,111.86166484696932
1589477847.7287683,-1.1606532734578112,-3.759673363271094,8.95934672654219,0.5644444444444444,0.21333333333333332,-0.6755555555555556,-1.6854585204443393,-7.995917040888679,108.14769114866462
1589477847.7387683,-1.2006689300789135,-3.739479721049734,8.919702697742705,0.5644444444444444,0.21333333333333332,-0.6755555555555556,-1.5620354652229766,-7.749070930445954,105.73234767847312
1589477847.7487683,-1.287264406313085,-3.6721276839787116,8.881215819416408,0.5644444444444444,0.21333333333333332,-0.6755555555555556,-1.5018997178381355,-7.628799435676271,103.44718927784915
1589477847.7587683,-1.3228637889882278,-3.6124883692706016,8.995023261458797,0.5644444444444444,0.21333333333333332,-0.6755555555555556,-1.3973006594117885,-7.162852967353048,101.52641186941219
1589477847.7687683,-1.4021850227464654,-3.5729306164700754,8.911722465880302,0.5774778513292229,0.17623825219973305,-0.707637787887318,-1.1494218039172954,-6.78052725489662,99.99710901958647
1589477847.7787683,-1.587418232428671,-3.659483646485734,8.852581767571328,0.5788888888888889,0.17222222222222222,-0.7111111111111111,-1.5625,-7.1987952331245655,99.34756871955463
1589477847.7887683,-1.5144485038274182,-3.644889700765484,8.92555149617258,0.5788888888888889,0.17222222222222222,-0.7111111111111111,-1.5625,-7.5180377957550455,98.57226535316632
1589477847.7987683,-1.5287199027398886,-3.6482932036531848,8.847680583560669,0.5788888888888889,0.17222222222222222,-0.7111111111111111,-1.008000607875697,-6.481331914956708,95.37848601885898
1589477847.8087683,-1.5100641976040803,-3.6234189301387736,8.959614814375518,0.5788888888888889,0.17222222222222222,-0.7111111111111111,-1.1245987649744988,-6.209269548392836,92.69672840558653
1589477847.8187683,-1.5434047907959194,-3.61,8.99395712552245,0.5943217033941046,0.13846294049206279,-0.716898416550567,-1.0247320345153026,-6.116755988494899,86.90952092040807
1589477847.8287683,-1.600067416844297,-3.579831457889258,9.039696624200664,0.5966666666666667,0.13333333333333333,-0.7177777777777777,-1.7487359341694344,-6.248630595350221,80.49220492737818
1589477847.8387682,-1.6358907007492287,-3.4782388717496695,8.86293521375055,0.5966666666666667,0.13333333333333333,-0.7177777777777777,-0.9908274570295285,-5.422823931247246,75.7447498898193
1589477847.8487682,-1.5323733803437638,-3.433874305861613,8.936876156897313,0.5966666666666667,0.13333333333333333,-0.7177777777777777,-0.7597620096959012,-5.053119215513442,72.46362053768179
1589477847.8587682,-1.431135858279582,-3.340541374937979,8.965297241670802,0.5966666666666667,0.13333333333333333,-0.7177777777777777,-1.1510086461951228,-4.606422395574913,67.56389202822648
1589477847.8687682,-1.4745858650463703,-3.3164826066872757,8.946758696656362,0.5915019325903027,0.10944643823014999,-0.7261704706518692,-1.0904110258323563,-4.094612781153395,59.47673933127243
1589477847.8787682,-1.6755608004786915,-3.4112357334397094,8.964748132881237,0.5877777777777777,0.09222222222222222,-0.7322222222222222,-0.8182925004986371,-3.670122498504089,49.04919331604725
1589477847.8887682,-1.8428754737052058,-3.4484167719344905,8.806728719278418,0.5877777777777777,0.09222222222222222,-0.7322222222222222,-0.9925786184429226,-3.147264144671232,43.00727456064535
1589477847.8987682,-1.7691354611711485,-3.378054787635084,9.074380497612465,0.5877777777777777,0.09222222222222222,-0.7322222222222222,-0.608789896959035,-2.5314306358381504,36.75882759487308
1589477847.9087682,-1.7339984920834381,-3.2989966071877355,8.845990198542347,0.5877777777777777,0.09222222222222222,-0.7322222222222222,0.05002827343553651,-1.268695809248555,32.037297373711986
1589477847.9187682,-1.7382312819717873,-3.339387691830724,8.927006665633234,0.5822902564632529,0.08216176647892662,-0.7441118517370262,-0.2351185862656952,-1.2793365369710124,26.406894279956596
1589477847.9287682,-1.713413023619992,-3.394311627300013,9.207007438340076,0.5811111111111111,0.08,-0.7466666666666667,-0.03555232937491848,-0.26009885162469004,20.105883792248466
1589477847.9387681,-1.7361626814242457,-3.393459329643939,8.926047822909053,0.5811111111111111,0.08,-0.7466666666666667,0.5723086561553722,1.428409209564582,15.39046021718701
1589477847.9487681,-1.6861498951023655,-3.366056210663387,8.863756420458657,0.5811111111111111,0.08,-0.7466666666666667,0.12675658323084715,1.7012881610359547,7.064521088041669
1589477847.9587681,-1.648521515697451,-3.284825304941079,8.750389852033434,0.5811111111111111,0.08,-0.7466666666666667,-0.3645411855045926,1.0590980241590122,1.2714234029357039
1589477847.9687681,-1.6336907791528672,-3.2642893498344083,8.877282203242114,0.5782405051033254,0.06523688338853059,-0.7536381383998606,-0.9940779152867352,-0.4591663761547846,-5.212286473766778
1589477847.978768,-1.6462674131314723,-3.3776044787888346,9.199721389896443,0.5733333333333334,0.04,-0.7655555555555555,-0.41068870577721706,0.547007241234295,-13.509577222309836
1589477847.988768,-1.8166631066016956,-3.381481877044256,8.43631132768173,0.5733333333333334,0.04,-0.7655555555555555,-0.7870135504972966,0.3981877044256057,-21.291544289433283
1589477847.998768,-2.079348104061563,-3.657053448957292,9.155749657080419,0.5733333333333334,0.04,-0.7655555555555555,-1.3367557482621533,0.25,-25.040009706367844
1589477848.008768,-2.0407149586976048,-3.527552750936699,8.635618878590678,0.5733333333333334,0.04,-0.7655555555555555,0.26592525033414427,2.949586702162624,-26.741692959968447
1589477848.018768,-2.1002833068304363,-3.6277878306007936,8.970868015572737,0.5733333333333334,0.017282163448747865,-0.7747846766545018,-0.07643915300396631,2.5589586646195466,-28.31781200307068
1589477848.028768,-1.887287498576364,-3.464134998671273,8.824083747769636,0.5733333333333334,0.004444444444444445,-0.78,0.2469296913556812,3.6946015716943172,-30.378710944914772
1589477848.038768,-1.8877390150956903,-3.5313910352232774,9.012564583026297,0.5733333333333334,0.004444444444444445,-0.78,0.1760874371012906,2.8065246226077436,-32.8130381918858
1589477848.048768,-1.815594480663996,-3.5346783441991985,8.86054564972639,0.5733333333333334,0.004444444444444445,-0.78,0.5470275966800199,3.8715896892100643,-35.37963108423009
1589477848.058768,-1.748356021157079,-3.4562228873672556,8.849510845053098,0.5733333333333334,0.004444444444444445,-0.78,0.07167165525441799,3.7561144368362784,-38.00942407437779
1589477848.068768,-1.9185059736420742,-3.5197647493533686,8.949764749353369,0.5853019665804492,-0.018495435945860877,-0.7540679612979156,-0.1811029683458554,3.176176253233157,-40.55169201872152
1589477848.078768,-1.9856759314015375,-3.5909012418687167,9.005675931401537,0.5866666666666667,-0.021111111111111112,-0.7511111111111111,-0.04476271437019516,3.2201581904198697,-41.083053666469546
1589477848.088768,-1.9831429055772165,-3.559428716731649,9.003142905577217,0.5866666666666667,-0.021111111111111112,-0.7511111111111111,0.24583262699892638,2.6529779058597502,-41.32797578685653
1589477848.098768,-1.8799963871382122,-3.5800024085745252,9.365015053590783,0.5866666666666667,-0.021111111111111112,-0.7511111111111111,-0.6406682790735017,3.4531758058688933,-41.203115591505764
1589477848.108768,-1.650509394758596,-3.4164686431779083,8.899507808485444,0.5866666666666667,-0.021111111111111112,-0.7511111111111111,-0.4514008355861392,4.174235907862106,-41.67359916441386
1589477848.118768,-1.6173290142477155,-3.48263859261015,8.992606199468014,0.6107347420107158,-0.013409327001015395,-0.7703655713863504,0.28318486476521554,6.795198967633194,-42.89556339048221
1589477848.128768,-1.5422200867221376,-3.4740733622407127,8.727522559474979,0.6144444444444445,-0.012222222222222223,-0.7733333333333333,0.05091702800890657,4.864905367397164,-45.76319143325911
1589477848.138768,-1.53,-3.489096671949287,8.813676703645008,0.6144444444444445,-0.012222222222222223,-0.7733333333333333,-0.596770998415214,4.5,-49.17135499207607
1589477848.148768,-1.5145385546567263,-3.4281542186269047,8.881845781373096,0.6144444444444445,-0.012222222222222223,-0.7733333333333333,0.0031212170704995046,5.6112913840478065,-51.1968636512115
1589477848.158768,-1.5369556077378956,-3.4639112154757914,8.798916470982892,0.6144444444444445,-0.012222222222222223,-0.7733333333333333,-0.1915632338141563,4.758192161467069,-53.476843620708934
1589477848.168768,-1.5443833394917272,-3.3552001478014537,8.626433468817998,0.5994666830890504,-0.03406479086550524,-0.7970481221460406,-0.1643752309397709,2.8535431292852156,-55.119894948064214
1589477848.178768,-1.8386591664897756,-3.483099837260313,9.316711950753556,0.5877777777777777,-0.05111111111111112,-0.8155555555555556,-0.273163871789429,2.905155487157716,-55.47683612821057
1589477848.188768,-1.3620492202105048,-3.0171507593024147,7.749618428128762,0.5877777777777777,-0.05111111111111112,-0.8155555555555556,0.5025384772977541,2.544653832364465,-53.6747692002356
1589477848.198768,-1.796186803975572,-3.562984073763621,9.501348581008262,0.5877777777777777,-0.05111111111111112,-0.8155555555555556,-3.213026883008023,7.999857801460903,-51.65754550353251
1589477848.208768,-1.6563445773164862,-3.380163771058965,8.815994095968712,0.5877777777777777,-0.05111111111111112,-0.8155555555555556,-0.9662421969013235,3.376658158468712,-50.691348666892296
1589477848.218768,-1.8375378091872792,-3.546763250883392,9.324093286219082,0.5539511582253631,-0.09416317235963878,-0.7304764821358462,-1.0809982332155477,6.314310954063605,-47.261413427561834
1589477848.2287679,-1.6301722941720629,-3.4912019294304217,9.14390627064887,0.5511111111111111,-0.09777777777777777,-0.7233333333333334,-0.7770933824501123,3.836113015395797,-45.112129559270514
1589477848.2387679,-1.5696143938174207,-3.432967316052166,8.728960714860731,0.5511111111111111,-0.09777777777777777,-0.7233333333333334,0.02299851070681047,4.6012669054902595,-41.72977881983577
1589477848.2487679,-1.6170054748408813,-3.5040109496817626,8.709604379872706,0.5511111111111111,-0.09777777777777777,-0.7233333333333334,0.07874315644889826,3.6122946934669478,-39.69351047571144
1589477848.2587678,-1.597664405780006,-3.484730168092008,8.83640813919198,0.5511111111111111,-0.09777777777777777,-0.7233333333333334,-0.09917797109997051,2.3166101445001477,-37.34654231790032
1589477848.2687678,-1.5376911351784999,-3.470577216205375,8.989906337745689,0.5393586486606944,-0.05899465169140259,-0.6892511922271248,-0.12139239871640595,2.106376604492579,-34.391771961492175
1589477848.2787678,-1.586604086937685,-3.6132370568272076,8.876806267600548,0.5288888888888889,-0.024444444444444446,-0.6588888888888889,-0.0625,2.6039560618095168,-30.16844176474836
1589477848.2887678,-1.661425523326221,-3.767991465313419,8.955982930626838,0.5288888888888889,-0.024444444444444446,-0.6588888888888889,0.016063808315552736,1.9643619168444726,-26.54130384637564
1589477848.2987678,-1.6073641107988759,-3.715585909273384,8.851171818546769,0.5288888888888889,-0.024444444444444446,-0.6588888888888889,0.3462339421918908,1.556746788438378,-23.3091027699719
1589477848.3087678,-1.5018879980339754,-3.5492479955764447,8.794704021134764,0.5288888888888889,-0.024444444444444446,-0.6588888888888889,0.008299926274076164,1.1155999447055571,-20.021299880195375
1589477848.3187678,-1.3574427020506634,-3.474467229593888,8.989147567350221,0.535697627663852,0.00959924943037126,-0.6515127552160122,-0.6210042219541616,0.6914957780458384,-17.79385303578609
1589477848.3287678,-1.2682508349908057,-3.513564378729313,8.928811873756896,0.5422222222222223,0.042222222222222223,-0.6444444444444445,0.6660482418283484,1.9344063121552144,-16.71679035163433
1589477848.3387678,-1.3608991961300418,-3.54,8.766291527352921,0.5422222222222223,0.042222222222222223,-0.6444444444444445,0.26544604111830405,2.3244380024187237,-17.282305968556592
1589477848.3487678,-1.4108915223336371,-3.5322771194165905,8.83812032816773,0.5422222222222223,0.042222222222222223,-0.6444444444444445,-0.37191203281677304,0.7679238833181403,-17.099623974475843
1589477848.3587677,-1.42,-3.587860117909817,8.953575725869735,0.5422222222222223,0.042222222222222223,-0.6444444444444445,-0.05801298818889716,0.9955708364353407,-16.116025976377795
1589477848.3687677,-1.2535032843290583,-3.4686393493900534,8.841071316859555,0.5514720397594968,0.07165345984082298,-0.6393990894241129,0.3294006099468252,1.3276997966843915,-14.726296137003441
1589477848.3787677,-1.3376631748589847,-3.499699732813096,8.86245430255736,0.5544444444444444,0.0811111111111111,-0.6377777777777778,-0.3495430255736036,0.22568546163959446,-14.30164818270495
1589477848.3887677,-1.4408278577519185,-3.588088980287907,8.839172142248081,0.5544444444444444,0.0811111111111111,-0.6377777777777778,0.2826403169985455,0.08479209509956365,-12.979303556202037
1589477848.3987677,-1.4385394087534011,-3.531311165429138,8.712697043767006,0.5544444444444444,0.0811111111111111,-0.6377777777777778,0.6697095650970807,1.2158199972328552,-10.935165221602176
1589477848.4087677,-1.3978166793519626,-3.4718395944329674,8.867122838969228,0.5544444444444444,0.0811111111111111,-0.6377777777777778,-0.11708301620093509,0.14155006387952596,-9.533060203055344
1589477848.4187677,-1.3522115907361096,-3.431935141894096,9.14645400674133,0.5544444444444444,0.0811111111111111,-0.6377777777777778,-1.2572102315972602,-1.9605594895074479,-8.428561963140154
1589477848.4287677,-1.256984041839882,-3.206031916320236,8.785079790800589,0.5611111111111111,0.10777777777777778,-0.6166666666666667,0.9263380883733405,-0.27827460775110635,-4.1902344273836665
1589477848.4387677,-1.236758957654723,-3.3041368078175894,9.030342019543975,0.5611111111111111,0.10777777777777778,-0.6166666666666667,0.3791734527687297,-0.5129275244299675,-1.1186889250814331
1589477848.4487677,-1.162705922396188,-3.3902484683458134,9.128863172226005,0.5611111111111111,0.10777777777777778,-0.6166666666666667,0.11985194009530287,-0.18496851599727704,1.190031484002723
1589477848.4587677,-1.1228770681373421,-3.34946913360612,8.663351716776376,0.5611111111111111,0.10777777777777778,-0.6166666666666667,1.1791207080590642,0.8772705034691336,3.0783868528731544
1589477848.4687676,-1.19,-3.5835537949247906,8.954830634975313,0.5646803434505812,0.11580855054158531,-0.625143593472908,0.23961562751176946,-0.59653806407165,3.200288494660696
1589477848.4787676,-1.2002033466135458,-3.437208924302789,8.670055776892431,0.57,0.12777777777777774,-0.6377777777777778,0.8499302788844622,-0.334105577689243,3.227472111553785
1589477848.4887676,-1.187184941031055,-3.446246588041407,8.846863058144924,0.57,0.12777777777777774,-0.6377777777777778,0.3007705876293969,-2.1184647044685927,3.449900001716709
1589477848.4987676,-1.1211153153153153,-3.352230630630631,8.668846846846847,0.57,0.12777777777777774,-0.6377777777777778,0.26240540540540536,-1.2626418918918918,4.18052927927928
1589477848.5087676,-1.13612600273919,-3.4149921737429074,9.168866171003717,0.57,0.12777777777777774,-0.6377777777777778,0.9828739483467032,-0.34271668949324985,4.262106241440032
1589477848.5187676,-1.152425650870634,-3.498443972921087,8.95057222727426,0.5964301939607588,0.1323086681710507,-0.6423086681710507,0.75,0.5692213128557475,3.425343538445994
1589477848.5287676,-1.0537883224873463,-3.372063449023861,9.286582248734636,0.6088888888888889,0.13444444444444445,-0.6444444444444445,0.4568781634128706,-0.2888896420824294,1.659390817064353
1589477848.5387676,-1.0336274752038404,-3.283098019836928,8.964175990963962,0.6088888888888889,0.13444444444444445,-0.6444444444444445,0.5862747520384031,-1.795343440048004,-0.5939959761392115
1589477848.5487676,-1.1173323839148521,-3.276121125810441,8.731816887156617,0.6088888888888889,0.13444444444444445,-0.6444444444444445,0.75,-0.08714818423715487,-1.570070363152569
1589477848.5587676,-1.1543695830793288,-3.3757170876514087,9.060260012192213,0.6088888888888889,0.13444444444444445,-0.6444444444444445,0.8555703172625831,1.3713307402793606,-2.023640634525166
1589477848.5687675,-1.1715131092472482,-3.4768913865590605,9.017220966344833,0.5987299206332439,0.13444444444444445,-0.6444444444444445,1.0719569327953014,1.6297284663976508,-2.5908707983859043
1589477848.5787675,-1.1514688940092166,-3.5449529569892473,8.703672235023042,0.59,0.13444444444444445,-0.6444444444444445,0.5854514688940092,1.1255880376344085,-3.459275393625192
1589477848.5887675,-1.1714210053859964,-3.7702015260323156,9.050403052064633,0.59,0.13444444444444445,-0.6444444444444445,-0.26776256732495507,-1.1291096274685815,-4.612937612208259
1589477848.5987675,-1.3551445336094572,-4.025144533609457,9.045426697730607,0.59,0.13444444444444445,-0.6444444444444445,0.1982213737164552,-0.6035572525670896,-5.151787255155751
1589477848.6087675,-1.3705184652428157,-4.055707182838738,8.85759435879796,0.59,0.13444444444444445,-0.6444444444444445,0.9375,1.39711216735983,-5.1701057725382285
1589477848.6187675,-1.11,-3.9498798877211305,8.98544878908545,0.603629370933699,0.14727208767616107,-0.6500565383583204,0.4865281676349631,1.077473235850904,-6.1100267641490955
1589477848.6287675,-1.0967278396790403,-3.7743732745436853,8.432752785556813,0.6088888888888889,0.15222222222222226,-0.6522222222222223,0.14659799598800372,-0.24598552106298044,-9.009554559176944
1589477848.6387675,-1.0657117187120588,-3.678216210965956,8.609693555436841,0.6088888888888889,0.15222222222222226,-0.6522222222222223,-1.3037158224467,-3.381981205380992,-12.716778568306541
1589477848.6487675,-1.09891508628054,-3.685108491371946,8.787929267042543,0.6088888888888889,0.15222222222222226,-0.6522222222222223,0.0748227404749704,-0.6920703058260722,-15.107370152058774
1589477848.6587675,-1.2133816125592123,-3.8067632251184245,8.877428139183056,0.6088888888888889,0.15222222222222226,-0.6522222222222223,1.9481566677413755,3.5646669849458097,-17.28901967957144
1589477848.6687675,-1.241034272554863,-3.5969693172581954,8.859530953671092,0.6389710707727506,0.14908866160932,-0.6522222222222223,1.5832832396369547,2.161943748306692,-21.853916198184773
1589477848.6787674,-1.1427578255113806,-3.543109279583209,8.976215996925312,0.6622222222222223,0.14666666666666667,-0.6522222222222223,1.0581708801298202,0.42454466840329674,-25.150894649186487
1589477848.6887674,-1.093134746998766,-3.9277201840008975,9.553497139010434,0.6622222222222223,0.14666666666666667,-0.6522222222222223,-0.20709216874228656,-1.1803755750028049,-27.235912431280152
1589477848.6987674,-1.2099567621502514,-3.9064216521847586,8.739610859352265,0.6622222222222223,0.14666666666666667,-0.6522222222222223,0.6600008314971106,0.6597305949361827,-22.924053132665364
1589477848.7087674,-1.1892911675451205,-3.919793643187989,9.1611215460789,0.6622222222222223,0.14666666666666667,-0.6522222222222223,2.379991215460789,2.5441343235904808,-18.384421418303784
1589477848.7187674,-1.091316113683674,-3.713025829474489,9.281857343132673,0.7162552926349179,0.14618422853798188,-0.6676602423401353,-1.9004458027103954,0.1134686052933429,-15.96463714473852
1589477848.7287674,-1.0692294701287735,-3.670762085708254,8.90078741819717,0.7866666666666666,0.14555555555555555,-0.6877777777777778,-1.3074203082119484,0.8509737175427485,-15.865368376609668
1589477848.7387674,-1.0787135654469522,-3.457815766126415,8.874053621275397,0.7866666666666666,0.14555555555555555,-0.6877777777777778,-0.19371848830415683,-0.15412465107220918,-17.621356544695217
1589477848.7487674,-0.9623184110643166,-3.3791522383403527,8.907681588935684,0.7866666666666666,0.14555555555555555,-0.6877777777777778,-0.6076990069151978,-0.13419155877918165,-19.388407944678416
1589477848.7587674,-0.9499541168465053,-3.54261047924565,8.90914513463595,0.7866666666666666,0.14555555555555555,-0.6877777777777778,0.22099129969864872,1.6807232429279673,-20.94226936910664
1589477848.7687674,-1.040287894836905,-3.7354678291099703,8.895323881691517,1.0552526322460325,0.15171065060008265,-0.7627580265020174,0.05665213612537012,2.497300985904017,-24.266643920258563
1589477848.7787673,-1.127870059468425,-3.8095740118936847,9.083610178405275,1.32,0.15777777777777774,-0.8366666666666667,-1.3782945305230794,1.556543043812452,-28.686733888911363
1589477848.7887673,-1.0983580624351386,-3.7156797464448994,9.035895156087847,1.32,0.15777777777777774,-0.8366666666666667,0.06359212408492931,1.759588954646173,-31.850436849633972
1589477848.7987673,-1.0425405784200459,-3.598508115684009,8.245480596223413,1.32,0.15777777777777774,-0.8366666666666667,3.5023994299134453,2.909527169075172,-33.08770289210023
1589477848.8087673,-1.1359740385546837,-3.6954383415673737,8.063100842778262,1.32,0.15777777777777774,-0.8366666666666667,2.9731122251283537,3.7011467112273566,-33.389052358810424
1589477848.8187673,-1.2447648049296027,-3.9560670655250245,9.859891090173038,1.3244628349196115,0.12646098791084995,-0.8509785165812823,-2.777357324544119,5.362886468670512,-33.40287455665819
1589477848.8287673,-1.1279353772509688,-3.6364514474583998,8.807547868702986,1.3844444444444444,-0.29444444444444445,-1.0433333333333332,-0.1512102518805562,0.6588713813540005,-32.65322615112834
1589477848.8387673,-1.271616737993343,-3.831148359486448,9.460551592962434,1.3844444444444444,-0.29444444444444445,-1.0433333333333332,0.6377645030908226,-0.05984010936757013,-31.596008678078935
1589477848.8487673,-1.1572668956460248,-3.5353520557632083,8.513306394585312,1.3844444444444444,-0.29444444444444445,-1.0433333333333332,0.2860074249924234,1.389629002929589,-28.74478166986564
1589477848.8587673,-1.3217577388963662,-3.78935868102288,9.05128263795424,1.3844444444444444,-0.29444444444444445,-1.0433333333333332,1.5299882234185733,3.104958781965007,-25.977435228802154
1589477848.8687673,-1.2496661867316425,-3.7596661867316423,8.854796765976298,1.1602999224720345,-0.17866391011678417,-0.9378535582874933,0.9304698748477129,1.4122369586886698,-21.416953704729206
1589477848.8787673,-1.3261682182778727,-3.9713706793802146,8.843364365557452,0.78,0.017777777777777778,-0.7588888888888888,-0.032515381889636985,1.4694315143510615,-17.044003479045195
1589477848.8887672,-1.1082263524167946,-3.6507615163046907,8.579702499842314,0.78,0.017777777777777778,-0.7588888888888888,0.8339531253285115,-0.7714531253285115,-12.976818903349242
1589477848.8987672,-0.7968820248105903,-3.0873274498376486,8.269721089001749,0.78,0.017777777777777778,-0.7588888888888888,3.1771292981433685,-1.4172477312463574,-9.006056947797852
1589477848.9087672,-0.7446164000315234,-3.11769840018914,9.418760934667823,0.78,0.017777777777777778,-0.7588888888888888,1.1280316612814252,2.7630341732997086,-5.967868330837733
1589477848.9187672,-0.7748327172190985,-3.605539125842627,10.03539032648877,0.7019908946254819,0.09578688315229585,-0.744605531566794,0.014173216116305731,1.1175639153800754,-5.677044826193657
1589477848.9287672,-0.6644008965636987,-3.8803493125818824,9.392262402727575,0.6222222222222222,0.17555555555555555,-0.73,-0.1087783924991712,-0.4817984152289556,-7.207415197386075
1589477848.9387672,-0.5316795817383998,-3.769507048828307,8.587457753711139,0.6222222222222222,0.17555555555555555,-0.73,-2.2146566613761554,3.7629034014875673,-8.716776755982945
1589477848.9487672,-0.8904192672154602,-4.298751114520911,9.08707404565907,0.6222222222222222,0.17555555555555555,-0.73,0.08073148858523234,-0.20562003649408012,-14.312667178136728
1589477848.9587672,-0.893417911978935,-4.1523044831241664,8.792879321547037,0.6222222222222222,0.17555555555555555,-0.73,0.4660474301542249,1.1845869096877886,-18.11554902027836
1589477848.9687672,-0.6424168176999623,-3.248700543719865,8.161790855931333,0.6222222222222222,0.17555555555555555,-0.73,2.3037340132681323,-2.5356078805184152,-21.43234919467907
1589477848.9787672,-0.7278798346678381,-3.0411671092829615,8.78830794113536,0.6111111111111112,0.23222222222222225,-0.7088888888888889,2.4324070006589324,-1.4154008007028613,-25.26126549989018
1589477848.9887671,-0.6887930371561396,-3.3323226956552134,9.925823342304868,0.6111111111111112,0.23222222222222225,-0.7088888888888889,-1.7778671047572443,3.1282922332133243,-26.081268132405885
1589477848.9987671,-0.37904023117012675,-3.0530427079929137,8.192803797794939,0.6111111111111112,0.23222222222222225,-0.7088888888888889,-0.03250722406646134,2.717518576170901,-27.53250722406646
1589477849.0087671,-0.42954006776862347,-3.644612222432446,9.022443970484527,0.6111111111111112,0.23222222222222225,-0.7088888888888889,-1.6106271177694835,6.775541159978672,-29.110627117769482
1589477849.018767,-0.6041591603831261,-3.81425759119625,9.07950784593438,0.6091969748431946,0.2382836537372914,-0.7130361841360415,-1.4102748624414103,3.5705497248828206,-34.051322090890565
1589477849.028767,-0.5754661232806929,-3.8126664726002475,8.751467869878466,0.6044444444444445,0.2533333333333333,-0.7233333333333334,-0.8233389127428863,2.6658403682410303,-38.54581635252165
1589477849.038767,-0.6754281994920933,-3.895718005079067,8.675441217268828,0.6044444444444445,0.2533333333333333,-0.7233333333333334,0.4214425190465012,2.4268763738022576,-43.698367709511515
1589477849.048767,-0.686262653629221,-4.031313268146105,8.990101229033767,0.6044444444444445,0.2533333333333333,-0.7233333333333334,0.29466484815644933,3.0639193000172407,-47.690817344400386
1589477849.058767,-0.6789811878176999,-4.0879623756354,8.990009775383411,0.6044444444444445,0.2533333333333333,-0.7233333333333334,0.2971689403484381,2.765269963505235,-51.65553992701047
1589477849.068767,-0.6748276066350711,-4.157084715639811,8.926363744075829,0.5999164033701949,0.2478996840442338,-0.7260501579778831,1.2917320793838862,3.4674763033175355,-55.32680316943128
1589477849.078767,-0.7150687453128195,-4.185591209690249,8.841182419380496,0.5933333333333334,0.24,-0.73,2.0924610253846327,2.220554564461514,-58.34125798241029
1589477849.088767,-0.6807178373835703,-3.9375124308424962,8.999417326143288,0.5933333333333334,0.24,-0.73,2.3884594509419426,2.3456824707612576,-59.279006758176344
1589477849.098767,-0.5835423956286249,-3.636076786655802,9.375123184585151,0.5933333333333334,0.24,-0.73,3.3819800603939987,2.0555199396060013,-59.42626000575181
1589477849.108767,-0.5071796841828585,-3.354945308235104,9.312859338037565,0.5933333333333334,0.24,-0.73,3.3321779150407407,2.0810545097959925,-60.1449218039184
1589477849.118767,-0.3426205900557046,-3.991144625541572,9.28843119455333,0.5791329344611787,0.2466983013547899,-0.7265168832955092,1.7083453682690324,4.8723488755931506,-61.00221528780689
1589477849.128767,-0.1493185086023105,-7.117350885021568,6.183629580048589,0.5344444444444445,0.2677777777777778,-0.7155555555555555,2.6340717809509644,5.7977806286875895,-69.12085533491992
1589477849.138767,-2.4885560748831512,-13.474054337774001,-2.944895898422855,0.5344444444444445,0.2677777777777778,-0.7155555555555555,-28.94270976530281,-8.297006611012522,-153.08271888825016
1589477849.148767,0.7032066472688003,-1.4270216276209617,5.259016708162102,0.5344444444444445,0.2677777777777778,-0.7155555555555555,-122.29999512553619,-37.61234889162192,-283.1668378978312
1589477849.158767,-1.5556600503445714,-1.6536182065778071,10.953532785870507,0.5344444444444445,0.2677777777777778,-0.7155555555555555,-50.026291627120045,40.3210498081129,-266.2732663104032
1589477849.168767,-1.364677139822217,-0.6795007547380779,11.995180857606083,0.52272255455545,0.29892451376853457,-0.7048383990856177,17.729325068485494,65.67808324481467,-251.86810078548666
1589477849.178767,-0.5088738209934016,2.045986722260454,9.013710075699308,0.4955555555555556,0.3711111111111111,-0.68,107.35785127312472,38.45830465935312,-237.72742177063515
1589477849.188767,-0.9577258291745268,3.6706000620836217,2.1430430526039306,0.4955555555555556,0.3711111111111111,-0.68,122.91512452541846,63.32205281883522,-229.48783847513073
1589477849.198767,2.3570673484454896,-0.7350159962812064,10.048284979902109,0.4955555555555556,0.3711111111111111,-0.68,18.397640890322933,6.696115091192475,-202.75761361461267
1589477849.208767,1.585679730493189,-0.9707932455901739,12.380262183256262,0.4955555555555556,0.3711111111111111,-0.68,-39.97808295494968,0.6692735033792978,-177.13764359398212
1589477849.218767,1.370206487034882,-0.5706355742547669,7.488348103720944,0.4820130496623201,0.38405172785353614,-0.683912279480268,12.48744703547877,28.56854989108704,-172.40875555754482
1589477849.228767,1.2548792328679186,-1.4725216658642273,9.113381479698283,0.4455555555555555,0.4188888888888889,-0.6944444444444444,19.99341999679024,9.528321096132242,-163.3397954782539
1589477849.238767,0.9795232379113279,-2.219841079303776,10.3436718770387,0.4455555555555555,0.4188888888888889,-0.6944444444444444,-5.269207810338979,10.498155384775972,-151.57149147986743
1589477849.248767,0.24677074939564864,-2.046629734085415,8.733188960515713,0.4455555555555555,0.4188888888888889,-0.6944444444444444,-4.318228746978243,10.74729300966962,-139.31602538275584
1589477849.258767,-0.23852485572542267,-7.293051533866558,8.422266882656677,0.4455555555555555,0.4188888888888889,-0.6944444444444444,6.593076085856029,13.171541206844184,-128.12680343221626
1589477849.2687669,-0.28555790838375106,-16.811234658599826,7.532465859982715,0.43420515221357914,0.43004691251320465,-0.6944444444444444,2.889624297752809,7.1852825194468455,-110.09644960025929
1589477849.2787669,2.2552183143443494,-7.315923147689476,9.568209610077137,0.38,0.4833333333333333,-0.6944444444444444,-8.899485174439176,8.204908534427855,-57.11994904819192
1589477849.2887669,1.127918300502837,-3.54088803801264,9.433772662268764,0.38,0.4833333333333333,-0.6944444444444444,2.6294401900632005,-2.651576267472436,15.087744210453476
1589477849.2987669,1.043453692175079,-4.994182549564218,8.805640264342497,0.38,0.4833333333333333,-0.6944444444444444,5.0898531031510394,-2.56822562494014,15.714769298917728
1589477849.3087668,0.8941946302181839,-4.523846978766549,8.526330649092362,0.38,0.4833333333333333,-0.6944444444444444,-3.612712529490904,1.2658361280636417,19.658531889172696
1589477849.3187668,0.48284955919992417,-3.7328517710999463,8.786428097449996,0.3773811454833353,0.4916660522499938,-0.6944444444444444,-3.0715569406262837,-0.705309744999526,28.879362577811484
1589477849.3287668,0.8162757764953814,-4.053814428928761,8.830180410848286,0.36777777777777776,0.5222222222222223,-0.6944444444444444,2.7659472061922674,-2.663096035294349,35.345924507119925
1589477849.3387668,0.740335326553996,-4.152617623890003,8.874429425665998,0.36777777777777776,0.5222222222222223,-0.6944444444444444,1.1061378813377256,-1.9488237610999715,38.45720692494987
1589477849.3487668,0.7928992409051848,-4.115071970782012,8.896956817530794,0.36777777777777776,0.5222222222222223,-0.6944444444444444,-1.8505823009166429,-2.3242802921798913,40.14676131480951
1589477849.3587668,0.3509698594674556,-4.050121116863905,8.882848557692308,0.36777777777777776,0.5222222222222223,-0.6944444444444444,-0.8859848835059172,-3.4848488350591715,45.349245330991124
1589477849.3687668,0.5384000554733728,-3.9402482433431953,8.966868990384615,0.36777777777777776,0.5222222222222223,-0.6944444444444444,-0.9263793223002958,-3.8887932230029585,48.701983750924555
1589477849.3787668,0.6510690204505039,-4.207009484291642,8.772476289270895,0.3744444444444445,0.5111111111111111,-0.6877777777777778,-0.5,-3.8125,60.0625
1589477849.3887668,0.5656042531120332,-4.082697095435684,9.08325726141079,0.3744444444444445,0.5111111111111111,-0.6877777777777778,-0.5,-3.8125,60.0625
1589477849.3987668,0.4430311019855806,-4.134128887748197,8.768126647845259,0.3744444444444445,0.5111111111111111,-0.6877777777777778,-0.02699987167222756,-4.13909709745911,66.45518006719709
1589477849.4087667,0.5330390307763996,-4.142959815385981,8.98599884616238,0.3744444444444445,0.5111111111111111,-0.6877777777777778,-1.6694962500277364,-5.85299942308119,73.95401846140192
1589477849.4187667,0.33984024822323317,-4.1170559131218685,8.789071888299544,0.3744444444444445,0.5086471414495063,-0.6877777777777778,-0.9559005429883226,-5.812999224302397,77.68469464768654
1589477849.4287667,0.16397492609907965,-4.178608775865322,8.868211283255413,0.3744444444444445,0.48715249096766533,-0.6877777777777778,-0.5711951508417368,-6.362578355940376,81.4767906559886
1589477849.4387667,0.10451350314096997,-3.951735108166522,8.875398630496697,0.3744444444444445,0.4866666666666667,-0.6877777777777778,-1.590819227583978,-7.7327448643626155,88.51062476013493
1589477849.4487667,0.26921166306695465,-4.27076403887689,9.056355291576674,0.3744444444444445,0.4866666666666667,-0.6877777777777778,-1.8799271058315334,-8.307269168466522,92.56541914146868
1589477849.4587667,0.3082629509317832,-3.974405311449251,8.711158032712145,0.3744444444444445,0.4866666666666667,-0.6877777777777778,-1.3014475408901807,-6.659770901008719,96.85631803157234
1589477849.4687667,0.06981661968961185,-4.0315128875607025,8.870779366319148,0.37456669798470327,0.48667685446168824,-0.6879713458831875,-1.5002865317349814,-7.997994277855129,99.45239965021904
1589477849.4787667,0.06296972141806274,-4.270082577950738,8.92310735133596,0.4011111111111111,0.4888888888888889,-0.73,-1.4126376299178967,-8.068285499027098,104.05499412699919
1589477849.4887667,0.11203516598871541,-4.008731137645978,8.670973625508465,0.4011111111111111,0.4888888888888889,-0.73,-1.0333699645715786,-9.06065476971526,108.13846608056686
1589477849.4987667,0.010420000642694174,-3.8535441370223977,8.745946206497639,0.4011111111111111,0.4888888888888889,-0.73,-0.9808577557119444,-8.414788794627077,111.15540947652559
1589477849.5087667,-0.29431716671138397,-4.235035589716071,8.897553384574108,0.4011111111111111,0.4888888888888889,-0.73,-2.25,-7.960437019617746,114.89211226148578
1589477849.5187666,-0.38037310017203013,-4.182078092201827,8.818117138302743,0.4011111111111111,0.4888888888888889,-0.73,-2.25,-8.705151828411799,118.49156717065704
1589477849.5287666,-0.21436041389555874,-4.049896871599095,8.962283335348685,0.4455555555555555,0.4633333333333333,-0.68,-1.5417382836117397,-8.986373706576378,124.78309890480057
1589477849.5387666,-0.37375960890670074,-4.245523156385496,8.846356648067854,0.4455555555555555,0.4633333333333333,-0.68,-1.4058866969545165,-8.48825122216656,127.86240153569763
1589477849.5487666,-0.45419410150891637,-4.370771604938271,8.858628257887517,0.4455555555555555,0.4633333333333333,-0.68,-1.6619513031550068,-10.007823216735254,133.8507801783265
1589477849.5587666,0.4405183519951579,-7.303326272102373,8.832585275171846,0.4455555555555555,0.4633333333333333,-0.68,-1.6110711815312784,-11.019800268038562,131.49589025550128
1589477849.5687666,10.512353317775345,-18.83847421573284,5.665314223167634,0.4466924130714634,0.4616741358776839,-0.6802150811516583,-8.338377202040437,-21.31898995270647,85.72650038206564
1589477849.5787666,-0.06413271101381568,-6.261031370686272,9.277431073294645,0.48230347714146066,0.40970123155930965,-0.6869523094892254,2.597588081617479,11.759598108258814,43.87748471737469
1589477849.5887666,-1.2286484158296433,-3.436486742587392,8.124805058318833,0.4866666666666667,0.4033333333333333,-0.6877777777777778,6.779463070482229,0.5660630911565563,11.747931490446739
1589477849.5987666,-0.5782909222472994,-4.15187998552797,8.832972106886274,0.4866666666666667,0.4033333333333333,-0.6877777777777778,-4.104992204055613,-7.744060437951175,0.727985071412574
1589477849.6087666,-0.3256545927314507,-4.592628650904033,8.815858378182257,0.4866666666666667,0.4033333333333333,-0.6877777777777778,-2.148704420390639,-1.4612044203906391,-2.2010793977142167
1589477849.6187665,-0.6469208441676242,-4.2037273991655075,8.849675878333434,0.4866666666666667,0.4033333333333333,-0.6877777777777778,2.7654010703271457,3.4529010703271457,-1.1971223619761746
1589477849.6287665,-0.45518699303711146,-4.367736223769531,8.853538391596679,0.5066666666666667,0.3911111111111111,-0.68,-0.3788448424377288,-0.4675812935180533,-0.26208784963989185
1589477849.6387665,-0.3236642263079278,-4.380262784221882,8.888744536854334,0.5066666666666667,0.3911111111111111,-0.68,-1.0769162502074612,-1.1093067106791819,-0.26505476976413966
1589477849.6487665,-0.39327659652940417,-4.27971158279086,8.780458627620927,0.5066666666666667,0.3911111111111111,-0.68,0.7600768528592767,0.24426715473841454,-0.02334515093956885
1589477849.6587665,-0.41819824406891615,-4.329179143501954,8.896066081356306,0.5066666666666667,0.3911111111111111,-0.68,0.3658040678152694,0.0430433615896956,-0.2879130084769087
1589477849.6687665,-0.366251444927616,-4.369582209500743,8.878750481642538,0.5066666666666667,0.3911111111111111,-0.68,-0.4999759178730665,-0.3176982991137777,-0.1796905102658667
1589477849.6787665,-0.3860209249879848,-4.459031387481978,8.900680616658656,0.5066666666666667,0.3851454356497057,-0.697044787032587,-0.458115364708492,-0.1164922917667936,-0.1729384635291508
1589477849.6887665,-0.4067897965404252,-4.378153051893622,8.869261220757448,0.5066666666666667,0.38333333333333336,-0.7022222222222222,0.15429851215423301,0.33948982702126035,-0.06019131486702736
1589477849.6987665,-0.39223009100244327,-4.409964590489006,8.832230091002444,0.5066666666666667,0.38333333333333336,-0.7022222222222222,0.04181420629581101,-0.05530965617364825,-0.11106193123472966
1589477849.7087665,-0.390513228160287,-4.390256614080143,8.85076984224043,0.5066666666666667,0.38333333333333336,-0.7022222222222222,0.1810846479964127,0.24518848599730952,0.0
1589477849.7187665,-0.40761118584647993,-4.398805592923241,8.876416778769721,0.5066666666666667,0.38333333333333336,-0.7022222222222222,-0.03263982308099955,0.08489513268925034,0.0
1589477849.7287664,-0.38711582774876857,-4.407628057417077,8.872371942582923,0.5117520382780514,0.3782479617219486,-0.6852709835176064,-0.3962275119971249,0.01482464114326787,-0.04767535885673213
1589477849.7387664,-0.3694458512557236,-4.416120958790065,8.913904363812959,0.5133333333333333,0.37666666666666665,-0.68,-0.041719422089635076,-0.16671942208963508,-0.12153657034827252
1589477849.7487664,-0.36217115304565006,-4.36519807131955,8.833882683502152,0.5133333333333333,0.37666666666666665,-0.68,0.23108176078812265,0.10608176078812265,-0.07606970653531289
1589477849.7587664,-0.4093477566211161,-4.3993477566211165,8.889347756621117,0.5133333333333333,0.37666666666666665,-0.68,-0.012229563354072291,0.1168469577639518,0.0
1589477849.7687664,-0.4014638822578523,-4.3914638822578524,8.881463882257853,0.5133333333333333,0.37666666666666665,-0.68,-0.16005220766526945,0.0182985282231537,0.0
1589477849.7787664,-0.38863777378647574,-4.39,8.905232208252665,0.52,0.37666666666666665,-0.7022222222222222,-0.3082430430827366,-0.10797217233094633,-0.012770870751790253
1589477849.7887664,-0.37089163421512017,-4.39044581710756,8.83732509735464,0.52,0.37666666666666665,-0.7022222222222222,-0.230495501544246,0.13057271384450114,-0.18192728615549886
1589477849.7987664,-0.38966563716932995,-4.399832818584665,8.78100308849201,0.52,0.37666666666666665,-0.7022222222222222,0.18018581307909226,0.24791023230831208,-0.06458976769168792
1589477849.8087664,-0.3999586627021539,-4.3601653491913845,8.839751976212924,0.52,0.37666666666666665,-0.7022222222222222,0.12525835811153818,0.06327507433461455,0.06198328377692364
1589477849.8187664,-0.37106561010750305,-4.3657868779785,8.880508145849495,0.52,0.37666666666666665,-0.7022222222222222,0.016496037903136418,0.0625,-0.009835974731242383
1589477849.8287663,-0.3689110291102911,-4.384183271832718,8.914727757277573,0.52,0.3798185048517152,-0.6917160949387272,-0.15114544895448953,0.09204848298482984,-0.003403034030340306
1589477849.8387663,-0.39,-4.411712778381862,8.902430832427209,0.52,0.38333333333333336,-0.68,-0.17679513511336636,-0.021409729773267272,-0.04730729732995047
1589477849.8487663,-0.3816110413067379,-4.428388958693262,8.789332495680855,0.52,0.38333333333333336,-0.68,0.032292975498665,-0.125,-0.07256900816711166
1589477849.8587663,-0.3892817896389325,-4.365027472527473,8.872099686028259,0.52,0.38333333333333336,-0.68,0.2945447409733124,0.049033555729984274,-0.0044888147566718994
1589477849.8687663,-0.37414314454672926,-4.3679284277266355,8.903785283179907,0.52,0.38333333333333336,-0.68,0.06473663354264464,-0.03660534658294215,-0.09910534658294215
1589477849.8787663,-0.3904226167502895,-4.397230155667053,8.916807538916764,0.5237819660648684,0.38333333333333336,-0.68,-0.21273559114884857,-0.019952881770230288,-0.039905763540460576
1589477849.8887663,-0.4,-4.40984632969266,8.888309626619254,0.5255555555555556,0.38333333333333336,-0.68,-0.30865824231648464,0.0,-0.0625
1589477849.8987663,-0.4,-4.40318786512573,8.815066516383032,0.5255555555555556,0.38333333333333336,-0.68,-0.14219662814325632,0.0,-0.0625
1589477849.9087663,-0.3921868410707266,-4.4,8.85031843036346,0.5255555555555556,0.38333333333333336,-0.68,0.13282897323183587,0.1464967299238769,-0.0625
1589477849.9187663,-0.3972484470792951,-4.392751552920704,8.877248447079296,0.5255555555555556,0.38333333333333336,-0.68,0.1875,0.23280279424559416,0.028105588491188313
1589477849.9287663,-0.3813477230850224,-4.408652276914978,8.917304553829956,0.5141569418852914,0.401985610248311,-0.6737825743616741,-0.22051855751513555,0.07513490392208477,-0.05407673071861016
1589477849.9387662,-0.3999728616881902,-4.390054276623619,8.86981003181733,0.5133333333333333,0.4033333333333333,-0.6733333333333333,-0.18716077110237694,-0.0625,-0.00016961444881152913
1589477849.9487662,-0.3901602564102564,-4.4096794871794875,8.801121794871795,0.5133333333333333,0.4033333333333333,-0.6733333333333333,-0.06450320512820512,-0.0625,-0.06149839743589744
