time,acc_x,acc_y,acc_z,mag_x,mag_y,mag_z,gyr_x,gyr_y,gyr_z
1589479396.432831,1.2,-4.09,8.71,0.3333333333333333,0.3977777777777778,-0.6222222222222222,0.125,-0.5,0.0
1589479396.442831,1.1616534116812725,-4.11,8.691494351856543,0.3333333333333333,0.3977777777777778,-0.6222222222222222,0.125,-0.281498530976141,0.09399853097614103
1589479396.452831,1.166965072691353,-4.11,8.760545944987589,0.3333333333333333,0.3977777777777778,-0.6222222222222222,0.125,-0.18190488703713084,-0.005595112962869159
1589479396.462831,1.1756070860493404,-4.093178741851979,8.8,0.32648022816191735,0.3946627299725887,-0.6340594038819407,0.08995571219162274,-0.16004428780837726,-0.09754428780837726
1589479396.472831,1.1743412553321144,-4.085658744667885,8.766047531992688,0.3211111111111111,0.3922222222222223,-0.6433333333333333,0.027132845825716026,-0.11676569165143205,-0.05426569165143205
1589479396.482831,1.17,-4.094607373230604,8.70314101415517,0.3211111111111111,0.3922222222222223,-0.6433333333333333,-0.05759216538254793,-0.09129608269127397,-0.028796082691273966
1589479396.492831,1.174222343015149,-4.0957776569848505,8.672667029045448,0.3211111111111111,0.3922222222222223,-0.6433333333333333,-0.0986103561553187,-0.2305585753787252,-0.0625
1589479396.502831,1.1761983399243838,-4.09,8.705206640302464,0.3211111111111111,0.3922222222222223,-0.6433333333333333,0.008781126417800184,-0.375,-0.13378112641780018
1589479396.512831,1.1671234080871318,-4.0928765919128685,8.732876591912868,0.3227092177293712,0.3973361634006547,-0.639178256125857,0.19691479782170576,-0.375,-0.17808520217829424
1589479396.522831,1.166737509177325,-4.093262490822674,8.733262490822675,0.32666666666666666,0.41,-0.6288888888888889,0.3960547161791414,-0.31183585146257586,0.04210943235828278
1589479396.532831,1.163817950308531,-4.08,8.687635900617062,0.32666666666666666,0.41,-0.6288888888888889,0.4375,-0.1875,0.125
1589479396.542831,1.14,-4.082218569921273,8.657748559370182,0.32666666666666666,0.41,-0.6288888888888889,0.4652321240159078,-0.1875,0.1527321240159078
1589479396.552831,1.147949720670391,-4.093974860335195,8.739874301675977,0.32666666666666666,0.41,-0.6288888888888889,0.5128142458100559,-0.21234287709497207,0.3493715083798883
1589479396.562831,1.1658750049412974,-4.102937502470649,8.781750009882595,0.3345000065883965,0.4064097192025405,-0.6288888888888889,0.4191406095584457,-0.194921828675337,0.4816406095584457
1589479396.572831,1.1634062349238439,-4.098937489949229,8.793406234923843,0.3533333333333333,0.3977777777777778,-0.6288888888888889,0.3404296560913414,0.14492206345195158,0.4720703439086586
1589479396.582831,1.15,-4.09,8.727264883115664,0.3533333333333333,0.3977777777777778,-0.6288888888888889,0.24658110389458135,0.08178386363103474,0.46704055194729066
1589479396.592831,1.1599604508149874,-4.0850197745925065,8.684980225407493,0.3533333333333333,0.3977777777777778,-0.6288888888888889,0.2808792263905082,-0.24950563518734425,0.5308792263905082
1589479396.602831,1.1458055729303283,-4.084032404511612,8.714194427069671,0.3533333333333333,0.3977777777777778,-0.6288888888888889,0.375,-0.3245949436048506,0.6502025281975747
1589479396.6128309,1.1205373626061519,-4.079462637393848,8.735950183191799,0.342015425348948,0.4001194139124782,-0.6312305250235893,0.30914148371155104,-0.27195283876281634,0.7972641938140816
1589479396.6228309,1.1653645127878256,-4.065072902557565,8.73029161023026,0.3211111111111111,0.4044444444444445,-0.6355555555555555,0.1557943590152179,-0.2490887180304358,1.1902338459086925
1589479396.6328309,1.1951841755319148,-4.08036835106383,8.68778989361702,0.3211111111111111,0.4044444444444445,-0.6355555555555555,0.02779670877659575,-0.12269780585106382,1.5046043882978724
1589479396.6428308,1.1950862949098158,-4.085086294909816,8.659482230541105,0.3211111111111111,0.4044444444444445,-0.6355555555555555,-0.031789343186348386,0.06034262725460646,1.6864213136273032
1589479396.6528308,1.181294677987161,-4.084352661006419,8.729173949057776,0.3211111111111111,0.4044444444444445,-0.6355555555555555,0.08161239387036655,0.16029586870987783,1.6955917374197556
1589479396.6628308,1.1534429836935056,-4.095519005435498,8.785519005435498,0.32264416817652725,0.40996344987994265,-0.6297299387069741,0.20474689198593166,0.14224689198593166,1.573259324042205
1589479396.6728308,1.0988677111936682,-4.106660313358101,8.793320626716202,0.32666666666666666,0.4244444444444445,-0.6144444444444445,0.28478840251978677,0.14575391697625587,1.4444576805039573
1589479396.6828308,1.0152499681742957,-4.074750031825705,8.721625111389965,0.32666666666666666,0.4244444444444445,-0.6144444444444445,0.48046924727662904,-0.31874920435739357,1.6804676559914162
1589479396.6928308,1.0289322476570901,-4.060533876171455,8.67106775234291,0.32666666666666666,0.4244444444444445,-0.6144444444444445,0.2466632739284068,-0.7075203564295591,2.207520356429559
1589479396.7028308,1.0370290964777948,-4.067297090352221,8.703514548238896,0.32666666666666666,0.4244444444444445,-0.6144444444444445,0.10303407350689128,-0.9611408882082695,2.6638591117917305
1589479396.7128308,1.102571178547989,-4.060742882145201,8.736285589273995,0.32666666666666666,0.4244444444444445,-0.6144444444444445,-0.10178493296246521,-0.7153580804450417,2.909641919554958
1589479396.7228308,1.4050767255850696,-4.060153451170139,8.76507672558507,0.32666666666666666,0.4044444444444445,-0.6433333333333333,-0.3125,0.017782907080082955,3.029811395279945
1589479396.7328308,1.406748407643312,-4.091656449044586,8.748527468152865,0.32666666666666666,0.4044444444444445,-0.6433333333333333,-0.32285280652866244,0.4789112261146497,2.6154135151273885
1589479396.7428308,1.3099933863616051,-4.1037508267047995,8.616255786933596,0.32666666666666666,0.4044444444444445,-0.6433333333333333,-0.4687706676199839,0.7812706676199839,1.5858599964250604
1589479396.7528307,1.1974298004540567,-4.09957163340901,8.676685386545586,0.32666666666666666,0.4044444444444445,-0.6433333333333333,-0.6380354582387382,0.9114290835225236,0.869645417612618
1589479396.7628307,0.9433293767265193,-4.019990504143646,8.709992878107736,0.33148262450122773,0.4022216946746471,-0.6385173754987723,-0.6249851627244475,0.5832789299896409,0.33332344181629836
1589479396.7728307,1.023228416345202,-4.023034171986481,8.729259891441641,0.3411111111111111,0.3977777777777778,-0.6288888888888889,-0.7123032806472536,0.007053732973748006,0.5566602942682553
1589479396.7828307,1.198803312499016,-4.126409937497049,8.725639749988192,0.3411111111111111,0.3977777777777778,-0.6288888888888889,-0.6426242187131004,0.3723343750491994,1.389070052112033
1589479396.7928307,1.1854530838935984,-4.0723370359543996,8.5023370359544,0.3411111111111111,0.3977777777777778,-0.6288888888888889,0.09658177433498977,1.176172902660041,1.918024700380006
1589479396.8028307,1.2604145368407929,-4.120829073681586,8.623730831567135,0.3411111111111111,0.3977777777777778,-0.6288888888888889,0.4349091447450443,-0.22053048248348087,1.8176817105099115
1589479396.8128307,1.2766875452456643,-4.140125271473986,8.760250542947972,0.3363264542437373,0.4018263335886325,-0.621895928851958,0.20898578892700892,0.12539147335620535,1.9175801044978125
1589479396.8228307,1.2379529266026634,-4.095421846657523,8.730359686767242,0.32666666666666666,0.41,-0.6077777777777778,-0.02861345839047914,-0.08584037517143742,1.3102519577047294
1589479396.8328307,1.1793731364475364,-4.0982507454209856,8.76112239102655,0.32666666666666666,0.41,-0.6077777777777778,-0.16563431776231718,-0.1617164205594207,0.7312313644753656
1589479396.8428307,1.1416254494753062,-4.101625449475306,8.728374550524695,0.32666666666666666,0.41,-0.6077777777777778,-0.2863295296103324,-0.15117047038966758,0.3066476480516621
1589479396.8528306,1.1327909547275825,-4.084418090544835,8.762327637820661,0.32666666666666666,0.41,-0.6077777777777778,-0.28488693409478194,-0.15261306590521806,0.09011306590521806
1589479396.8628306,1.139229954405195,-4.07154009118961,8.81383963524156,0.32666666666666666,0.41,-0.6077777777777778,-0.3653744300649381,-0.07212556993506193,0.009625569935061931
1589479396.8728306,1.11,-4.011467446592065,8.81,0.3333333333333333,0.4044444444444445,-0.6222222222222222,-0.14154692268565616,0.7114223041709054,-0.37868769074262465
1589479396.8828306,1.0346362109072111,-3.9239564486947534,8.773956448694753,0.3333333333333333,0.4044444444444445,-0.6222222222222222,-0.289896452571724,1.227396452571724,-0.8492100672008271
1589479396.8928306,1.0091055250923828,-3.790170610323042,8.7283402372154,0.3333333333333333,0.4044444444444445,-0.6222222222222222,-0.8542529651925139,1.24069279711527,-1.63430720288473
1589479396.9028306,1.2653433067111695,-3.671426272499702,8.784587555131719,0.3333333333333333,0.4044444444444445,-0.6222222222222222,-1.5573444391465014,0.8500864226963881,-2.0249135773036118
1589479396.9128306,0.863616140101763,-3.6140882735770914,8.790157377825109,0.3366491802416545,0.4029140535636809,-0.6222222222222222,-2.8125,3.2120680984498877,-0.9231525854928411
1589479396.9228306,0.9940659862330881,-3.439513410871113,8.708210301447899,0.3477777777777778,0.3977777777777778,-0.6222222222222222,-2.9120875860432,2.903453596012343,-0.8465464039876572
1589479396.9328306,0.7686004386895917,-3.2108639354701762,8.753209509658246,0.3477777777777778,0.3977777777777778,-0.6222222222222222,-3.1401728224722283,3.1826133871081863,-0.5385799193377202
1589479396.9428306,0.5144094951128095,-3.0925957227897403,8.658702138605129,0.3477777777777778,0.3977777777777778,-0.6222222222222222,-2.2077790842948484,3.0162232674358784,-0.11605699272433306
1589479396.9528306,0.3714757325660634,-2.606271674112213,8.614970848792307,0.3477777777777778,0.3977777777777778,-0.6222222222222222,-2.0662622094343908,1.9610433860831376,0.5608010903308851
1589479396.9628305,0.2845537407271881,-2.0016489804065065,8.603040817005422,0.3412304610255444,0.39398722597385316,-0.6222222222222222,-2.937121602741093,-0.4755102125677788,0.17085883703136961
1589479396.9728305,0.10025314546708032,-2.2454315322302656,8.755178386763186,0.32666666666666666,0.3855555555555555,-0.6222222222222222,-3.4165710638572904,-0.29286641459841434,-2.926064018872802
1589479396.9828305,0.2214785420340976,-2.297379972565158,8.730985694689398,0.32666666666666666,0.3855555555555555,-0.6222222222222222,-1.8083664021164023,2.538910934744268,-3.3534379286694103
1589479396.9928305,0.3133051286798741,-2.4461025735974817,8.783389742640251,0.32666666666666666,0.3855555555555555,-0.6222222222222222,0.1583815497130161,1.3585736437696723,0.6435741066469176
1589479397.0028305,0.32195745976953144,-2.5819574597695314,8.77880856896289,0.32666666666666666,0.3855555555555555,-0.6222222222222222,1.8925516523681405,0.23297819686278493,7.018091019848724
1589479397.0128305,0.33615208893852483,-2.596152088938525,8.84268440022336,0.32666666666666666,0.3855555555555555,-0.6222222222222222,0.20693943855018015,-0.34367861312757,13.494390578201939
1589479397.0228305,0.3035614443797321,-2.6113686662783926,8.804064259367113,0.3333333333333333,0.3977777777777778,-0.6077777777777778,-1.2403113473112017,-1.6090261599689382,23.441164337021938
1589479397.0328305,0.3279895165987187,-2.7579370995923123,8.763350805668802,0.3333333333333333,0.3977777777777778,-0.6077777777777778,0.5409022519899049,-0.6420816346340517,29.0392642205397
1589479397.0428305,0.4222359252104319,-2.8790670277356147,8.743415551262592,0.3333333333333333,0.3977777777777778,-0.6077777777777778,-0.7787198582171934,-2.638974532565199,37.36950419138954
1589479397.0528305,0.4294704705395336,-2.973116117013937,8.7868228232372,0.3333333333333333,0.3977777777777778,-0.6077777777777778,-1.276094849592935,-2.684190440872085,41.80066320546433
1589479397.0628304,0.40333586611335165,-2.898004559004033,8.923351062793461,0.3343699763823675,0.3970373184570391,-0.6077777777777778,0.10415083679155221,-2.5749715062247938,48.183073723381455
1589479397.0728304,0.36247725368714323,-2.8244590566368575,8.637340775810001,0.3407257605375555,0.3924974726319049,-0.6077777777777778,0.35951716445535487,-3.034630896019639,52.37108149706782
1589479397.0828304,0.4127377083059349,-2.899864166682323,8.788348958235481,0.3411111111111111,0.3922222222222223,-0.6077777777777778,-0.5779127604411295,-2.811651041764518,58.176463542938734
1589479397.0928304,0.35833714492055846,-2.932771425132403,8.628822821376986,0.3411111111111111,0.3922222222222223,-0.6077777777777778,-0.6353928442465094,-3.0,60.79821407077516
1589479397.1028304,0.3196394981248405,-2.9945047026252234,9.078557992499361,0.3411111111111111,0.3922222222222223,-0.6077777777777778,-0.7736481179681517,-3.0,64.9803095976752
1589479397.1128304,0.28432480384812525,-3.0605030950597327,8.915675196151875,0.3422781216733036,0.3922222222222223,-0.609493969781002,-0.6674757520798013,-3.0888129361668573,69.83037298426842
1589479397.1228304,0.35208734960546595,-3.2179126503945343,8.80825300789068,0.36,0.3922222222222223,-0.6355555555555555,-1.1168109744875658,-4.189627234350917,72.93930732245968
1589479397.1328304,0.35691182221813245,-3.2130881777818674,8.71176355563735,0.36,0.3922222222222223,-0.6355555555555555,-0.6645166670500816,-3.61672111159677,75.11031999815961
1589479397.1428304,0.3423243559718969,-3.2241405152224822,8.741913348946136,0.36,0.3922222222222223,-0.6355555555555555,-0.7727019906323185,-4.00121487119438,76.87560743559719
1589479397.1528304,0.29858454638340787,-3.2214613659585196,8.854825307519805,0.36,0.3922222222222223,-0.6355555555555555,-1.3691979273098818,-5.315544512413583,77.90734182800122
1589479397.1628304,0.2651908812250368,-3.1379772030625923,8.693422592587677,0.36,0.3922222222222223,-0.6355555555555555,-0.986562180703547,-5.141619173047067,78.91610879632701
1589479397.1728303,0.17210516353725014,-3.264444654754694,8.983509236826166,0.3715399757722592,0.3633722827915742,-0.648057195975503,-0.7584063635675349,-5.170687272864931,81.59283909373107
1589479397.1828303,0.08243631520784336,-3.352842367742484,8.749593947465359,0.37333333333333335,0.3588888888888889,-0.65,-1.489848686633986,-4.827726970049021,86.35753449888074
1589479397.1928303,0.13402494226327946,-3.411037413394919,8.73850623556582,0.37333333333333335,0.3588888888888889,-0.65,-1.1846478060046188,-5.084803695150115,90.88848152424943
1589479397.2028303,0.10302780600461894,-3.3645417090069283,8.730756951501155,0.37333333333333335,0.3588888888888889,-0.65,-0.8456166281755195,-4.552040415704388,93.55229792147806
1589479397.2128303,0.07742626306151029,-3.4702339760853174,8.800701928255952,0.3737752881611548,0.3588888888888889,-0.6496620345434306,-1.4912258968006034,-5.693349402132931,96.62830577399548
1589479397.2228303,-0.02197543897446945,-3.4792704944522246,8.827811483356674,0.39084426729864635,0.3588888888888889,-0.6366092857912312,-1.1523564580415813,-5.919262361305613,99.16982656468814
1589479397.2328303,-0.13247863642662477,-3.50499145457065,8.817589727008176,0.3922222222222223,0.3588888888888889,-0.6355555555555555,-1.281089773199686,-5.827884659799529,104.35747898286294
1589479397.2428303,-0.1799028159790439,-3.5422813359528487,8.669902815979043,0.3922222222222223,0.3588888888888889,-0.6355555555555555,-1.531553700065488,-6.311892599869024,108.89440569744598
1589479397.2528303,-0.256711164333811,-3.6437358409077523,8.723355582166905,0.3922222222222223,0.3588888888888889,-0.6355555555555555,-1.323965920021987,-6.54865746284772,113.92490895973616
1589479397.2628303,-0.398143339225454,-3.74,8.781856660774546,0.3950874712089561,0.35361079865016876,-0.6385716071205385,-1.0254479350795436,-6.7044652900530295,118.6353165675719
1589479397.2728302,-0.49313299555229495,-3.776231716263928,8.721373400889542,0.4133333333333333,0.32,-0.6577777777777778,-1.2953324888807374,-6.98503198220918,125.98851678206245
1589479397.2828302,-0.6133327983859874,-3.87719955064423,8.697333440322803,0.4133333333333333,0.32,-0.6577777777777778,-1.5958319959649687,-7.465831193543949,131.87830712091338
1589479397.2928302,-0.7253016477100722,-3.924698352289928,8.717952471565107,0.4133333333333333,0.32,-0.6577777777777778,-1.8599405894563854,-7.954821768369157,138.0226235782554
1589479397.3028302,-0.8031035133717882,-3.8391377031987415,8.816034189826954,0.4133333333333333,0.32,-0.6577777777777778,-2.019396958573676,-8.462286313581542,144.88580230728894
1589479397.3128302,-0.819648040561952,-3.779648040561952,8.747743107637055,0.4151713437320282,0.31878769526894596,-0.6580124174031431,-2.0942035491708038,-8.9418994929756,152.02716805746277
1589479397.3228302,-0.8107871553818528,-3.7707871553818526,8.94268258159924,0.46144485522810236,0.2882668685374929,-0.6639196741898759,-1.3188760959121157,-9.05266055772684,159.00511513679095
1589479397.3328302,-0.9048469463939077,-3.878282315464636,8.715858842267682,0.4655555555555556,0.2855555555555556,-0.6644444444444444,-0.8797035986262506,-8.57352794783734,167.36073055099297
1589479397.3428302,-0.9969288184130756,-3.89617968285884,8.695393227619613,0.4655555555555556,0.2855555555555556,-0.6644444444444444,-2.7933051150817225,-9.898876982132249,172.22917237886335
1589479397.3528302,-0.9841508629225121,-3.838678883151305,8.676226294383769,0.4655555555555556,0.2855555555555556,-0.6644444444444444,-2.713442893265701,-10.258256980304346,175.7830412496763
1589479397.3628302,-0.9219197374717988,-3.916800437547002,8.6506399124906,0.4655555555555556,0.2855555555555556,-0.6644444444444444,-1.779995897996855,-10.314499726533123,181.2935196896151
1589479397.3728302,-1.0413245966689293,-4.041324596668929,8.864102229415757,0.48934469215730636,0.24352808089246247,-0.6747530703052032,-1.8392092622565657,-11.070778729180807,182.68642967159192
1589479397.3828301,-1.1528919357112646,-4.027108064288735,8.72538594388834,0.4988888888888889,0.22666666666666666,-0.6788888888888889,-2.2119210841674892,-10.532697289581277,184.36672379458622
1589479397.3928301,-1.2,-3.8535804767493627,8.694321906997452,0.4988888888888889,0.22666666666666666,-0.6788888888888889,-2.436737373021976,-11.253871312072524,185.59027454571208
1589479397.4028301,-1.200592041200528,-3.8202960206002636,8.563946941336853,0.4988888888888889,0.22666666666666666,-0.6788888888888889,-1.142267868348733,-9.333468125852033,186.03844832622855
1589479397.41283,-1.2550481466254084,-3.8475240733127043,8.92698764416939,0.4988888888888889,0.22666666666666666,-0.6788888888888889,-2.730570943241079,-11.262121859649882,183.8261690433428
1589479397.42283,-1.2537544218630783,-3.643553097038219,8.842435839633765,0.5022222222222222,0.15555555555555556,-0.72,-2.131982858777832,-9.231913712977734,180.5406388725116
1589479397.43283,-1.3919449261288757,-3.658099465908303,8.89334813067906,0.5022222222222222,0.15555555555555556,-0.72,-1.9046958451827702,-9.413743323853783,178.40414094471805
1589479397.44283,-1.6090234056803578,-3.6477441485799105,8.517070217041073,0.5022222222222222,0.15555555555555556,-0.72,-2.042297214126677,-7.468535606321163,175.69171207211772
1589479397.45283,-1.6697630469018698,-3.632559238274532,8.699289140705611,0.5022222222222222,0.15555555555555556,-0.72,-2.3270142823525153,-8.939573792154661,174.45793810980578
1589479397.46283,-1.5755868263473054,-3.5160947196516057,8.853397387044094,0.5022222222222222,0.15555555555555556,-0.72,-1.6630919978225367,-9.128174333151877,173.30078933043004
1589479397.47283,-1.4204465544406666,-3.3770636039472595,8.535967534621445,0.5142234246436502,0.09093369636325105,-0.743079235425823,-2.3519959159134256,-8.449932363794677,170.3939446160544
1589479397.48283,-1.5339914757591901,-3.3320010655301013,9.072964304741609,0.5166666666666667,0.07777777777777778,-0.7477777777777778,-4.749866808737346,-13.6559336707512,162.162952850293
1589479397.49283,-1.533581133373463,-3.33,8.934764167168288,0.5166666666666667,0.07777777777777778,-0.7477777777777778,-1.9214625075242924,-9.221722095623011,155.00149814042481
1589479397.50283,-1.8520425858063279,-3.4829702282580057,8.962459581806424,0.5166666666666667,0.07777777777777778,-0.7477777777777778,-1.7531915403223874,-8.326276616128956,145.37265873871286
1589479397.51283,-1.9393242497793468,-3.3521635039717563,8.858784752868491,0.5166666666666667,0.07777777777777778,-0.7477777777777778,-3.215360905781112,-8.66638280560459,134.05075022065313
1589479397.52283,-1.9822326669759747,-3.195130615455994,8.774204103039962,0.5288888888888889,-0.0011111111111111113,-0.7688888888888888,-1.9588775643999758,-6.8231887821999875,124.25267786900127
1589479397.53283,-2.0919681770121463,-3.2154075869716587,8.934314155298244,0.5288888888888889,-0.0011111111111111113,-0.7688888888888888,-2.080268264692988,-6.861332104082317,118.67855462000671
1589479397.54283,-2.1924757668175374,-3.010779735426096,8.70573126906117,0.5288888888888889,-0.0011111111111111113,-0.7688888888888888,-2.8701266535868997,-6.269493385652402,112.32687236543056
1589479397.55283,-2.3228372734513103,-3.018927329590707,8.974601876493328,0.5288888888888889,-0.0011111111111111113,-0.7688888888888888,-2.8192041900580818,-6.473183239767672,108.55861006429807
1589479397.56283,-2.3712801133679733,-3.0043599433160133,8.798859234766178,0.5288888888888889,-0.0011111111111111113,-0.7688888888888888,-0.6619922059518184,-5.278120571563534,105.96086738308928
1589479397.57283,-2.41,-3.07,9.21,0.51,-0.08666666666666667,-0.7766666666666666,0.125,-4.0625,102.375
1589479397.58283,-2.458305970474241,-2.9948573792622915,9.011408788050343,0.51,-0.08666666666666667,-0.7766666666666666,-1.049103449026695,-3.7270418717066587,100.36225123023995
1589479397.59283,-2.4105582804385457,-2.8778256635891517,8.869813906520486,0.51,-0.08666666666666667,-0.7766666666666666,-2.155668457876515,-5.207700699653779,96.06286740839585
1589479397.60283,-2.5514907595700462,-2.930155310733201,8.957950345259112,0.51,-0.08666666666666667,-0.7766666666666666,-1.7490293079174952,-5.179153444769716,92.50795688171803
1589479397.61283,-2.5685382898899,-2.879211152252274,8.877749442142173,0.51,-0.08666666666666667,-0.7766666666666666,-1.625,-3.9185037149653024,88.25971653466075
1589479397.62283,-2.5325214947089947,-2.805042989417989,9.07898754409171,0.4865923843817363,-0.14569456692141877,-0.7573299407211445,-1.3387655698853616,-2.8235435956790123,82.04578648589066
1589479397.63283,-2.370714544532212,-2.627619392709617,8.66982226972969,0.4844444444444445,-0.1511111111111111,-0.7555555555555555,-0.818076717515762,-0.645825784477136,75.10232285854048
1589479397.64283,-2.2795275019928978,-2.5060366693238643,8.37346438147692,0.4844444444444445,-0.1511111111111111,-0.7555555555555555,-2.100394503224871,-3.305447858540474,69.35563944851076
1589479397.65283,-2.364031111381175,-2.4540311113811755,9.04167466731482,0.4844444444444445,-0.1511111111111111,-0.7555555555555555,-3.1827527799720485,-5.743122227623504,60.26831667375585
1589479397.6628299,-2.2365990156164552,-2.326599015616455,8.735837637479491,0.4844444444444445,-0.1511111111111111,-0.7555555555555555,-2.147367001883697,-3.1944803123291,56.92322415993194
1589479397.6728299,-2.229791414536912,-2.3695828290738237,8.790867089058162,0.45401635778299837,-0.19537014625503274,-0.7555555555555555,-1.0651073182886026,-1.8550357727628675,50.510224603118104
1589479397.6828299,-2.312934411429917,-2.4045868822859835,8.596609883424264,0.4477777777777778,-0.20444444444444448,-0.7555555555555555,-0.3449079071319229,0.2843643286101192,44.07550314989991
1589479397.6928298,-2.587994424283208,-2.525639404936432,8.955842005335384,0.4477777777777778,-0.20444444444444448,-0.7555555555555555,-2.2398234156072006,0.1600720397029489,33.5094330553486
1589479397.7028298,-2.69,-2.47,8.52,0.4477777777777778,-0.20444444444444448,-0.7555555555555555,-1.3125,3.0,27.25
1589479397.7128298,-2.699226056177682,-2.5161302808884107,8.704521123553642,0.4477777777777778,-0.20444444444444448,-0.7555555555555555,-1.1683428722237172,0.9241373600215272,24.16503746558755
1589479397.7228298,-2.553228017648913,-2.4383115348250866,8.769498896942956,0.4568357145358406,-0.22883119725461357,-0.778548779633715,-0.7256490308855972,0.02852682792310124,16.329656476520643
1589479397.7328298,-2.5219967547962203,-2.3909983773981103,8.754396105755465,0.4622222222222222,-0.2433333333333333,-0.7922222222222223,-0.9887276892240145,0.7825081130094493,9.085247446788202
1589479397.7428298,-2.6474215537762387,-2.505368967755897,9.094054317247348,0.4622222222222222,-0.2433333333333333,-0.7922222222222223,-1.399014012118589,-0.45494075957584945,0.028254165764986183
1589479397.7528298,-2.601967585089141,-2.4310437601296595,8.842207455429499,0.4622222222222222,-0.2433333333333333,-0.7922222222222223,-0.47113047001620745,1.2600486223662886,-5.582597244732577
1589479397.7628298,-2.431442394083904,-2.329402861289654,8.734726656990807,0.4622222222222222,-0.2433333333333333,-0.7922222222222223,0.08271131384338931,1.4850715322413435,-12.798832849540396
1589479397.7728298,-2.729783750302965,-2.511829908706541,9.008155548972612,0.3900704674189176,-0.3067098747146144,-0.7405459654036392,-0.8698664260900008,-0.09690167775294212,-21.47937481485471
1589479397.7828298,-2.7710979122527197,-2.54890208774728,8.942077034779917,0.38,-0.31555555555555553,-0.7333333333333333,-0.22106732211298108,2.420626324184065,-27.549338503106625
1589479397.7928298,-2.86771117879408,-2.6210626754866033,9.018828344358253,0.38,-0.31555555555555553,-0.7333333333333333,-0.125,2.305858278208728,-33.406165231047446
1589479397.8028297,-2.701838229740956,-2.5924922588928325,8.645545653651537,0.38,-0.31555555555555553,-0.7333333333333333,0.5782701457593837,2.7774526093195377,-38.80957348387584
1589479397.8128297,-2.6831947030829713,-2.596805296917029,8.708468859921373,0.38,-0.31555555555555553,-0.7333333333333333,0.9227317401200082,3.9183607490171735,-42.95297951582868
1589479397.8228297,-2.597800444669813,-2.5634668642976948,8.795666419627882,0.4013109958263447,-0.2932297504041468,-0.6622966805788508,0.6058358037211842,3.6954206810469246,-50.344136404415494
1589479397.8328297,-2.6405753029306283,-2.6695798230163614,8.875862954395943,0.4033333333333333,-0.2911111111111111,-0.6555555555555556,-0.22773910829106814,2.5186652483925047,-56.19594332915986
1589479397.8428297,-2.6587707582144127,-2.7075415164288255,8.714584835711745,0.4033333333333333,-0.2911111111111111,-0.6555555555555556,0.611710299121426,4.121468881722614,-62.44995492864761
1589479397.8528297,-2.675637697041221,-2.803826182247324,8.822920424850375,0.4033333333333333,-0.2911111111111111,-0.6555555555555556,1.238678032538144,5.254620458568659,-66.99918865379752
1589479397.8628297,-2.5065338742641003,-2.7239929231613944,8.77326693713205,0.4033333333333333,-0.2911111111111111,-0.6555555555555556,1.5858095278040447,5.409653059512552,-70.53198303999024
1589479397.8728297,-2.4122212683363813,-2.669497592475085,8.867417416296517,0.4158939361891846,-0.2735923755490028,-0.64927525412763,1.1989310776006867,4.382850117576798,-74.93524177895561
1589479397.8828297,-2.524658505665161,-2.745879090404881,9.012295776879803,0.4455555555555555,-0.23222222222222225,-0.6344444444444445,0.03625406069249665,3.532894085254734,-80.98040220663972
1589479397.8928297,-2.4261852596796207,-2.706659363551469,8.644288844192229,0.4455555555555555,-0.23222222222222225,-0.6344444444444445,0.8005104697938367,5.092268425400474,-84.91931030457582
1589479397.9028296,-2.518067325069826,-2.823775169316709,8.682359480822944,0.4455555555555555,-0.23222222222222225,-0.6344444444444445,1.416572728600376,5.0297753244856604,-87.87738572263093
1589479397.9128296,-2.411338712446352,-2.791186266094421,8.751762746781116,0.4455555555555555,-0.23222222222222225,-0.6344444444444445,1.3189613733905579,5.4420557939914165,-90.34364592274679
1589479397.9228296,-2.21681345868382,-2.6527230743856176,8.923650008246742,0.45606153902541824,-0.20792713544816466,-0.6298480766763795,0.8408894111825829,4.889122546594095,-92.45748804222332
1589479397.9328296,-1.9147488427910166,-2.5442139550831477,8.560126521515516,0.4633333333333333,-0.19111111111111112,-0.6266666666666667,1.634825561460655,5.860453454483113,-93.62893022458427
1589479397.9428296,-1.9664900218011068,-2.6694890714964505,8.897464363575383,0.4633333333333333,-0.19111111111111112,-0.6266666666666667,1.7343898485102578,5.156339091061546,-94.60306263625692
1589479397.9528296,-1.9828202052982469,-2.7418314578997496,8.931280821192988,0.4633333333333333,-0.19111111111111112,-0.6266666666666667,1.165519506860912,5.878441479417264,-96.13462115065788
1589479397.9628296,-1.8351476913668332,-2.695049230455611,8.685213331974314,0.4633333333333333,-0.19111111111111112,-0.6266666666666667,2.0926218020589133,6.047028845173784,-97.40512180205891
1589479397.9728296,-1.65,-2.72,8.65,0.5044444444444445,-0.12555555555555556,-0.6344444444444445,2.25,5.75,-99.875
1589479397.9828296,-1.6601712950041863,-2.7229060842869104,8.663077379291098,0.5044444444444445,-0.12555555555555556,-0.6344444444444445,2.1319403258442646,5.740918486603405,-100.2291790224672
1589479397.9928296,-1.737444,-2.774888,8.821405333333335,0.5044444444444445,-0.12555555555555556,-0.6344444444444445,0.9287166666666666,5.215058333333333,-103.511775
1589479398.0028296,-1.679843031930767,-2.8350784840346166,8.716300407838457,0.5044444444444445,-0.12555555555555556,-0.6344444444444445,1.6221625385457077,5.751962100865414,-104.81348105043271
1589479398.0128295,-1.7152303143479615,-2.938674136321195,8.790129162776221,0.5044444444444445,-0.12555555555555556,-0.6344444444444445,2.4569522253345784,6.456952225334578,-105.61671335200747
1589479398.0228295,-1.8837170167706485,-3.1390647358479766,8.925347719077328,0.5152451363847392,-0.06762457151215664,-0.6344444444444445,1.6163070230667964,6.058153511533398,-106.3168464884666
1589479398.0328295,-1.8506022734682346,-3.151767045578039,8.864136364624311,0.5166666666666667,-0.06,-0.6344444444444445,2.734943163294138,6.6689275467843245,-105.96335227890195
1589479398.0428295,-1.6778171921921923,-3.065382882882883,8.737177177177177,0.5166666666666667,-0.06,-0.6344444444444445,3.044071415165165,6.90064283033033,-105.69871433933933
1589479398.0528295,-1.5336027916689565,-3.03,8.774036929164149,0.5166666666666667,-0.06,-0.6344444444444445,1.3435628125515193,4.406842474034182,-105.76824476562071
1589479398.0628295,-1.262730642593925,-2.9063653212969625,8.85818102527202,0.5166666666666667,-0.06,-0.6344444444444445,0.5397764440374174,3.215914666056126,-106.22158533394388
1589479398.0728295,-1.3546157292296663,-3.0116486347243687,8.965714445713774,0.5261904939681971,-0.026300303394584695,-0.6344444444444445,1.1380507582375736,4.793272461528123,-107.61126604394866
1589479398.0828295,-1.5253853624913842,-3.4250460555172633,8.8508531236293,0.5311111111111111,-0.008888888888888889,-0.6344444444444445,3.1228793314117427,6.839220815840592,-108.93056230026944
1589479398.0928295,-1.5524332002976393,-3.4527003991070826,8.913249002232295,0.5311111111111111,-0.008888888888888889,-0.6344444444444445,2.1553262193059597,6.285424981397552,-110.22811252790368
1589479398.1028295,-1.4271563186264722,-3.359670992214015,8.712126971451388,0.5311111111111111,-0.008888888888888889,-0.6344444444444445,1.17964164503893,6.20321670992214,-112.06081054102616
1589479398.1128294,-1.2927798337776384,-3.3114058334640113,8.508466833934452,0.5311111111111111,-0.008888888888888889,-0.6344444444444445,1.768368747059746,8.099635408499294,-112.94688333071977
1589479398.1228294,-1.307210380770049,-3.4395035098915123,8.927032971708147,0.5435697369354038,0.02848698858398923,-0.6344444444444445,1.8217347372899382,5.816711869814933,-115.204860667943
1589479398.1328294,-1.204648771565574,-3.3419432497899053,8.831180977804143,0.5511111111111111,0.05111111111111112,-0.6344444444444445,1.6136023777744821,5.362480844332394,-117.23234279994068
1589479398.1428294,-1.2391545882980615,-3.3998899608749777,8.5018008625289,0.5511111111111111,0.05111111111111112,-0.6344444444444445,2.3453602947714742,8.199225002223013,-118.2058843144229
1589479398.1528294,-1.1993360916001155,-3.5209958625998268,8.611991725199653,0.5511111111111111,0.05111111111111112,-0.6344444444444445,2.0411695371884924,6.899571827191378,-119.24319253343597
1589479398.1628294,-1.1868100779331696,-3.6317209351980355,8.642759688267322,0.5511111111111111,0.05111111111111112,-0.6344444444444445,2.087814935411551,7.016133767481584,-119.28718506458844
1589479398.1728294,-1.19,-3.7168612251981257,8.840875513391566,0.551978911577743,0.074541723710174,-0.6248986393114929,1.4064795800312373,5.471262726326141,-119.57801020998438
1589479398.1828294,-1.1607403860477983,-3.72268509651195,8.834165868607547,0.5522222222222222,0.0811111111111111,-0.6222222222222222,1.416090734001575,5.166090734001575,-119.32175482559748
1589479398.1928294,-1.069000138102472,-3.5753573894687003,8.63642886736244,0.5522222222222222,0.0811111111111111,-0.6222222222222222,1.8977671789610748,7.2749965474381995,-118.4642869473435
1589479398.2028294,-0.9157785625531358,-3.2882872277810478,8.37539794650448,0.5522222222222222,0.0811111111111111,-0.6222222222222222,1.7668685828264992,6.604779772415146,-116.97004774050095
1589479398.2128294,-0.9368389445711536,-3.5074591450273065,8.817975978740767,0.5522222222222222,0.0811111111111111,-0.6222222222222222,1.311853957858174,5.019433575359377,-115.2049954489339
1589479398.2228293,-0.8176006618863763,-3.6430667402095973,8.646668505239933,0.5691554820126248,0.12062205062205059,-0.6335110620824906,2.0341629895201323,7.81915333701048,-112.34000965250965
1589479398.2328293,-0.79,-3.64,8.57,0.5722222222222222,0.12777777777777774,-0.6355555555555555,2.1875,8.375,-111.9375
1589479398.2428293,-0.7460292092729284,-3.5261752556375705,8.689481953003318,0.5722222222222222,0.12777777777777774,-0.6355555555555555,1.6043331414640754,6.34379302950272,-109.56665058350828
1589479398.2528293,-0.7306601364485269,-3.572277318290963,8.890660136448526,0.5722222222222222,0.12777777777777774,-0.6355555555555555,0.8446778404543203,4.553833803407402,-107.46225511681976
1589479398.2628293,-0.6571645736946463,-3.606192994051553,8.927984137475214,0.5722222222222222,0.12777777777777774,-0.6355555555555555,1.3190267680105752,6.315763384005288,-105.24487772637144
1589479398.2728293,-0.6116103977731885,-3.739662386639131,8.983636077938403,0.5913680624145741,0.1191889896541059,-0.6310822284078098,1.5465901948460088,6.268505320104158,-104.00844033402173
1589479398.2828293,-0.5118157853930841,-3.732301752209645,8.877519305318653,0.6911111111111111,0.07444444444444444,-0.6077777777777778,1.6238816095518684,6.775416731276167,-101.35262056132734
1589479398.2928293,-0.39402137916579333,-3.6132999371201007,8.659899811360301,0.6911111111111111,0.07444444444444444,-0.6077777777777778,1.8079909872144204,7.005803290714735,-99.90593691050094
1589479398.3028293,-0.2977317724901387,-3.5077317724901387,8.723723374475124,0.6911111111111111,0.07444444444444444,-0.6077777777777778,1.6635163506807482,6.293598104084489,-98.76488898078635
1589479398.3128293,-0.30098002159827214,-3.6039200863930887,8.97729211663067,0.6911111111111111,0.07444444444444444,-0.6077777777777778,1.1215746490280778,5.016924271058315,-98.2438748650108
1589479398.3228292,-0.32,-3.5977047433664584,8.784705255609056,0.8772167241516693,-0.0223735045361928,-0.49428562647269747,1.2360785267902878,5.524713144145068,-97.58039903698392
1589479398.3328292,-0.2220592480582858,-3.4178204687607394,8.77534469723005,1.0755555555555556,-0.12555555555555556,-0.37333333333333335,1.0033550415836139,5.705778747680253,-96.0998092652416
1589479398.3428292,-0.19286101288334678,-3.4847060404905186,9.048984014723825,1.0755555555555556,-0.12555555555555556,-0.37333333333333335,0.19384990797609442,3.712899631904378,-94.71039353144323
1589479398.3528292,-0.17870694003501172,-3.274066403584251,8.667069400350117,1.0755555555555556,-0.12555555555555556,-0.37333333333333335,1.8065713734682374,6.0774931015043165,-92.48644223066196
1589479398.3628292,-0.11693098133241994,-3.2584398013358453,8.58767254666895,1.0755555555555556,-0.12555555555555556,-0.37333333333333335,2.18758027915739,5.918559470799794,-90.37524083747218
1589479398.3728292,-0.0696513153352206,-3.4376151349858453,8.767963819650625,1.1882412330164867,0.2188256730112699,-0.3842569449239338,0.551254056480011,4.077405406338466,-87.85939549817027
1589479398.3828292,-0.013140774563810402,-3.4807129841023814,8.820712984102382,1.2933333333333332,0.54,-0.3944444444444444,-0.0026509121756069787,4.906306945520809,-85.06154043524705
1589479398.3928292,0.024861278648974666,-3.5523642943305185,8.697913148371532,1.2933333333333332,0.54,-0.3944444444444444,1.6224366706875752,6.632840772014475,-82.35931845597105
1589479398.4028292,0.013835205774492113,-3.3805867629082016,8.568446941032656,1.2933333333333332,0.54,-0.3944444444444444,1.5616104691774841,5.849843922812736,-79.10955054135863
1589479398.4128292,-0.009996361198889208,-3.379916307574452,8.814903571770564,1.2933333333333332,0.54,-0.3944444444444444,0.8123635449583453,3.6252956525902515,-75.7507505027291
1589479398.4228292,-0.08434423174656955,-3.636810096561071,8.817261053701507,0.9668459352118508,0.4476541118452011,-0.5284949272497976,1.288037862104015,2.913037862104015,-70.33623792986617
1589479398.4328291,-0.07997167205684474,-3.353188546068318,8.88347182549987,0.6844444444444444,0.36777777777777776,-0.6444444444444445,0.29115518991525224,2.416391256108213,-62.60188469346805
1589479398.4428291,-0.05621825086563163,-3.5606585502066346,8.681777951524628,0.6844444444444444,0.36777777777777776,-0.6444444444444445,1.3045627164079079,2.7079610186529655,-55.25176337540489
1589479398.4528291,-0.0133155409566824,-3.924721823034284,8.54469513446931,0.6844444444444444,0.36777777777777776,-0.6444444444444445,2.1041110654896324,3.937833607062205,-48.281820981318006
1589479398.462829,0.06338734118195594,-3.988654854878191,8.65728523137895,0.6844444444444444,0.36777777777777776,-0.6444444444444445,0.7924947546334071,3.9386656370206317,-40.582964214943466
1589479398.472829,0.08384912624718842,-3.7129061652921163,8.712113155314608,0.608176429500612,0.3628427885755298,-0.6475848921186023,0.05990109002825994,1.6936350135532616,-32.89954005421305
1589479398.482829,0.10022944785276074,-3.7053877300613496,8.801519018404909,0.4955555555555556,0.3555555555555556,-0.6522222222222223,1.2338803680981596,1.2462423312883435,-26.276848159509203
1589479398.492829,0.13163122859174045,-3.7814186001421835,8.596099657467848,0.4955555555555556,0.3555555555555556,-0.6522222222222223,-0.5893895818522588,2.2819144639048665,-19.04433125444322
1589479398.502829,0.047675618534645484,-3.675891872844882,8.639027207973623,0.4955555555555556,0.3555555555555556,-0.6522222222222223,-1.3621621026402557,-0.5511848430696435,-12.657767234653042
1589479398.512829,-0.045666013617054295,-3.802072042364169,8.622557950070801,0.4955555555555556,0.3555555555555556,-0.6522222222222223,0.9708006808527148,-0.4694743758850115,-4.987573468081392
1589479398.522829,-0.13421643286573146,-3.8460400801603205,8.61475751503006,0.47467557336896016,0.35432732130928524,-0.6749445557782231,1.5984719438877757,0.6988977955911824,6.148847695390781
1589479398.532829,-0.30151082450483646,-3.802877706126209,8.84520865960387,0.4577777777777778,0.3533333333333333,-0.6933333333333334,-1.7012595002303086,-3.082284949332105,19.591009327498845
1589479398.542829,-0.5576230076230076,-3.9531518118614892,8.60948695593857,0.4577777777777778,0.3533333333333333,-0.6933333333333334,0.049214226633581326,-2.0395946504817473,34.44031252095768
1589479398.552829,-0.736634663971703,-4.162708438605356,8.679575543203638,0.4577777777777778,0.3533333333333333,-0.6933333333333334,1.3440500252652856,-1.0499305204648812,50.866093986862055
1589479398.562829,-0.8124605678233439,-4.307476340694006,8.892744479495269,0.4577777777777778,0.3533333333333333,-0.6933333333333334,0.12697160883280756,-2.6226340694006307,67.69952681388013
1589479398.572829,-0.8478381889033215,-4.328702913341993,8.673403228799407,0.4577777777777778,0.3533333333333333,-0.6933333333333334,-1.6419094451660787,-4.745291334199295,84.94611709036927
1589479398.582829,-0.5516788734269925,-4.3573167321392905,8.576656901258406,0.44,0.3588888888888889,-0.7,-0.5624084492975564,-6.635126756108928,123.28432110992742
1589479398.592829,-0.3193982912197782,-4.444298006423074,8.372894019269223,0.44,0.3588888888888889,-0.7,-1.1216571734432124,-6.759730554040679,145.02871195136237
1589479398.602829,-0.20657261874915628,-4.363427381250844,8.344475343760246,0.44,0.3588888888888889,-0.7,-1.06426339845332,-5.926155429772626,156.94959187510847
1589479398.612829,-0.12840304306657524,-4.283612172266301,8.822500734645901,0.44,0.3588888888888889,-0.7,-2.4995612531426517,-11.916221797760146,163.8641415254514
1589479398.622829,-0.054398944669466015,-4.008509159823121,8.703364795065216,0.4430982786881862,0.34649577413614424,-0.6876068852472553,-3.313254802868715,-13.170833952658764,167.29461930065773
1589479398.632829,-0.11053913309848369,-4.195747817429928,8.895147802113646,0.4488888888888889,0.3233333333333333,-0.6644444444444444,-1.150815113340481,-8.592826236789708,167.4561954357482
1589479398.642829,-0.16761426610843772,-4.218346854750448,8.803575386967323,0.4488888888888889,0.3233333333333333,-0.6644444444444444,0.1725891631777357,-9.584298942028735,163.73109788405748
1589479398.652829,-1.8474043062200955,-10.893977272727273,7.580968899521531,0.4488888888888889,0.3233333333333333,-0.6644444444444444,0.6858926435406698,-9.489832535885167,160.39585825358853
1589479398.662829,-3.7651798242505845,-18.138369534405783,4.35783254198852,0.4488888888888889,0.3233333333333333,-0.6644444444444444,-6.149155578980937,-13.937371554106726,127.20926493515697
1589479398.672829,0.39497892736137513,1.1695644988017517,4.233093959176927,0.45924441506211605,0.30262228098687893,-0.6712290995234553,-52.496797785307,-0.10082327906784272,-25.668488141475905
1589479398.682829,0.5923419895575708,2.116088211046991,9.246477512137034,0.4811111111111111,0.2588888888888889,-0.6855555555555556,-114.31226527434276,14.076529151781624,-307.22863567142986
1589479398.692829,-0.8086597726806823,-1.3241245472974512,9.442698448853154,0.4811111111111111,0.2588888888888889,-0.6855555555555556,-73.71905963146027,5.193507562125595,-335.1554036740086
1589479398.702829,-0.9730101574158764,-1.5017474606460308,7.870526163770279,0.4811111111111111,0.2588888888888889,-0.6855555555555556,11.568752106099268,27.060830164155394,-319.43396777066386
1589479398.7128289,0.3033317367702981,-1.594160498127667,12.002261749252519,0.4811111111111111,0.2588888888888889,-0.6855555555555556,86.64507678016778,41.459502634329006,-307.14952538535226
1589479398.7228289,1.0642935934279658,-1.3567403988504747,14.346024267758136,0.4811111111111111,0.2588888888888889,-0.6855555555555556,129.48722930999446,40.203915570843854,-295.05023186449534
1589479398.7328289,1.2133750211255705,-0.7683569376373163,11.003388203481494,0.4444444444444444,0.3377777777777778,-0.65,90.63501985803617,33.74143780632077,-251.57027843501774
1589479398.7428288,-0.996577884697998,-0.7894531317123463,8.910321333447891,0.4444444444444444,0.3377777777777778,-0.65,-43.71258806598505,-6.0280388134719445,-196.52468264026118
1589479398.7528288,-0.7892042901819143,-0.6444582213804343,8.196621371624895,0.4444444444444444,0.3377777777777778,-0.65,-13.109930405673257,22.32634453596441,-159.9054874355812
1589479398.7628288,0.8629652551045272,-1.4141079869402076,9.436482627552264,0.4444444444444444,0.3377777777777778,-0.65,31.571326324253203,19.229377832464305,-122.60846815457336
1589479398.7728288,0.32750929438904886,-2.1949278374101544,9.25617319021563,0.4203289843006912,0.35318487731406456,-0.6523445586250871,19.909564402966577,3.404562115116966,-90.71324903243027
1589479398.7828288,0.08154563571143882,-2.202271821442806,9.295614587485053,0.3644444444444445,0.3888888888888889,-0.6577777777777778,-16.782124352331607,0.5664557592666402,-59.84730968513352
1589479398.7928288,0.37594591210717415,-2.509102917240516,8.786716539376487,0.3644444444444445,0.3888888888888889,-0.6577777777777778,-3.8136150932765744,5.157705490171529,-25.08625735570302
1589479398.8028288,0.9886375007627067,-2.790309658917567,8.151085789248887,0.3644444444444445,0.3888888888888889,-0.6577777777777778,13.321970910366709,6.693487247544084,-8.957808972481542
1589479398.8128288,0.7072554078190117,-2.7377495534828338,9.537265330422702,0.3644444444444445,0.3888888888888889,-0.6577777777777778,1.5155040682675134,-2.3604757888469936,-2.2746452669180393
1589479398.8228288,-0.41871368390470654,-8.032114323067983,8.491647661243462,0.3600062140874169,0.40309122603137715,-0.6546710165278585,-4.207235528036025,1.7817675043579309,20.929608058541543
1589479398.8328288,-0.794199515374902,-12.603968237716574,9.71683776435389,0.3533333333333333,0.4244444444444445,-0.65,0.7445245042831301,-1.4376877069042013,68.64186660296008
1589479398.8428288,0.8662857922937783,-6.171973425252835,11.114890049258843,0.3533333333333333,0.4244444444444445,-0.65,-3.907697262892052,-16.91527166308317,89.0997136047689
1589479398.8528287,1.6306824994235647,-2.7191632464837445,10.261293982015218,0.3533333333333333,0.4244444444444445,-0.65,-5.509384367074015,-13.65014987318423,88.95326550611021
1589479398.8628287,0.568035286603864,-4.2785490180424715,8.576413060833467,0.3533333333333333,0.4244444444444445,-0.65,-3.044549836340412,-1.752978804087498,73.39535516126458
1589479398.8728287,-0.819382303198032,-6.766599976937269,8.571957833640836,0.35610536678283444,0.4204123957906246,-0.6565520790624573,-0.2757738026599016,0.14045923662361626,71.13076568265683
1589479398.8828287,-0.27326371504184255,-5.395504613403905,8.978568771904728,0.3655555555555556,0.4066666666666667,-0.6788888888888889,-0.03699216794220728,1.6938523710750304,90.41073152850296
1589479398.8928287,0.6696756398104265,-2.534819146919431,8.361816303317536,0.3655555555555556,0.4066666666666667,-0.6788888888888889,-1.4323447867298578,-11.376274881516588,100.23563507109004
1589479398.9028287,0.3259947467166979,-4.176496810506566,10.472484052532833,0.3655555555555556,0.4066666666666667,-0.6788888888888889,-0.7010272045028143,-3.106219512195122,99.07193714821764
1589479398.9128287,-0.24734457869761134,-3.6835552498305217,8.63542788212306,0.3655555555555556,0.4066666666666667,-0.6788888888888889,-0.6733261554412409,-4.20455247836663,110.70798191569965
1589479398.9228287,-0.1338200078697371,-3.561029998688377,9.12558001836272,0.3682963892896626,0.4039258329325597,-0.6788888888888889,-3.1852187131106073,-10.965124885233001,117.98378154921396
1589479398.9328287,-0.3270582852315923,-3.5385844009573417,9.556184710685626,0.37777777777777777,0.3944444444444444,-0.6788888888888889,-2.313692277910742,-8.192770660284387,125.2985710263269
1589479398.9428287,-0.6627526665962614,-3.932936424120815,9.144498363079522,0.37777777777777777,0.3944444444444444,-0.6788888888888889,-2.328555681698173,-6.612366670186926,140.33252917414723
1589479398.9528286,-0.5815450417150702,-3.7926687084169397,8.502219875382828,0.37777777777777777,0.3944444444444444,-0.6788888888888889,-2.190133593832506,-10.67274791424649,148.96083931777378
1589479398.9628286,9.174241210125121,-17.5283574690593,8.414913671629629,0.37777777777777777,0.3944444444444444,-0.6788888888888889,-4.650610962090216,-13.558526305960648,127.133200982972
1589479398.9728286,2.1959650612023154,-3.408029302412441,6.307189447057025,0.37777777777777777,0.3944444444444444,-0.6788888888888889,-6.163757576014804,-11.911866755513302,77.33287565998336
1589479398.9828286,-1.2545815942652867,-2.803004173763312,8.294187239139793,0.4122222222222222,0.38222222222222224,-0.6855555555555556,8.492926360216362,16.622555166669784,45.08806897939321
1589479398.9928286,-0.8691967138293016,-3.612647193062528,8.312180511182108,0.4122222222222222,0.38222222222222224,-0.6855555555555556,0.4303756846188954,-1.8139334208124145,29.57746890689183
1589479399.0028286,-0.014446272889604705,-4.470144602780015,8.860834704667203,0.4122222222222222,0.38222222222222224,-0.6855555555555556,-4.570531056335563,-9.120995413325865,10.682591645950772
1589479399.0128286,0.0265419494500351,-4.290130762930025,8.824486016849988,0.4122222222222222,0.38222222222222224,-0.6855555555555556,1.8758172683126608,0.6731292417505266,1.5256991575005852
1589479399.0228286,-0.08570139605871527,-4.226447905911927,8.845701396058715,0.42464150868110107,0.3660231529280324,-0.6804258502790621,0.536228509224761,-1.390186627463303,-0.7348133725366971
1589479399.0328286,-0.05182506279274998,-4.3567300251171,8.758846649921933,0.4633333333333333,0.31555555555555553,-0.6644444444444444,-1.1298324960966668,-0.7404156201208335,-0.6003644525151042
1589479399.0428286,-0.16,-4.4,8.73,0.4633333333333333,0.31555555555555553,-0.6644444444444444,0.3125,1.0625,-0.375
1589479399.0528286,-0.1210654879609166,-4.3454916831452834,8.73,0.4633333333333333,0.31555555555555553,-0.6644444444444444,0.11782743980458299,0.47848231941374897,-0.3019977899267186
1589479399.0628285,-0.10149186086036938,-4.277782226083016,8.732963704347169,0.4633333333333333,0.31555555555555553,-0.6644444444444444,-0.039314782641537926,-0.14112956528307585,-0.15045369566038447
1589479399.0728285,-0.2,-4.308341518614915,8.742119723888198,0.46227347138923464,0.31555555555555553,-0.6637378698150452,0.26613103994568293,0.44326553128889895,-0.0625
1589479399.0828285,-0.19754771950974484,-4.220422192083585,8.758773859754871,0.4533333333333333,0.31555555555555553,-0.6577777777777778,-0.14415844133011854,-0.5280148056057866,-0.0625
1589479399.0928285,-0.16154227931866907,-4.369204044769316,8.729975184428652,0.4533333333333333,0.31555555555555553,-0.6577777777777778,-0.37002527980822797,0.03855698296672688,-0.05286075425831828
1589479399.1028285,-0.17570336107500378,-4.270076472474973,8.637928153012474,0.4533333333333333,0.31555555555555553,-0.6577777777777778,0.24952204703141623,0.39258402687509497,0.03564600671877374
1589479399.1128285,-0.15934490597230833,-4.299563270648205,8.691310188055382,0.4533333333333333,0.31555555555555553,-0.6577777777777778,-0.05840566232692705,-0.05840566232692705,-0.004094337673072949
1589479399.1228285,-0.13767565612729904,-4.285117104084867,8.734648687745402,0.4533333333333333,0.31555555555555553,-0.6577777777777778,0.07702714920438108,0.07702714920438108,-0.13952714920438108
1589479399.1328285,-0.18890608575881693,-4.319270723839211,8.75,0.4707869883729828,0.32319152963540215,-0.6577777777777778,0.125,0.4318025299938381,0.05794202399507051
1589479399.1428285,-0.14754011352691654,-4.286032090821534,8.77547593188385,0.4711111111111111,0.3233333333333333,-0.6577777777777778,-0.034224574274063,0.06597599336051968,-0.096724574274063
1589479399.1528285,-0.11326888702440448,-4.306924451902383,8.658172217561011,0.4711111111111111,0.3233333333333333,-0.6577777777777778,-0.158062552438624,0.08293054390252799,-0.125
1589479399.1628284,-0.12856929194177946,-4.245722832232882,8.696423229854448,0.4711111111111111,0.3233333333333333,-0.6577777777777778,0.27226133586254697,0.17855807463612156,-0.125
1589479399.1728284,-0.15918078459489912,-4.318361569189799,8.750819215405102,0.4711111111111111,0.32366708775763364,-0.6585363105602786,-0.11475980743623886,0.06079330123937314,-0.06420669876062686
1589479399.1828284,-0.13340407661579434,-4.2668081532315885,8.776595923384205,0.4711111111111111,0.3341687095268986,-0.6824036327631534,0.20744904230257094,0.007091826282904848,-0.11790817371709515
1589479399.1928284,-0.13,-4.324224517310676,8.684224517310676,0.4711111111111111,0.33555555555555555,-0.6855555555555556,-0.163435488794485,0.1273387219862125,-0.0745322556027575
1589479399.2028284,-0.13707759916734127,-4.302359199722447,8.671795998612236,0.4711111111111111,0.33555555555555555,-0.6855555555555556,-0.04775500173470568,-0.0660200069388227,-0.13974499826529432
1589479399.2128284,-0.15647856422825293,-4.304717846342379,8.711760717885875,0.4711111111111111,0.33555555555555555,-0.6855555555555556,0.044017947146838494,0.11399551321329038,-0.16549102642658076
1589479399.2228284,-0.14,-4.279927017623264,8.72058385901389,0.4710138012754629,0.33536093588425914,-0.6854014816491126,0.249543860145399,0.0625,-0.063412279709202
1589479399.2328284,-0.14,-4.275456971579932,8.794543028420067,0.4577777777777778,0.3088888888888889,-0.6644444444444444,0.17044696381271035,0.05397348190635518,-0.16192044571906555
1589479399.2428284,-0.14,-4.308870367051044,8.761129632948956,0.4577777777777778,0.3088888888888889,-0.6644444444444444,0.06603010296548566,0.0017650514827428285,-0.0052951544482284785
1589479399.2528284,-0.14,-4.311820904575956,8.684089547712022,0.4577777777777778,0.3088888888888889,-0.6644444444444444,-0.17332098039959054,-0.0611008169996588,-0.11222016339993177
1589479399.2628284,-0.14,-4.280018197672215,8.699990901163892,0.4577777777777778,0.3088888888888889,-0.6644444444444444,0.12482939682298971,0.18735783068582473,-0.06252843386283505
1589479399.2728283,-0.13334798546423982,-4.28665201453576,8.746564101750321,0.4577777777777778,0.3088888888888889,-0.6644444444444444,0.1665750908485012,0.1043498183029976,-0.1456501816970024
1589479399.2828283,-0.14542018050007396,-4.29,8.777710090250036,0.4577777777777778,0.3088888888888889,-0.6807213016389669,0.3320641921881935,0.0625,-0.042935807811806476
1589479399.2928283,-0.16459384439546088,-4.29,8.794593844395461,0.4577777777777778,0.3088888888888889,-0.6855555555555556,0.05575965384929382,0.0625,-0.09121152747163035
1589479399.3028283,-0.14959590846778445,-4.309797954233892,8.641414320362754,0.4577777777777778,0.3088888888888889,-0.6855555555555556,-0.12247442792365285,0.0025255720763471476,-0.0025255720763471476
1589479399.3128283,-0.13190403880628493,-4.300952019403142,8.703335864178003,0.4577777777777778,0.3088888888888889,-0.6855555555555556,-0.01190024253928082,0.11309975746071918,-0.11309975746071918
1589479399.3228283,-0.13935491127218197,-4.271935266183454,8.728709822544364,0.4577777777777778,0.3088888888888889,-0.6855555555555556,0.17540458635341163,-0.050404586353411635,-0.06653180454886279
1589479399.3328283,-0.14,-4.287687606722387,8.78306282016716,0.4538471985061362,0.3216632715217239,-0.6609894351077958,0.07695245798508132,-0.0625,0.10332131302237801
1589479399.3428283,-0.13,-4.288456356230773,8.739194493615413,0.4533333333333333,0.3233333333333333,-0.6577777777777778,-0.00964777355766752,0.13464777355766752,0.0
1589479399.3528283,-0.13,-4.281248045095984,8.688736315671886,0.4533333333333333,0.3233333333333333,-0.6577777777777778,-0.05469971815010225,0.17969971815010224,0.0
1589479399.3628283,-0.13168773351024826,-4.308312266489751,8.693501868081986,0.4533333333333333,0.3233333333333333,-0.6577777777777778,-0.020306662243793426,0.2808549966828451,0.0
1589479399.3728282,-0.13901044030867002,-4.30098955969133,8.75208352246936,0.4533333333333333,0.3233333333333333,-0.6577777777777778,0.1627610077167499,0.1435542442124376,0.0
1589479399.3828282,-0.1484054830145744,-4.308405483014574,8.764783550956276,0.4455555555555555,0.33,-0.6711111111111111,0.1675685376821802,0.0099657311589099,0.0
1589479399.3928282,-0.14083057918404943,-4.3008305791840495,8.78750826244785,0.4455555555555555,0.33,-0.6711111111111111,0.07288223980061764,0.05730888009969118,0.0
1589479399.4028282,-0.14790241557505107,-4.290487922124745,8.652585506549693,0.4455555555555555,0.33,-0.6711111111111111,0.013109902655930778,0.10884058406441534,-0.07560990265593077
1589479399.4128282,-0.14117112810707458,-4.3264866156787765,8.705855640535372,0.4455555555555555,0.33,-0.6711111111111111,0.05518044933078394,-0.15822179732313577,-0.11036089866156788
1589479399.4228282,-0.1465898403183298,-4.3102304790450106,8.732949201591648,0.4455555555555555,0.33,-0.6711111111111111,0.021313498010438733,-0.022753992041754934,-0.04262699602087747
1589479399.4328282,-0.13733183947850885,-4.3,8.775336321042982,0.45681614268576987,0.3257772798261696,-0.6668883909372807,0.0,0.022911998370340192,-0.03958800162965981
1589479399.4428282,-0.13885071058216694,-4.291149289417833,8.710343604760498,0.4633333333333333,0.3233333333333333,-0.6644444444444444,0.0,0.11063388227708675,0.048133882277086745
1589479399.4528282,-0.13001313742437337,-4.31,8.660052549697493,0.4633333333333333,0.3233333333333333,-0.6644444444444444,0.06258210890233362,-8.210890233362144e-05,-0.0625
1589479399.4628282,-0.13726343993085569,-4.31,8.689053759723421,0.4633333333333333,0.3233333333333333,-0.6644444444444444,0.10789649956784789,-0.04539649956784789,-0.0625
1589479399.4728281,-0.13159250434670616,-4.2931850086934125,8.733629982613175,0.4633333333333333,0.3233333333333333,-0.6644444444444444,0.01990630433382702,0.09514054349925946,-0.0625
1589479399.4828281,-0.13,-4.28300756000756,8.76097731997732,0.4633333333333333,0.31789476889476886,-0.6644444444444444,0.043702749952749954,0.03759450009450009,0.02490549990549991
1589479399.4928281,-0.13,-4.289923373108154,8.740229880675537,0.4633333333333333,0.31555555555555553,-0.6644444444444444,0.00047891807403453723,0.06202108192596546,-0.061542163851930926
1589479399.5028281,-0.14870560610507777,-4.299352803052539,8.661294393894922,0.4633333333333333,0.31555555555555553,-0.6644444444444444,-0.17941003815673612,0.125,-0.06654498092163194
1589479399.512828,-0.13062794481543,-4.29,8.68376766889258,0.4633333333333333,0.31555555555555553,-0.6644444444444444,-0.0625,0.11715068980712517,-0.125
1589479399.522828,-0.13773668689196977,-4.29,8.726420121351818,0.4633333333333333,0.31555555555555553,-0.6644444444444444,-0.0625,0.02829141385037795,-0.125
1589479399.532828,-0.16735348638243264,-4.298235657588288,8.79,0.4711111111111111,0.3233333333333333,-0.6711111111111111,0.1819864299634013,0.0514728599268026,-0.005513570036598698
1589479399.542828,-0.1408230746220576,-4.28,8.779300029913252,0.4711111111111111,0.3233333333333333,-0.6711111111111111,0.11985578361214018,-0.04706735083642054,-0.0625
1589479399.552828,-0.14898552864737152,-4.281014471352629,8.663043414057885,0.4711111111111111,0.3233333333333333,-0.6711111111111111,0.05932977702303603,0.13134044595392794,-0.05932977702303603
1589479399.562828,-0.13125495450231675,-4.300627477251158,8.72,0.4711111111111111,0.3233333333333333,-0.6711111111111111,-0.011765198459219561,0.2421565343605203,0.0
1589479399.572828,-0.14686484675933678,-4.308432423379668,8.72,0.4711111111111111,0.3233333333333333,-0.6711111111111111,-0.15810793836878245,0.144594707754145,0.0
1589479399.582828,-0.13488603314169767,-4.31,8.727556983429151,0.4610351332055762,0.3233333333333333,-0.6551574794273476,0.0014245857287791541,0.17223114643219478,-0.09446229286438958
1589479399.592828,-0.13,-4.280242580394254,8.718544517634477,0.4577777777777778,0.3233333333333333,-0.65,0.12196774507182616,-0.05946774507182616,-0.06401612746408691
1589479399.602828,-0.13,-4.290280666739432,8.660842000218297,0.4577777777777778,0.3233333333333333,-0.65,0.0,0.05899166575709853,-0.1197374986356478
1589479399.612828,-0.13,-4.2968206695461,8.680462008638298,0.4577777777777778,0.3233333333333333,-0.65,0.0,-0.022758369326243894,0.002887553989365854
1589479399.622828,-0.14452211703668766,-4.3,8.740827409628407,0.4577777777777778,0.3233333333333333,-0.65,-0.0907632314792979,-0.017118384260351047,-0.07364484721894687
1589479399.632828,-0.15,-4.3,8.772773601299535,0.4577777777777778,0.3233333333333333,-0.6684507574326621,-0.08508249593895206,0.11975251218314381,-0.005247487816856189
1589479399.642828,-0.15,-4.308082905225863,8.763834189548273,0.4577777777777778,0.3233333333333333,-0.6788888888888889,0.03853631532329495,0.08646368467670505,0.011981842338352526
1589479399.652828,-0.13732957599930634,-4.297329575999306,8.70298309199688,0.4577777777777778,0.3233333333333333,-0.6788888888888889,0.0625,0.14169015000433538,0.03959507500216769
1589479399.662828,-0.14495777178796046,-4.29,8.707394429469902,0.4577777777777778,0.3233333333333333,-0.6788888888888889,0.0625,0.14075696316262354,-0.030986073674752923
1589479399.672828,-0.15,-4.298256234487649,8.753024937950597,0.4577777777777778,0.3233333333333333,-0.6788888888888889,-0.09230439664342277,0.1766014655478076,-0.0625
1589479399.682828,-0.1409470281024621,-4.318579457846307,8.77621188759015,0.4577777777777778,0.33,-0.6644444444444444,-0.0625,0.25,0.0
1589479399.692828,-0.15485501119124595,-4.297717483213131,8.720579955235015,0.4577777777777778,0.33,-0.6644444444444444,-0.0625,0.25,0.0
1589479399.702828,-0.14131773355484079,-4.29,8.643953200664523,0.4577777777777778,0.33,-0.6644444444444444,0.05426416528224523,0.01647166943550954,0.0
1589479399.712828,-0.13077853377030493,-4.299480977486463,8.71025951125677,0.4577777777777778,0.33,-0.6644444444444444,0.24513416393559417,0.12986583606440583,-0.12337805464519806
1589479399.722828,-0.1531903676261043,-4.28453975491593,8.717730122542035,0.4577777777777778,0.33,-0.6644444444444444,0.1050602023368481,0.2699397976631519,-0.07668673411228269
1589479399.732828,-0.1474196467040069,-4.298870529943989,8.751450883239983,0.4549821437120015,0.31672073818756286,-0.6602509933457801,0.02318639595002154,0.19455918785006462,-0.0625
1589479399.742828,-0.15976653074278405,-4.300116734628608,8.740350203885825,0.4533333333333333,0.3088888888888889,-0.6577777777777778,0.06177040857120012,0.0014591828575997584,-0.0007295914287998792
1589479399.752828,-0.14975227969136484,-4.29,8.660743160925906,0.4533333333333333,0.3088888888888889,-0.6577777777777778,0.18285524421309116,-0.12345174807103039,-0.06095174807103038
1589479399.7628279,-0.14201000479935025,-4.29,8.68396998560195,0.4533333333333333,0.3088888888888889,-0.6577777777777778,0.037687589987817044,-0.07506252999593901,-0.012562529995939015
1589479399.7728279,-0.1326112922030027,-4.304777415593994,8.726943538984987,0.4533333333333333,0.3088888888888889,-0.6577777777777778,0.046179423731233196,0.12221769492493278,-0.09235884746246639
1589479399.7828279,-0.13,-4.300272341762211,8.759455316475577,0.4630609915711219,0.3229399507879168,-0.6577777777777778,-0.05909572797235747,0.12670213601382127,-0.003404272027642527
1589479399.7928278,-0.12231204027775178,-4.315375919444497,8.76,0.4633333333333333,0.3233333333333333,-0.6577777777777778,0.03359949652810272,-0.06719899305620544,0.04804974826405136
1589479399.8028278,-0.14961467889908256,-4.3002568807339445,8.661284403669725,0.4633333333333333,0.3233333333333333,-0.6577777777777778,0.0625,-0.0016055045871559703,0.0625
1589479399.8128278,-0.13421888053467002,-4.3,8.699452798663327,0.4633333333333333,0.3233333333333333,-0.6577777777777778,0.11181599832915623,-0.09863199665831246,0.0625
1589479399.8228278,-0.14443560091764596,-4.292782199541177,8.738871201835293,0.4633333333333333,0.3233333333333333,-0.6577777777777778,0.07988874713235639,-0.17011125286764361,0.017388747132356386
1589479399.8328278,-0.13575348958456762,-4.304246510415432,8.742876744792284,0.45621007812561715,0.32808217013847746,-0.6625266145829218,0.0625,-0.09845930990354765,0.0
1589479399.8428278,-0.1423701413244236,-4.303814929337788,8.715259717351152,0.4533333333333333,0.33,-0.6644444444444444,-0.014813383277647488,0.05347007491647125,0.038656691638823744
1589479399.8528278,-0.15,-4.3,8.672370118447285,0.4533333333333333,0.33,-0.6644444444444444,0.05262450646964545,-0.047686759704468146,0.0049377467651772755
1589479399.8628278,-0.15,-4.293187837007713,8.676812162992286,0.4533333333333333,0.33,-0.6644444444444444,0.1476520374035902,-0.0625,-0.0425760187017951
1589479399.8728278,-0.1312275038334275,-4.28374250127781,8.717544992333146,0.4533333333333333,0.33,-0.6644444444444444,0.0701718989589218,-0.10160936701369273,-0.023390632986307267
1589479399.8828278,-0.1317653725078699,-4.28,8.757648058761804,0.4533333333333333,0.32607820916404334,-0.6683662352804011,0.0,-0.125,0.03676678908709339
1589479399.8928277,-0.14,-4.288769297246337,8.743692108260989,0.4533333333333333,0.3233333333333333,-0.6711111111111111,0.10961621557921201,-0.07019189221039399,0.0625
1589479399.9028277,-0.14,-4.298995665577266,8.66803467538187,0.4533333333333333,0.3233333333333333,-0.6711111111111111,0.06877709014208563,-0.11872290985791437,0.11872290985791437
1589479399.9128277,-0.14,-4.290838225621788,8.724132420647488,0.4533333333333333,0.3233333333333333,-0.6711111111111111,0.00523891013617208,-0.125,0.01047782027234416
1589479399.9228277,-0.13269508793898344,-4.304609824122033,8.737304912061017,0.4533333333333333,0.3233333333333333,-0.6711111111111111,0.0,0.011967101144060549,0.09131140076270704
1589479399.9328277,-0.13,-4.292277170787809,8.757722829212192,0.4533333333333333,0.3341639511852278,-0.6592958916363172,-0.11076768257619321,0.007116158711903395,0.01423231742380679
1589479399.9428277,-0.1449774629748873,-4.304977462974887,8.715067611075337,0.4533333333333333,0.33555555555555555,-0.6577777777777778,-0.125,-0.1404137153895686,-0.04680457179652286
1589479399.9528277,-0.13301513115616054,-4.30150756557808,8.657537827890401,0.4533333333333333,0.33555555555555555,-0.6577777777777778,-0.018844569726003388,-0.08134456972600339,0.09673314541099493
