time,acc_x,acc_y,acc_z,mag_x,mag_y,mag_z,gyr_x,gyr_y,gyr_z
1589552544.1443055,0.19,-4.24,8.8,0.4744444444444445,0.3466666666666667,-0.5688888888888889,-0.375,-2.5625,0.75
1589552544.1543055,0.22496142123138552,-4.2850385787686145,8.762403553078464,0.4744444444444445,0.3466666666666667,-0.5688888888888889,4.118248715492467,-3.6728870939649916,4.875336366803101
1589552544.1643054,0.23957188887921274,-4.270428111120787,8.798929722198032,0.4744444444444445,0.3466666666666667,-0.5688888888888889,6.675080553862231,2.6278770791604984,-7.086984019855436
1589552544.1743054,0.24,-4.271705742582585,8.81682297033034,0.47254917490823883,0.3478038283883901,-0.5736270627294031,-3.369138612612234,0.21175247597619698,2.8427623693672857
1589552544.1843054,0.24,-4.28,8.848111153119092,0.4633333333333333,0.3533333333333333,-0.5966666666666667,-2.3493005671077505,1.3506852551984878,-3.9173629489603026
1589552544.1943054,0.23620018163769615,-4.28,8.79960145310157,0.4633333333333333,0.3533333333333333,-0.5966666666666667,-3.8350317865968275,4.980015893298414,1.3160377109426147
1589552544.2043054,0.22683608576527664,-4.273672171530554,8.743672171530553,0.4633333333333333,0.3533333333333333,-0.5966666666666667,-2.5522553603297893,3.9233639368574518,8.167010720659578
1589552544.2143054,0.23165955091714105,-4.2570851122707145,8.770808428209994,0.4633333333333333,0.3533333333333333,-0.5966666666666667,-1.2505336812144212,3.2132970627767237,3.6142361934693237
1589552544.2243054,0.26,-4.25,8.863936360623136,0.465579125695135,0.35041380326299115,-0.5935225573601444,-0.059811070599933625,2.6463249917136227,-3.732764335432549
1589552544.2343054,0.25327740891906636,-4.253361295540467,8.8500838866214,0.4744444444444445,0.3388888888888889,-0.5811111111111111,-3.960080971279177,-0.1182206537890047,3.0441133597908476
1589552544.2443054,0.23596503475278477,-4.255965034752784,8.845790208516709,0.4744444444444445,0.3388888888888889,-0.5811111111111111,-2.7610139011139103,5.151354827450147,2.691914286581479
1589552544.2543054,0.22364358418931823,-4.250930752567955,8.77186150513591,0.4744444444444445,0.3388888888888889,-0.5811111111111111,2.668559150303962,2.635781333706007,0.13862005916194997
1589552544.2643054,0.2276596764146875,-4.267659676414687,8.81,0.4744444444444445,0.3388888888888889,-0.5811111111111111,-0.8137507786171758,4.916319616361342,1.539919103671879
1589552544.2743053,0.22096069380779734,-4.260960693807797,8.81,0.4744444444444445,0.3388888888888889,-0.5811111111111111,-6.0054622989570525,-1.4058452188912494,-0.13482654805066208
1589552544.2843053,0.23464366154102828,-4.28,8.846069015376916,0.4688888888888889,0.3466666666666667,-0.5811111111111111,4.40531240441565,4.1918134610571975,-4.863512498957261
1589552544.2943053,0.2433663549671327,-4.270049532450699,8.770148597352097,0.4688888888888889,0.3466666666666667,-0.5811111111111111,7.169865637440978,0.2345326821590592,-0.615093509860198
1589552544.3043053,0.23,-4.247930974432043,8.722414153407742,0.4688888888888889,0.3466666666666667,-0.5811111111111111,4.918075674819916,-2.1961281959946173,-3.6422128552204542
1589552544.3143053,0.23,-4.2412907464576906,8.76225552125386,0.4688888888888889,0.3466666666666667,-0.5811111111111111,1.846970236681706,-3.026156692788728,-0.4881045674028339
1589552544.3243053,0.23,-4.24,8.84166331467087,0.46787241881224595,0.3466666666666667,-0.5800946410344682,0.1393365766157525,-2.1258798988965593,1.4683100505517204
1589552544.3343053,0.23,-4.24,8.856862531934555,0.4585840082622166,0.3466666666666667,-0.5708062304844389,5.981535712344403,1.8639146328205687,3.4632073164102843
1589552544.3443053,0.2307424235641703,-4.253712117820851,8.804060611486639,0.4566666666666666,0.3466666666666667,-0.5688888888888889,-2.8602276288106,-3.7420458614978287,-1.1113635346255428
1589552544.3543053,0.24,-4.299007571107018,8.730396971557193,0.4566666666666666,0.3466666666666667,-0.5688888888888889,1.9131624718641294,1.7132571107018622,-2.378427460609781
1589552544.3643053,0.2348199152542373,-4.255180084745763,8.760360169491525,0.4566666666666666,0.3466666666666667,-0.5688888888888889,0.29598119703389836,-2.378111758474576,4.045881885593221
1589552544.3743052,0.2226164705882353,-4.27,8.793924705882352,0.4556491503267973,0.34492235294117646,-0.5716507189542483,6.94814705882353,-0.2914411764705882,4.988352941176471
1589552544.3843052,0.2365643550021717,-4.27,8.830306934993486,0.4488888888888889,0.3333333333333333,-0.59,0.2891088750542927,-1.941336687418561,6.578281091646156
1589552544.3943052,0.22376760116706837,-4.27,8.803257008753013,0.4488888888888889,0.3333333333333333,-0.59,0.7092873905873399,-2.77178739058734,7.932104687301789
1589552544.4043052,0.21455688826300198,-4.2722784441315005,8.720505997183508,0.4488888888888889,0.3333333333333333,-0.59,2.8544165493128735,-3.1226417957558392,-2.2136223473996015
1589552544.4143052,0.23,-4.27576646906571,8.79423353093429,0.4488888888888889,0.3333333333333333,-0.59,3.606774964515321,0.22125741003590216,0.18705122317775735
1589552544.4243052,0.22834065126259115,-4.258340651262591,8.809170325631296,0.4499951213804948,0.3349926820707422,-0.588248465221624,-4.157210478215087,0.7606453519559733,-2.2505488446943356
1589552544.4343052,0.21167444817515346,-4.241674448175154,8.800837224087578,0.46110592343878654,0.3516588851581798,-0.570656361962662,-1.969771322988894,0.23982650547354611,-1.000583613136511
1589552544.4443052,0.22999629001483995,-4.27999258002968,8.82999443502226,0.4622222222222222,0.3533333333333333,-0.5688888888888889,1.874327565189739,2.187129001483994,-3.1245826266694934
1589552544.4543052,0.25,-4.27,8.732441297830023,0.4622222222222222,0.3533333333333333,-0.5688888888888889,-0.9225331730341082,-0.08245205865764244,5.949531718467065
1589552544.4643052,0.25,-4.27,8.78498774967817,0.4622222222222222,0.3533333333333333,-0.5688888888888889,-4.777376354802541,-1.2687102902703375,1.0419833063410988
1589552544.4743052,0.24868877142399487,-4.271311228576005,8.843933685728015,0.4630963746062256,0.3524591809493299,-0.5697630412728923,-1.7644121415985905,2.1199603555982702,-6.316738747397085
1589552544.4843051,0.23106397089856703,-4.274042647265712,8.861063970898567,0.4688888888888889,0.3466666666666667,-0.5755555555555556,-1.0132720019293766,-2.078437456036337,0.5611396386438088
1589552544.4943051,0.213274758143665,-4.261637379071832,8.82690096742534,0.4688888888888889,0.3466666666666667,-0.5755555555555556,-4.670327616020938,-4.448482848062812,4.449581132869094
1589552544.5043051,0.23145780051150897,-4.2714578005115085,8.765831202046035,0.4688888888888889,0.3466666666666667,-0.5755555555555556,-4.044117647058823,-1.330722506393862,1.2915601023017902
1589552544.514305,0.238760607979734,-4.28,8.801239392020266,0.4688888888888889,0.3466666666666667,-0.5755555555555556,-6.112689993666878,-1.4994696010132995,2.7831063964534515
1589552544.524305,0.23,-4.279849746192894,8.810300507614214,0.46897236322617036,0.3466666666666667,-0.5754553863508178,-3.34494923857868,-1.8698857868020304,1.1175888324873096
1589552544.534305,0.23208572310591907,-4.27,8.811228492046729,0.4744444444444445,0.3466666666666667,-0.5688888888888889,-0.7232115294002956,1.4414238305685085,-5.724456512908834
1589552544.544305,0.23890051505353632,-4.27,8.749895364518173,0.4744444444444445,0.3466666666666667,-0.5688888888888889,1.4064109542301004,-2.2215268412757734,0.2810788909288844
1589552544.554305,0.23,-4.2681024339136036,8.709487830431978,0.4744444444444445,0.3466666666666667,-0.5688888888888889,3.146095261121857,2.3098756850419084,-11.207492142166345
1589552544.564305,0.22959399802752078,-4.260406001972479,8.752436011834876,0.4744444444444445,0.3466666666666667,-0.5688888888888889,-0.9339146080871648,-1.462875123279951,1.3210503451838633
1589552544.574305,0.22,-4.270212096947444,8.810636290842334,0.47432661280697536,0.3466666666666667,-0.5694780470762347,-10.963472599261761,-2.0757560592152804,3.0106048473722242
1589552544.584305,0.22,-4.278403609163526,8.835210827490577,0.46977577268693027,0.3466666666666667,-0.59223224767646,-2.3111878210261114,-2.5877255727203483,3.420180458176279
1589552544.594305,0.22836508211746637,-4.288365082117466,8.84,0.4688888888888889,0.3466666666666667,-0.5966666666666667,0.629762317619956,3.2726210086947907,-10.772921362926999
1589552544.604305,0.23844839126069703,-4.2646548262179085,8.747067696132333,0.4688888888888889,0.3466666666666667,-0.5966666666666667,-0.4978635798632691,0.7413288234450448,-5.694935638475881
1589552544.614305,0.24,-4.273448655210348,8.777070293236221,0.4688888888888889,0.3466666666666667,-0.5966666666666667,-1.6745950457114676,-3.0475015173931186,0.7932457038807321
1589552544.624305,0.23128959276018102,-4.278710407239819,8.8,0.46716943187531423,0.3470965309200603,-0.596236802413273,-3.076781674208145,-2.074519230769231,9.44181278280543
1589552544.634305,0.2464486991169866,-4.261775650441506,8.801775650441508,0.44222222222222224,0.3533333333333333,-0.59,2.071238329196846,-3.0636966266524843,1.8726742811798274
1589552544.644305,0.23228570463793075,-4.268857147681034,8.808857147681035,0.44222222222222224,0.3533333333333333,-0.59,5.346430802478515,0.9196455705819782,0.3678561177801416
1589552544.654305,0.22097144006436042,-4.251942880128721,8.694857200321803,0.44222222222222224,0.3533333333333333,-0.59,3.699994971842317,0.404640989541432,0.5749949718423171
1589552544.664305,0.23031612612243224,-4.269683873877567,8.742529008979458,0.44222222222222224,0.3533333333333333,-0.59,-0.23024211734798475,-0.9558074336791176,-3.3512905408175815
1589552544.674305,0.2389148796588626,-4.2610851203411375,8.8113190372709,0.44222222222222224,0.3533333333333333,-0.59,0.30717997867891267,1.9462718848661282,-2.706384025585305
1589552544.684305,0.20122304443103503,-4.26,8.851223044431034,0.4888888888888889,0.3333333333333333,-0.5811111111111111,4.1870375075427955,1.7396405659478513,-2.6438688982754788
1589552544.694305,0.20788341220186107,-4.26,8.857883412201861,0.4888888888888889,0.3333333333333333,-0.5811111111111111,0.4405806364531397,-3.422144456442342,2.01838854130276
1589552544.704305,0.22,-4.270531880352286,8.751063760704573,0.4888888888888889,0.3333333333333333,-0.5811111111111111,-2.6290053370672513,-7.040572111286984,5.297901700556029
1589552544.714305,0.22,-4.279043386501075,8.768086773002151,0.4888888888888889,0.3333333333333333,-0.5811111111111111,1.3075662567474327,-3.6891665652015098,-1.9368785259142012
1589552544.724305,0.22,-4.26239222456074,8.831627214037411,0.4888888888888889,0.3333333333333333,-0.5811111111111111,-2.321798070328943,1.6396868422919573,9.300321316243762
1589552544.734305,0.2116893855755582,-4.268310614424442,8.815068156726674,0.47688466805358415,0.3444141525659224,-0.5884983239328371,0.7608938106932834,4.597918966721492,-5.060432767050447
1589552544.744305,0.2234362529359451,-4.251145417645315,8.805109570610904,0.4744444444444445,0.3466666666666667,-0.59,0.6134215447061775,-1.8779886780835975,0.10956205960823662
1589552544.754305,0.24850465942934,-4.26,8.69299068114132,0.4744444444444445,0.3466666666666667,-0.59,-2.5712634498991256,5.761093164569123,-3.7815412143337497
1589552544.7643049,0.23,-4.26,8.733591531546669,0.4744444444444445,0.3466666666666667,-0.59,-4.901232882466605,-1.1163729732000336,-2.391550449466521
1589552544.7743049,0.23,-4.26,8.777638200453666,0.4744444444444445,0.3466666666666667,-0.59,-3.6899494875241534,-1.7770730068050073,0.47148302948836385
1589552544.7843049,0.2348101577357646,-4.28,8.854430473207293,0.4811111111111111,0.3533333333333333,-0.5966666666666667,-0.6134019465264572,0.16112960062646828,-1.7594921132117687
1589552544.7943048,0.2122288860045652,-4.28,8.775542227990869,0.4811111111111111,0.3533333333333333,-0.5966666666666667,2.1274672156827643,-0.7296664503423891,-1.5721199033254263
1589552544.8043048,0.22956416700761784,-4.278256668030472,8.742614997954293,0.4811111111111111,0.3533333333333333,-0.5966666666666667,-9.477453387106202,-1.8609272410232431,9.779812525571337
1589552544.8143048,0.22139244452237614,-4.2455697780895045,8.791645332865745,0.4811111111111111,0.3533333333333333,-0.5966666666666667,-3.1954417265766555,1.9184944084010365,9.166933339178211
1589552544.8243048,0.1885594885811742,-4.200699360726468,8.823580383564119,0.4811111111111111,0.3533333333333333,-0.5966666666666667,1.412057534617904,1.2852292236102012,0.268981962547155
1589552544.8343048,0.16684421407447453,-4.146844214074475,8.798422107037238,0.4811111111111111,0.3333333333333333,-0.5811111111111111,-2.7501669475625654,-7.562708684453207,7.82927028015391
1589552544.8443048,0.12683117626482654,-4.106831176264826,8.778415588132413,0.4811111111111111,0.3333333333333333,-0.5811111111111111,0.41753187903456634,-3.603085151206792,1.7022738655515637
1589552544.8543048,0.11,-4.080619209388511,8.685572884496603,0.4811111111111111,0.3333333333333333,-0.5811111111111111,1.046440704138357,-4.517217418159358,-1.578559295861643
1589552544.8643048,0.038430421668933706,-3.9686695448183413,8.759521753701184,0.4811111111111111,0.3333333333333333,-0.5811111111111111,0.8011956157470381,-6.72524493859286,-7.83763700790506
1589552544.8743048,0.0038345286885245883,-3.915751793032787,8.868910092213115,0.4811111111111111,0.3333333333333333,-0.5811111111111111,-0.866547131147541,-2.046738921618852,-1.5063156378073765
1589552544.8843048,0.022431159813388304,-3.9025229467288707,8.934862319626776,0.4719724904463974,0.33748725181729416,-0.5877573806854484,-1.25,1.7110054790061842,-0.4661684930020614
1589552544.8943048,0.12950438179013357,-3.87014868546296,8.969900876358027,0.4688888888888889,0.3388888888888889,-0.59,2.978936226080677,8.346192191551516,-2.740087635802672
1589552544.9043047,0.19725767886702228,-3.8411752804855617,8.74901048372264,0.4688888888888889,0.3388888888888889,-0.59,-3.485561890748575,-5.376793268346516,1.2133989332352404
1589552544.9143047,0.14049099110201868,-3.800327327401346,8.74,0.4688888888888889,0.3388888888888889,-0.59,1.2090840748317762,-5.565568694387617,-3.336129871090188
1589552544.9243047,0.12223574112021858,-3.7555893528005466,8.73111787056011,0.4688888888888889,0.3388888888888889,-0.59,-1.9697719219603829,2.653469731898907,-0.9324144040300548
1589552544.9343047,-0.37,-3.17,8.87,0.4888888888888889,0.3466666666666667,-0.6111111111111112,-5.25,-7.375,-5.625
1589552544.9443047,-0.32448861264437123,-3.118727677536064,8.852141101164246,0.4888888888888889,0.3466666666666667,-0.6111111111111112,-5.069970777865393,-6.9681339579757875,-4.771661487081961
1589552544.9543047,0.4157030645501653,-2.286445403174752,8.55386152078595,0.4888888888888889,0.3466666666666667,-0.6111111111111112,-2.2362599357546484,-0.44294268329855335,9.329452331824896
1589552544.9643047,0.2790040671387576,-2.4912449160765533,8.364108223052625,0.4888888888888889,0.3466666666666667,-0.6111111111111112,-5.697091066746496,-4.486248890311126,13.908980995932861
1589552544.9743047,0.20972975204905342,-2.577837809938683,8.649864772797654,0.4888888888888889,0.3466666666666667,-0.6111111111111112,-2.0168930776059626,0.8175658587443486,20.619930270247952
1589552544.9843047,0.09802032610672216,-2.72840098599802,9.192614107045442,0.4597518392050952,0.36042582901734704,-0.6005893987252967,2.051077930212353,0.014594235548461398,21.38039343947629
1589552544.9943047,0.1261721516048523,-2.752428270164645,9.120825739547662,0.4488888888888889,0.3655555555555556,-0.5966666666666667,1.1692616131715905,-1.1139345967071024,25.069148190067136
1589552545.0043046,0.24098399739912582,-2.8451919950872377,9.03196799479825,0.4488888888888889,0.3655555555555556,-0.5966666666666667,5.6851497308817684,3.265399794097461,32.27529982299606
1589552545.0143046,0.23131464059521614,-2.8771516120436984,9.0292637684724,0.4488888888888889,0.3655555555555556,-0.5966666666666667,-0.43487133370226894,-4.4320223308532665,33.986305827133165
1589552545.0243046,0.2828955297300621,-2.7653930189181986,8.608019840537827,0.4488888888888889,0.3655555555555556,-0.5966666666666667,-7.688433868289983,-4.217101959458074,33.449004898645185
1589552545.0343046,0.3797830653477447,-2.8052511171370735,8.639783065347745,0.4711428110690991,0.35251015289819093,-0.5721106146057451,0.5066312110911646,-3.496861035786579,24.483023335752208
1589552545.0443046,0.25029367653726764,-2.8104405148059013,8.906255624149837,0.4811111111111111,0.3466666666666667,-0.5611111111111111,5.099303302989083,0.644366258588818,20.851869048864707
1589552545.0543046,0.2795518119354051,-2.8543277179031077,8.533214397823585,0.4811111111111111,0.3466666666666667,-0.5611111111111111,2.5392164556520527,-3.652922378012626,31.00078476509365
1589552545.0643046,0.3597347498054606,-2.8711936258754274,8.695039753696248,0.4811111111111111,0.3466666666666667,-0.5611111111111111,0.0387936867747065,0.3338866427580607,27.67573036844064
1589552545.0743046,0.3455442027269344,-2.9350510877287954,8.964660148188246,0.4811111111111111,0.3466666666666667,-0.5611111111111111,-4.57313411374632,-5.209295809791251,20.358729531075547
1589552545.0843046,0.25798459563543,-3.005564113535872,8.814840964199115,0.4750358959729949,0.33451623639043404,-0.5803492923818127,0.003975895022107601,0.9974058622165174,24.733303023819712
1589552545.0943046,0.2857422715434266,-3.01,8.888291246744423,0.4744444444444445,0.3333333333333333,-0.5822222222222222,-1.4971973728909522,1.8125,15.6642226248443
1589552545.1043046,0.25527216355456095,-3.044727836445439,8.821862367997763,0.4744444444444445,0.3333333333333333,-0.5822222222222222,1.6142591556519101,-4.373395866843835,10.647380644334103
1589552545.1143045,0.23224782310928482,-3.005619557773212,8.827752176890716,0.4744444444444445,0.3333333333333333,-0.5822222222222222,-9.247488320614421,3.2307351286566863,5.0142246967028665
1589552545.1243045,0.23,-2.9531182641441767,8.856789563346185,0.4744444444444445,0.3333333333333333,-0.5822222222222222,-0.683272437909082,7.786771496458352,6.426075943692281
1589552545.1343045,0.21404259648646815,-3.081595333378553,8.917872210540596,0.4859692358708841,0.33776594542042554,-0.5937470136486619,2.5545258766872414,0.8730287254968445,-0.790536186664859
1589552545.1443045,0.21,-3.166543784762644,8.895092161428016,0.4888888888888889,0.3388888888888889,-0.5966666666666667,-0.8567112113568749,-2.6942686101409907,0.3976098661233993
1589552545.1543045,0.16520022291218853,-3.180800095533795,8.844400127378393,0.4888888888888889,0.3388888888888889,-0.5966666666666667,1.319978504896107,-2.247507165034631,8.309972335005174
1589552545.1643045,0.09649316300351768,-3.1264931630035178,8.769090428204924,0.4888888888888889,0.3388888888888889,-0.5966666666666667,0.4869872252638259,-0.24106198259673617,1.0502426670898473
1589552545.1743045,0.11133032542958625,-3.112889891523471,8.788440433906116,0.4888888888888889,0.3388888888888889,-0.5966666666666667,1.6886507631755783,-0.15137635595660937,2.8773015263511565
1589552545.1843045,0.04390560004527576,-3.094781120009055,8.891313279945669,0.4888888888888889,0.32958846222775595,-0.5966666666666667,3.1359439995472425,-2.089859998868106,8.00716099776451
1589552545.1943045,0.010939461155594027,-3.153423771910842,8.87469730577797,0.4888888888888889,0.32666666666666666,-0.5966666666666667,-2.061323306643583,2.5223098355334344,1.4294136144773857
1589552545.2043045,-0.014566818510792284,-3.1681889395035974,8.829055302482013,0.4888888888888889,0.32666666666666666,-0.5966666666666667,0.445852313849036,0.5034564051258035,0.21555302482012856
1589552545.2143044,0.01966945090408619,-3.1541322196383654,8.867603341084903,0.4888888888888889,0.32666666666666666,-0.5966666666666667,-1.3543406815053864,0.6317153908215083,5.480375872051635
1589552545.2243044,0.002053562044102498,-3.268772361312564,8.873013390511025,0.4888888888888889,0.32666666666666666,-0.5966666666666667,1.6679699817115465,1.074497855836539,4.604351916083328
1589552545.2343044,-0.051427328111401216,-3.3282854656222804,8.927998259355961,0.4888888888888889,0.3321903104148535,-0.6187612416594139,1.4893385552654483,-1.1945713664055702,11.962249782419496
1589552545.2443044,-0.009657248726262155,-3.2460954145437704,8.914828624363132,0.4888888888888889,0.3333333333333333,-0.6233333333333333,0.49571560907827694,4.60534390921723,13.163096340898564
1589552545.2543044,-0.016813453453453454,-3.2972538138138137,8.75867891891892,0.4888888888888889,0.3333333333333333,-0.6233333333333333,-2.7775225225225224,2.765061561561562,15.11163963963964
1589552545.2643044,-0.02,-3.3848854799943444,8.821526697770866,0.4888888888888889,0.3333333333333333,-0.6233333333333333,6.453719249257739,3.747614166548848,9.415554750459494
1589552545.2743044,-0.007793924308026716,-3.3450726593861204,8.797278735078093,0.4888888888888889,0.3333333333333333,-0.6233333333333333,5.576701009693761,1.3161329693060106,10.857579057619157
1589552545.2843044,-0.02233338054099986,-3.3825834867582496,8.853750177028749,0.4888888888888889,0.33643519174180553,-0.6282963067868889,3.470832743237502,-4.310945687579663,20.100015932587453
1589552545.2943044,0.013546027230237762,-3.2640630533863617,8.774660783232212,0.4888888888888889,0.3388888888888889,-0.6322222222222222,-0.3834804191947052,-1.3988808894823936,15.44891245972073
1589552545.3043044,0.02331793413882966,-3.3169130537787255,8.836913053778726,0.4888888888888889,0.3388888888888889,-0.6322222222222222,-3.254042288557214,-0.06365493958777546,19.454246624022744
1589552545.3143044,0.013341192052980132,-3.4099528476821193,8.8234119205298,0.4888888888888889,0.3388888888888889,-0.6322222222222222,-0.12971523178807942,-0.3957350993377483,16.819867549668874
1589552545.3243043,0.0036114136353735567,-3.500274450010891,8.873051622740144,0.4888888888888889,0.3388888888888889,-0.6322222222222222,-5.591660313657156,-2.5936478980614246,12.729212045306033
1589552545.3343043,-0.018882987963767216,-3.5462943293212557,8.88852835339372,0.4888888888888889,0.33539203926596906,-0.6546020598089093,-4.659017868221864,-0.03590240724655658,11.558067067874426
1589552545.3443043,-0.02372187616214206,-3.568834371513574,8.939059362216437,0.4888888888888889,0.3333333333333333,-0.6677777777777778,2.2203508506879883,-2.050233590554109,10.873593808107103
1589552545.3543043,0.004462725711805882,-3.516396913149305,8.857686371440971,0.4888888888888889,0.3333333333333333,-0.6677777777777778,2.2983546859374706,-1.3211888431857206,10.381715928602427
1589552545.3643043,0.00027459131060393605,-3.52728606259243,8.771615572165155,0.4888888888888889,0.3333333333333333,-0.6677777777777778,1.4862704344698028,-0.9843543906630958,11.994651564810743
1589552545.3743043,-0.007758229066410011,-3.54327468719923,8.82448354186718,0.4888888888888889,0.3333333333333333,-0.6677777777777778,-0.17788739172281076,-2.4504114533205006,12.164833974975938
1589552545.3843043,0.0,-3.449754289193739,8.871220315913895,0.48281827190563176,0.3333333333333333,-0.6608399297969125,-2.265253948923672,3.30349179770049,13.92536892438841
1589552545.3943043,0.01675908378372055,-3.3545841229732574,8.821343206756978,0.4811111111111111,0.3333333333333333,-0.6588888888888889,-3.4224427364825343,-1.89113351348822,16.615141199316817
1589552545.4043043,-0.07235752399115422,-3.503401773215119,8.838417699689586,0.4811111111111111,0.3333333333333333,-0.6588888888888889,0.9928761995577107,0.2759071496682828,13.847411440686564
1589552545.4143043,-0.14986697082482892,-3.6165114659623003,8.776910553487813,0.4811111111111111,0.3333333333333333,-0.6588888888888889,4.370011405931084,1.853612378436787,15.261826149597791
1589552545.4243042,-0.2063982214510357,-3.6521327404836788,8.75213274048368,0.4811111111111111,0.3333333333333333,-0.6588888888888889,2.622622275241297,-0.03407032859776615,18.21742218848281
1589552545.4343042,-0.21436989134359716,-3.6521849456717987,8.853780651938418,0.4715593780433094,0.32812329711453236,-0.6684406219566906,0.12080638807733968,3.6695971342284084,13.43755334340019
1589552545.4443042,-0.20193476869628818,-3.585478149570305,8.928391387822272,0.4688888888888889,0.32666666666666666,-0.6711111111111111,-0.42744617388919365,-0.8856080864874754,19.020800477692447
1589552545.4543042,-0.2179660835032736,-3.504124360487997,8.652542663947623,0.4688888888888889,0.32666666666666666,-0.6711111111111111,0.17372813137275944,1.355575381918357,19.70197846230904
1589552545.4643042,-0.19820388349514562,-3.4472815533980583,8.74616504854369,0.4688888888888889,0.32666666666666666,-0.6711111111111111,-0.24939320388349506,3.971480582524272,23.252730582524272
1589552545.4743042,-0.18615840355477273,-3.4276831928904543,8.811465543123637,0.4688888888888889,0.32666666666666666,-0.6711111111111111,-1.5967804887812493,3.6006197333920458,26.765220622085227
1589552545.4843042,-0.23614292475153809,-3.566119261713204,8.842285849503076,0.48426986380606823,0.33093915969921645,-0.6933280748803702,-4.2398840511121625,-6.348674869853289,29.88884287742546
1589552545.4943042,-0.22645716456941062,-3.531523881898035,8.877847611810196,0.4888888888888889,0.3322222222222222,-0.7,1.1088040052748047,-2.3342920922643664,23.12072120649963
1589552545.5043042,-0.2252812826882845,-3.488874869246862,8.827187173117155,0.4888888888888889,0.3322222222222222,-0.7,-0.5508016801778242,-2.1539168736924688,29.90864850287657
1589552545.5143042,-0.28381860101280415,-3.5399641813166456,8.812291160607682,0.4888888888888889,0.3322222222222222,-0.7,-3.567273251266005,-0.39111068796574555,35.89521233891885
1589552545.5243042,-0.3733806042732093,-3.633740469990274,8.854460201424402,0.4888888888888889,0.3322222222222222,-0.7,-0.8534613936560724,3.2207609104885013,34.49100335707338
1589552545.5343041,-0.42703401521422096,-3.677034015214221,8.855931969571557,0.48615343852780296,0.3271421001230626,-0.7125049159363928,-0.4248305151550986,0.7213427732450435,40.179380493476806
1589552545.5443041,-0.4787894309767725,-3.69,8.842929810325591,0.4811111111111111,0.31777777777777777,-0.7355555555555555,-2.700660563951719,-3.013160563951719,50.10668868546506
1589552545.5543041,-0.5132215874215025,-3.7098323811322538,8.764059681760234,0.4811111111111111,0.31777777777777777,-0.7355555555555555,-2.283984135228292,-3.092293663534633,56.05353180036829
1589552545.564304,-0.5138266162418601,-3.73234676751628,8.76938707006512,0.4811111111111111,0.31777777777777777,-0.7355555555555555,0.33669187906997555,-4.815674860697742,52.02560867813906
1589552545.574304,-0.48843302369997393,-3.7561752322250195,8.821566976300026,0.4811111111111111,0.31777777777777777,-0.7355555555555555,-1.0524432459414883,-6.347356812657349,49.208824822033165
1589552545.584304,-0.4658677521050321,-3.699751785785546,8.852396743684903,0.5091185690658934,0.29665739964794197,-0.7355555555555555,-5.243807115208109,-5.084702601859611,52.473664651422645
1589552545.594304,-0.47012397528570854,-3.5746900617857285,8.854814037071437,0.5488888888888889,0.26666666666666666,-0.7355555555555555,-1.1447522513427293,0.15366928482009445,62.274282699995965
1589552545.604304,-0.5185651512904182,-3.605093073272026,8.768379004746366,0.5488888888888889,0.26666666666666666,-0.7355555555555555,3.5792721929694453,-1.48788147063186,62.473031694971816
1589552545.614304,-0.5948416990859348,-3.6612104247714834,8.794078185786129,0.5488888888888889,0.26666666666666666,-0.7355555555555555,2.064478761425815,-2.5855453553468073,65.54794888825631
1589552545.624304,-0.6411330303451287,-3.6755665151725645,8.882266060690258,0.5488888888888889,0.26666666666666666,-0.7355555555555555,-1.8540719828527203,-2.3987102327981424,68.10990434040527
1589552545.634304,-0.6771756910366242,-3.674564861792675,8.829343203304777,0.5621747822845719,0.23043241195116768,-0.7319321300840057,-4.964696137957803,0.5138536554936373,66.98655528292994
1589552545.644304,-0.6679449435092222,-3.6123008983166,8.8276991016834,0.5733333333333334,0.2,-0.7288888888888889,-3.5671095342341665,-0.870758473616668,73.34027672932237
1589552545.654304,-0.6398813766884174,-3.478813766884173,8.733517208605216,0.5733333333333334,0.2,-0.7288888888888889,-2.435275812907825,-2.803603251631299,77.23469000749392
1589552545.664304,-0.6432956875798734,-3.4376146461794512,8.729661188218861,0.5733333333333334,0.2,-0.7288888888888889,-3.524170059737867,-4.472343373852052,80.7784479299789
1589552545.674304,-0.66,-3.503030421333974,8.883484789333014,0.5733333333333334,0.2,-0.7288888888888889,-3.295485600168173,-6.868381933391393,80.7093287335956
1589552545.684304,-0.66,-3.490434547584012,8.889782726207995,0.5733333333333334,0.2,-0.7288888888888889,0.010931259196972576,-5.726880874801045,75.55289291720472
1589552545.694304,-0.5014603209316312,-3.4446349197670925,8.87,0.5666666666666667,0.11555555555555555,-0.7211111111111111,0.844444520379432,-5.51031785626418,74.82896859025178
1589552545.704304,-0.48,-3.430770324415148,8.913266770065917,0.5666666666666667,0.11555555555555555,-0.7211111111111111,1.3364837792426005,-1.5601815949334366,68.15290568049632
1589552545.714304,-0.4430080099541177,-3.3360160199082354,8.79353604479353,0.5666666666666667,0.11555555555555555,-0.7211111111111111,4.224599502294113,-2.0182994400808774,57.63870149311766
1589552545.724304,-0.4771035853676275,-3.198597609754915,8.815890039029357,0.5666666666666667,0.11555555555555555,-0.7211111111111111,5.6682171341300815,-2.5741633536156696,51.251752987806356
1589552545.734304,-0.5458384491114702,-3.0584458804523424,9.01167689822294,0.5495580685693772,0.07856399210195655,-0.6855067312870221,2.7631663974151857,-0.18826736672051692,49.25773424878837
1589552545.744304,-0.5811520756100542,-2.907137735772192,8.785094716258605,0.5255555555555556,0.02666666666666667,-0.6355555555555555,1.0538915142379925,-1.4272594410722288,42.85992687497454
1589552545.754304,-0.6675344262295082,-2.9336206088992975,8.878533957845432,0.5255555555555556,0.02666666666666667,-0.6355555555555555,0.87327868852459,0.8883548009367681,36.3751112412178
1589552545.764304,-0.8227312486983428,-3.097617446669245,8.811806253904972,0.5255555555555556,0.02666666666666667,-0.6355555555555555,-3.81828121745857,-2.320551679509684,37.09170732795811
1589552545.774304,-0.94,-3.21,8.687311093673786,0.5255555555555556,0.02666666666666667,-0.6355555555555555,-5.058697219689098,-5.417351494072488,45.843842120331686
1589552545.784304,-0.94,-3.146610486891386,9.089185393258427,0.5156949646275489,0.05343112775697045,-0.6101997503121098,-1.089419475655431,-5.350830992509364,43.218047752808985
1589552545.794304,-0.94,-3.1856570188435134,9.05238121074268,0.51,0.06888888888888889,-0.5955555555555555,-2.462138206631748,-6.422501356399073,40.9335677469168
1589552545.804304,-0.921816931349256,-3.157267725397024,8.77816931349256,0.51,0.06888888888888889,-0.5955555555555555,-0.4883862698511945,-4.422244279104664,42.09847442791047
1589552545.8143039,-0.9298876276527087,-3.1050280930868226,8.635140465434114,0.51,0.06888888888888889,-0.5955555555555555,-1.6053348392240232,-5.270890674234083,40.104460489351204
1589552545.8243039,-0.9784503628246628,-3.133192089962107,8.721430587729929,0.51,0.06888888888888889,-0.5955555555555555,-5.302814767654143,-6.04329349677063,37.1947008805977
1589552545.8343039,-1.0556662013101576,-3.223277234861851,9.023859288464784,0.51,0.06888888888888889,-0.5955555555555555,-5.785413758188485,-3.107482971020051,34.500189850114296
1589552545.8443038,-0.9926544442859181,-3.2974507775716932,8.726938222285634,0.5333333333333333,0.09,-0.5788888888888889,-3.341819446426024,-1.1428208374946498,37.85208749464974
1589552545.8543038,-0.9174786835604432,-3.223654076021994,8.864701569846202,0.5333333333333333,0.09,-0.5788888888888889,-5.847365825962228,-1.2091202486253882,30.341581002470317
1589552545.8643038,-0.9237807870849473,-3.2426847225096833,9.027561574169894,0.5333333333333333,0.09,-0.5788888888888889,-5.37780890570947,3.2842520179769967,23.059421291505277
1589552545.8743038,-0.934114108286435,-3.1881331263341743,9.032152144381913,0.5333333333333333,0.09,-0.5788888888888889,1.979041335144576,1.3682442266640793,21.699543954977685
1589552545.8843038,-0.932870958661734,-3.1129007157793147,8.831521031043913,0.5346027022679749,0.09856824030883063,-0.5773021777205869,2.1432689601093777,-5.954885545681197,19.856312580424643
1589552545.8943038,-0.8512499122745456,-2.862749666643273,8.446248157765458,0.5377777777777778,0.12,-0.5733333333333334,-0.09062916695908485,-6.551582567197698,26.57655361779774
1589552545.9043038,-0.9242734349379499,-2.986008595543435,8.961821116039836,0.5377777777777778,0.12,-0.5733333333333334,0.3790626024820063,-1.136264390631203,27.11549829987745
1589552545.9143038,-0.988620800456996,-2.9551711949730444,8.43137598629012,0.5377777777777778,0.12,-0.5733333333333334,-1.5431602342104322,-8.077559891463459,22.055919525866685
1589552545.9243038,-1.094390220677506,-3.21099364391649,8.952673840074274,0.5377777777777778,0.12,-0.5733333333333334,1.9747065965196278,-6.8150977813221605,28.484474313804842
1589552545.9343038,-1.1224665128404903,-3.148363549189416,8.8158077372569,0.5371873449668542,0.12708519373108387,-0.5810089598753408,2.477015971951695,-4.803388421084175,24.265415705253066
1589552545.9443038,-1.045592991001962,-2.9934316013801503,8.486778973005887,0.5366666666666666,0.13333333333333333,-0.5877777777777777,-1.1442994807523172,-5.30377152256275,22.144341764765578
1589552545.9543037,-1.0715757412580353,-3.0731514825160704,8.730545552451789,0.5366666666666666,0.13333333333333333,-0.5877777777777777,-4.971588614411201,-3.2642677447581865,20.375
1589552545.9643037,-0.9950571703246129,-2.9157464869398027,8.92758575548692,0.5366666666666666,0.13333333333333333,-0.5877777777777777,2.5675433124015625,0.49356833848104875,19.610625600850906
1589552545.9743037,-0.9900370507595405,-2.8900648388291956,8.886691367173027,0.5366666666666666,0.13333333333333333,-0.5877777777777777,4.207831604297888,5.187152649129307,21.02305251945165
1589552545.9843037,-1.0365141710701065,-2.9965141710701064,8.731643731102885,0.5436945566889899,0.13250652274247177,-0.585297346005193,1.6832490321851423,1.3214575856904687,21.83605781457515
1589552545.9943037,-1.0026199761424115,-3.003335933198752,8.61524775188108,0.5555555555555556,0.13111111111111112,-0.5811111111111111,-2.785797852817031,-4.389899522848229,17.217347793173058
1589552546.0043037,-0.9987720586647083,-3.0409650733308853,8.962455882670584,0.5555555555555556,0.13111111111111112,-0.5811111111111111,-0.004681728837721444,-0.08253099552886756,14.626665874678704
1589552546.0143037,-0.8542993821008571,-3.010760912896153,9.06,0.5555555555555556,0.13111111111111112,-0.5811111111111111,4.876429514650189,4.402546965317919,2.352650986645405
1589552546.0243037,-0.5436131463261461,-2.9327799874398157,8.814448398576513,0.5555555555555556,0.13111111111111112,-0.5811111111111111,2.269036529202428,-0.16321697718233197,-7.838510048147373
1589552546.0343037,-0.7510466428437088,-3.2617039684032347,8.779285311265753,0.5595887405178359,0.12556548178797566,-0.5841359998328214,7.71809173406056,-1.4307997931164196,-5.896058632687606
1589552546.0443037,-0.9964630769866523,-3.727118062729865,8.98139757841233,0.5644444444444444,0.11888888888888888,-0.5877777777777777,3.147382123228233,-6.728984152237696,-2.350980412413736
1589552546.0543036,-0.7670564398926257,-3.593376989758408,8.852049686255066,0.5644444444444444,0.11888888888888888,-0.5877777777777777,-1.1102146630875238,-5.512076401593516,-6.1571107682049
1589552546.0643036,-0.8294730534292121,-3.7612325059924223,9.133051496172582,0.5644444444444444,0.11888888888888888,-0.5877777777777777,-3.83834473826645,-1.3997284079486585,-8.704339190443052
1589552546.0743036,-0.393969465648855,-3.3603955586398335,8.511082581540595,0.5644444444444444,0.11888888888888888,-0.5877777777777777,-1.6434767522553784,-3.398638098542679,-24.651066967383763
1589552546.0843036,-0.19729965725477397,-3.1266002937816224,8.549448751428105,0.5631444607656456,0.11650558547775783,-0.5877777777777777,1.8962481638648605,3.9343734698873836,-42.116546127795004
1589552546.0943036,-0.30647346446317725,-2.9841550380213047,8.963526535536824,0.5577777777777778,0.10666666666666667,-0.5877777777777777,0.8248956200092079,4.128928140528012,-49.81428894603991
1589552546.1043036,-0.3038847243045144,-2.904370314842579,8.952518740629685,0.5577777777777778,0.10666666666666667,-0.5877777777777777,-1.9465059137098117,3.3136348492420455,-55.0245762535399
1589552546.1143036,-0.4947189879679853,-3.19244527288468,8.768582130426331,0.5577777777777778,0.10666666666666667,-0.5877777777777777,0.33067942896517577,-0.21286484743546707,-75.33007539885864
1589552546.1243036,-0.7500049938311497,-3.603045649491804,9.033035661829505,0.5577777777777778,0.10666666666666667,-0.5877777777777777,-6.385788144057341,2.7799482991598614,-79.56544672757182
1589552546.1343036,-0.9662386190200516,-3.699743171412031,8.742734066628072,0.5888115830160986,0.07888058523235619,-0.5877777777777777,-0.7704002420925216,6.4224843429293195,-87.81627940634704
1589552546.1443036,-0.9738565694407278,-3.715642761573455,8.98607572919454,0.6533333333333333,0.021111111111111112,-0.5877777777777777,1.9463807867273215,6.880751605565962,-87.1821715279636
1589552546.1543036,-1.067242027503875,-3.850997922369159,9.071490287900273,0.6533333333333333,0.021111111111111112,-0.5877777777777777,-0.18720525673581112,2.6518463707416813,-87.67135919928766
1589552546.1643035,-1.321377888951522,-4.135170518602029,8.778065459413755,0.6533333333333333,0.021111111111111112,-0.5877777777777777,0.5845502748027058,0.7314287979143179,-84.208766382469
1589552546.1743035,-1.3912356459579434,-4.2348631807098345,8.808923160285934,0.6533333333333333,0.021111111111111112,-0.5877777777777777,-6.8390888439655715,2.265941843986412,-69.52929162411688
1589552546.1843035,-1.285963411913438,-4.068990852978359,8.362404253736893,0.698886988423688,-0.036630144683242036,-0.546819447543029,-7.33749628169852,-2.004931397337696,-66.86547650033465
1589552546.1943035,-1.441920130884212,-4.107980032721053,9.196772700230534,0.8964321657866686,-0.28702732125298497,-0.36920207315964737,-2.025220541756525,-2.297350245407898,-59.50626882390124
1589552546.2043035,-1.124427872062663,-3.771402088772846,8.682324738903393,0.9066666666666666,-0.3,-0.36,1.9916897845953003,1.0066987597911228,-45.256219402741515
1589552546.2143035,-1.049138544386423,-3.7166462140992165,8.689169223237597,0.9066666666666666,-0.3,-0.36,-1.3449963283289819,5.62672568537859,-41.962311316906
1589552546.2243035,-1.054055308944334,-3.8928225929894382,9.001232715954895,0.9066666666666666,-0.3,-0.36,-0.8006913618041737,0.10051852135313022,-33.02772143986938
1589552546.2343035,-0.9399188734119088,-3.74301852135313,9.036900352058778,0.9066666666666666,-0.3,-0.36,0.6260140823511404,-0.9695105617633553,-37.084915046686056
1589552546.2443035,-0.967298142357918,-3.775947213536877,8.901838513886334,1.4355555555555557,0.30666666666666664,-0.31222222222222223,0.5844330513150634,3.0577053062350563,-28.691246321500827
1589552546.2543035,-0.8901544969652382,-3.6602317454478572,8.840123597572191,1.4355555555555557,0.30666666666666664,-0.31222222222222223,2.995171969836307,8.988123045797316,-25.94300395438661
1589552546.2643034,-0.8324308405263903,-3.8255490307060986,9.030108957124664,1.4355555555555557,0.30666666666666664,-0.31222222222222223,-2.2233864263478136,-6.893283704188482,-21.64029777486911
1589552546.2743034,-0.5300746384699114,-3.5609703001088477,8.445747162183174,1.4355555555555557,0.30666666666666664,-0.31222222222222223,-2.4589488415487484,-5.126856243197015,-31.842812159850723
1589552546.2843034,-0.5266257668711657,-3.6855419222903887,9.152044989775051,1.2921540558963873,0.2940354464894342,-0.3793410588502613,0.9938650306748467,3.271855828220859,-25.93251533742331
1589552546.2943034,-0.473910351443272,-3.706537891340368,8.929701171477573,0.7922222222222223,0.25,-0.6133333333333333,-4.553708467777099,3.397185038225633,-22.457497601813902
1589552546.3043034,-0.44688838903170525,-3.890450942587832,8.881116109682948,0.7922222222222223,0.25,-0.6133333333333333,1.9029027420736933,-0.7652902742073693,-32.019588153384746
1589552546.3143034,-0.38035660352364553,-3.87367916280302,8.869611074314479,0.7922222222222223,0.25,-0.6133333333333333,3.106361769770831,-0.6781808848854153,-36.787680487481786
1589552546.3243034,-0.21,-3.618269197584124,8.670168248490079,0.7922222222222223,0.25,-0.6133333333333333,0.9839247195858498,-1.2573608714408973,-44.59915875754961
1589552546.3343034,-0.22743516550258122,-3.7358117218341937,8.821364105678713,0.7389481054087796,0.249677126564767,-0.6236652832607888,-3.0607899331916184,-2.024134527786213,-45.5939606741573
1589552546.3443034,-0.2511116306491289,-3.7575553477403485,8.936891174856168,0.6088888888888889,0.2488888888888889,-0.6488888888888888,-6.361192288926386,4.1291510805261336,-53.88041787798085
1589552546.3543034,-0.23909928731487878,-3.815838289555709,8.822919144777854,0.6088888888888889,0.2488888888888889,-0.6488888888888888,-1.7626152005795832,2.961578395363335,-61.910133017707615
1589552546.3643034,-0.3097663134129699,-3.9854391521911277,8.907719576095564,0.6088888888888889,0.2488888888888889,-0.6488888888888888,-2.7342868094283355,-4.811794475426684,-61.11512897410409
1589552546.3743033,-0.09661695514072664,-3.8263932532739964,8.59940346168872,0.6088888888888889,0.2488888888888889,-0.6488888888888888,-1.1052541062966046,-2.1967349209314966,-67.81156790888862
1589552546.3843033,-0.12511422893346696,-3.983128259134068,8.941370747201603,0.6088888888888889,0.2488888888888889,-0.6488888888888888,-0.48187624208041036,9.068593625261155,-68.3458917925025
1589552546.3943033,-0.16593435728652406,-3.9485010970927044,8.721498902907296,0.5911111111111111,0.28444444444444444,-0.6488888888888888,-1.1704322088133114,0.0966355823733771,-79.29581504845493
1589552546.4043033,-0.2885247634263242,-4.076209167998034,8.642418335996068,0.5911111111111111,0.28444444444444444,-0.6488888888888888,0.41947124247265544,-0.9495191716848961,-77.49538988570727
1589552546.4143033,-0.35,-4.149574382286091,8.769574382286091,0.5911111111111111,0.28444444444444444,-0.6488888888888888,8.527404181025002,4.178465704963707,-78.12792360143706
1589552546.4243033,-0.35,-4.226455018696385,8.846455018696386,0.5911111111111111,0.28444444444444444,-0.6488888888888888,-0.9385241769924484,-3.22129554952709,-79.85773792066867
1589552546.4343033,-0.3443180151552188,-4.238183818137375,8.493289538010266,0.5827149705315191,0.28636356229120835,-0.6522473451207257,-2.0412108897580055,3.1563187484722564,-77.34669090686873
1589552546.4443033,-0.36,-4.05,9.05,0.5522222222222222,0.2933333333333333,-0.6644444444444444,-0.375,-3.3125,-67.9375
1589552546.4543033,-0.509513486882621,-4.040032434207825,8.561589276183438,0.5522222222222222,0.2933333333333333,-0.6644444444444444,-2.493107730837131,0.42533717206552524,-69.05885115161966
1589552546.4643033,-0.44921301001887615,-4.074735422846357,8.785780248501318,0.5522222222222222,0.2933333333333333,-0.6644444444444444,4.012891783691842,5.7563616233483375,-66.13169869733868
1589552546.4743032,-0.3566746894980525,-3.8657108473579775,8.84679503196884,0.5522222222222222,0.2933333333333333,-0.6644444444444444,4.022738755787462,3.58192589292276,-68.99653326412876
1589552546.4843032,-0.30273168222238556,-3.8888292790475494,7.9837069155581695,0.5522222222222222,0.2933333333333333,-0.6644444444444444,-8.788725472183435,-6.9658585654442575,-52.28383368854266
1589552546.4943032,-0.2606336451945029,-3.8613595057970365,9.351808720175477,0.5422222222222223,0.31555555555555553,-0.6766666666666666,2.938364519450289,6.4375,-43.42417828685259
1589552546.5043032,-0.24271216775098556,-4.109887537185285,9.271329237913271,0.5422222222222223,0.31555555555555553,-0.6766666666666666,-62.84399109971703,-10.021968038793624,-179.9767093138559
1589552546.5143032,-1.785680354267311,-3.174102254428342,6.873238727858293,0.5422222222222223,0.31555555555555553,-0.6766666666666666,-227.31715479066023,-61.99080364331723,-523.609752415459
1589552546.5243032,-6.052558816454174,3.260782535482319,1.8298354582631706,0.5422222222222223,0.31555555555555553,-0.6766666666666666,-198.2471959947077,-70.60304757036324,-473.0813567476546
1589552546.5343032,-0.10883291219204043,-5.340046588755528,7.129224968414403,0.5391990857724434,0.3194563767810767,-0.6730584070330595,-126.10760818066962,85.25700558670246,-389.3438363668667
1589552546.5443032,-1.1355487997473153,-3.1706952779532536,5.895509909981048,0.510679200007019,0.35625622938162416,-0.6390185433775531,-91.7457458149084,147.822504984602,-363.10669145807015
1589552546.5543032,-1.4550713389413024,-2.5834442533810478,6.533892271227401,0.5077777777777778,0.36,-0.6355555555555555,-34.498867174792025,204.5592874238974,-333.2887222893526
1589552546.5643032,-5.650404532691536,-3.7614939831528282,19.829598275170476,0.5077777777777778,0.36,-0.6355555555555555,144.73823204973928,0.7477762735659848,-300.6974177697553
1589552546.5743032,-1.3686181307661451,-1.4649759326113112,1.4153931006819072,0.5077777777777778,0.36,-0.6355555555555555,144.52792819895708,-0.4088949057360609,-276.30217107902126
1589552546.5843031,-1.1665468556061231,-2.4562737898220934,7.110200661977658,0.5036967889486508,0.36585988139566955,-0.6345091481634717,238.5810502430699,74.54008714315268,-221.96135123603642
1589552546.5943031,-1.0870107571369467,-0.9884712453454694,14.485366156392221,0.4096995816668965,0.5008302303130603,-0.6104073001425091,-34.50795148944974,-19.547502068680174,-134.69759774513858
1589552546.6043031,0.07446217904233171,-0.9240256135259606,3.409122873425441,0.37777777777777777,0.5466666666666666,-0.6022222222222222,-30.539158938447628,-2.3262583328076043,-80.30550517317519
1589552546.614303,8.22438584316447,-9.04748848653082,7.598748133661388,0.37777777777777777,0.5466666666666666,-0.6022222222222222,20.12223072151074,-18.312986299497403,-57.15231294555548
1589552546.624303,2.5847202348192995,-1.4084965042092175,10.135979127173403,0.37777777777777777,0.5466666666666666,-0.6022222222222222,8.70957291220775,10.021198964512118,-46.41084077335453
1589552546.634303,3.1243601765974196,-1.4186864711317977,8.866974571340565,0.37692749390617214,0.5467161017754809,-0.6025386069186336,-5.8876587152195485,-6.7368642835141515,-27.061811235839695
1589552546.644303,3.61,-3.5,8.53,0.2822222222222222,0.5522222222222222,-0.6377777777777778,6.625,1.6875,-13.0625
1589552546.654303,3.2642666473932733,-3.5978883588705792,8.613309241591981,0.2822222222222222,0.5522222222222222,-0.6377777777777778,4.151756890238026,1.7135341379974944,-12.567851378047605
1589552546.664303,1.958773158771951,-3.9436805236841472,8.769889852411893,0.2822222222222222,0.5522222222222222,-0.6377777777777778,-2.1931024903983185,0.003036003285103339,-7.822515338534747
1589552546.674303,1.9725480042715238,-3.8693911063649735,8.357067961556284,0.2822222222222222,0.5522222222222222,-0.6377777777777778,6.20301449698777,-6.461738882956217,2.0841334045253976
1589552546.684303,1.9022617262797172,-3.9484921824801886,9.001707003641036,0.2814264296423217,0.5537719235620284,-0.6372332881178459,-3.8894035125294497,-6.378734739772971,0.9174073677446991
1589552546.694303,1.9512615121010923,-3.915825658599272,8.822041122295994,0.2641857642607268,0.5873458508840818,-0.6254370433830704,1.2147408438637823,-2.3975021417862497,1.836153351895481
1589552546.704303,1.9994347341018965,-3.9888694682037933,8.760423949423577,0.2611111111111111,0.5933333333333334,-0.6233333333333333,-0.9558386017106733,0.5307037932316843,0.7676645593157307
1589552546.714303,1.9452372668619118,-3.871347411534142,8.42229647898179,0.2611111111111111,0.5933333333333334,-0.6233333333333333,-1.4563561094840685,-2.4038147116464446,0.5218219452579658
1589552546.724303,1.928487276154571,-3.8845381715362866,8.896720075400566,0.2611111111111111,0.5933333333333334,-0.6233333333333333,1.8214538171536288,0.9942271442035815,-1.401272384542884
1589552546.734303,1.9208850503878778,-3.9073448488363662,8.729471108533314,0.2611111111111111,0.5933333333333334,-0.6233333333333333,3.436926792575944,1.2793106104545784,-2.161494961212209
1589552546.744303,1.9465653560804272,-3.8900759829396794,8.796337407261388,0.2751317157091144,0.5911195536599644,-0.6329263785845987,0.553380703200602,1.0634497867459949,-1.7518995734919895
1589552546.754303,1.9999741557546518,-3.9279689869055825,8.584165403170227,0.2822222222222222,0.59,-0.6377777777777778,-0.7001938318401102,0.23795227429359067,-1.2001938318401102
1589552546.764303,1.9585603235336853,-3.9679844529471597,8.749712064706737,0.2822222222222222,0.59,-0.6377777777777778,0.6240283091974621,5.250342059379086,-1.9065648157117256
1589552546.774303,1.9107352294091764,-3.897426697067883,8.744778991159647,0.2822222222222222,0.59,-0.6377777777777778,-3.829485679427177,-1.0211433457338293,-6.946252850114004
1589552546.784303,1.927513100524021,-3.8387041481659265,8.853835153406136,0.2822222222222222,0.59,-0.6377777777777778,-8.495831083243331,-0.07738809552382087,-1.441013890555622
1589552546.794303,1.9510678406140647,-3.938932159385935,8.654660796929676,0.26666666666666666,0.5822222222222222,-0.6022222222222222,2.355528276329157,-2.3278092899875835,1.4175555931820747
1589552546.804303,1.957831422443681,-3.932168577556319,8.620842887781594,0.26666666666666666,0.5822222222222222,-0.6022222222222222,5.399140099656524,5.492582200506346,-3.0633173689387707
1589552546.814303,1.94,-3.928725897920605,8.586051984877127,0.26666666666666666,0.5822222222222222,-0.6022222222222222,3.980092155009452,-0.8153296313799623,-4.854253308128545
1589552546.824303,1.9392262794079562,-3.8896131397039784,8.769226279407956,0.26666666666666666,0.5822222222222222,-0.6022222222222222,3.3097173250463157,-8.380315095918245,3.353239108348772
1589552546.834303,1.9058048965118826,-3.8729024482559415,8.735804896511883,0.26666666666666666,0.5822222222222222,-0.6022222222222222,0.48978814319010366,-3.2104449291818566,2.413262714396701
1589552546.844303,1.9218194409468647,-3.906365734911441,8.751819440946864,0.2698991764365726,0.5983847710717517,-0.6111116240894634,-1.0000577100646353,3.960589272223622,-7.068719571056828
1589552546.854303,1.93,-3.9278646526664676,8.69708277866826,0.27111111111111114,0.6044444444444445,-0.6144444444444445,5.260800687331903,2.085249191773751,0.8904004455432091
1589552546.8643029,1.959889502762431,-3.9449447513812155,8.65011049723757,0.27111111111111114,0.6044444444444445,-0.6144444444444445,3.653228591160221,-1.3976174033149174,-0.5768301104972382
1589552546.8743029,1.9530760669968281,-3.8992282009904846,8.718978354014801,0.27111111111111114,0.6044444444444445,-0.6144444444444445,3.3461966501585887,-4.4440244004229035,-6.673306994602415
1589552546.8843029,1.9213061252069326,-3.866231291597689,8.798693874793067,0.27111111111111114,0.6044444444444445,-0.6144444444444445,0.49489847629987516,-2.9939630561843305,2.352974340349336
1589552546.8943028,1.9338989114128553,-3.899025272146786,8.761949455706427,0.2577777777777778,0.6044444444444445,-0.6144444444444445,-2.113267877062738,-3.7245042697234294,-4.6349290302727235
1589552546.9043028,1.9661664807477786,-3.8909583798130556,8.778083240373888,0.2577777777777778,0.6044444444444445,-0.6144444444444445,2.12185059814594,0.10726958879870807,2.5244379159133743
1589552546.9143028,1.9327832041083475,-3.9272167958916526,8.640437015406304,0.2577777777777778,0.6044444444444445,-0.6144444444444445,-3.7716367938777573,0.09729005135434499,-6.336257677978049
1589552546.9243028,1.93,-3.889813538473554,8.68149169221157,0.2577777777777778,0.6044444444444445,-0.6144444444444445,0.6316884530526974,-4.1059230821797446,-0.309738465743796
1589552546.9343028,1.93,-3.881624265380635,8.747005876954917,0.2577777777777778,0.6044444444444445,-0.6144444444444445,6.415362574926293,-0.523116104027959,2.5565071167776323
1589552546.9443028,1.9110200107250712,-3.851530016087607,8.84540995173718,0.2577777777777778,0.6044444444444445,-0.6218255513846945,-0.9191827072337784,2.797248525302701,3.480874798904914
1589552546.9543028,1.9309927297452796,-3.884987882908799,8.766029081018882,0.2577777777777778,0.6044444444444445,-0.6222222222222222,-4.3489700472479385,1.8003938054640236,3.5
1589552546.9643028,1.9478554860029869,-3.9314219440119476,8.620023195958185,0.2577777777777778,0.6044444444444445,-0.6222222222222222,-2.875579898954593,6.762243414572146,-4.895550665692225
1589552546.9743028,1.95,-3.954711673111088,8.648846692444351,0.2577777777777778,0.6044444444444445,-0.6222222222222222,-9.067070749294597,-3.703234402758909,4.581838488870311
1589552546.9843028,1.909969388034001,-3.9119632656408014,8.750061223931997,0.2577777777777778,0.6044444444444445,-0.6222222222222222,-6.308482179462651,-1.0446811709076993,-0.04427289747724572
1589552546.9943027,1.9177754976400574,-3.8822245023599424,8.814438744100144,0.26962810953781613,0.600494333857765,-0.6153095286955332,-0.4450287297352764,1.2429843012517956,-0.9168376769956905
1589552547.0043027,1.92,-3.8989742684157416,8.753590060544903,0.27111111111111114,0.6,-0.6144444444444445,-6.278815590312815,-2.245175327951564,-1.4615350655903128
1589552547.0143027,1.9466386330262981,-3.9355181773683974,8.643445467894807,0.27111111111111114,0.6,-0.6144444444444445,3.142498776309349,-3.1034658256574557,-0.7230398700663018
1589552547.0243027,1.9403825407166124,-3.920765081433225,8.697322214983712,0.27111111111111114,0.6,-0.6144444444444445,-4.28071335504886,-0.061825732899023045,2.6208925081433225
1589552547.0343027,1.9321514446383556,-3.896454333915067,8.739242776808222,0.27111111111111114,0.6,-0.6144444444444445,1.0652026371921668,-1.3109971882877642,-8.188924035291835
1589552547.0443027,1.91292388596734,-3.89,8.784152228065318,0.25972703508933787,0.5886159239782268,-0.5945223114063414,-1.2171256573484635,-1.15387143647938,3.807462634929422
1589552547.0543027,1.9335615587309067,-3.89,8.735023029627884,0.2577777777777778,0.5866666666666667,-0.5911111111111111,2.935484907560145,-0.1789415475909939,-2.264238201332505
1589552547.0643027,1.94,-3.930850927703135,8.621957773512475,0.2577777777777778,0.5866666666666667,-0.5911111111111111,1.5946896992962252,-1.0609005118362125,-2.2760716570697377
1589552547.0743027,1.94,-3.9194602306269433,8.641079538746114,0.2577777777777778,0.5866666666666667,-0.5911111111111111,-2.3377125231217284,-4.136718288795309,-0.808593903734897
1589552547.0843027,1.9501291646311676,-3.9201291646311676,8.68532291157792,0.2577777777777778,0.5866666666666667,-0.5911111111111111,0.11335857352222733,-3.4749743527112846,-1.5778382999511482
1589552547.0943027,1.940877105856286,-3.891754211712572,8.767368682431142,0.24077964965003204,0.5909161986986031,-0.6109422605934811,0.09574244565840218,-2.757680883982122,-0.5986744088321809
1589552547.1043026,1.9238887424202478,-3.894445030319009,8.781666227260743,0.2311111111111111,0.5933333333333334,-0.6222222222222222,-0.5971856050619562,-1.2221691273398365,0.625
1589552547.1143026,1.9528633715321988,-3.9017841571169503,8.654978199637304,0.2311111111111111,0.5933333333333334,-0.6222222222222222,2.1208666126480686,-1.0448764324574604,5.45180769379172
1589552547.1243026,1.9456346594299132,-3.9287306811401734,8.658730681140174,0.2311111111111111,0.5933333333333334,-0.6222222222222222,-1.7198187924629984,4.164286092345594,-4.58824725253575
1589552547.1343026,1.933076650016481,-3.905383250082406,8.711540099901113,0.2311111111111111,0.5933333333333334,-0.6222222222222222,0.9520937396992819,2.9373668830345596,-3.1824653261999547
1589552547.1443026,1.9205127307447485,-3.871025461489497,8.777436346276257,0.27643917533064577,0.5870084871631657,-0.6222222222222222,-4.47763367281986,-3.424725493316359,2.695544239338001
1589552547.1543026,1.92,-3.887281316279967,8.814562632559934,0.2788888888888889,0.5866666666666667,-0.6222222222222222,-3.362884825502924,1.172870203740601,-0.14923034899415155
1589552547.1643026,1.934081487341772,-3.9040814873417724,8.700307357594937,0.2788888888888889,0.5866666666666667,-0.6222222222222222,-2.5089349287974683,-1.5828718354430378,2.4553253560126582
1589552547.1743026,1.9460252344796785,-3.922050468959357,8.662050468959357,0.2788888888888889,0.5866666666666667,-0.6222222222222222,0.3107246538633319,-4.794754912907548,0.3608056051808841
1589552547.1843026,1.9443083451202263,-3.935691654879774,8.681383309759546,0.2788888888888889,0.5866666666666667,-0.6222222222222222,0.07906647807637901,-0.3881364922206503,1.6822842998585577
1589552547.1943026,1.958602475928473,-3.8934938101788172,8.764409903713892,0.25925294207550054,0.5928674919761577,-0.6067201589484945,2.229229711141678,-9.267365887207703,-0.8569463548830809
1589552547.2043025,1.9283982769133932,-3.8741991384566967,8.754199138456697,0.2577777777777778,0.5933333333333334,-0.6055555555555555,0.9199138456696632,-3.9790330750014755,-1.9412876925195224
1589552547.2143025,1.953509979906229,-3.911887474882786,8.65784755525787,0.2577777777777778,0.5933333333333334,-0.6055555555555555,2.8038111185532486,0.7243419290020094,-4.428811118553249
1589552547.2243025,1.9392955633762188,-3.9338029577491875,8.646901478874595,0.2577777777777778,0.5933333333333334,-0.6055555555555555,1.265824823554299,0.7086205984730476,2.37155281832343
