time,acc_x,acc_y,acc_z,mag_x,mag_y,mag_z,gyr_x,gyr_y,gyr_z
1589552382.0910935,-0.3,-4.21,8.78,0.4922222222222222,0.25222222222222224,-0.5877777777777777,3.875,0.9375,-4.375
1589552382.1010935,-0.2925409401508011,-4.345983447219604,8.816557492931196,0.4444444444444444,0.25222222222222224,-0.6088888888888889,-0.8944576166352496,0.4395470075400566,6.787396545122526
1589552382.1110935,-0.3355847211329981,-4.486754163398994,8.739298334640402,0.4444444444444444,0.25222222222222224,-0.6088888888888889,-1.8077570697052177,-0.09465966231489586,5.556474027771371
1589552382.1210935,-0.38493757503001197,-4.6048876350540215,8.734937575030012,0.4444444444444444,0.25222222222222224,-0.6088888888888889,2.1845348139255703,1.3056332533013206,-0.30173169267707145
1589552382.1310935,-0.3828320866649471,-4.622832086664947,8.782639927779211,0.4444444444444444,0.25222222222222224,-0.6088888888888889,0.37520956925457805,-0.9465840211503735,3.553673910239876
1589552382.1410935,-0.3450507385613066,-4.570202954245226,8.81,0.45764247494762683,0.25222222222222224,-0.6055893812630933,0.21448300708538515,-2.824060661102438,5.982674957968055
1589552382.1510935,-0.3359413171330705,-4.493178439862987,8.801882634266141,0.4711111111111111,0.25222222222222224,-0.6022222222222222,3.648532928326763,0.016960996574678422,0.049206682608414765
1589552382.1610935,-0.3317640637259919,-4.40117968137004,8.774123426466073,0.4711111111111111,0.25222222222222224,-0.6022222222222222,4.007168321222665,-1.4891792890526387,0.7910632654453655
1589552382.1710935,-0.34,-4.356410075424515,8.703589924575486,0.4711111111111111,0.25222222222222224,-0.6022222222222222,5.522392913322308,1.2323740571935626,-3.7546346246924536
1589552382.1810935,-0.3423371603432805,-4.35233716034328,8.714674320686562,0.4711111111111111,0.25222222222222224,-0.6022222222222222,3.357280905597865,0.8158534270528955,3.0761481029841473
1589552382.1910934,-0.34808957204467544,-4.3619104279553245,8.741462567731947,0.4723847297479941,0.25349584085910526,-0.6022222222222222,0.3664270706623908,-1.218465940506469,4.754110914519518
1589552382.2010934,-0.3410331947011707,-4.37,8.787933610597658,0.4777777777777778,0.2588888888888889,-0.6022222222222222,-3.2587655961182995,-2.717946126001232,2.5253629467036354
1589552382.2110934,-0.349109095810228,-4.37,8.771781808379544,0.4777777777777778,0.2588888888888889,-0.6022222222222222,-2.350226721349353,-1.0018171403265557,5.65477462646334
1589552382.2210934,-0.35819663531792123,-4.336393270635843,8.709016823410392,0.4777777777777778,0.2588888888888889,-0.6022222222222222,-4.487710292629923,-4.151715126081906,2.8187104237700926
1589552382.2310934,-0.3503389036681779,-4.320677807336356,8.748305481659111,0.4777777777777778,0.2588888888888889,-0.6022222222222222,-4.978818520738881,-11.076341142418224,8.56467669264491
1589552382.2410934,-0.35570212603534485,-4.27,8.856446810946982,0.47347990381312266,0.25363593182097705,-0.6036548468771072,1.8531909614870796,1.5428189053017292,0.024733768464445305
1589552382.2510934,-0.34085017249876787,-4.269716609167077,8.880283390832924,0.4577777777777778,0.2344444444444445,-0.6088888888888889,-3.2287456875308034,-0.5769313701330705,-2.525813208477082
1589552382.2610934,-0.36712469927826785,-4.303129510825983,8.843995188452286,0.4577777777777778,0.2344444444444445,-0.6088888888888889,-1.7452335605453086,6.080320268644748,1.7016489574979952
1589552382.2710934,-0.35189573909467625,-4.416078195678993,8.742156391357986,0.4577777777777778,0.2344444444444445,-0.6088888888888889,-0.7614035365197862,3.3982519058615126,2.0531703729478377
1589552382.2810934,-0.3233699832860106,-4.433260033427979,8.786630016713989,0.4577777777777778,0.2344444444444445,-0.6088888888888889,-3.281129805271955,5.171007521295234,-2.8136339837693067
1589552382.2910933,-0.33,-4.414262357656339,8.78286882117183,0.4616028726735515,0.23731326561627475,-0.6069763414410021,0.13113111521089138,2.7254039697181756,2.919546011196641
1589552382.3010933,-0.325095088556714,-4.385285265670142,8.770380354226855,0.4711111111111111,0.24444444444444444,-0.6022222222222222,3.7523772139178497,1.548732885315915,3.622178432357744
1589552382.3110933,-0.32,-4.37,8.75,0.4711111111111111,0.24444444444444444,-0.6022222222222222,3.625,-1.0625,-1.25
1589552382.3210933,-0.3378156532331743,-4.37,8.672605217744392,0.4711111111111111,0.24444444444444444,-0.6022222222222222,-2.4914780225357833,0.6894997969749264,-0.04408689473149935
1589552382.3310933,-0.35857812580495596,-4.374265622585132,8.691374993560352,0.4711111111111111,0.24444444444444444,-0.6022222222222222,2.411132862809747,-2.869336329916027,1.676562258513214
1589552382.3410933,-0.3518571213651701,-4.40185712136517,8.76928560682585,0.47503170065980355,0.24588887217291008,-0.6051110776791535,1.9910700853231318,0.10537111263942922,3.8089336757720993
1589552382.3510933,-0.35692791393613393,-4.4092319784840335,8.814608129095799,0.4922222222222222,0.25222222222222224,-0.6177777777777778,2.336795427857116,-4.995494621008372,1.875
1589552382.3610933,-0.32515171029205653,-4.401287927573015,8.862272434561914,0.4922222222222222,0.25222222222222224,-0.6177777777777778,0.6486846092655025,-3.009481893253532,1.875
1589552382.3710933,-0.3425501315205138,-4.36,8.740487138318588,0.4922222222222222,0.25222222222222224,-0.6177777777777778,4.399711338093123,-1.0771850339903666,-1.4093832200321115
1589552382.3810933,-0.3138936904314556,-4.36,8.819292351313496,0.4922222222222222,0.25222222222222224,-0.6177777777777778,-0.7942686092986717,-1.6144933044102072,0.3816443480340248
1589552382.3910933,-0.3580609380349195,-4.35806093803492,8.84806093803492,0.48942135493932826,0.25351493019894256,-0.6147614591654303,-2.7344145840465597,-4.640576857240671,-3.484765491270113
1589552382.4010932,-0.3457158492850822,-4.35,8.792874342135905,0.4777777777777778,0.2588888888888889,-0.6022222222222222,3.7326510176517163,4.83066985701644,-3.7863397140328816
1589552382.4110932,-0.3434311521318976,-4.356862304263795,8.702550782944819,0.4777777777777778,0.2588888888888889,-0.6022222222222222,1.78922119670256,1.6288087208614366,-1.8431152131897606
1589552382.4210932,-0.3524461063425965,-4.365107787314807,8.659784425370386,0.4777777777777778,0.2588888888888889,-0.6022222222222222,0.1573361944420839,-1.3034811336789327,-1.307523157984193
1589552382.4310932,-0.36295773557143135,-4.355915471142862,8.707746413428588,0.4777777777777778,0.2588888888888889,-0.6022222222222222,-3.4876793285705987,2.8846791446438598,3.1144338928578343
1589552382.4410932,-0.3647194917664907,-4.37,8.757040677644678,0.4756264596085703,0.25771544261477575,-0.6049602635284863,-1.5070127058377318,5.778532823414141,4.082923764973608
1589552382.4510932,-0.34,-4.37,8.80102751146311,0.4655555555555556,0.25222222222222224,-0.6177777777777778,0.5112644591496456,5.0833452740725305,0.2716170800333472
1589552382.4610932,-0.34,-4.369846069974025,8.82930731488311,0.4655555555555556,0.25222222222222224,-0.6177777777777778,7.3571677676939355,-0.9144104961036462,0.03655838116922682
1589552382.4710932,-0.34276090557702926,-4.347239094422971,8.762087244616234,0.4655555555555556,0.25222222222222224,-0.6177777777777778,-1.308945334069575,2.0625,4.128796245168415
1589552382.4810932,-0.35,-4.33751903192819,8.82496193614362,0.4655555555555556,0.25222222222222224,-0.6177777777777778,0.8301045335757298,0.5118949551187366,1.3835643676854903
1589552382.4910932,-0.3510934942466958,-4.331093494246696,8.841093494246696,0.46585930395741554,0.25258672030445417,-0.6177777777777778,-6.353950357901938,-3.750102301321672,-1.5762709794053698
1589552382.5010931,-0.3693781946970422,-4.35,8.859378194697042,0.4711111111111111,0.2588888888888889,-0.6177777777777778,-8.859030104336172,3.7969548674260554,5.104876998181296
1589552382.5110931,-0.36134852110653776,-4.35,8.851348521106537,0.4711111111111111,0.2588888888888889,-0.6177777777777778,9.910331913467981,3.596213027663444,-3.225909351967072
1589552382.5210931,-0.37,-4.34,8.699548271193501,0.4711111111111111,0.2588888888888889,-0.6177777777777778,2.7385961258071236,3.4432572641116432,-4.26705048427411
1589552382.5310931,-0.3754947394789579,-4.334505260521042,8.75633684034736,0.4711111111111111,0.2588888888888889,-0.6177777777777778,1.1194733216432864,4.100920591182365,-2.3831569388777556
1589552382.541093,-0.40265711586901765,-4.309114294710327,8.746199937027708,0.469339700531766,0.2576095368038063,-0.6171873075846628,-2.128215522670025,-0.6746379093198993,6.068218671284635
1589552382.551093,-0.4390377616541876,-4.2849370639096875,8.788911889473562,0.4511111111111111,0.24444444444444444,-0.6111111111111112,-1.5151747838382903,-5.762814680451563,0.5705944736781103
1589552382.561093,-0.4555520373930416,-4.247776018696521,8.731104074786083,0.4511111111111111,0.24444444444444444,-0.6111111111111112,-2.082607712314825,-4.325113554977571,-0.9298079460213352
1589552382.571093,-0.4388801700179827,-4.23932810201079,8.700223965996402,0.4511111111111111,0.24444444444444444,-0.6111111111111112,1.0186161517083538,1.2453102010789603,2.1902280529671407
1589552382.581093,-0.3755778212446609,-4.2172110893776695,8.743651750429125,0.4511111111111111,0.24444444444444444,-0.6111111111111112,-2.09264350724522,-0.6659290048301465,-4.34264350724522
1589552382.591093,-0.33245395672089717,-4.244907913441795,8.85,0.45615535548184416,0.24539876094701557,-0.6100204636796013,2.5966277049439266,2.516488311483178,-0.3742220818196178
1589552382.601093,-0.35951428283709846,-4.28,8.84524285858145,0.4922222222222222,0.25222222222222224,-0.6022222222222222,1.589196401597798,1.1468753146923567,-3.5625902118089354
1589552382.611093,-0.38767245141150014,-4.28,8.83116377429425,0.4922222222222222,0.25222222222222224,-0.6022222222222222,1.8531792319828135,-1.9329243731328258,5.500820298076601
1589552382.621093,-0.362376940531554,-4.171476713621352,8.754261643189324,0.4922222222222222,0.25222222222222224,-0.6022222222222222,1.970288243355575,0.21105878322212487,6.845288243355575
1589552382.631093,-0.37,-4.072238690303206,8.80155226193936,0.4922222222222222,0.25222222222222224,-0.6022222222222222,1.389918143950402,0.7651130969679357,5.488787174271045
1589552382.641093,-0.37,-4.031608059672576,8.809678388065485,0.4922222222222222,0.25222222222222224,-0.6022222222222222,-1.1494962704640126,1.171419403274242,-1.1136903032064316
1589552382.651093,-0.37910556057866185,-3.9571555153707054,8.86463336347197,0.4679407273457907,0.24514011954992967,-0.6163864275668073,-3.8678486663652802,2.2118755650994575,-5.017224231464738
1589552382.661093,-0.4317479054843629,-3.898252094515637,8.754268850640733,0.4655555555555556,0.24444444444444444,-0.6177777777777778,-1.3836157380815624,-4.7261519836003885,0.02877483214165477
1589552382.671093,-0.435248605870371,-3.883012655691722,8.679813670818445,0.4655555555555556,0.24444444444444444,-0.6177777777777778,-4.357531639229305,-0.12927213076435035,-8.824917771396134
1589552382.681093,0.01560816934882879,-3.102914660919656,8.716864186589861,0.4655555555555556,0.24444444444444444,-0.6177777777777778,-2.2218599568974198,5.62983771072932,-21.02695295977764
1589552382.691093,-0.17850725315863358,-3.022783341132429,8.851515208235845,0.4634966983829876,0.24555305984505796,-0.6185696459210731,-2.221309078146935,4.40158516612073,-14.248736546560599
1589552382.701093,-0.35,-3.2777753602273485,8.693824071401611,0.4511111111111111,0.25222222222222224,-0.6233333333333333,-4.804888879021336,3.0918982149597034,-19.37029734020115
1589552382.711093,-0.4086699952653553,-3.2777708431971764,8.913559161537467,0.4511111111111111,0.25222222222222224,-0.6233333333333333,1.4778332544225885,0.7764790384367064,-19.395625295915295
1589552382.721093,-0.5583757395729346,-2.8883489566847653,9.035100435830634,0.4511111111111111,0.25222222222222224,-0.6233333333333333,4.645638041440432,5.729110868982981,-5.336988081614765
1589552382.731093,-0.4,-2.850081530068044,8.709613191932814,0.4511111111111111,0.25222222222222224,-0.6233333333333333,5.256873352540918,5.450227579231288,9.693105192178017
1589552382.741093,-0.4,-2.959354962300006,8.97958284803531,0.4511111111111111,0.25222222222222224,-0.6233333333333333,4.614088457058788,2.7987398853674983,17.20565365812542
1589552382.751093,-0.3659273395780443,-2.9682545741048765,8.831163617263416,0.4511111111111111,0.26666666666666666,-0.5966666666666667,1.515910881554758,4.240678893460562,27.327950188216757
1589552382.761093,-0.3145221045259564,-2.9462237590825526,8.845850827278298,0.4511111111111111,0.26666666666666666,-0.5966666666666667,0.13898494265954642,6.489657926989407,30.67846997286177
1589552382.771093,-0.29624054665272476,-2.9671804099895436,8.77,0.4511111111111111,0.26666666666666666,-0.5966666666666667,-2.1870273326362377,-3.4694590010456436,46.011748291710234
1589552382.781093,-0.2590274635169078,-2.935137317584539,8.77486268241546,0.4511111111111111,0.26666666666666666,-0.5966666666666667,-0.8734249475847466,-5.652604934299296,46.67813012475868
1589552382.7910929,-0.25032071907500053,-2.8916035953750026,8.818396404624998,0.4511111111111111,0.26666666666666666,-0.5966666666666667,-5.335631474062234,-0.8638954912502852,51.63009102609345
1589552382.8010929,-0.2053849891770111,-2.8989230021645978,8.793230993506207,0.45705977922084295,0.2597265538719795,-0.6095554475710857,-3.603862040022971,-3.2528631223218625,48.52214295180457
1589552382.8110929,-0.1939597023369163,-3.0040604464946252,8.860402976630837,0.4577777777777778,0.2588888888888889,-0.6111111111111112,0.142192327777536,-1.2084702336916315,47.27474813960573
1589552382.8210928,-0.2112219097747975,-2.9738904511260125,8.702443819549595,0.4577777777777778,0.2588888888888889,-0.6111111111111112,2.5779496238613695,-2.690309022520249,46.87096221789603
1589552382.8310928,-0.23368740044290764,-2.9373701387000275,8.736846031314348,0.4577777777777778,0.2588888888888889,-0.6111111111111112,-2.381609619643343,-2.0757192392866854,44.69770581607677
1589552382.8410928,-0.3396081821360581,-2.99440440576557,8.867210070321303,0.4577777777777778,0.2588888888888889,-0.6111111111111112,-3.400078674385174,-4.112657348770348,55.90086541823692
1589552382.8510928,-0.38676970763173324,-3.0416924269079333,8.903384853815867,0.4711111111111111,0.2344444444444445,-0.6022222222222222,3.6249031373041802,-4.527820536985843,54.67508717642624
1589552382.8610928,-0.4243225791135484,-3.051080644778387,8.914596776108064,0.4711111111111111,0.2344444444444445,-0.6022222222222222,-2.888608954727821,-0.0557459701350806,61.21265104574698
1589552382.8710928,-0.5021309475396503,-3.07,8.813074420496138,0.4711111111111111,0.2344444444444445,-0.6022222222222222,1.3099328995526638,-0.0773434322895486,69.2192710451403
1589552382.8810928,-0.5408889520022722,-3.07,8.714001704061346,0.4711111111111111,0.2344444444444445,-0.6022222222222222,2.708357000852031,-2.762514200511218,67.75140230048282
1589552382.8910928,-0.5488304458960523,-3.07,8.928422039193412,0.4711111111111111,0.2344444444444445,-0.6022222222222222,5.686417211019597,-4.5493503266117585,69.4389697529111
1589552382.9010928,-0.5671841873890612,-3.1043683747781223,8.825631625221877,0.4844444444444445,0.2344444444444445,-0.6377777777777778,-1.9372791592707488,-2.9456161560027208,74.99188384399729
1589552382.9110928,-0.5463104460775369,-3.0626208921550737,8.867379107844927,0.4844444444444445,0.2344444444444445,-0.6377777777777778,-0.5456964051691247,-4.859042442892454,73.07845755710754
1589552382.9210927,-0.5596406687960368,-3.115688025552441,8.935986083045433,0.4844444444444445,0.2344444444444445,-0.6377777777777778,2.674408040544945,-3.7810585196532167,77.97491301903396
1589552382.9310927,-0.5528055537448667,-3.0336666449384,8.669416596049802,0.4844444444444445,0.2344444444444445,-0.6377777777777778,3.614236360080829,-3.182985952675836,76.30885372531125
1589552382.9410927,-0.5577455832602431,-2.984508833479514,8.908551246710939,0.4844444444444445,0.2344444444444445,-0.6377777777777778,-0.26007079313369275,1.516210374639769,78.86846299022679
1589552382.9510927,-0.5527523414196617,-2.89302809703594,8.807065559750527,0.49893976160512116,0.21511735489687556,-0.6490519133471929,-2.677744519304979,-3.529201257796041,84.65937167560126
1589552382.9610927,-0.5905635588742911,-2.850338135324575,8.811803388397733,0.5044444444444445,0.20777777777777776,-0.6533333333333333,-1.2932839632277835,-0.5286864675425311,77.52657312176395
1589552382.9710927,-0.6274969180374063,-2.8724981508224436,8.9299901377197,0.5044444444444445,0.20777777777777776,-0.6533333333333333,4.062053115423902,1.6873150822443734,75.17207147511536
1589552382.9810927,-0.5179026812313804,-2.6540575968222444,8.71419463753724,0.5044444444444445,0.20777777777777776,-0.6533333333333333,7.528959781529295,4.270518867924529,80.66612462760675
1589552382.9910927,-0.467920953326713,-2.5124427010923536,8.814158093346574,0.5044444444444445,0.20777777777777776,-0.6533333333333333,-2.2070642999006953,6.2489622641509435,77.17781653426017
1589552383.0010927,-0.42,-2.52,8.98,0.5022222222222222,0.17333333333333334,-0.6233333333333333,0.125,-7.875,69.3125
1589552383.0110927,-0.4095480403135498,-2.5034510638297873,8.94167614781635,0.5022222222222222,0.17333333333333334,-0.6233333333333333,-0.00564949608062712,-7.9294372900335945,69.10563829787235
1589552383.0210927,-0.3023280446438341,-2.335690775796039,8.55164022321917,0.5022222222222222,0.17333333333333334,-0.6233333333333333,-1.342666046613415,-8.461199255936098,66.60122688477952
1589552383.0310926,-0.3849381770434402,-2.537626654995076,8.964690885217202,0.5022222222222222,0.17333333333333334,-0.6233333333333333,-0.195303096618886,-7.084363715942663,54.66865220483641
1589552383.0410926,-0.4952472600908848,-2.55,8.97026613873296,0.5022222222222222,0.17333333333333334,-0.6233333333333333,1.0261419072440523,-5.314399350106923,54.430846531676025
1589552383.0510926,-0.6545495427971819,-2.517830909908559,8.742858641882776,0.5022222222222222,0.15188727327237295,-0.640311464214927,4.540323789536801,-6.799917553590166,46.19284964772898
1589552383.0610926,-0.752060872611217,-2.582885221655704,8.79267913439458,0.5022222222222222,0.14666666666666667,-0.6444444444444445,0.7331958120888958,-1.0959891799322772,53.565135688708985
1589552383.0710926,-0.8336842719806952,-2.6971579807729733,8.898789553574904,0.5022222222222222,0.14666666666666667,-0.6444444444444445,5.018424278986495,-2.4223694196862957,48.71874635114623
1589552383.0810926,-0.8559221938039653,-2.583864541066518,8.662622449568278,0.5022222222222222,0.14666666666666667,-0.6444444444444445,-5.791715543931847,-4.394524864906444,50.95616069883271
1589552383.0910926,-0.815593161669968,-2.720983250322109,8.985254706640257,0.5022222222222222,0.14666666666666667,-0.6444444444444445,3.6856070075575467,-0.2607990711717081,42.487063950693255
1589552383.1010926,-0.8019023602985678,-2.6914141617914065,8.795168448658464,0.5085203864344474,0.12957164951919845,-0.6795342164839845,-1.3768912648779512,-1.3070279402864635,46.12047357272544
1589552383.1110926,-0.7262901049268816,-2.6615725262317205,8.804496158188979,0.51,0.12555555555555556,-0.6877777777777778,2.077383575225138,-4.79713619839718,36.59661672771337
1589552383.1210926,-0.7609999650361876,-2.6941666375301563,8.789500017481906,0.51,0.12555555555555556,-0.6877777777777778,-4.290619209118563,-11.554161130729696,37.73749825180938
1589552383.1310925,-0.7708518888206388,-2.71,8.798296222358722,0.51,0.12555555555555556,-0.6877777777777778,2.453895212684275,-0.03987350276412727,41.431933353808354
1589552383.1410925,-0.8140447943230956,-2.768726392430794,8.910111985807738,0.51,0.12555555555555556,-0.6877777777777778,4.934919798942972,2.68889982259674,35.6772207746609
1589552383.1510925,-1.0585917173339452,-2.968335665940117,9.154110817941953,0.5288888888888889,0.11333333333333333,-0.6888888888888889,-1.814187793965814,1.498487151542962,33.7546260181255
1589552383.1610925,-0.9527358036021567,-2.8432332224389123,8.711440633245381,0.5288888888888889,0.11333333333333333,-0.6888888888888889,2.756863026270506,-3.3131452908110584,43.49818171389239
1589552383.1710925,-0.95,-2.8303750206119997,8.728874938164001,0.5288888888888889,0.11333333333333333,-0.6888888888888889,-1.937489694000142,-0.42969394124991167,43.14843878824998
1589552383.1810925,-0.95,-2.877274324878449,9.005766895124285,0.5288888888888889,0.11333333333333333,-0.6888888888888889,-3.109881768301017,-4.449003426864272,33.37467049381993
1589552383.1910925,-1.004302286982197,-2.9008604573964396,9.156023201775076,0.5288888888888889,0.11333333333333333,-0.6888888888888889,-2.4925878365393013,-3.2546528032566346,35.399633322850605
1589552383.2010925,-1.0762253415839529,-3.008345030939823,9.075760621288259,0.510676846122255,0.09949218083069156,-0.7063724499448574,0.8725341583952821,-1.3944541924498526,36.403126168030234
1589552383.2110925,-1.143502040383698,-3.0689170067306164,8.41147755577932,0.5011111111111111,0.09222222222222222,-0.7155555555555555,2.807312920663522,-8.738299260692141,27.57420073930786
1589552383.2210925,-1.1267221447897025,-3.0467221447897024,8.782279248995655,0.5011111111111111,0.09222222222222222,-0.7155555555555555,-0.6166782815446421,-3.854031729113716,34.73775826022793
1589552383.2310925,-1.0009946949602122,-2.8413262599469493,8.344310344827585,0.5011111111111111,0.09222222222222222,-0.7155555555555555,3.0644893899204244,-1.7198275862068966,26.359333554376658
1589552383.2410924,-1.127420424403183,-3.009893899204244,8.892155172413794,0.5011111111111111,0.09222222222222222,-0.7155555555555555,-4.626409151193633,-5.828663793103448,32.311878315649864
1589552383.2510924,-1.1847410454985479,-3.074741045498548,8.927466118102615,0.5011111111111111,0.06983354845649134,-0.7356281596213833,1.903587850919651,-2.827837608906099,27.68615379961278
1589552383.2610924,-1.2268790937040501,-3.1258387916054002,8.792483625183799,0.5011111111111111,0.06,-0.7444444444444445,2.1271095107605933,-0.0675377623312392,17.17977000066836
1589552383.2710924,-1.2234716454546983,-3.1365283545453018,8.74735822727349,0.5011111111111111,0.06,-0.7444444444444445,-0.2901107954067821,1.4497753408766119,16.984439886346443
1589552383.2810924,-1.236536460355673,-2.9994400869767803,8.763072920711345,0.5011111111111111,0.06,-0.7444444444444445,-5.199056457249359,1.4640298594393104,19.02864603556729
1589552383.2910924,-1.1279783625468838,-2.869180526292195,8.669180526292195,0.5011111111111111,0.06,-0.7444444444444445,-1.729175072099939,0.8224053361426159,13.738911365640083
1589552383.3010924,-1.207954822954823,-2.9986711436711437,8.768133903133903,0.5146832180165514,0.036248812915479586,-0.7444444444444445,2.642908017908018,2.9186507936507935,5.018200549450549
1589552383.3110924,-1.3261816208605872,-3.0860722142375265,8.843599565893292,0.5277777777777778,0.013333333333333334,-0.7444444444444445,4.282275687091191,3.121581043029361,2.627735165576511
1589552383.3210924,-1.35614918437253,-3.0428881117206026,8.613104893764822,0.5277777777777778,0.013333333333333334,-0.7444444444444445,0.9860139650753346,-5.546998886147508,6.88530014132752
1589552383.3310924,-1.3814465871175705,-3.0757443118626173,8.761572696940565,0.5277777777777778,0.013333333333333334,-0.7444444444444445,-0.6260509151916154,0.3539192538973408,5.838047135667025
1589552383.3410923,-1.3842055226653989,-3.02626074931939,8.89373925068061,0.5277777777777778,0.013333333333333334,-0.7444444444444445,-2.139033533555162,-2.1525296011408326,5.322430966682512
1589552383.3510923,-1.3322383937108255,-2.9262681929246788,8.67731116540954,0.5403815349929766,-0.021161160097737178,-0.7484245783018756,-5.375021579198981,-2.206124508658239,11.643710825454159
1589552383.3610923,-1.353110563160729,-2.9658722330867557,8.795901709038347,0.5488888888888889,-0.04444444444444445,-0.7511111111111111,-7.536701456792223,-1.489465535810447,6.390970864155541
1589552383.3710923,-1.3635499430820583,-2.9770998861641167,8.709398406297632,0.5488888888888889,-0.04444444444444445,-0.7511111111111111,-1.439007360743985,3.4200483802504387,6.237212757336627
1589552383.3810923,-1.36,-2.948207398722656,8.748019808089847,0.5488888888888889,-0.04444444444444445,-0.7511111111111111,-0.3608651383789456,5.892684968066397,9.99176012773441
1589552383.3910923,-1.3736810539159927,-2.94,8.711073149546047,0.5488888888888889,-0.04444444444444445,-0.7511111111111111,-4.242730544123425,-2.2646125886708166,5.126311966165491
1589552383.4010923,-1.39665012019606,-2.94,8.95305204333302,0.4896884615251198,-0.10364487180821358,-0.7326109775599333,-7.237980393993319,-8.070796650120196,3.3325060098030033
1589552383.4110923,-1.3742625949901492,-2.922841729993433,8.64967632986209,0.4777777777777778,-0.11555555555555555,-0.7288888888888889,1.3919721596772678,-4.907487217374989,5.108587813115677
1589552383.4210923,-1.4544429360123088,-3.0629034301746767,8.674442936012309,0.4777777777777778,-0.11555555555555555,-0.7288888888888889,1.6570730382840075,-5.611622092497059,6.714719657887592
1589552383.4310923,-1.6185014992503748,-3.2331083208395803,9.202470389805097,0.4777777777777778,-0.11555555555555555,-0.7288888888888889,-1.645122751124438,-2.0803035982008993,4.7394747938530735
1589552383.4410923,-1.5745206032469217,-3.1299544392860232,9.049908878572046,0.4777777777777778,-0.11555555555555555,-0.7288888888888889,-3.42094639407134,-3.358731148533695,9.774824101040975
1589552383.4510922,-1.582340474439132,-3.1067267377712393,9.013044317763883,0.46232586530995873,-0.10862883617342978,-0.6878613971639901,-3.4210302500919454,1.5611754091577783,8.500609139389482
1589552383.4610922,-1.6671072625698322,-3.2869411545623834,8.956200744878956,0.4455555555555555,-0.10111111111111112,-0.6433333333333333,-2.463840782122905,4.936506052141527,-3.399220204841713
1589552383.4710922,-1.7259689490723014,-3.3665669927246147,8.596124203710794,0.4455555555555555,-0.10111111111111112,-0.6433333333333333,-2.871262227173043,-1.7135208166533222,-0.05150207122219541
1589552383.4810922,-1.7624603344143865,-3.3824603344143864,8.786587691530888,0.4455555555555555,-0.10111111111111112,-0.6433333333333333,-6.699161779270969,-1.2733102072126306,5.121033441438642
1589552383.4910922,-1.712056520745228,-3.267674877128815,8.786169562235685,0.4455555555555555,-0.10111111111111112,-0.6433333333333333,-2.378620056577895,-0.5367934906846497,4.426413018630701
1589552383.5010922,-1.7356994394407004,-3.3113988788814006,8.869475971531147,0.4634343879686199,-0.06053991448146516,-0.6309556801242888,1.4047206651130566,0.7644273162436228,7.376976128991624
1589552383.5110922,-1.7976378844645813,-3.400728413348436,8.959271586651564,0.4744444444444445,-0.03555555555555556,-0.6233333333333333,5.429761697307659,-0.6058148906508669,11.155762612180883
1589552383.5210922,-1.8694106761565836,-3.4768370106761566,8.801473309608541,0.4744444444444445,-0.03555555555555556,-0.6233333333333333,5.934306049822064,-0.4807206405693951,15.943398576512456
1589552383.5310922,-1.89,-3.4469200380422857,8.840994220498938,0.4744444444444445,-0.03555555555555556,-0.6233333333333333,5.5,-0.9155708171775551,-3.335663728143974
1589552383.5410922,-1.9088233104799215,-3.4362744368266407,8.838627815866797,0.4744444444444445,-0.03555555555555556,-0.6233333333333333,5.029417238001959,-5.30509916748286,-1.9768082761998045
1589552383.5510921,-2.0051850246183385,-3.6458638094943177,8.919382528721396,0.4910081992313436,-0.0055830468935476225,-0.6130795803700149,3.2415151890502587,-2.026631158455393,10.514260056358964
1589552383.5610921,-1.955146094733643,-3.645146094733643,8.80443450701168,0.4977777777777778,0.006666666666666667,-0.6088888888888889,-1.3525268093604828,1.903510723744193,6.306978031519993
1589552383.5710921,-1.9903971297785477,-3.694476555734257,8.845595694667821,0.4977777777777778,0.006666666666666667,-0.6088888888888889,0.7838457255969322,-1.045352901150563,-4.801671718421378
1589552383.5810921,-1.9731230209921427,-3.671403776240178,8.89,0.4977777777777778,0.006666666666666667,-0.6088888888888889,1.7157924827020055,-3.807669754896212,-5.9535189691567965
1589552383.591092,-1.9435078233246594,-3.577382650130107,8.847906120104087,0.4977777777777778,0.006666666666666667,-0.6088888888888889,2.565433746747322,-3.3282184616944344,-1.6125891318306245
1589552383.601092,-1.963632022713585,-3.48908801514239,8.850277467091113,0.504173047692793,0.010705784507728928,-0.6078791094286233,4.583465972640454,0.8631027918781726,3.7840004731996904
1589552383.611092,-2.0482748603351957,-3.519312849162011,9.15105251396648,0.54,0.03333333333333333,-0.6022222222222222,2.0431284916201116,6.810761173184357,7.831599162011173
1589552383.621092,-2.1056413612565446,-3.5356413612565447,8.794777486910995,0.54,0.03333333333333333,-0.6022222222222222,2.0093259162303667,-3.0674901832460737,8.641443062827225
1589552383.631092,-2.27507208926027,-3.698505083681503,8.90521626778081,0.54,0.03333333333333333,-0.6022222222222222,1.7182994421233126,-5.897490158668824,6.639882749293598
1589552383.641092,-2.3018765847820353,-3.7050025356512566,8.97438038825892,0.54,0.03333333333333333,-0.6022222222222222,2.289010994583849,-4.039042690224557,8.265585380449114
1589552383.651092,-2.263699495959677,-3.6577746219697578,8.94482638611089,0.5327553315376341,0.03061658265994613,-0.6081085153478945,1.5737058964717177,-2.071180694455556,9.52564705176414
1589552383.661092,-2.2438739191950954,-3.63225216160981,8.878286747366767,0.5222222222222223,0.02666666666666667,-0.6166666666666667,1.5338075774249331,-1.717939396321333,14.073239270554945
1589552383.671092,-2.273480397281756,-3.643480397281756,8.702872556194459,0.5222222222222223,0.02666666666666667,-0.6166666666666667,3.341176163094616,-4.140563251437532,19.801102979613173
1589552383.681092,-2.145116985245455,-3.418315101023864,8.901336473702651,0.5222222222222223,0.02666666666666667,-0.6166666666666667,7.356442461167127,-2.4135141316619304,11.89284219644178
1589552383.691092,-1.3814853667657305,-3.370468617764569,8.834910940975025,0.5222222222222223,0.02666666666666667,-0.6166666666666667,6.0352324391347985,1.8724819913794795,2.308252474955225
1589552383.701092,-1.772759718117754,-3.9959614198032023,8.641034325983178,0.5317350985252781,0.02666666666666667,-0.6209907013498739,-1.4341205793524496,-2.275563845679213,9.083141866658007
1589552383.711092,-1.5134933905278825,-3.614323076249672,8.487030552394291,0.5344444444444445,0.02666666666666667,-0.6222222222222222,1.5442145233301234,-3.611080714348245,-7.017196664624002
1589552383.721092,-1.5126500718046914,-3.5325868836764003,9.208297750119675,0.5344444444444445,0.02666666666666667,-0.6222222222222222,-1.1604954523695552,3.0380624700813783,-17.802255864049783
1589552383.731092,-1.0570906436032796,-2.950842188026508,8.270017297540155,0.5344444444444445,0.02666666666666667,-0.6222222222222222,-2.6770807592946197,-4.064969673143885,-27.911336066494442
1589552383.741092,-0.9071940862793781,-2.7694499619106736,8.037373388257201,0.5344444444444445,0.02666666666666667,-0.6222222222222222,-2.9031984453911917,-5.142961057190419,-39.468984531501285
1589552383.751092,-0.9901466972285893,-2.8701733694519693,8.41116690977287,0.5344614850316038,0.026653330554976734,-0.6222229631173161,-3.1209158157949575,-1.1852495311523235,-51.18520785580329
1589552383.761092,-1.2587737994230443,-3.0019687765145084,9.074782962837265,0.56,0.006666666666666667,-0.6233333333333333,-0.5056168335313083,-2.2326255727133884,-54.76123366706262
1589552383.771092,-1.489445293732256,-3.097284705539783,8.834292057945694,0.56,0.006666666666666667,-0.6233333333333333,-0.9494522093615783,0.6854025624226541,-61.985447605008375
1589552383.781092,-1.641493938876558,-3.261265152808605,8.949071196858458,0.56,0.006666666666666667,-0.6233333333333333,-2.822680126344545,3.2923104831825167,-62.88500939047294
1589552383.791092,-1.5459191867852604,-3.2199326556543837,8.563288437102923,0.56,0.006666666666666667,-0.6233333333333333,-5.239674396442185,2.8980781448538755,-63.95688850063532
1589552383.801092,-1.5657505518763797,-3.2919225993377483,8.719797875275939,0.6444014440765269,-0.058443018763796914,-0.6289600962717684,0.01876379690949248,4.748628932119205,-57.51147730408388
1589552383.811092,-1.532990011969128,-3.385004540014033,8.807000908002808,0.6766666666666666,-0.08333333333333333,-0.6311111111111111,-7.407356628420487,5.662658900491147,-55.5189713256841
1589552383.821092,-1.3949131275813393,-3.3856699719429098,8.78133994388582,0.6766666666666666,-0.08333333333333333,-0.6311111111111111,-6.4350951065646615,1.6496577819214755,-55.145393670599304
1589552383.831092,-1.3513802973682119,-3.446138983859426,8.949864832630993,0.6766666666666666,-0.08333333333333333,-0.6311111111111111,0.29054027192494236,-2.182311958336646,-54.35388506798124
1589552383.8410919,-1.3948773636752225,-3.48316981823363,9.02950945470089,0.6766666666666666,-0.08333333333333333,-0.6311111111111111,-3.984875277331108,2.5747636324777625,-57.26376732683344
1589552383.8510919,-1.500975654180074,-3.5744268714710703,9.100268350434096,0.9320691923178113,-0.3023537328233461,-0.537972868138614,-4.260440698803959,3.7527434581992596,-62.8064799496084
1589552383.8610919,-1.5439071807738918,-3.5460658507860106,9.023005956952908,1.0666666666666669,-0.4177777777777778,-0.4888888888888889,-5.484450475361428,4.628069153566491,-59.20254386638674
1589552383.8710918,-1.4774980930587338,-3.4557498093058734,8.708492753623188,1.0666666666666669,-0.4177777777777778,-0.4888888888888889,-7.154624332570557,3.1936212814645306,-58.684582379862704
1589552383.8810918,-1.5239858781158184,-3.5485129371623545,8.894997630556345,1.0666666666666669,-0.4177777777777778,-0.4888888888888889,-4.907941190408492,1.4332646194673488,-57.822676760496634
1589552383.8910918,-1.5972349464093571,-3.5885135758304103,9.051289249731,1.0666666666666669,-0.4177777777777778,-0.4888888888888889,-4.305873660233926,1.7913222635234276,-53.83231264236106
1589552383.9010918,-1.5737903327231313,-3.512318581350177,8.723064658123839,1.0666666666666669,-0.4177777777777778,-0.4888888888888889,-3.719758318078283,-0.7729323584075125,-57.3123724864102
1589552383.9110918,-1.5232957563977974,-3.5966303854875283,8.963326854551344,1.2777777777777777,-0.1288888888888889,-0.6322222222222222,5.3317379332685455,2.6868197278911565,-51.83178652413346
1589552383.9210918,-1.2432810795728382,-3.4154199325266976,8.713202698932095,1.2777777777777777,-0.1288888888888889,-0.6322222222222222,-4.162233975090683,-1.625489879004642,-41.80865072419653
1589552383.9310918,-1.214848390024095,-3.5545451700722843,8.705656194261039,1.2777777777777777,-0.1288888888888889,-0.6322222222222222,-1.3257658728916981,-0.7708365929217387,-42.42171218355916
1589552383.9410918,-1.2848298060984542,-3.78,8.983012220037779,1.2777777777777777,-0.1288888888888889,-0.6322222222222222,4.705283142515709,1.775570043560387,-45.834899387070664
1589552383.9510918,-1.1166245842666125,-3.798242720423539,8.751757279576461,0.9244095266107075,-0.01200034691584273,-0.6531675678936929,-2.8851133509807916,-2.412055419805878,-37.84631863843073
1589552383.9610918,-1.0324866515576383,-3.833351131256482,8.693297737487036,0.6966666666666667,0.06333333333333334,-0.6666666666666666,-2.7912217185879458,-2.0395531632927435,-37.42736142588253
1589552383.9710917,-1.0577886663826161,-3.92017895185343,8.946114188325522,0.6966666666666667,0.06333333333333334,-0.6666666666666666,-1.4302833404345974,3.041569024286323,-41.50010651896037
1589552383.9810917,-1.117705632568694,-4.035411265137388,9.040389584129052,0.6966666666666667,0.06333333333333334,-0.6666666666666666,-1.663961221326024,3.4710493945044822,-46.96645060549552
1589552383.9910917,-1.127561730711498,-4.0343930126088265,8.98219134644251,0.6966666666666667,0.06333333333333334,-0.6666666666666666,-2.5,0.5991514372560793,-46.05504165415791
1589552384.0010917,-1.1246841152150886,-3.973671028803772,8.912145761437797,0.6509827526641686,0.09066210331697058,-0.674824508452827,-1.1233641985854375,-0.386845679434175,-43.3054207810845
1589552384.0110917,-1.1667468134932695,-4.067920770839665,8.748854287706251,0.5722222222222222,0.13777777777777778,-0.6888888888888889,1.145332415667066,1.3998406746634728,-45.177333792166465
1589552384.0210917,-1.1434674731514627,-4.10856807801506,8.836017775583262,0.5722222222222222,0.13777777777777778,-0.6888888888888889,1.363535366004197,1.6536615849895075,-46.43148993951364
1589552384.0310917,-1.0167335945151812,-3.9630656219392755,8.772864838393732,0.5722222222222222,0.13777777777777778,-0.6888888888888889,1.0339128305582763,0.9299706170421156,-47.01851738491675
1589552384.0410917,-0.9793364956076869,-4.011919433656726,8.817677734626905,0.5722222222222222,0.13777777777777778,-0.6888888888888889,-0.7260070792909245,1.8116115059973346,-43.93127964632207
1589552384.0510917,-0.931251200183431,-3.969844800160502,8.649379200642008,0.5722222222222222,0.13777777777777778,-0.6888888888888889,-1.2519399979937234,-0.5175199911150599,-43.48048000171966
1589552384.0610917,-0.9182724116806208,-4.061754135184807,8.952644476209924,0.5488888888888889,0.19333333333333333,-0.6733333333333333,3.490198080457423,4.285672350418624,-46.98234888707372
1589552384.0710917,-0.8128164394793481,-3.9328164394793483,8.577965563185405,0.5488888888888889,0.19333333333333333,-0.6733333333333333,-4.52667315773291,2.665631085374603,-37.49333171056677
1589552384.0810916,-0.8007690352103725,-3.954102156688276,8.552050124994704,0.5488888888888889,0.19333333333333333,-0.6733333333333333,-5.26923382483793,3.2035295114613787,-37.66826617516207
1589552384.0910916,-0.8749932849116075,-4.121241606139509,8.993711388241744,0.5488888888888889,0.19333333333333333,-0.6733333333333333,-4.297063861861039,1.8595638618610388,-40.41075955872276
1589552384.1010916,-0.7926549171660204,-4.035663729291505,8.747919985900598,0.549611600673638,0.1909242940508362,-0.6776696040418282,-4.1736781811773,4.9748303665844205,-44.935567941487484
1589552384.1110916,-0.733517800493479,-4.02087945012337,9.184056221360592,0.5520756472016606,0.18271080562409434,-0.6924538832099636,2.47924744448361,9.363913244624603,-40.454083318646454
1589552384.1210916,-0.7396948788989186,-3.9392296005004916,8.74860416480472,0.5522222222222222,0.18222222222222226,-0.6933333333333334,-2.4117079274287248,2.0218830994726966,-38.42577308070426
1589552384.1310916,-0.657225846813835,-3.9767155241755296,9.108469032085084,0.5522222222222222,0.18222222222222226,-0.6933333333333334,3.0237510054517838,9.472210429886497,-44.470378273304135
1589552384.1410916,-0.5144222923562467,-3.7959025479177892,8.405740127780772,0.5522222222222222,0.18222222222222226,-0.6933333333333334,-2.973722192286968,-1.7592515972596412,-41.099621853590946
1589552384.1510916,-0.4114932283328285,-3.8228107827441478,8.478695859114708,0.5519001533661219,0.1824954927667922,-0.693138140087212,-12.421411881787893,-2.4269016918350568,-47.34974687378305
1589552384.1610916,-6.267,-14.318857142857144,9.131,0.5155555555555555,0.21333333333333332,-0.6711111111111111,-46.68928571428572,15.287946428571429,-266.84776785714286
1589552384.1710916,-15.048220829315333,-28.93545323047252,7.048155737704919,0.5155555555555555,0.21333333333333332,-0.6711111111111111,-130.1323981436837,21.104583534233367,-691.3961095708776
1589552384.1810915,-2.1433309608540925,-3.6008754448398577,4.113316725978648,0.5155555555555555,0.21333333333333332,-0.6711111111111111,-55.901779359430606,38.07237544483986,-598.2671263345196
1589552384.1910915,-0.8612898004669921,-5.724766238590533,8.62425864996816,0.5155555555555555,0.21333333333333332,-0.6711111111111111,-42.300709111653575,85.8134784281469,-553.357205874549
1589552384.2010915,-9.00641307612337,-13.443531015363291,5.748263601709599,0.5158824843094221,0.2231411959493281,-0.6698033960956451,44.21334180432021,117.05698134457664,-407.01388038581496
1589552384.2110915,-17.6739245620617,-22.01343886179331,10.506719575192635,0.5166666666666667,0.2466666666666667,-0.6666666666666666,121.31255050359297,-15.35852681019307,-179.5011940492338
1589552384.2210915,2.1465056223342383,-1.3652700012924908,9.409067080263668,0.5166666666666667,0.2466666666666667,-0.6666666666666666,81.6552410495024,11.702442807289643,-149.2452242471242
1589552384.2310915,4.69,1.08,13.55,0.5166666666666667,0.2466666666666667,-0.6666666666666666,16.0,-29.6875,-123.6875
1589552384.2410915,0.06250931807443955,0.016070659877158944,2.921287994120426,0.5166666666666667,0.2466666666666667,-0.6666666666666666,-35.68661084571369,-16.560975969867187,-76.5085224289989
1589552384.2510915,2.1468686550223848,-0.69,12.988169493662904,0.4534719857634292,0.3330030617034842,-0.665776600738452,13.624688662589067,15.989572167223658,-77.9317067595687
1589552384.2610915,1.9944245781918912,-0.6996235205237975,9.171803701838328,0.3588888888888889,0.4622222222222222,-0.6644444444444444,-2.859851108033241,6.803894642407454,-42.71495294006547
1589552384.2710915,1.1912199969423636,-2.214983947408653,6.021518116495948,0.3588888888888889,0.4622222222222222,-0.6644444444444444,-1.489833358813637,1.0141224583397044,2.8863228099678935
1589552384.2810915,1.8068939588925248,-2.488610692355774,7.743358642497334,0.3588888888888889,0.4622222222222222,-0.6644444444444444,3.091540427253006,-6.315497803066515,22.511363845277053
1589552384.2910914,2.043000357672066,-0.08905097678537977,8.491137056529219,0.3588888888888889,0.4622222222222222,-0.6644444444444444,2.693670907635447,0.17376581847291062,25.415745873997242
1589552384.3010914,2.6216427367022637,-2.6679386166607055,10.519957249672135,0.3588888888888889,0.4622222222222222,-0.6644444444444444,-0.43171231243506547,0.7988424624870131,33.720335573041744
1589552384.3110914,1.856091289615308,-4.204348548269218,8.560643146634776,0.3288888888888889,0.49,-0.6755555555555556,2.790819546873962,-3.7273340088144753,41.463796702323215
1589552384.3210914,1.52303410073073,-4.142624341950185,9.202711950970379,0.3288888888888889,0.49,-0.6755555555555556,-1.8734162607055866,-5.550672291191954,39.130669541133024
1589552384.3310914,1.376773555722099,-4.182465039146589,8.486553186739592,0.3288888888888889,0.49,-0.6755555555555556,-5.4684983575973085,-8.48665946454483,33.4422587820707
1589552384.3410914,1.4169020777191332,-4.690759651109021,8.86108605871191,0.3288888888888889,0.49,-0.6755555555555556,-0.1598293017396717,-2.1747773587613413,30.01461419482404
1589552384.3510914,1.0306693815220158,-4.385334690761008,8.763671417663527,0.33122154350838495,0.4905183676932213,-0.667261672464014,-0.6706382031051158,-2.853827309748027,22.614859060829726
1589552384.3610914,0.9980611152018207,-4.364183345605462,8.68673338242185,0.3388888888888889,0.4922222222222222,-0.64,-3.311249079590334,-6.748090149943102,20.50579648905549
1589552384.3710914,1.034443991945519,-4.364242177424829,8.63040362904138,0.3388888888888889,0.4922222222222222,-0.64,-4.114909273965474,-5.560620715400801,23.828922882870653
1589552384.3810914,1.0727516778523492,-4.349395973154363,8.682214765100671,0.3388888888888889,0.4922222222222222,-0.64,-1.700503355704698,-2.513003355704698,20.00796979865772
1589552384.3910913,1.0073610622418934,-4.341150947239764,8.747619215170651,0.3388888888888889,0.4922222222222222,-0.64,-2.6149604622307825,-0.8199399525917147,16.64682679308876
1589552384.4010913,0.9056623342948822,-4.460201925258484,8.834628399183224,0.34395261400836225,0.4902746356378094,-0.6421423452428541,-5.470061663371471,-1.101272566687194,17.62752406573105
1589552384.4110913,0.7426352096576895,-4.2869159965508254,8.526317604828845,0.36777777777777776,0.4811111111111111,-0.6522222222222223,1.9350547456233582,-4.605724978442657,16.12313002586881
1589552384.4210913,0.9794392388640623,-4.279739080294075,8.644719619432031,0.36777777777777776,0.4811111111111111,-0.6522222222222223,-3.939860530488684,-5.539354187689203,16.264505549949547
1589552384.4310913,1.1585971284505598,-4.473890906760106,8.738099521408428,0.36777777777777776,0.4811111111111111,-0.6522222222222223,-7.02799039611999,-9.479054941885309,16.193457022904024
1589552384.4410913,1.1024495490896717,-4.320686404628212,8.72588157223073,0.36777777777777776,0.4811111111111111,-0.6522222222222223,-4.269516760251829,-3.6249170495150587,20.709962565935
1589552384.4510913,1.0239446996767059,-4.327823209120299,8.683060745278203,0.36777777777777776,0.4811111111111111,-0.6522222222222223,0.726246384209631,0.9247958141909134,9.24647035051897
1589552384.4610913,0.8208661915162662,-4.359422538989156,8.661732383032533,0.38,0.4833333333333333,-0.6522222222222223,8.845467151396713,0.17438307085105567,11.555281737364448
1589552384.4710913,0.8449741349580411,-4.343350576694639,8.709948269916083,0.38,0.4833333333333333,-0.6522222222222223,6.283998160708127,3.288325765413649,11.35438220868299
1589552384.4810913,0.8140176462414894,-4.287477942198138,8.710469119077393,0.38,0.4833333333333333,-0.6522222222222223,2.969577167569821,-1.425772023065166,17.373722340905932
1589552384.4910913,0.7848784215645408,-4.323901973044324,8.761462762262052,0.38,0.4833333333333333,-0.6522222222222223,1.603676010837849,-0.1509309434486592,14.323209757537864
1589552384.5010912,0.7932894243194798,-4.237269790320564,8.730559214640044,0.37968932519997595,0.4830226585333092,-0.6522222222222223,-1.1163632289799492,-2.1936668889907875,16.535976124473716
1589552384.5110912,0.6883838425945226,-4.350917503855935,8.739301346450457,0.37483258530530206,0.47816591863863533,-0.6522222222222223,2.926872733336112,-0.3359638792780024,11.23605871441077
1589552384.5210912,0.6799905951199122,-4.34,8.716006583416062,0.3744444444444445,0.4777777777777778,-0.6522222222222223,1.5499764877997806,-5.012758634202414,7.699083024191442
1589552384.5310912,0.7415391964951529,-4.324176454138702,8.66791177293065,0.3744444444444445,0.4777777777777778,-0.6522222222222223,-0.903740503821775,-3.5047801314317675,15.63186288217748
1589552384.5410912,0.7003106753552141,-4.286186405213129,8.708559215639385,0.3744444444444445,0.4777777777777778,-0.6522222222222223,-6.675680287359758,-3.530025059285387,16.902184093581237
1589552384.5510912,0.7413636657403219,-4.31068183287016,8.77386350416855,0.3749747588990141,0.4773989817387995,-0.6512373525208787,0.14915901893621153,3.531243941058618,20.19601887158276
1589552384.5610912,0.7350336912783638,-4.332483154360818,8.68375842281959,0.38222222222222224,0.4722222222222222,-0.6377777777777778,4.874383913902712,-0.3125,19.095840079525704
1589552384.5710912,0.7027413909520595,-4.351471978392978,8.672842673869008,0.38222222222222224,0.4722222222222222,-0.6377777777777778,1.312204591492235,0.18496792707629978,20.01932815665091
1589552384.5810912,0.7563262417084614,-4.342858154020385,8.668978725125385,0.38222222222222224,0.4722222222222222,-0.6377777777777778,6.035726925254814,0.5190604271153535,13.600665092622553
1589552384.5910912,0.7429878818480181,-4.399751009845999,8.622738891694016,0.38222222222222224,0.4722222222222222,-0.6377777777777778,6.728213361524867,-3.3352964844736177,8.030871307750568
1589552384.6010911,0.822405326937642,-4.393132889421863,8.695538216359505,0.38222222222222224,0.4722222222222222,-0.6377777777777778,6.149127824413027,2.7037384025498614,10.512666466801313
1589552384.6110911,0.9165030910253678,-4.427668727350245,8.777085909187806,0.40001023235983796,0.4659441009971814,-0.6377777777777778,3.285274994670646,0.3830499893412922,10.392637497335324
1589552384.6210911,0.8445125762762316,-4.445097484744754,8.704512576276231,0.4011111111111111,0.4655555555555556,-0.6377777777777778,3.785514957582974,2.8932783896413157,12.01096703378479
1589552384.631091,0.71,-4.4082677044395515,8.61404202297438,0.4011111111111111,0.4655555555555556,-0.6377777777777778,5.406167323809036,3.7331031201461076,6.737859934797822
1589552384.641091,0.71,-4.386790414255723,8.664155700069982,0.4011111111111111,0.4655555555555556,-0.6377777777777778,4.242814105518289,2.748727320053937,5.037574461911346
