time,acc_x,acc_y,acc_z,mag_x,mag_y,mag_z,gyr_x,gyr_y,gyr_z
1590500010.5967212,-3.75,-0.67,9.03,0.25555555555555554,-0.37777777777777777,-0.6355555555555555,0.375,-0.125,0.0625
1590500010.6067212,-3.7702751782918766,-0.67,9.012751782918768,0.25555555555555554,-0.37777777777777777,-0.6355555555555555,0.4323404070273091,-0.1840602713515394,-0.060780135675769696
1590500010.6167212,-3.777570881892503,-0.67,9.08570881892503,0.25555555555555554,-0.37777777777777777,-0.6355555555555555,0.2955459645155679,-0.09286397634371196,-0.015181988171855981
1590500010.6267211,-3.770472006538619,-0.6795279934613814,9.157639967306906,0.2746115424783181,-0.37777777777777777,-0.6429662171366298,0.07135012259910095,-0.12204995913363303,0.0
1590500010.6367211,-3.77,-0.6880025651144436,9.16,0.27555555555555555,-0.37777777777777777,-0.6433333333333333,-0.13756412786108918,-0.125,0.050016031965272295
1590500010.6467211,-3.7607968185104843,-0.6807968185104845,9.05876500361533,0.27555555555555555,-0.37777777777777777,-0.6433333333333333,-0.41757953723788865,-0.29755965292841646,-0.05253976861894433
1590500010.656721,-3.76,-0.68,9.034395954447717,0.27555555555555555,-0.37777777777777777,-0.6433333333333333,-0.4375,-0.26373735764912,0.13255056940351995
1590500010.666721,-3.765226811447128,-0.6747731885528719,9.040453622894256,0.27555555555555555,-0.37777777777777777,-0.6433333333333333,-0.40483242845544953,-0.1519972853663487,0.15483242845544956
1590500010.676721,-3.77,-0.6752850100138654,9.06057002002773,0.27555555555555555,-0.37425443776853423,-0.6392227699892158,-0.375,-0.0625,0.09196868741334155
1590500010.686721,-3.77,-0.6989520365840689,9.05104796341593,0.27555555555555555,-0.3711111111111111,-0.6355555555555555,-0.45396681910028713,-0.0625,0.023016590449856433
1590500010.696721,-3.77,-0.682059068219634,8.97480449251248,0.27555555555555555,-0.3711111111111111,-0.6355555555555555,-0.1507383527454243,-0.004289725457570712,0.05821027454242929
1590500010.706721,-3.77,-0.6942406444629771,8.998481288925953,0.27555555555555555,-0.3711111111111111,-0.6355555555555555,-0.08049798605319658,0.08900402789360683,-0.07100604184041023
1590500010.716721,-3.77,-0.6866797896863426,9.049960630940973,0.27555555555555555,-0.3711111111111111,-0.6355555555555555,0.18725394338107695,0.125,-0.041748685539641006
1590500010.726721,-3.77,-0.6555179098187948,9.106723135271809,0.27963590391908977,-0.3711111111111111,-0.6403159619796788,0.3890065318162663,0.08674673409186684,-0.03825326590813317
1590500010.736721,-3.77,-0.6593455830969704,9.120327208451513,0.2822222222222222,-0.3711111111111111,-0.6433333333333333,0.31659010564393475,0.0625,-0.0625
1590500010.746721,-3.760578173658179,-0.6788436526836418,9.01635991023997,0.2822222222222222,-0.3711111111111111,-0.6433333333333333,0.13584075609085913,-0.11415924390914087,0.17304565854552115
1590500010.756721,-3.769295163534322,-0.68,9.000704836465678,0.2822222222222222,-0.3711111111111111,-0.6433333333333333,-0.1073790883580541,-0.2992843162685406,0.013215683731459427
1590500010.766721,-3.763654563521152,-0.6863454364788479,9.03172718239424,0.2822222222222222,-0.3711111111111111,-0.6433333333333333,-0.2836359119712,-0.11420511003599992,-0.03965897799280001
1590500010.776721,-3.767396678547054,-0.69,9.057396678547054,0.27729110319085293,-0.3661799920797419,-0.6375803611300691,-0.5599169636763479,-0.04622924091908698,-0.0625
1590500010.786721,-3.756214580467675,-0.6762145804676754,9.080678129298487,0.27555555555555555,-0.3644444444444445,-0.6355555555555555,-0.5819205639614855,-0.0625,-0.0625
1590500010.796721,-3.767847751101397,-0.6789238755506984,8.982913493391619,0.27555555555555555,-0.3644444444444445,-0.6355555555555555,-0.45095155561626993,-0.006725777808134964,0.04904844438373007
1590500010.806721,-3.75379987889165,-0.6962001211083502,9.042900544987576,0.27555555555555555,-0.3644444444444445,-0.6355555555555555,-0.28562386460921674,0.20250151385437765,-0.03875075692718882
1590500010.816721,-3.763167622178567,-0.7,9.066583811089284,0.27555555555555555,-0.3644444444444445,-0.6355555555555555,-0.12655354207593314,0.20885118069197772,-0.02135118069197771
1590500010.826721,-3.77,-0.7,9.09696664500758,0.27915110822323297,-0.3614481505547133,-0.6397503670011792,0.13974983755685508,0.22120830625947585,-0.03370830625947585
1590500010.836721,-3.77,-0.6823781111489942,9.084756222297989,0.2822222222222222,-0.3588888888888889,-0.6433333333333333,0.3859245368791908,0.17657546312080918,0.047636805318786224
1590500010.846721,-3.7608833699049136,-0.67,8.977950329144226,0.2822222222222222,-0.3588888888888889,-0.6433333333333333,0.6084368142828646,-0.04593681428286456,0.011042123811423624
1590500010.856721,-3.766535684578273,-0.6961427383130927,8.98960705373482,0.2822222222222222,-0.3588888888888889,-0.6433333333333333,0.5024559141573781,-0.021651971385792716,0.040848028614207284
1590500010.866721,-3.7758404314159293,-0.6924787057522124,9.046723451327434,0.2822222222222222,-0.3588888888888889,-0.6433333333333333,0.3279919109513274,0.18251348174778761,0.025997303650442477
1590500010.876721,-3.7715828666186915,-0.696834266762617,9.096834266762617,0.2878336444764279,-0.3588888888888889,-0.644268570375701,-0.013035418165889656,0.20728583273364412,0.05260708363317794
1590500010.886721,-3.762015931770461,-0.6760477953113839,9.107984068229538,0.2888888888888889,-0.3588888888888889,-0.6444444444444445,-0.2122012793038509,0.08769914713076607,0.11240042643461697
1590500010.896721,-3.786293311845286,-0.6787644372817621,9.02235562718238,0.2888888888888889,-0.3588888888888889,-0.6444444444444445,-0.25,0.0625,0.17977773301101263
1590500010.9067209,-3.79,-0.6717782915015412,9.051108542492294,0.2888888888888889,-0.3588888888888889,-0.6444444444444445,-0.30138567811536765,0.21665703434610303,0.08472864376926464
1590500010.9167209,-3.7766821345707657,-0.67,9.066658932714617,0.2888888888888889,-0.3588888888888889,-0.6444444444444445,-0.14602668213457076,0.25,0.10411832946635731
1590500010.9267209,-3.7614866248123375,-0.6870267503753241,9.078513375187661,0.2661865550551234,-0.36361854177092345,-0.6368769998331892,0.0439171898457759,0.19679140507711204,0.125
1590500010.9367208,-3.777668405960607,-0.7076684059606073,8.991657970196965,0.26222222222222225,-0.3644444444444445,-0.6355555555555555,0.1729275372537959,0.1875,0.18021376862689795
1590500010.9467208,-3.7713419173592415,-0.6926838347184829,8.919393421514691,0.26222222222222225,-0.3644444444444445,-0.6355555555555555,0.2416130165047407,0.1333869834952593,0.02516095048577785
1590500010.9567208,-3.7432424443951824,-0.6989191852016059,8.990272666814453,0.26222222222222225,-0.3644444444444445,-0.6355555555555555,0.3057449075100372,0.013510184979925621,0.05574490751003719
1590500010.9667208,-3.7589340212422697,-0.6810659787577306,9.03786804248454,0.26222222222222225,-0.3644444444444445,-0.6355555555555555,0.2730541224119387,-0.03944587758806131,0.023054122411938688
1590500010.9767208,-3.7610443215157554,-0.67,9.091344874694856,0.2766508153357272,-0.3644444444444445,-0.6395358571041087,0.27798649526326397,0.04944598105305592,0.02798649526326398
1590500010.9867208,-3.757891349007076,-0.677891349007076,9.13,0.29444444444444445,-0.3644444444444445,-0.6444444444444445,0.21385813741154988,0.06419767176443734,0.03783953435288747
1590500010.9967208,-3.775760881748552,-0.6784782365028956,9.066630300765926,0.29444444444444445,-0.3644444444444445,-0.6444444444444445,-0.009511021856902682,-0.08899448907154867,-0.03600551092845134
1590500011.0067208,-3.7722478400770223,-0.6777521599229775,9.012247840077022,0.29444444444444445,-0.3644444444444445,-0.6444444444444445,-0.0625,-0.0625,-0.014049000481390461
1590500011.0167208,-3.77,-0.6865583230872963,9.049349938523777,0.29444444444444445,-0.3644444444444445,-0.6444444444444445,0.019479038591202952,-0.10348951929560148,0.040989519295601476
1590500011.0267208,-3.754922275026828,-0.69,9.05492227502683,0.28523027918306165,-0.3744962610932257,-0.6486327013814367,-0.07885367162348611,0.11058945270581022,-0.03173578108232407
1590500011.0367208,-3.7578536528887345,-0.69,9.057853652888735,0.2822222222222222,-0.37777777777777777,-0.65,-0.125,0.04024400833622785,0.035670661109181434
1590500011.0467207,-3.7668754076973254,-0.6968754076973255,8.977495107632095,0.2822222222222222,-0.37777777777777777,-0.65,-0.0820287018917156,0.08594259621656881,-0.023442596216568815
1590500011.0567207,-3.77,-0.6666093600764088,8.998433619866285,0.2822222222222222,-0.37777777777777777,-0.65,0.04184574976122253,0.125,0.04184574976122253
1590500011.0667207,-3.77,-0.6791184668989547,9.016372822299651,0.2822222222222222,-0.37777777777777777,-0.65,-0.017160278745644603,0.0453397212543554,-0.017160278745644603
1590500011.0767207,-3.7851051201373,-0.6748948798627002,9.0502102402746,0.26711710208492245,-0.36770769768624467,-0.6390907465675058,0.07911050128718536,0.0,-0.015296499570938218
1590500011.0867207,-3.778495476596303,-0.6872567851055461,9.06575226170185,0.26222222222222225,-0.3644444444444445,-0.6355555555555555,0.05309672872689131,0.0,0.0719032712731087
1590500011.0967207,-3.7761454977757323,-0.7,9.014690520018409,0.26222222222222225,-0.3644444444444445,-0.6355555555555555,0.0,-0.19204680549163983,0.08659063890167204
1590500011.1067207,-3.78,-0.7,9.024321119192106,0.26222222222222225,-0.3644444444444445,-0.6355555555555555,-0.04616783249177746,-0.035493005049335224,0.016332167508222542
1590500011.1167207,-3.7678237560065124,-0.6939118780032564,9.076528731980462,0.26222222222222225,-0.3644444444444445,-0.6355555555555555,-0.0625,0.10055076247964735,0.0
1590500011.1267207,-3.7670183963901422,-0.6759632072197154,9.114036792780285,0.2715800840757453,-0.3605453353388099,-0.6261976937020325,-0.0625,0.125,0.08772995487677888
1590500011.1367207,-3.77,-0.67,9.104719132827011,0.27555555555555555,-0.3588888888888889,-0.6222222222222222,-0.25351083966234805,0.125,-0.018258129746761026
1590500011.1467206,-3.777381497675064,-0.6921444930251925,9.018803525574294,0.27555555555555555,-0.3588888888888889,-0.6222222222222222,-0.45090308140745367,0.26340308140745367,0.07590308140745367
1590500011.1567206,-3.7561216374269004,-0.6920405458089668,8.997959454191033,0.27555555555555555,-0.3588888888888889,-0.6222222222222222,-0.6492397660818714,0.5612329434697856,0.3239863547758285
1590500011.1667206,-3.75,-0.702507153863086,9.025014307726172,0.27555555555555555,-0.3588888888888889,-0.6222222222222222,-0.5311605767114241,0.46866057671142414,0.29683028835571207
1590500011.1767206,-3.7697863732491492,-0.7165954577497164,9.04,0.27555555555555555,-0.3713469757494645,-0.6361459663605126,-0.2726135562570877,0.4986648328071842,0.33244322187145614
1590500011.1867206,-3.78,-0.6952904880198734,9.046177377995031,0.27555555555555555,-0.37777777777777777,-0.6433333333333333,-0.03306555012420867,0.6397172249378956,0.2591741625931565
1590500011.1967206,-3.78,-0.6747561814762145,9.023780907381074,0.27555555555555555,-0.37777777777777777,-0.6433333333333333,0.09527386577365934,0.5236306711317033,0.2530477315473187
1590500011.2067206,-3.773044376660435,-0.6630443766604349,9.034778116697826,0.27555555555555555,-0.37777777777777777,-0.6433333333333333,0.1684726458722818,0.375,0.3125
1590500011.2167206,-3.7759686409239595,-0.6779059227718791,9.079843204619799,0.27555555555555555,-0.37777777777777777,-0.6433333333333333,0.1875,0.375,0.3125
1590500011.2267206,-3.78,-0.6834066189149754,9.113186762170049,0.27042737026720315,-0.36019542821771233,-0.6477289207233498,0.14629136821859662,0.2513741046557899,0.2712913682185966
1590500011.2367206,-3.78,-0.6950787982669142,9.097381802599628,0.2677777777777778,-0.3511111111111111,-0.65,0.07787875541589297,0.14037875541589295,0.20287875541589295
1590500011.2467206,-3.78756455974918,-0.7226936792475408,9.044612641504918,0.2677777777777778,-0.3511111111111111,-0.65,-0.032056996864753606,0.26683549529713046,0.1875
1590500011.2567205,-3.7829313989452835,-0.7229313989452838,9.03,0.2677777777777778,-0.3511111111111111,-0.65,-0.10667875659197615,0.17996373022407156,0.1875
1590500011.2667205,-3.7744441011181706,-0.7144441011181707,9.046667696645487,0.2677777777777778,-0.3511111111111111,-0.65,-0.125,0.15972436801143275,0.1875
1590500011.2767205,-3.7761190122179844,-0.6916429633460469,9.066119012217985,0.27253700950287674,-0.35926979406842363,-0.65,-0.125,0.14925617363759777,0.14925617363759777
1590500011.2867205,-3.7671703773544474,-0.6671703773544475,9.095659245291104,0.27555555555555555,-0.3644444444444445,-0.65,-0.004722287697944999,0.16509257076735168,0.044814858465296675
1590500011.2967205,-3.753732879266201,-0.653732879266201,9.009726068259216,0.27555555555555555,-0.3644444444444445,-0.65,0.10166950458624374,-0.0866865321037063,0.0
1590500011.3067205,-3.7643421753488866,-0.65,8.964342175348888,0.27555555555555555,-0.3644444444444445,-0.65,0.03536140406945776,-0.11554210610418664,0.0
1590500011.3167205,-3.77,-0.65,8.987435749939694,0.27555555555555555,-0.3644444444444445,-0.65,-0.21794687424616357,0.010148958082054516,0.07264895808205452
1590500011.3267205,-3.7639510413088955,-0.6560489586911044,9.018146876073313,0.27555555555555555,-0.3610839118382754,-0.65,-0.48841797545820714,-0.05091797545820713,0.01158202454179287
1590500011.3367205,-3.753233452697239,-0.5449686958530668,9.03676654730276,0.27555555555555555,-0.3588888888888889,-0.65,-0.5625,-0.125,-0.0625
1590500011.3467205,-3.75,-0.3598259419970091,9.00574366894658,0.27555555555555555,-0.3588888888888889,-0.65,-0.6909612414503199,-0.125,-0.0625
1590500011.3567204,-3.7741580706087463,-0.3483161412174924,8.99,0.27555555555555555,-0.3588888888888889,-0.65,-0.6367590440215023,-0.3137349266308296,0.2017288972831614
1590500011.3667204,-3.7753758236134507,-0.4726197837814785,9.048496705546198,0.27555555555555555,-0.3588888888888889,-0.65,-0.7453022048318656,-0.5593681365545771,0.49686813655457707
1590500011.3767204,-3.7871129212972776,-0.6079580898161887,9.131690337037822,0.27133799002042347,-0.3655164918726679,-0.6542175655351321,-0.5985884837840293,-0.4502619386488205,-0.4256257002695092
1590500011.3867204,-3.800973114842357,-0.689647868367038,9.159026885157644,0.2677777777777778,-0.3711111111111111,-0.6577777777777778,-0.3125,-0.25,-1.3125
1590500011.3967204,-3.8261677389349664,-0.807868382295946,9.12659871327804,0.2677777777777778,-0.3711111111111111,-0.6577777777777778,-0.28989516316564606,-0.20479032633129216,-0.9734274474846911
1590500011.4067204,-3.848999749624437,-0.9236667501251877,9.054555583375063,0.2677777777777778,-0.3711111111111111,-0.6577777777777778,-0.07916562343515274,-0.06805520781171757,-0.3180552078117176
1590500011.4167204,-3.780526627719922,-0.8880710072531256,9.06,0.2677777777777778,-0.3711111111111111,-0.6577777777777778,-0.03727810233398243,-0.020284762791747804,-0.25
1590500011.4267204,-3.7525785724263168,-0.7674214275736835,9.064192857475438,0.2626531741966859,-0.3659865075300192,-0.6615047622003901,-0.2963839223355217,-0.0625,-0.25
1590500011.4367204,-3.77,-0.755105264738565,9.08021052947713,0.25555555555555554,-0.3588888888888889,-0.6666666666666666,-0.251315809232063,-0.030592095383968523,-0.1223683815358741
1590500011.4467204,-3.77,-0.751243106656878,9.033080193269708,0.25555555555555554,-0.3588888888888889,-0.6666666666666666,-0.1756735415137184,0.027365291697256322,-0.10946116678902529
1590500011.4567204,-3.7666980372052143,-0.74,8.976509813973928,0.25555555555555554,-0.3588888888888889,-0.6666666666666666,0.020637267467408817,0.10377453493481764,-0.18808819759777354
1590500011.4667203,-3.76,-0.74,9.019017843526003,0.25555555555555554,-0.3588888888888889,-0.6666666666666666,0.2879460881500686,0.27204228305627576,-0.0625
1590500011.4767203,-3.76,-0.7122571790540541,9.057742820945945,0.2678856981981982,-0.3552925972847848,-0.658960327515015,0.7647914027308558,0.14380982545045046,-0.14919631545608109
1590500011.4867203,-3.766322703023118,-0.6736772969768821,9.108968109069354,0.2822222222222222,-0.3511111111111111,-0.65,1.316135151155898,-0.006449318316538236,-0.13144931831653822
1590500011.4967203,-3.77,-0.6583747828572686,9.085124348571805,0.2822222222222222,-0.3511111111111111,-0.65,1.4636711964289641,0.17148641071310772,-0.026171196428964094
1590500011.5067203,-3.77,-0.6385717137438867,9.054285856871944,0.2822222222222222,-0.3511111111111111,-0.65,1.3660732108992915,0.357140183651063,-0.03571339455035433
1590500011.5167203,-3.77,-0.6497667922359852,9.057906716894395,0.2822222222222222,-0.3511111111111111,-0.65,1.164249058230111,0.38808301941003703,-0.03779150970501852
1590500011.5267203,-3.7716662564607435,-0.68,9.066667487078513,0.27888970930073564,-0.3533327863921022,-0.6488891623595044,0.8541871769628353,0.23960127984248092,0.010414102879645582
1590500011.5367203,-3.7698972298780773,-0.6732648199187182,9.053367590040642,0.26222222222222225,-0.3644444444444445,-0.6433333333333333,0.4164525622459943,-0.019762811229971505,0.10459487550801139
1590500011.5467203,-3.7503041061335076,-0.6602027374223385,9.059898631288831,0.26222222222222225,-0.3644444444444445,-0.6433333333333333,0.3756335544448078,0.18433222777596114,0.18623289111038444
1590500011.5567203,-3.765752474709018,-0.6972574241270532,8.996722778200805,0.26222222222222225,-0.3644444444444445,-0.6433333333333333,0.11726483465680407,0.44690593386272165,0.19690593386272165
1590500011.5667202,-3.764056743677802,-0.68,9.064056743677803,0.26222222222222225,-0.3644444444444445,-0.6433333333333333,-0.0625,0.47641859194505154,0.125
1590500011.5767202,-3.77,-0.6826675182905586,9.072667518290558,0.2708175589362444,-0.36622278997148355,-0.6394802513580821,0.0041879572639646895,0.5583120427360353,0.10832801068400882
1590500011.5867202,-3.78096704845815,-0.6790329515418502,9.072688634361233,0.29444444444444445,-0.3711111111111111,-0.6288888888888889,0.1875,0.32930396475770923,0.13104405286343612
1590500011.5967202,-3.7876237657884304,-0.6558745885961436,9.043498354384575,0.29444444444444445,-0.3711111111111111,-0.6288888888888889,0.13593235745179466,0.30156764254820534,0.3531352850964107
1590500011.6067202,-3.764172573761366,-0.6383451475227315,9.014172573761366,0.29444444444444445,-0.3711111111111111,-0.6288888888888889,-0.010342827982928196,0.3932107069957321,0.5910535349786602
1590500011.6167202,-3.754150439584393,-0.6432035166751435,9.037353956259537,0.29444444444444445,-0.3711111111111111,-0.6288888888888889,-0.47284272142701445,0.6190817318171911,0.7087390103901765
1590500011.6267202,-3.756940954773869,-0.6747047738693467,9.080822864321608,0.28866624790619766,-0.36737227805695144,-0.6336474036850922,-0.8367619346733668,0.875,0.5816190326633166
1590500011.6367202,-3.7193268066469147,-0.6093268066469149,9.075336596676543,0.27555555555555555,-0.3588888888888889,-0.6444444444444445,-0.39853632616256607,0.6513412984670874,1.1042686461419553
1590500011.6467202,-3.721493007951741,-0.6062441732931176,9.037511653413764,0.27555555555555555,-0.3588888888888889,-0.6444444444444445,0.035915649849191114,0.3718895667672059,2.349825198793529
1590500011.6567202,-3.6914289670451397,-0.6544045970645251,9.04857103295486,0.27555555555555555,-0.3588888888888889,-0.6444444444444445,0.03348276100803102,0.15997126834671838,3.3980632096372196
1590500011.6667202,-3.5682326522554533,-0.6572436087256934,9.13925821735268,0.27555555555555555,-0.3588888888888889,-0.6444444444444445,0.05940923896949955,0.18286385845424932,3.343635870101668
1590500011.6767201,-3.436049306815038,-0.6091534228889367,9.200282192370354,0.2757436838024585,-0.3590456624279747,-0.6446012179835303,0.3389555347207279,0.5924829393501583,2.418869693523101
1590500011.6867201,-3.102817179529373,-0.7635840052657561,9.30179200263288,0.2822222222222222,-0.3644444444444445,-0.65,2.376151884153365,2.4324296527892053,-1.904866710547968
1590500011.6967201,-2.655399327076324,-0.8013033469098637,9.131156366212148,0.2822222222222222,-0.3644444444444445,-0.65,4.912420311669913,4.969010093855144,-7.512860811050115
1590500011.70672,-2.6595304784989673,-0.4111410359996409,8.720604183499416,0.2822222222222222,-0.3644444444444445,-0.65,4.085566478139869,5.276842625011222,-13.18960409372475
1590500011.71672,-2.8645955404459555,-0.5245955404459555,8.804306369363065,0.2822222222222222,-0.3644444444444445,-0.65,1.2550557444255575,2.404259574042596,-17.647762723727627
1590500011.72672,-2.9613843878736668,-0.6583836484630823,8.864075842399917,0.2857007851836203,-0.3663418424233889,-0.6481026020210556,-0.25720265131509457,0.10914492447449031,-18.85769515157917
1590500011.73672,-3.0068397651880927,-0.7828066275313488,9.030872902844836,0.29444444444444445,-0.3711111111111111,-0.6433333333333333,-1.6205799089930182,-1.2050414220709298,-18.131630136510474
1590500011.74672,-3.043442450819925,-0.7768849016398506,9.067375930329513,0.29444444444444445,-0.3711111111111111,-0.6433333333333333,-2.1270459528735985,-1.2090153176245328,-16.77765317624533
1590500011.75672,-3.030489484574287,-0.7509789691485748,8.983181649732868,0.29444444444444445,-0.3711111111111111,-0.6433333333333333,-1.8841778357678887,-1.1280592785892962,-15.968092785892962
1590500011.76672,-2.8460508506735818,-0.8135032572259819,9.135668838150655,0.29444444444444445,-0.3711111111111111,-0.6433333333333333,-1.0615038580734932,0.41879071532477385,-12.583996110302953
1590500011.77672,-2.405016835016835,-0.9750168350168351,9.026839826839828,0.2887114531558976,-0.36740152851263963,-0.651764202875314,3.181697931697932,4.088053150553151,-9.675324675324676
1590500011.78672,-2.2905923859533965,-0.7847407285854939,8.575406957663276,0.27555555555555555,-0.3588888888888889,-0.6711111111111111,2.5796377584509353,3.0375061535936987,-9.211109287824089
1590500011.79672,-2.493870517473289,-0.8147544603202802,8.953183006370073,0.27555555555555555,-0.3588888888888889,-0.6711111111111111,-1.7110768850087557,-0.5532922620105069,-10.464146131005254
1590500011.80672,-2.61,-0.8094493807915476,9.04071048757253,0.27555555555555555,-0.3588888888888889,-0.6711111111111111,-1.2588810946566207,-0.2350134234000174,-10.746558629947172
1590500011.81672,-2.604206763714487,-0.7576827054857947,8.87073082194318,0.27555555555555555,-0.3588888888888889,-0.6711111111111111,0.7717246360706745,1.7835338185724339,-10.459224636070674
1590500011.82672,-2.5653663370004076,-0.742146534800163,8.808586139200653,0.27555555555555555,-0.3588888888888889,-0.6711111111111111,0.9173762362484721,1.5893316850020374,-10.604876236248472
1590500011.83672,-2.6611412422202463,-0.7831141242220246,9.046228248444049,0.29444444444444445,-0.3511111111111111,-0.65,-0.3094774069604979,0.5932062111012321,-11.800169487488887
1590500011.84672,-2.734245625065493,-0.781508749869014,9.026034999476057,0.29444444444444445,-0.3511111111111111,-0.65,0.6745625065493032,1.1763164099339831,-12.505921879911977
1590500011.85672,-2.7471965820458046,-0.7843931640916092,9.01238461920612,0.29444444444444445,-0.3511111111111111,-0.65,1.0251068110686075,1.3650640866411645,-13.409775696755924
1590500011.86672,-2.788305068264032,-0.81,9.063709984830215,0.29444444444444445,-0.3511111111111111,-0.65,0.5660311077832666,1.1643125948111557,-14.662782245517134
1590500011.87672,-2.8423594787649193,-0.8115281042470162,9.05,0.29563296996990146,-0.3500923749464337,-0.65,0.5234558638946576,1.2691013030877016,-15.734411727789315
1590500011.88672,-2.80336251700443,-0.8233625170044299,9.048318741497786,0.3022222222222222,-0.34444444444444444,-0.65,0.8949213436115665,1.4275393281942168,-16.97121237224877
1590500011.89672,-2.831146773448329,-0.8372133066379177,9.006559679655012,0.3022222222222222,-0.34444444444444444,-0.65,0.35758316648698596,1.7571673340520562,-18.862671338364393
1590500011.90672,-2.856985676882797,-0.8307535807793007,8.92904296935161,0.3022222222222222,-0.34444444444444444,-0.65,0.31720987987062993,1.9186604805174803,-19.993123363622363
1590500011.91672,-2.7983911379906194,-0.8464354480375216,8.961262034065662,0.3022222222222222,-0.34444444444444444,-0.65,0.27227844976549,1.875,-21.96905085164157
1590500011.92672,-2.791920050604789,-0.8723197975808442,9.006559645766476,0.3022222222222222,-0.34444444444444444,-0.65,0.11050126511972352,1.875,-23.101491144161937
1590500011.93672,-2.865125608940682,-0.8817085363135607,9.074874391059318,0.3088888888888889,-0.3511111111111111,-0.6577777777777778,0.2713567039195084,2.1463567039195084,-25.64949692743656
1590500011.94672,-2.9263051203167105,-0.9031525601583554,9.004237199208223,0.3088888888888889,-0.3511111111111111,-0.6577777777777778,0.5788140039588848,2.3355929980205574,-27.880512031671078
1590500011.9567199,-2.94,-0.9126760107598649,8.988732075319055,0.3088888888888889,-0.3511111111111111,-0.6577777777777778,0.75,2.3169002689966223,-29.8521024209696
1590500011.9667199,-2.9412148126165847,-0.9212148126165848,9.042429625233169,0.3088888888888889,-0.3511111111111111,-0.6577777777777778,0.7727777365609632,2.5227777365609634,-31.780925417585213
1590500011.9767199,-2.9507047502240673,-0.9305872918533894,9.059882541629323,0.3090324491197174,-0.3510328055306592,-0.657621166616874,0.93970234445021,2.6911705740836833,-33.84113047785273
1590500011.9867198,-3.0099102140247083,-0.979940142683139,9.049955107012355,0.3211111111111111,-0.34444444444444444,-0.6444444444444445,1.1250935270575952,3.0005611623455715,-36.25355402818862
1590500011.9967198,-2.956476697866517,-0.94,8.9811398128009,0.3211111111111111,-0.34444444444444444,-0.6444444444444445,1.0660619150028103,3.4357190424985946,-39.39410787164887
1590500012.0067198,-3.0147740487851955,-0.9675532607908895,8.913776630395445,0.3211111111111111,-0.34444444444444444,-0.6444444444444445,0.7263960600284701,3.47639606002847,-41.904091369701064
1590500012.0167198,-3.0973476863407012,-1.0306092546371945,8.963870822933687,0.3211111111111111,-0.34444444444444444,-0.6444444444444445,0.5293460792587671,3.345653920741233,-44.304655375195274
1590500012.0267198,-3.089634851513421,-1.0621908909194746,9.030730296973157,0.32131397138143286,-0.3446878767688305,-0.6452558855257313,0.4489108902055968,3.455757424328955,-46.274222765562534
1590500012.0367198,-3.0929319666104407,-1.11676700834739,9.056465983305221,0.32666666666666666,-0.3511111111111111,-0.6666666666666666,0.7297938021711864,3.9577061978288137,-49.28992312183729
1590500012.0467198,-3.1164596386843724,-1.1223912646046967,9.04698765144842,0.32666666666666666,-0.3511111111111111,-0.6666666666666666,0.7206908873340092,4.033190887334009,-51.1775997606741
1590500012.0567198,-3.1025179078927687,-1.1711873223753095,8.956366401302995,0.32666666666666666,-0.3511111111111111,-0.6666666666666666,0.8513946135052934,4.163894613505294,-52.615340748558225
1590500012.0667198,-3.163837497475814,-1.2215124924274412,8.977268738641163,0.32666666666666666,-0.3511111111111111,-0.6666666666666666,1.2979687184476714,4.297968718447671,-55.19624974758137
1590500012.0767198,-3.179237053219026,-1.2677111596570778,9.046566739485618,0.32666666666666666,-0.3511111111111111,-0.6666666666666666,1.4904631652378242,4.490463165237824,-56.736205321902595
1590500012.0867198,-3.2099140401146133,-1.2271776504297993,9.0,0.3411111111111111,-0.3377777777777778,-0.6666666666666666,1.6880372492836677,4.76602793696275,-59.37070200573066
1590500012.0967197,-3.2207942419250877,-1.3290252811000502,8.969819523025137,0.3411111111111111,-0.3377777777777778,-0.6666666666666666,1.448556005156485,4.625,-61.303699957029295
1590500012.1067197,-3.157519725038369,-1.297503945007674,8.897488164976979,0.3411111111111111,-0.3377777777777778,-0.6666666666666666,1.2968996562979616,4.687401374808154,-62.874309623657076
1590500012.1167197,-3.143349483204134,-1.3075121124031008,8.936052769702842,0.3411111111111111,-0.3377777777777778,-0.6666666666666666,1.2135164324935401,4.884120891876615,-64.39728051316214
1590500012.1267197,-3.2788242894056845,-1.4091182170542635,9.029191698966407,0.3411111111111111,-0.3377777777777778,-0.6666666666666666,1.0018370478036176,4.937040738049095,-65.6144369751292
1590500012.1367197,-3.296073571051495,-1.409644142630897,9.046073571051494,0.37333333333333335,-0.3055555555555556,-0.6711111111111111,1.1093562532994192,5.020091963814369,-67.62952320391611
1590500012.1467197,-3.327339278065496,-1.4406428877380164,9.045410614851447,0.37333333333333335,-0.3055555555555556,-0.6711111111111111,0.912277072543904,5.129018048362603,-68.91171975390367
1590500012.1567197,-3.306572873853936,-1.4722378543576773,8.941048582569291,0.37333333333333335,-0.3055555555555556,-0.6711111111111111,1.2154731794709663,5.35445976920645,-70.01486589735484
1590500012.1667197,-3.2155666887229417,-1.5071233575952359,8.894906701956707,0.37333333333333335,-0.3055555555555556,-0.6711111111111111,1.3693957368371301,5.648583278192646,-71.33904196994045
1590500012.1767197,-3.2948615181018996,-1.59434766991209,9.021778428963039,0.37333333333333335,-0.3055555555555556,-0.6711111111111111,1.0224808583041876,5.45034620474525,-72.42934587390113
1590500012.1867197,-3.299589705003651,-1.6122435656272822,8.95265386062363,0.37333333333333335,-0.3,-0.7088888888888889,1.7346955429658972,5.9375,-73.88645794144334
1590500012.1967196,-3.3479477081656763,-1.654017430611441,8.924643425851412,0.37333333333333335,-0.3,-0.7088888888888889,1.6456517644641542,5.895651764464154,-74.67576258925055
1590500012.2067196,-3.2833128435183125,-1.6755623854938957,8.895916819341473,0.37333333333333335,-0.3,-0.7088888888888889,1.4212251511052514,5.671225151105252,-75.61835436535794
1590500012.2167196,-3.314268667438241,-1.7332015005786805,8.97,0.37333333333333335,-0.3,-0.7088888888888889,1.5400187572335076,5.845848964361256,-77.16254689308377
1590500012.2267196,-3.34774673743864,-1.75831005307898,8.97,0.37333333333333335,-0.3,-0.7088888888888889,1.853875663487249,6.107396386239374,-77.94718915871812
1590500012.2367196,-3.417967330414725,-1.8803266958527516,9.0518693216589,0.4244444444444445,-0.25222222222222224,-0.6855555555555556,1.5,6.01270418490797,-78.99035858871157
1590500012.2467196,-3.4083283070313146,-1.9650150789060563,9.003283070313145,0.4244444444444445,-0.25222222222222224,-0.6855555555555556,1.5731365673799884,6.146084648434273,-79.73974040527142
1590500012.2567196,-3.394988234386452,-1.99,8.917494117193225,0.4244444444444445,-0.25222222222222224,-0.6855555555555556,1.9335845581144158,6.5546691162288315,-80.01761948848512
1590500012.2667196,-3.2655495120163565,-1.99,8.852774756008177,0.4244444444444445,-0.25222222222222224,-0.6855555555555556,1.8324605562627783,6.3524211125255565,-80.4726774968175
1590500012.2767196,-3.2799146312544463,-2.0997652359497274,9.059530471899455,0.4244444444444445,-0.25222222222222224,-0.6855555555555556,1.3759337206544937,5.938300331989566,-81.37326594735595
1590500012.2867196,-3.152180841321204,-2.0403510592832284,8.906617009585446,0.43201891310689167,-0.2304456248176866,-0.699757684297644,1.7478058794798217,6.097273948348495,-81.69454789669699
1590500012.2967196,-3.091650429106733,-2.1459639792094767,8.915686449897256,0.43333333333333335,-0.22666666666666666,-0.7022222222222222,1.970180103952617,6.477635077964463,-81.80504502598815
1590500012.3067195,-3.0342075265260426,-2.2012200707361136,8.828232614946184,0.43333333333333335,-0.22666666666666666,-0.7022222222222222,1.7237029592122337,6.277437278949645,-81.78506272105035
1590500012.3167195,-3.066423886711441,-2.27160597167786,8.936788056644279,0.43333333333333335,-0.22666666666666666,-0.7022222222222222,1.602649291946507,6.162873229866268,-81.98996267701337
1590500012.3267195,-3.0994674334784236,-2.279866858369606,8.920266283260789,0.43333333333333335,-0.22666666666666666,-0.7022222222222222,1.8091714592401473,6.679178648100368,-81.93833213518997
1590500012.3367195,-3.0388415336836143,-2.3255792331581926,8.94697404144774,0.46,-0.1955555555555556,-0.7155555555555555,2.1264771373322655,6.518912240951618,-81.60756489638065
1590500012.3467195,-2.9733017559622636,-2.3583491220188684,8.987936402523585,0.46,-0.1955555555555556,-0.7155555555555555,1.768056477918628,6.262897484227591,-81.50515899369104
1590500012.3567195,-2.872470778960852,-2.42,8.817412336882557,0.46,-0.1955555555555556,-0.7155555555555555,1.9375,6.380147456168442,-81.26029491233689
1590500012.3667195,-2.897654711392202,-2.42,8.892964134176607,0.46,-0.1955555555555556,-0.7155555555555555,1.9375,6.432613982067088,-81.36522796413418
1590500012.3767195,-2.881444158969689,-2.4571116820606216,8.893814719656563,0.46,-0.1955555555555556,-0.7155555555555555,1.898841997853519,6.244209989267595,-81.22036799141408
1590500012.3867195,-2.8765873129009267,-2.4997619387027794,8.85047612259444,0.4680511602122436,-0.1692063039518492,-0.7301940286687257,1.875,6.083829294369209,-81.04265858873842
1590500012.3967195,-2.770791970552596,-2.511583941105192,8.857624088342211,0.4722222222222222,-0.15555555555555556,-0.7377777777777778,1.6101505521388235,6.115100368092549,-80.95234944786118
1590500012.4067194,-2.789970735499211,-2.5499414709984225,8.800087793502367,0.4722222222222222,-0.15555555555555556,-0.7377777777777778,1.2505487093897893,5.875365806259859,-81.31195129061021
1590500012.4167194,-2.7709874245244475,-2.5975314386888817,8.809506287737777,0.4722222222222222,-0.15555555555555556,-0.7377777777777778,0.8935142098333864,5.993828596722205,-81.19367140327779
1590500012.4267194,-2.912092851528072,-2.6757828541483053,8.923674281222457,0.4722222222222222,-0.15555555555555556,-0.7377777777777778,0.9934107096067268,5.763178580786546,-80.95067858078654
1590500012.4367194,-2.9653590592533394,-2.7435026829546754,8.948143623701336,0.46718232674962895,-0.11926830815288401,-0.7438256523448897,1.0566988240666744,6.600482361000114,-80.76740352779997
1590500012.4467194,-2.9021080406831703,-2.7056371137977355,8.957598349644982,0.4666666666666667,-0.11555555555555555,-0.7444444444444445,1.7570463922471695,6.4375,-80.25612886202265
1590500012.4567194,-2.8551559201688734,-2.739174342736519,8.883816445979658,0.4666666666666667,-0.11555555555555555,-0.7444444444444445,1.7989679284206486,6.4375,-79.92075657263482
1590500012.4667194,-2.822958185683912,-2.725476966690291,8.824694542877392,0.4666666666666667,-0.11555555555555555,-0.7444444444444445,1.3125,6.763598511693834,-79.04186746987952
1590500012.4767194,-2.746520603422092,-2.7849284195605954,8.87565293105194,0.4666666666666667,-0.11555555555555555,-0.7444444444444445,1.3125,6.23278196820897,-78.13947934595525
1590500012.4867194,-2.761957080399159,-2.881957080399159,8.815435036545072,0.4955555555555556,-0.08333333333333333,-0.73,1.270381387044021,6.709237225911958,-76.70515510796649
1590500012.4967194,-2.8389475352935287,-2.958947535293529,8.850430697860695,0.4955555555555556,-0.08333333333333333,-0.73,1.4016151169776057,6.446769766044788,-75.61154069185329
1590500012.5067194,-2.86,-3.019903103312819,8.790169569202565,0.4955555555555556,-0.08333333333333333,-0.73,0.6269682139583606,6.18795420322116,-74.12787662040068
1590500012.5167193,-2.737715516630529,-2.939543103326106,8.841142241684736,0.4955555555555556,-0.08333333333333333,-0.73,0.9403556042118391,5.81392780210592,-72.3932381347165
1590500012.5267193,-2.6782750166517864,-2.927655003330357,8.870862491674107,0.4955555555555556,-0.08333333333333333,-0.73,1.014656229185267,5.851078114592633,-71.24157844762836
1590500012.5367193,-2.6521260098242196,-2.9624410343847685,8.883936995087891,0.49892389161783873,-0.07255465793402707,-0.7643570278352887,0.8730310964965696,5.723424877197256,-69.32529279827874
1590500012.5467193,-2.6661506993606543,-3.008075349680327,8.793584498934425,0.5011111111111111,-0.06555555555555556,-0.7866666666666666,0.784432182838106,6.135374053842197,-66.10966091419053
1590500012.5567193,-2.6121334423797475,-2.989956064438823,8.709956064438822,0.5011111111111111,-0.06555555555555556,-0.7866666666666666,0.3794446716244746,5.339442627004203,-63.853600433649696
1590500012.5667193,-2.636065770203701,-3.1016402609506057,8.821640260950605,0.5011111111111111,-0.06555555555555556,-0.7866666666666666,0.42930368792437756,4.9405704966049795,-61.51022666755426
1590500012.5767193,-2.5272245736491668,-3.0245746392416026,8.831324967203782,0.5011111111111111,-0.06555555555555556,-0.7866666666666666,0.545937909952724,5.254532684834534,-58.30561434122918
1590500012.5867193,-2.481118942731278,-3.0752885462555066,8.838339207048458,0.5222222222222223,-0.09777777777777777,-0.8366666666666667,0.9582599118942732,4.876693281938326,-53.78091960352423
1590500012.5967193,-2.5483083700440528,-3.1676740088105726,8.88873127753304,0.5222222222222223,-0.09777777777777777,-0.8366666666666667,0.32835903083700446,4.509251101321586,-50.94636563876652
1590500012.6067193,-2.5565810906515583,-3.156837818696884,8.745216005665723,0.5222222222222223,-0.09777777777777777,-0.8366666666666667,0.6826863491501416,4.787922716005665,-48.20143192280453
1590500012.6167192,-2.5092651332142983,-3.1355043237755136,8.698991352448973,0.5222222222222223,-0.09777777777777777,-0.8366666666666667,0.46730910618632493,4.439211129783286,-44.41165362531947
1590500012.6267192,-2.5525574613015727,-3.178655803234556,8.904623212938226,0.5222222222222223,-0.09777777777777777,-0.8366666666666667,-0.6432389921073562,4.16311463708115,-41.15409520119103
1590500012.6367192,-2.23727865447798,-2.9600781369695115,8.904322898047427,0.5188888888888888,-0.10777777777777778,-0.7855555555555556,0.25349935311441363,3.0109864154026864,-36.60953751936401
1590500012.6467192,-2.3300997565667396,-3.088599662938563,8.70440052431779,0.5188888888888888,-0.10777777777777778,-0.7855555555555556,0.2981248829647788,3.9481225422603545,-34.021256788042834
1590500012.6567192,-2.453350823545764,-3.2358086037945655,8.85100562930016,0.5188888888888888,-0.10777777777777778,-0.7855555555555556,-1.224859267496004,2.6655018590590034,-30.589727830287025
1590500012.6667192,-2.0671219334213635,-2.7402696504274098,8.865580304399193,0.5188888888888888,-0.10777777777777778,-0.7855555555555556,-0.8604923900201542,2.346680841267635,-28.266888986378483
1590500012.6767192,-1.8880416149256443,-2.57229760426447,8.303523336463034,0.5188888888888888,-0.10777777777777778,-0.7855555555555556,2.569199200411909,1.309560226549959,-24.298620786261623
1590500012.6867192,-1.88,-2.64448262397501,8.842412686016747,0.5244061202944451,-0.08570885215555266,-0.7736015541768503,-0.4655109766150374,2.7392213328127033,-22.012934400624754
1590500012.6967192,-2.1839172410645,-2.9256582370931663,8.972186972200667,0.5255555555555556,-0.0811111111111111,-0.7711111111111111,-3.097863981832291,1.872212648925001,-19.4020689733875
1590500012.7067192,-2.269904958023127,-3.049914462220814,9.239515285917948,0.5255555555555556,-0.0811111111111111,-0.7711111111111111,-3.8729209567559004,0.4379752098843656,-17.24708933945826
1590500012.7167192,-2.1652226925018443,-2.9560189104182037,8.718852949170971,0.5255555555555556,-0.0811111111111111,-0.7711111111111111,-1.3938946433425232,1.0917672212946066,-13.89887100531977
1590500012.7267191,-2.11636275385392,-2.9153022948782668,8.604846425659147,0.5255555555555556,-0.0811111111111111,-0.7711111111111111,1.6089557527278373,2.669536073467169,-10.946916378674329
1590500012.7367191,-1.929834307020517,-2.731239208023448,9.076819133451638,0.5377777777777778,-0.06888888888888889,-0.7422222222222222,-1.3564031563415948,1.9594515781707973,-8.992254949853448
1590500012.7467191,-2.0469164357067373,-2.865047355093414,8.800839830119832,0.5377777777777778,-0.06888888888888889,-0.7422222222222222,-1.879091230833649,2.2207956154168245,-8.155954030666162
1590500012.756719,-1.241968020917136,-2.0777453740949317,7.37326427996782,0.5377777777777778,-0.06888888888888889,-0.7422222222222222,-1.4790388676588897,-3.8965770816572807,-7.28602046460177
1590500012.766719,-1.942142799678198,-2.9044577634754627,10.29206516492357,0.5377777777777778,-0.06888888888888889,-0.7422222222222222,-11.971115748189861,-3.0002690064360418,-6.706056415929203
1590500012.776719,-2.002753815185039,-2.7406536138877895,8.756990692152847,0.5377777777777778,-0.06888888888888889,-0.7422222222222222,-0.09095044130550711,0.1900506253978631,-2.745189081774857
1590500012.786719,-2.191634831690458,-2.643258210969774,8.375840320667512,0.529637976558914,-0.09963924904904087,-0.8254290791261628,7.808131211910507,4.453566608041228,2.1178141232770256
1590500012.796719,-2.0968228807718816,-2.8890833907649895,8.87498966230186,0.5277777777777778,-0.10666666666666667,-0.8444444444444444,-0.9748557029634739,1.8232576671261196,2.642757150241213
1590500012.806719,-2.127026584183247,-3.016035445577663,8.707929108844674,0.5277777777777778,-0.10666666666666667,-0.8444444444444444,-4.958299197458619,-3.780091121885972,3.5484492559772614
1590500012.816719,-2.084950342752048,-2.959933790336064,8.820132419327871,0.5277777777777778,-0.10666666666666667,-0.8444444444444444,-1.7149222538037119,-0.668202432703561,6.002896672797191
1590500012.826719,-2.0448332454317004,-2.898055409052834,8.708999472590202,0.5277777777777778,-0.10666666666666667,-0.8444444444444444,0.7482684670989359,0.4375,8.972229547358298
1590500012.836719,-2.087064699554326,-2.9841293991086526,8.93414937759336,0.452474258490856,-0.16941959940576817,-0.7335809299386985,-0.5884336099585064,-1.209764484401414,10.551617488858152
1590500012.846719,-2.062440979542664,-2.916509278780437,8.646850774969302,0.4477777777777778,-0.17333333333333334,-0.7266666666666667,-0.9745731297639182,-0.68093911451938,12.577097282394643
1590500012.856719,-2.1053008781752816,-2.993051609988016,8.786103219976031,0.4477777777777778,-0.17333333333333334,-0.7266666666666667,-0.5753042671067367,-0.6721884147659182,14.118464028211626
1590500012.866719,-2.0917140663488913,-3.0105713554496303,8.773999488147414,0.4477777777777778,-0.17333333333333334,-0.7266666666666667,-0.7321451421990467,-1.2767902843980934,16.153583767874853
1590500012.876719,-2.1488994638288164,-3.0296331546096056,8.828899463828815,0.4477777777777778,-0.17333333333333334,-0.7266666666666667,-0.75,-1.598816838056746,17.27256013591695
1590500012.886719,-2.137890355329949,-2.9136710659898477,8.76735878172589,0.42812661026508747,-0.12560906937394248,-0.654612385786802,-0.6447258883248731,-1.855274111675127,19.181063451776648
1590500012.896719,-2.1753437388299774,-3.053237459787918,8.994856189681878,0.4244444444444445,-0.11666666666666667,-0.6411111111111111,-0.7950390206124152,-2.1583983676873584,20.68445281782438
1590500012.906719,-2.160832997379561,-2.8687464724853857,8.713327958072968,0.4244444444444445,-0.11666666666666667,-0.6411111111111111,-0.5130155840556339,-2.0677062336222534,21.830747014210843
1590500012.916719,-2.2188077067434007,-2.9860165144501436,8.826016514450144,0.4244444444444445,-0.11666666666666667,-0.6411111111111111,-0.4474931189791067,-1.9049793569373201,22.925137620417864
1590500012.926719,-2.2005313386639154,-2.9878985039979367,8.820531338663915,0.4244444444444445,-0.11666666666666667,-0.6411111111111111,-0.2993656499871034,-1.9670895666752644,23.907761316739748
1590500012.936719,-2.1351735598227473,-2.906898079763663,8.889193746922698,0.4440736637671645,-0.08011570654849826,-0.6268968488429345,-0.3261478335795175,-2.114221750369276,24.644387001477106
1590500012.946719,-2.1102390589708615,-2.8651195294854306,8.868326587203972,0.4566666666666666,-0.05666666666666665,-0.6177777777777778,-0.08702646644452894,-1.8675294071605877,25.321464711407295
1590500012.956719,-2.1360855486707977,-2.8780427743353987,9.37907975214871,0.4566666666666666,-0.05666666666666665,-0.6177777777777778,-0.36544073555866474,-2.165708075154907,25.938836697981213
1590500012.966719,-2.0177165302350146,-2.7210314893055187,8.994181080010563,0.4566666666666666,-0.05666666666666665,-0.6177777777777778,0.11141734882492738,-1.6246554825719568,26.649630933126485
1590500012.976719,-1.9195759325044404,-2.5178796625222026,8.176630402605092,0.4566666666666666,-0.05666666666666665,-0.6177777777777778,4.116761952338662,2.727112936648905,28.636855202782712
1590500012.986719,-1.943191535993943,-2.629319372770926,8.998852537408595,0.4706808707529981,-0.0433900522690895,-0.623678495287812,0.045470621052421833,-2.1172966187810083,27.59095494032557
1590500012.996719,-1.9500634140541397,-2.531141452974515,9.142473148111451,0.4777777777777778,-0.03666666666666667,-0.6266666666666667,-7.160152689152234,-9.039908743212713,25.818048729737228
1590500013.0067189,-1.9043594617031503,-2.52087189234063,8.546673002140954,0.4777777777777778,-0.03666666666666667,-0.6266666666666667,-0.2843685826014761,-3.3574327128937824,28.72208431642417
1590500013.0167189,-2.0322599756055064,-2.699495681178901,8.78286137455505,0.4777777777777778,-0.03666666666666667,-0.6266666666666667,0.9654463196674383,-1.1592503049311726,30.712294327035572
1590500013.0267189,-2.0696715158079515,-2.702582121048012,8.87417878951988,0.4777777777777778,-0.03666666666666667,-0.6266666666666667,-0.5299375338475041,-2.8706079945470506,31.36884092139909
1590500013.0367188,-2.144717372003551,-2.7277360165729507,8.835282627996449,0.48291407714313894,-0.047966525270461344,-0.6184485876820887,-0.8313665285587453,-3.3844332642793726,32.89151746078721
1590500013.0467188,-2.140776102735902,-2.73,8.94068676716918,0.4833333333333333,-0.048888888888888885,-0.6177777777777778,-0.23600642099385816,-3.029103852596315,34.67183137911781
1590500013.0567188,-2.218834486670448,-2.73,8.783571639251276,0.4833333333333333,-0.048888888888888885,-0.6177777777777778,-0.29699234259784457,-3.3284770277935336,36.400138967668745
1590500013.0667188,-2.0789835631184532,-2.6091868504947624,8.797754109220387,0.4833333333333333,-0.048888888888888885,-0.6177777777777778,-0.21811472694903325,-3.5637705461019333,38.182357005340954
1590500013.0767188,-2.2814437426399743,-2.7569709881169038,8.93894550904614,0.4833333333333333,-0.048888888888888885,-0.6177777777777778,-0.3486818863076758,-4.02795471576919,39.73518226099989
1590500013.0867188,-2.3503703860212553,-2.7528775169557775,8.876096896194722,0.4916650820145506,-0.0423425149250753,-0.6302754007996036,-0.3035968961947221,-4.350427327853959,41.45067638234486
1590500013.0967188,-2.1824353448275864,-2.5626795977011496,8.831709770114943,0.4988888888888889,-0.03666666666666667,-0.6411111111111111,-0.5076329022988506,-4.30944683908046,43.81407147988506
1590500013.1067188,-2.08,-2.4991490822189455,8.64931789291707,0.4988888888888889,-0.03666666666666667,-0.6411111111111111,-0.5210091778105456,-4.661172586057863,46.436708699852545
1590500013.1167188,-2.177025941604255,-2.5662028293353596,8.932028293353595,0.4988888888888889,-0.03666666666666667,-0.6411111111111111,-1.2365565867071893,-5.0,48.327933355041786
1590500013.1267188,-2.227143172454385,-2.557143172454385,9.07489994114185,0.4988888888888889,-0.03666666666666667,-0.6411111111111111,-1.1058733997939965,-4.691328079017069,50.58800443275456
1590500013.1367188,-2.18911227154047,-2.5044451697127936,8.780672323759791,0.5016050188569771,-0.04264215259646069,-0.6481730490281404,0.40555646214099217,-3.762483681462141,52.916693864229764
1590500013.1467187,-2.2075604424287905,-2.4851208848575808,8.97551208848576,0.5044444444444445,-0.048888888888888885,-0.6555555555555556,-0.40398340892035633,-4.057032855884368,54.127445022676106
1590500013.1567187,-2.18,-2.3944099343582166,8.77781364553437,0.5044444444444445,-0.048888888888888885,-0.6555555555555556,-0.592235941007644,-4.6801241794777075,55.54968955130573
1590500013.1667187,-2.18,-2.3650559210526314,8.722416118421053,0.5044444444444445,-0.048888888888888885,-0.6555555555555556,-0.25,-4.593400493421052,56.28020148026316
1590500013.1767187,-2.256733856911436,-2.596596058810261,9.120063772633133,0.5044444444444445,-0.048888888888888885,-0.6555555555555556,-0.8894488075953001,-6.143690918038837,56.57482775237353
1590500013.1867187,-2.197560975609756,-2.5960412757973734,8.764765478424014,0.5184531999166145,-0.06990202209714405,-0.6459245361684386,-2.1857410881801123,-4.439024390243903,57.17999530956848
1590500013.1967187,-2.3131240029658255,-2.297605994562653,8.808783337452535,0.5222222222222223,-0.07555555555555556,-0.6433333333333333,-0.15149161929584087,-4.246958343631339,56.46767081582672
1590500013.2067187,-2.247293491864831,-2.2537015018773463,8.701989987484355,0.5222222222222223,-0.07555555555555556,-0.6433333333333333,-2.228918961201502,-5.806965738423029,55.26243742177722
1590500013.2167187,-2.31238042269188,-2.3097433045263966,8.802123727218277,0.5222222222222223,-0.07555555555555556,-0.6433333333333333,-1.072126080260118,-5.032744716351502,53.578762727817235
1590500013.2267187,-2.325235314624368,-2.336191171343908,8.909529370751263,0.5222222222222223,-0.07555555555555556,-0.6433333333333333,-1.2024808806867702,-4.48511035820115,51.374817522224156
1590500013.2367187,-2.3807593132089506,-2.3197830533688713,9.015813549866733,0.5188527311170341,-0.09184142923063149,-0.6540033884997624,-1.4972881671108906,-4.153199187999752,47.87947065022004
1590500013.2467186,-2.431909426569211,-2.295477356642303,8.985979202772963,0.5155555555555555,-0.10777777777777778,-0.6644444444444444,-1.25,-3.875,45.4375
1590500013.2567186,-2.451605454827212,-2.2535952270261896,8.79239113590578,0.5155555555555555,-0.10777777777777778,-0.6644444444444444,-0.5024019835735317,-3.809991476832481,44.75491050674105
1590500013.2667186,-2.4941636515942753,-2.257472864348477,8.854909547828257,0.5155555555555555,-0.10777777777777778,-0.6644444444444444,-0.4110249166770634,-3.72397717753578,42.61567629707523
1590500013.2767186,-2.541350556823684,-2.3259040603168017,8.950479698415991,0.5155555555555555,-0.10777777777777778,-0.6644444444444444,-0.8722785674759632,-3.2302582658919556,40.460239849207994
1590500013.2867186,-2.69282841335864,-2.4048774381133144,8.896681339094616,0.5394901892159899,-0.16262797991627292,-0.6694308264570349,-1.0161455599079272,-3.4280327504744985,39.92622561886686
1590500013.2967186,-2.7,-2.41,8.91,0.5422222222222223,-0.1688888888888889,-0.67,-1.125,-3.5625,39.875
1590500013.3067186,-2.748731884057971,-2.4800694444444447,9.012814009661835,0.5422222222222223,-0.1688888888888889,-0.67,-0.6927838164251208,-2.9832804951690823,41.27421120169082
1590500013.3167186,-2.674126784989484,-2.3439042839747612,8.651267849894838,0.5422222222222223,-0.1688888888888889,-0.67,-1.2214263311316926,-4.017658481236855,42.298803549684514
1590500013.3267186,-2.645726324810741,-2.370317301609974,8.918180464015345,0.5422222222222223,-0.1688888888888889,-0.67,-1.0511279000959046,-3.7755639500479523,44.17842093986573
1590500013.3367186,-2.5637934778237965,-2.306206522176203,8.90309783264305,0.6160108747615282,-0.24129831427792747,-0.6741376814508022,-0.8404891632152479,-3.5926630544050826,45.396535345208896
1590500013.3467185,-2.6028921067387936,-2.2885539466306035,8.927830919945906,0.6611111111111111,-0.2855555555555556,-0.6766666666666666,-1.0914905416103176,-3.855047291948412,45.32793379127222
1590500013.3567185,-2.6607298503544237,-2.3010947755316358,8.920729850354423,0.6611111111111111,-0.2855555555555556,-0.6766666666666666,-1.2244519558939353,-3.7732672617484906,44.25045943817275
1590500013.3667185,-2.672925530621672,-2.301702122486689,8.87632977559505,0.6611111111111111,-0.2855555555555556,-0.6766666666666666,-1.3307845663854514,-3.5182845663854514,41.40359005373076
1590500013.3767185,-2.6160227386657575,-2.21803031822101,8.879987367407912,0.6611111111111111,-0.2855555555555556,-0.6766666666666666,-1.3125,-3.3125789537005472,38.31344744440657
1590500013.3867185,-2.6127139648781017,-2.1848699840355006,8.9089219904213,0.7873407533680283,-0.4098025332744061,-0.7444077050506144,-1.1823876396893687,-2.834337879156858,33.931440593121735
1590500013.3967185,-2.67513421002787,-2.213242822739941,8.925945693643964,1.0281946285923882,-0.6468733633381738,-0.873661748037509,-0.9341253010255162,-2.160482959926401,28.43420309413643
1590500013.4067185,-2.769492955198227,-2.227226632290748,8.85773367709252,1.0855555555555556,-0.7033333333333334,-0.9044444444444444,-0.6943341927313025,-1.8193341927313025,23.51168385462605
1590500013.4167185,-2.764942121426884,-2.3071273328608553,8.914138908575477,1.0855555555555556,-0.7033333333333334,-0.9044444444444444,-0.49353295535081504,-1.66235530356721,18.88214623198677
1590500013.4267185,-2.7732345825897284,-2.322574063057704,9.00808645647432,1.0855555555555556,-0.7033333333333334,-0.9044444444444444,-0.0018515764425937054,-1.4797838588141978,14.74089331746976
1590500013.4367185,-2.7028558541143117,-2.2630762291384756,8.835491333204459,0.8293368702164372,-0.7591949653113388,-0.8761412175755883,1.318009375604098,-2.0872358077195696,9.691575649204202
1590500013.4467185,-2.6292722868217053,-2.3245012112403103,8.85291085271318,0.7033333333333334,-0.7866666666666666,-0.8622222222222222,-0.7321387475775194,0.39521105862403116,5.0187045784883715
1590500013.4567184,-2.536418758183193,-2.385820532207203,8.854179467792797,0.7033333333333334,-0.7866666666666666,-0.8622222222222222,-0.7164258579674332,-0.3171482840651336,0.7789512143397199
1590500013.4667184,-2.5400759546664275,-2.4640683591997847,8.902091145599712,0.7033333333333334,-0.7866666666666666,-0.8622222222222222,0.0002373583325857298,-0.06083849167189981,-5.042057279985647
1590500013.4767184,-2.568814209146747,-2.4496639411603613,8.888478150307108,0.7033333333333334,-0.7866666666666666,-0.8622222222222222,0.3696891749149095,0.7775444035835843,-12.016683130550447
1590500013.4867184,-2.4789852653205355,-2.3414490706558375,8.883623318673559,0.5946212534643083,-0.48892020587889096,-0.7867469565806698,0.09510729992616607,1.061595133382556,-21.77900388430548
1590500013.4967184,-2.4204214498636394,-2.2473179742500156,8.957892750681804,0.5288888888888889,-0.3088888888888889,-0.7411111111111112,-0.2473659383522547,1.579262660937401,-30.73826960582229
1590500013.5067184,-2.430374733535286,-2.2001873667676426,8.945480010471595,0.5288888888888889,-0.3088888888888889,-0.7411111111111112,-0.07903951157485323,2.4468683383821386,-40.04552573020681
1590500013.5167184,-2.387993557772236,-2.2263081878636743,8.845232751454697,0.5288888888888889,-0.3088888888888889,-0.7411111111111112,0.6115570448877805,3.595204696591854,-53.56781873441396
1590500013.5267184,-2.302734306008831,-2.256618352850835,8.865323670570167,0.5288888888888889,-0.3088888888888889,-0.7411111111111112,0.8165458821270877,4.386231762334421,-62.46575998272221
1590500013.5367184,-2.3127509497036924,-2.338782555842577,8.918094818416654,0.5288888888888889,-0.23288720052676898,-0.7369547687788077,0.875,5.200395076736059,-71.47978840601732
1590500013.5467184,-2.35,-2.4152060501337376,8.941095462399698,0.5288888888888889,-0.16666666666666666,-0.7333333333333333,0.9143844533339646,5.965766800009468,-80.24240330674367
1590500013.5567183,-2.3548287250243107,-2.454143625121553,8.910685099902757,0.5288888888888889,-0.16666666666666666,-0.7333333333333333,1.269474845421353,6.463397657009706,-86.2917098600077
1590500013.5667183,-2.320350315411957,-2.48,8.894405520509784,0.5288888888888889,-0.16666666666666666,-0.7333333333333333,1.5974654968138589,6.982948541419834,-92.75126084728937
1590500013.5767183,-2.2541588089330027,-2.511682382133995,8.868317617866005,0.5288888888888889,-0.16666666666666666,-0.7333333333333333,1.760514888337469,7.8005272952853595,-100.29178039702234
1590500013.5867183,-2.24,-2.582100689241834,8.918186994306263,0.5389128625178969,-0.1279073019678354,-0.7333333333333333,1.7495504944560982,8.162589901108781,-107.87265882529218
1590500013.5967183,-2.1937568614788505,-2.6562431385211496,8.889074507587988,0.5455555555555556,-0.10222222222222224,-0.7333333333333333,1.9501470677268324,8.58490197166613,-114.87828442847918
1590500013.6067183,-2.1483257943665883,-2.74837102816706,8.85918551408353,0.5455555555555556,-0.10222222222222224,-0.7333333333333333,1.9686086443735258,9.057409463022061,-122.05995386429859
1590500013.6167183,-2.084482394456894,-2.8108191020786646,8.817542693764006,0.5455555555555556,-0.10222222222222224,-0.7333333333333333,2.2896044226360663,9.621231293305515,-129.68429796769956
1590500013.6267183,-2.0571791752317825,-2.8383353609934137,8.808335360993413,0.5455555555555556,-0.10222222222222224,-0.7333333333333333,2.455924612996602,9.927096006208835,-132.77254897847882
1590500013.6367183,-2.0348081563706564,-2.9456069015444015,8.917204391891891,0.5445349367224367,-0.10115722865722868,-0.7342208279708279,2.2124607866795367,10.65994510135135,-139.269576496139
1590500013.6467183,-1.9396329090573694,-2.847408227264342,8.861112340896513,0.52,-0.07555555555555556,-0.7555555555555555,2.7430478693967904,11.5,-147.94931746910163
1590500013.6567183,-1.9813272558714463,-2.86,8.86699088380717,0.52,-0.07555555555555556,-0.7555555555555555,2.625,11.554204650803461,-154.01829998454883
1590500013.6667182,-1.9055502340964736,-3.024053949572613,8.83242279111722,0.52,-0.07555555555555556,-0.7555555555555555,2.9179534813796657,11.954572666552124,-159.33288948069242
1590500013.6767182,-1.8194488682115058,-3.1602755658942474,8.825068891473562,0.52,-0.07555555555555556,-0.7555555555555555,3.2834028585488055,12.282541715129284,-162.6482508723271
1590500013.6867182,-7.2245619595963655,-7.227496940638353,5.880197002828655,0.5151213602512578,-0.04406615354094641,-0.7183004883833419,-9.83461768010111,75.16808308423776,-161.66805549982948
1590500013.6967182,-4.888827095964876,-9.278871349919855,-0.20236148860547765,0.5077777777777778,0.0033333333333333327,-0.6622222222222223,-20.618618893302667,77.14795238344135,-153.01220250540106
1590500013.7067182,3.8350880130217417,-1.4375302871759095,-1.2282467154981977,0.5077777777777778,0.0033333333333333327,-0.6622222222222223,2.4575848738518786,-3.2238489710498754,-143.12554354144868
1590500013.7167182,-0.24959351070733288,-0.08708838416612585,-0.19566567164179105,0.5077777777777778,0.0033333333333333327,-0.6622222222222223,5.255494808565866,28.85877190136275,-137.5730759247242
1590500013.7267182,-0.3001556886227545,-0.3286292031321971,-0.06763242745278673,0.5077777777777778,0.0033333333333333327,-0.6622222222222223,3.260513588208199,24.262073929064947,-132.35105366190695
1590500013.7367182,-0.42286231752816317,-0.37346759879740643,-0.017981671315246132,0.5166463014613846,0.023376196858284733,-0.6668338545376978,4.623854457202883,20.45573586409244,-126.14632611294238
1590500013.7467182,-0.4693731330170444,0.2564672289580039,1.405583377262344,0.5633333333333334,0.1288888888888889,-0.6911111111111111,5.217326425496397,25.632121990862764,-112.92370217228958
1590500013.7567182,-0.043226076055160934,2.492135394901797,7.729368992895946,0.5633333333333334,0.1288888888888889,-0.6911111111111111,29.690111784371084,-27.779304220643546,-101.2027005850397
1590500013.7667181,4.314382470119521,2.0240478087649407,15.889662057651746,0.5633333333333334,0.1288888888888889,-0.6911111111111111,21.875462854464494,-124.90088176704944,-82.77056187016639
1590500013.7767181,3.984552912800831,0.07876850759669723,11.099848066055173,0.5633333333333334,0.1288888888888889,-0.6911111111111111,0.7657919754933893,-106.08304761359835,-70.92071222337634
1590500013.7867181,0.8980877623460467,-0.16702194058651168,2.7797205612597375,0.5553447522849815,0.13908121643333785,-0.6839489349987956,3.0062355575672393,-33.08923190080282,-63.2759814898635
1590500013.7967181,2.1874611700750712,-0.8233393735438779,8.378819246699457,0.5311111111111111,0.17,-0.6622222222222223,0.2674997573129692,49.04229630468548,-49.34369337302614
1590500013.806718,2.345604505133061,-1.6476822485796871,15.876342469849497,0.5311111111111111,0.17,-0.6622222222222223,-0.5007612379148809,99.57620228246786,-37.70730339878401
1590500013.816718,0.6152611152720092,-1.963940219241506,12.866523456117655,0.5311111111111111,0.17,-0.6622222222222223,-1.821627970313883,44.93879366106081,-35.696627970313884
1590500013.826718,0.08833096085409252,-2.7940798734677736,9.888915776986952,0.5311111111111111,0.17,-0.6622222222222223,-6.2008736160537765,-22.41913305654409,-37.05206850533808
1590500013.836718,-0.03742885532591415,-2.7411927662957076,10.018928457869634,0.5330014573396926,0.1779394541600424,-0.6622222222222223,-6.3933277027027025,-10.645322436406992,-32.62951609697933
1590500013.846718,-0.16760423124612525,-2.0437988220706758,7.465936531308122,0.5366666666666666,0.19333333333333333,-0.6622222222222223,1.815146950557967,15.691512806106633,-25.845052890576564
1590500013.856718,-0.3272138840009661,-2.0004519890970567,7.050482696753269,0.5366666666666666,0.19333333333333333,-0.6622222222222223,4.689003036262636,-4.09723587965359,-28.48399924093434
1590500013.866718,-0.5637742668318877,-2.649991050530084,9.529605879113314,0.5366666666666666,0.19333333333333333,-0.6622222222222223,-3.475552457662123,-2.7411537931984036,-29.09607342007435
1590500013.876718,-0.7290363416240097,-2.6425908540600243,9.242088528281048,0.5366666666666666,0.19333333333333333,-0.6622222222222223,-3.573933752469149,8.435624243325332,-28.91528429727491
1590500013.886718,-0.5859038328444781,-2.1889631875556144,7.822704742444715,0.5415325152790136,0.20610618594074415,-0.6652633776049391,0.6651389941666941,1.171853887222753,-31.916481972777905
1590500013.896718,-0.7381360983766935,-2.507990148679855,8.98090732251129,0.5455555555555556,0.21666666666666667,-0.6677777777777778,1.2915311067378024,2.4314225545178427,-32.77380427610998
1590500013.906718,-0.8097054842048983,-2.713155721387375,9.45803656136599,0.5455555555555556,0.21666666666666667,-0.6677777777777778,2.096686697305106,1.864831583377888,-33.45967755696361
1590500013.916718,-0.84,-2.8,9.66,0.5455555555555556,0.21666666666666667,-0.6677777777777778,2.4375,1.625,-33.75
1590500013.926718,-0.8231544218234489,-2.80673823127062,9.467960408787318,0.5455555555555556,0.21666666666666667,-0.6677777777777778,2.1427023819103566,1.1828035728655348,-33.455202381910354
1590500013.936718,-0.7925471147574749,-2.814396347533555,9.065038275376747,0.5453291453548912,0.21734589726865997,-0.6676362714023625,1.5545402663828911,0.4366718444268992,-32.79381071710549
1590500013.946718,-0.9205287459879498,-2.767908102933724,8.732023199504477,0.5366666666666666,0.2433333333333333,-0.6622222222222223,1.1068965031814855,2.921694633706853,-28.709626105073482
1590500013.956718,-0.97,-3.020344915787817,9.476621871556745,0.5366666666666666,0.2433333333333333,-0.6622222222222223,0.3344851841649614,0.8469755922398867,-25.306904710373054
1590500013.966718,-0.9298876256818033,-2.9280081487809686,8.931429979628048,0.5366666666666666,0.2433333333333333,-0.6622222222222223,0.1609425313793783,2.1501527896431623,-20.950203719524215
1590500013.976718,-0.8556031196514703,-2.754046794772055,8.421790298739692,0.5366666666666666,0.2433333333333333,-0.6622222222222223,0.18579941068927974,1.1417785805974794,-16.13400133227011
1590500013.986718,-0.8594974329307976,-2.67,8.177348687540675,0.5324455853640899,0.24992877286860943,-0.6690814793389094,-0.6564104418251501,1.6806733133270662,-12.59163487960084
1590500013.996718,-0.8898271747776412,-2.67,8.488228541470823,0.5189657000988261,0.27099109359558415,-0.690986292894963,1.2391984236025744,-0.7362279900932824,-9.890392246366332
1590500014.006718,-12.573902968863143,-17.5551395928876,4.744965001206855,0.5188888888888888,0.27111111111111114,-0.6911111111111111,-13.493809839890579,5.955743623783088,-54.322617467213774
1590500014.016718,0.3092283459232411,-2.1208803902306834,7.998011246231496,0.5188888888888888,0.27111111111111114,-0.6911111111111111,-17.308780190372953,-2.302466887978049,-155.1053508519359
1590500014.026718,0.6369378059108068,-1.4591413684709122,7.722369202945355,0.5188888888888888,0.27111111111111114,-0.6911111111111111,26.547611742668906,14.950237013592847,-184.52053729061706
1590500014.036718,0.4141857928203362,-0.6102755888558755,3.333552512595272,0.5188888888888888,0.27111111111111114,-0.6911111111111111,51.26856995220256,34.553919246723794,-174.5870015717177
1590500014.046718,0.1922793247727601,-2.4080363583898428,7.977763381907373,0.54,0.2588888888888889,-0.6622222222222223,3.0796890780551145,4.510801110950801,-157.12289352185832
1590500014.0567179,-1.140958043283946,-3.0866253148785177,12.018193342181533,0.54,0.2588888888888889,-0.6622222222222223,-20.659645101438286,10.019304084617676,-135.7666817898643
1590500014.0667179,-0.7728216146714488,-2.425228226297625,8.636348717601678,0.54,0.2588888888888889,-0.6622222222222223,1.8358386343642152,12.779304408878662,-118.75881860323476
1590500014.0767179,-0.4792036975164272,-2.3865842521438916,7.3410981178304935,0.54,0.2588888888888889,-0.6622222222222223,13.969627046441698,16.376820219400823,-107.17936643835617
1590500014.0867178,-0.8124461157094239,-2.8229135330448303,9.292588966850133,0.5341487052364747,0.2764427731794649,-0.6653916735524651,-3.4467183626738374,4.770010976429562,-98.14726665896391
1590500014.0967178,-0.7372010696974762,-2.928800935985292,9.928016045462142,0.5133333333333333,0.3388888888888889,-0.6766666666666666,-1.3726203409660707,4.062416429884673,-88.0501629617249
1590500014.1067178,-0.352534035575872,-5.95109072841101,8.75625439729703,0.5133333333333333,0.3388888888888889,-0.6766666666666666,3.910934860379608,7.286565884924972,-75.09733056742522
1590500014.1167178,0.12763233025957407,-11.995809076887737,8.255469760115512,0.5133333333333333,0.3388888888888889,-0.6766666666666666,-1.9409026023036788,3.423145079250484,-80.16277729465429
1590500014.1267178,-0.3819872961259801,-8.53530585238363,8.798004433122705,0.5133333333333333,0.3388888888888889,-0.6766666666666666,-0.8049301948589012,8.774444205511628,-127.46832302246335
1590500014.1367178,-0.5953596356323199,-2.0096125635868924,10.75016857920265,0.5128422519289667,0.3401779775753513,-0.6768201296055312,8.695089761031586,18.684394593635396,-167.87811649710162
1590500014.1467178,-0.15705784928427768,-2.59677156039276,8.360183366852006,0.4981403052170827,0.37877058769404676,-0.681414487952995,14.535667810244885,16.720306400094643,-160.4869425056193
1590500014.1567178,-0.8527674918262494,-2.9985631013545073,10.241069967304998,0.4955555555555556,0.3855555555555555,-0.6822222222222222,-5.904771134983653,6.605474077533863,-143.81689397477814
1590500014.1667178,-0.5941744978981784,-2.849676226062588,9.206697991592714,0.4955555555555556,0.3855555555555555,-0.6822222222222222,-0.4684411489957965,10.376621905651565,-129.9567013078001
1590500014.1767178,-5.22981548207612,-12.396629405553973,7.583906383549246,0.4955555555555556,0.3855555555555555,-0.6822222222222222,4.794655725753741,10.26878069014061,-104.94239890060166
1590500014.1867177,-0.8154287821146662,-20.90205600898289,6.944242068745915,0.4955555555555556,0.3855555555555555,-0.6822222222222222,-5.441730630645729,7.19347148435536,-79.28553352662186
1590500014.1967177,0.2556361112751757,1.28828568897289,13.007983285098339,0.4566666666666666,0.43333333333333335,-0.6677777777777778,-3.4538752879333767,-7.785297678814009,29.590791299982282
1590500014.2067177,-1.00451115014104,-1.47573633508968,8.75756187130768,0.4566666666666666,0.43333333333333335,-0.6677777777777778,21.93098355420725,5.7645663686199375,35.78322755335569
1590500014.2167177,-0.2926438323597338,-3.3779790449667164,9.387667606303491,0.4566666666666666,0.43333333333333335,-0.6677777777777778,0.9567526490965896,-3.3742177947969028,18.131494319725583
1590500014.2267177,0.5251433815785514,-4.058543014473565,10.130124875876389,0.4566666666666666,0.43333333333333335,-0.6677777777777778,-17.373525561941445,-15.887777209400294,-4.681111395299853
1590500014.2367177,0.15872054613521253,-4.003094032151509,9.397623871393966,0.4535552619344735,0.4361618830898725,-0.6646663730455847,-6.091706121999559,5.568129266681348,-17.628592270425017
1590500014.2467177,-0.8522134397462463,-5.267201545033638,8.876931419947304,0.4444444444444444,0.4444444444444444,-0.6555555555555556,1.91870187757399,3.1533458675466197,-24.595661307650985
1590500014.2567177,-2.16,-7.17,8.66,0.4444444444444444,0.4444444444444444,-0.6555555555555556,-2.1875,1.875,-26.6875
1590500014.2667177,-1.2402123774095368,-5.62149678728441,8.4581900574907,0.4444444444444444,0.4444444444444444,-0.6555555555555556,0.3108682786608048,1.1230639161312141,-13.977354582346972
1590500014.2767177,0.14295309993394356,-3.520821742002454,8.402600358592055,0.4444444444444444,0.4444444444444444,-0.6555555555555556,3.1150915353401905,0.1121013022553553,4.6831497121826935
1590500014.2867177,-0.04632239626668595,-4.402720399377781,9.014710414933257,0.4453512442370381,0.4444444444444444,-0.6572180218419773,0.025976286944253524,0.4009762869442535,0.8869650544441631
1590500014.2967176,-0.13740036626842242,-4.379051190372373,8.656698351792098,0.4511111111111111,0.4444444444444444,-0.6677777777777778,-0.8031307229441005,-0.4478176506496904,-0.4281307229441005
1590500014.3067176,-0.11,-4.294314778277323,8.76705566516803,0.4511111111111111,0.4444444444444444,-0.6677777777777778,-0.33724569007342237,-0.05171305430669211,0.005393472846653945
1590500014.3167176,-0.10084033800807117,-4.31557423468819,8.678851530623621,0.4511111111111111,0.4444444444444444,-0.6677777777777778,0.19607840404896212,0.0625,0.04341737085014827
1590500014.3267176,-0.08309875745169863,-4.270845651080945,8.776055591467355,0.4511111111111111,0.4444444444444444,-0.6677777777777778,0.39348021259785965,0.0721836170365582,0.009683617036558213
1590500014.3367176,-0.09514874667815845,-4.3130206133735545,8.721830639948287,0.4511111111111111,0.4444444444444444,-0.6677777777777778,-0.02073816706169651,0.10983983336924513,0.04733983336924513
1590500014.3467176,-0.1099400983814662,-4.300179704855601,8.789460885433195,0.43675319122677103,0.4444444444444444,-0.6909713406678656,-0.5602536893049825,0.0007487702316724965,0.0625
1590500014.3567176,-0.08518731817372202,-4.33308357576837,8.665936590868611,0.43666666666666665,0.4444444444444444,-0.6911111111111111,-0.5625,0.0,0.0625
1590500014.3667176,-0.0987072678210833,-4.32,8.68,0.43666666666666665,0.4444444444444444,-0.6911111111111111,0.20365915223645883,0.125,0.05442042388177058
1590500014.3767176,-0.09121195875551744,-4.32,8.68,0.43666666666666665,0.4444444444444444,-0.6911111111111111,0.2973505155560321,0.125,0.0075747422219839475
1590500014.3867176,-0.09,-4.260192691713844,8.809807308286157,0.43675230742837534,0.4444658546348716,-0.691036175444616,0.4354927946474524,0.18770072053525477,-0.062098558929490476
1590500014.3967175,-0.09,-4.312000823468863,8.757999176531138,0.4597781437639389,0.4502223137187625,-0.6708885686509979,-0.10417524446731863,0.24166752444673187,0.04583504889346372
1590500014.4067175,-0.09852400749628418,-4.322951985007432,8.726384119940546,0.4633333333333333,0.4511111111111111,-0.6677777777777778,-0.24077504685177606,0.09017485944467182,0.07172495314822394
1590500014.4167175,-0.09,-4.335699522572067,8.60146793980782,0.4633333333333333,0.4511111111111111,-0.6677777777777778,-0.14718302411313228,0.25,0.12052033601257026
1590500014.4267175,-0.09,-4.2757850649838485,8.752107467508075,0.4633333333333333,0.4511111111111111,-0.6677777777777778,0.34865665614904967,0.1973133122980993,0.0625
1590500014.4367175,-0.09,-4.26003005033431,8.759984974832845,0.4633333333333333,0.4511111111111111,-0.6677777777777778,0.2501878145894373,0.00037562917887462577,0.0625
1590500014.4467175,-0.09,-4.272930064694477,8.813375631107101,0.4566666666666666,0.4511111111111111,-0.6911111111111111,-0.18272350310034363,-0.050955299379931276,0.011544700620068725
1590500014.4567175,-0.09,-4.329293160046841,8.74090879422549,0.4566666666666666,0.4511111111111111,-0.6911111111111111,-0.4343444644948264,-0.000631107101034728,0.06186889289896527
1590500014.4667175,-0.08,-4.325340876944837,8.636988684582745,0.4566666666666666,0.4511111111111111,-0.6911111111111111,-0.09588048090523338,0.15838048090523338,-0.0625
1590500014.4767175,-0.08,-4.303466662961779,8.67568000889173,0.4566666666666666,0.4511111111111111,-0.6911111111111111,0.04083335648887839,0.04616665740444864,-0.0625
1590500014.4867175,-0.08,-4.2743302721702765,8.745607346791335,0.4566666666666666,0.4511111111111111,-0.6911111111111111,0.22293579893577115,-0.02667431957430845,-0.0625
1590500014.4967175,-0.08,-4.29457959845873,8.797289799229366,0.4393768674373014,0.4511111111111111,-0.6853478447013227,0.20443875481646723,0.04556124518353276,-0.0625
1590500014.5067174,-0.09,-4.313184022485698,8.696202569228639,0.43666666666666665,0.4511111111111111,-0.6844444444444444,-0.20076676035707924,0.13163338017853962,-0.013266760357079235
1590500014.5167174,-0.09,-4.338090299083549,8.588275370637952,0.43666666666666665,0.4511111111111111,-0.6844444444444444,-0.30454291284812257,0.18352145642406129,-0.11704291284812257
1590500014.5267174,-0.09812687553774159,-4.307492497849034,8.677522506452899,0.43666666666666665,0.4511111111111111,-0.6844444444444444,0.04305080477619461,-0.015671888443539755,-0.023414055778230122
1590500014.5367174,-0.10929349508824275,-4.272119514735271,8.774347960705942,0.43666666666666665,0.4511111111111111,-0.6844444444444444,0.3573373772060686,0.05366868860303432,-0.05808434430151716
1590500014.5467174,-0.1017161043653628,-4.27,8.821419478173185,0.4541548907842341,0.44650894686964593,-0.6844444444444444,0.3232256522835175,-0.04104869543296501,-0.0625
1590500014.5567174,-0.09,-4.291585542077043,8.73414457922957,0.4577777777777778,0.4455555555555555,-0.6844444444444444,-0.14481927596303762,-0.032771086055443585,0.022861448073924782
1590500014.5667174,-0.09,-4.299560406129976,8.654395938700233,0.4577777777777778,0.4455555555555555,-0.6844444444444444,-0.24450507662471005,0.11675761493706507,-0.17651015324942007
1590500014.5767174,-0.09155128871722498,-4.32689742256555,8.673961598455024,0.4577777777777778,0.4455555555555555,-0.6844444444444444,-0.39334890069078216,0.14871778206937533,-0.043108891034687666
1590500014.5867174,-0.09933985738691228,-4.311320285226175,8.744058716482211,0.4577777777777778,0.4455555555555555,-0.6844444444444444,0.1421151953502191,-0.04599643467280695,0.054248217336403476
1590500014.5967174,-0.10849386551943914,-4.31,8.72924693275972,0.4511111111111111,0.4577777777777778,-0.6766666666666666,0.23587998924474188,0.07191334050350542,0.0047066702517527086
1590500014.6067173,-0.09178616953473549,-4.31,8.720893084767368,0.4511111111111111,0.4577777777777778,-0.6766666666666666,0.07924533938814532,0.17633644040790314,0.05691822020395156
1590500014.6167173,-0.08872631985910047,-4.326178959577302,8.635094720563599,0.4511111111111111,0.4577777777777778,-0.6766666666666666,-0.24203949911937797,0.07046050088062202,-0.00796050088062202
1590500014.6267173,-0.08,-4.300384042522122,8.670768085044244,0.4511111111111111,0.4577777777777778,-0.6766666666666666,-0.18629986711836688,0.12259973423673375,-0.06129986711836687
1590500014.6367173,-0.08,-4.312633392716334,8.695266785432668,0.4511111111111111,0.4577777777777778,-0.6766666666666666,-0.14802064776145557,0.04604129552291113,-0.023020647761455564
1590500014.6467173,-0.08664322326856598,-4.293427106925736,8.769789009417094,0.4415153441676269,0.4489201467530231,-0.6766666666666666,0.2902014542853737,0.08304029085707475,0.08304029085707475
1590500014.6567173,-0.0857395940421259,-4.292840270638583,8.782958376168505,0.43666666666666665,0.4444444444444444,-0.6766666666666666,0.07174492552657374,0.11612415425442896,0.10724830850885791
1590500014.6667173,-0.06233021663011274,-4.311165108315056,8.68,0.43666666666666665,0.4444444444444444,-0.6766666666666666,-0.25,0.04793614606179537,-0.014563853938204627
1590500014.6767173,-0.07846896764015546,-4.319234483820078,8.68,0.43666666666666665,0.4444444444444444,-0.6766666666666666,-0.25,-0.05293104775097157,-0.11543104775097157
1590500014.6867173,-0.08896476811183526,-4.337929536223671,8.724823840559177,0.43666666666666665,0.4444444444444444,-0.6766666666666666,-0.08191059790308869,0.04955960139794087,0.04308940209691131
1590500014.6967173,-0.09,-4.304403101069073,8.765596898930927,0.4469502152467123,0.4444444444444444,-0.666383118086621,0.07098837099097732,0.10699612366365911,0.018003876336340888
1590500014.7067173,-0.09953917510348612,-4.300230412448257,8.777465463069174,0.4511111111111111,0.4444444444444444,-0.6622222222222223,0.1831797665951823,0.00288015560321181,0.1831797665951823
1590500014.7167172,-0.08559373597326816,-4.307203132013366,8.700765547852974,0.4511111111111111,0.4444444444444444,-0.6622222222222223,0.05244127474938906,0.09003915016707396,0.05244127474938906
1590500014.7267172,-0.08,-4.327870024543805,8.652129975456194,0.4511111111111111,0.4444444444444444,-0.6622222222222223,-0.22337530679756695,0.125,-0.05584382669939174
1590500014.7367172,-0.09737011104669313,-4.321314944476653,8.684740222093385,0.4511111111111111,0.4444444444444444,-0.6622222222222223,-0.195718402979084,-0.03784479106274807,-0.00821840297908398
1590500014.7467172,-0.08138268083552186,-4.315851957493435,8.752074021253282,0.4444444444444444,0.4444444444444444,-0.6677777777777778,0.13796263283301738,0.008641755222011584,-0.004320877611005792
1590500014.7567172,-0.09597231159886603,-4.272083065203402,8.773958467398298,0.4444444444444444,0.4444444444444444,-0.6677777777777778,0.27474042123936904,0.09982694749291267,-0.049913473746456334
1590500014.7667172,-0.0912888176805994,-4.3,8.6893555911597,0.4444444444444444,0.4444444444444444,-0.6677777777777778,0.2762520027331417,0.18347244474812685,-0.11694488949625371
1590500014.7767172,-0.10875457195373275,-4.301245428046267,8.681660570728356,0.4444444444444444,0.4444444444444444,-0.6677777777777778,-0.25518928352611353,0.12240535823694325,0.0
1590500014.7867172,-0.08539277027905164,-4.324607229720948,8.712809639627931,0.4444444444444444,0.4444444444444444,-0.6677777777777778,-0.3525301238372849,0.07373493808135756,0.0
1590500014.7967172,-0.10220812299219825,-4.315194584671867,8.749610830656264,0.4296390291163123,0.4493795828871551,-0.6521498393758605,-0.14366538549793484,0.0625,-0.04626692290041303
1590500014.8067172,-0.08974503080770321,-4.289745030807703,8.776940369692438,0.4244444444444445,0.4511111111111111,-0.6466666666666666,0.30612577019258036,0.12181288509629018,-0.05771932764443528
1590500014.8167171,-0.07854345380396568,-4.282184819294051,8.662184819294051,0.4244444444444445,0.4511111111111111,-0.6466666666666666,0.053396586274785544,0.004551706862607228,0.11134487941217831
1590500014.8267171,-0.06379763746308537,-4.304303543805371,8.684303543805372,0.4244444444444445,0.4511111111111111,-0.6466666666666666,-0.03876476585571649,0.050632382927858245,-0.026897148783574742
1590500014.8367171,-0.08447101658066375,-4.326314011053776,8.722628022107552,0.4244444444444445,0.4511111111111111,-0.6466666666666666,-0.21544385362914845,0.0625,0.039462569086098964
1590500014.8467171,-0.09622838790257829,-4.317543224194843,8.736228387902578,0.43690122024960104,0.4511111111111111,-0.6688120458758339,-0.1721451512177714,0.0625,0.1014274243911143
1590500014.856717,-0.0917538644470868,-4.293507728894173,8.731753864447088,0.4444444444444444,0.4511111111111111,-0.6822222222222222,0.08115338882282996,0.11403834720570749,0.07346165279429251
1590500014.866717,-0.08019726700284796,-4.309605465994304,8.661380869019936,0.4444444444444444,0.4511111111111111,-0.6822222222222222,0.37006832492880093,0.125,0.0012329187677997608
1590500014.876717,-0.08804563123864591,-4.285863106284062,8.708273787431876,0.4444444444444444,0.4511111111111111,-0.6822222222222222,0.27442960951692613,0.125,0.15085558572461077
1590500014.886717,-0.08389143906357585,-4.304434243745697,8.726108560936424,0.4444444444444444,0.4511111111111111,-0.6822222222222222,0.059107470736745465,0.125,0.07296448244204727
1590500014.896717,-0.08845217595491546,-4.311547824045085,8.738452175954915,0.4500792284143881,0.4511111111111111,-0.6775265689139358,-0.16815219943644333,0.07217390028177834,0.052826099718221664
1590500014.906717,-0.0968427120109518,-4.323685424021903,8.753685424021903,0.4511111111111111,0.4511111111111111,-0.6766666666666666,-0.01643219972620505,0.0625,0.0625
1590500014.916717,-0.1,-4.29106681549992,8.69186692712486,0.4511111111111111,0.4511111111111111,-0.6766666666666666,0.24499930234412376,-0.059166201562749154,0.0016668992186254228
1590500014.926717,-0.08583693638048179,-4.29,8.718326127239036,0.4511111111111111,0.4511111111111111,-0.6766666666666666,0.20574042618900557,0.0702787214329833,0.0
1590500014.936717,-0.0941620516315924,-4.297081025815796,8.737081025815796,0.4511111111111111,0.4511111111111111,-0.6766666666666666,0.010474354605094993,0.125,0.04425641134872625
1590500014.946717,-0.09305637786987699,-4.313887244260246,8.753887244260246,0.4511111111111111,0.4426244618409607,-0.6866963430768444,-0.14929527662653774,0.125,0.019102361686731135
1590500014.956717,-0.10968101409930817,-4.319043042297925,8.766810140993082,0.4511111111111111,0.4388888888888889,-0.6911111111111111,-0.1815190143620282,0.0,0.060506338120676066
1590500014.966717,-0.10049829231981786,-4.291494876959454,8.67498292319818,0.4511111111111111,0.4388888888888889,-0.6911111111111111,-0.009342980996584649,0.0,0.0031143269988615496
1590500014.976717,-0.08978423683770373,-4.300071921054099,8.710143842108199,0.4511111111111111,0.4388888888888889,-0.6911111111111111,0.125,0.0004495065881172294,0.06205049341188277
1590500014.986717,-0.06639985875968704,-4.307866713746771,8.725733427493543,0.4511111111111111,0.4388888888888889,-0.6911111111111111,0.125,0.04916696091731866,0.013333039082681339
1590500014.996717,-0.08629607250755286,-4.318765357502518,8.738765357502517,0.45598075416806527,0.4496021036141882,-0.6706586102719033,-0.09413393756294058,0.11728348439073515,0.0
1590500015.006717,-0.09,-4.32,8.707986396003825,0.4566666666666666,0.4511111111111111,-0.6677777777777778,-0.125,-0.02506376873206506,0.0
1590500015.016717,-0.09,-4.294415740934815,8.657359568224692,0.4566666666666666,0.4511111111111111,-0.6677777777777778,0.08820215887654578,-0.0625,0.10660107943827289
1590500015.026717,-0.09,-4.29774272620697,8.68871363103485,0.4566666666666666,0.4511111111111111,-0.6677777777777778,0.17339203879356282,0.03428407758712565,0.07660796120643718
1590500015.036717,-0.09,-4.293132474701012,8.741205151793928,0.4566666666666666,0.4511111111111111,-0.6677777777777778,0.10165593376264949,0.019577966881324745,0.10542203311867526
1590500015.046717,-0.09,-4.29935874864572,8.75064125135428,0.4379491693752257,0.44487194534729746,-0.6812959702660406,-0.11297653710725894,0.2339687161430119,0.125
1590500015.056717,-0.08320742876526459,-4.306792571234735,8.743207428765265,0.43666666666666665,0.4444444444444444,-0.6822222222222222,-0.125,0.20754642978290366,0.08254642978290366
1590500015.066717,-0.08,-4.31,8.672716450611649,0.43666666666666665,0.4444444444444444,-0.6822222222222222,-0.17756527295964944,0.08236945408070112,0.00993472704035056
1590500015.076717,-0.0998598171988095,-4.29676012186746,8.68647975626508,0.43666666666666665,0.4444444444444444,-0.6822222222222222,0.0607477149851188,-0.02024923832837293,-0.041374619164186464
1590500015.086717,-0.11,-4.277506178263496,8.724987643473007,0.43666666666666665,0.4444444444444444,-0.6822222222222222,0.10941361414685047,-0.0625,-0.0625
1590500015.096717,-0.0919575020206747,-4.288042497979325,8.758042497979325,0.4486949986528835,0.44845388843985,-0.6822222222222222,-0.012677074913855446,-0.10008853745692772,-0.024911462543072277
1590500015.1067169,-0.09650238247635304,-4.308251191238176,8.712241661332763,0.4566666666666666,0.4511111111111111,-0.6822222222222222,-0.010930054761396767,-0.021860109522793533,-0.1547098357158097
1590500015.1167169,-0.0915125048712835,-4.326974990257433,8.666050019485134,0.4566666666666666,0.4511111111111111,-0.6822222222222222,0.15914053366343442,0.0,-0.0814063108910437
