time,acc_x,acc_y,acc_z,mag_x,mag_y,mag_z,gyr_x,gyr_y,gyr_z
1590500218.8194432,-0.12,-4.31,8.69,0.5022222222222222,0.3466666666666667,-0.6055555555555555,0.0,0.0,-0.25
1590500218.8294432,-0.13760773966578718,-4.33,8.757607739665787,0.5077777777777778,0.3466666666666667,-0.6144444444444445,0.12769349164467897,-0.04754837291116974,-0.125
1590500218.8394432,-0.13064751663596688,-4.33,8.750647516635967,0.5077777777777778,0.3466666666666667,-0.6144444444444445,-0.04631208410082807,-0.004046978974792982,-0.125
1590500218.8494432,-0.1260282698485544,-4.324042404772832,8.637943460302893,0.5077777777777778,0.3466666666666667,-0.6144444444444445,0.13741165672326755,-0.11214662689307023,-0.125
1590500218.8594432,-0.11062927948600276,-4.300943919229004,8.668741441027995,0.5077777777777778,0.3466666666666667,-0.6144444444444445,0.1855335016062414,-0.30463400642496563,-0.125
1590500218.8694432,-0.08916790682626981,-4.32,8.68083209317373,0.5081013695675617,0.3466666666666667,-0.6153227650167152,0.3203008735037205,-0.0729011646716273,-0.3854011646716273
1590500218.8794432,-0.07107538013587836,-4.32,8.69892461986412,0.5151373521693806,0.3466666666666667,-0.6344204320787951,0.4899183112261404,-0.29905774830152054,-0.6115577483015205
1590500218.8894432,-0.06052657379794926,-4.29,8.683683565505127,0.5155555555555555,0.3466666666666667,-0.6355555555555555,0.4835522284407043,-0.0592089137628171,-1.2730299440336614
1590500218.8994431,-0.09467761217820993,-4.293118408118807,8.616236816237613,0.5155555555555555,0.3466666666666667,-0.6355555555555555,0.4277549746287293,0.15423507611381207,-1.7557151775988948
1590500218.9094431,-0.124265822253911,-4.312132911126955,8.667063289015644,0.5155555555555555,0.3466666666666667,-0.6355555555555555,0.3083465272826406,0.33916138908694377,-2.098338610913056
1590500218.9194431,-0.14277382779465658,-4.317226172205344,8.732773827794658,0.5144768447465224,0.3475912759315522,-0.6326276262167514,0.0625,0.42883178814169826,-1.9393225169918877
1590500218.9294431,-0.16,-4.307235023041475,8.745176651305684,0.5077777777777778,0.3533333333333333,-0.6144444444444445,0.10771889400921658,0.375,-1.4268433179723503
1590500218.939443,-0.16,-4.328244339811661,8.73117044012556,0.5077777777777778,0.3533333333333333,-0.6144444444444445,0.2390271238228812,0.375,-1.0329186285313565
1590500218.949443,-0.1326406946948847,-4.320880231564962,8.638802315649617,0.5077777777777778,0.3533333333333333,-0.6144444444444445,0.02200578912403911,0.31800144728100976,-0.487013025529088
1590500218.959443,-0.10266852752266042,-4.298005582567981,8.646011165135963,0.5077777777777778,0.3533333333333333,-0.6144444444444445,0.020804257458430876,-0.1541434059667447,-0.17916085149168617
1590500218.969443,-0.1152572183204274,-4.335771654961282,8.721543309922565,0.5077777777777778,0.3533333333333333,-0.6144444444444445,-0.17589403625667807,0.0032152290053424626,-0.1398211927486644
1590500218.979443,-0.11019209845045586,-4.330384196900912,8.730384196900912,0.5219447466826749,0.33371753023424505,-0.6057263097337385,-0.37259876936930175,0.001200615315349124,-0.06370061531534912
1590500218.989443,-0.12546147351100911,-4.298192210266514,8.681807789733487,0.5222222222222223,0.3333333333333333,-0.6055555555555555,-0.23293289527809652,-0.44879868583428956,-0.03413420944380697
1590500218.999443,-0.13573641567441783,-4.317157610449612,8.661421194775194,0.5222222222222223,0.3333333333333333,-0.6055555555555555,-0.1786175326550371,-0.28585259796511137,-0.11611753265503712
1590500219.009443,-0.11436346032986258,-4.302908973553242,8.668545513223378,0.5222222222222223,0.3333333333333333,-0.6055555555555555,-0.1340905423538804,-0.15227162706164116,-0.07159054235388039
1590500219.019443,-0.11,-4.309775669185263,8.69932700755579,0.5222222222222223,0.3333333333333333,-0.6055555555555555,-0.30829379722368655,0.05829379722368652,-0.12359793240789552
1590500219.029443,-0.11859609202120996,-4.3185960920212105,8.717192184042421,0.5327285569148122,0.35625624538989326,-0.6179721329195255,-0.20504884973487536,0.38485345079537386,-0.07127442486743768
1590500219.039443,-0.1048560611472248,-4.321618687049075,8.65676262590185,0.5344444444444445,0.36,-0.62,-0.36488320594328166,0.5101167940567184,0.14523358811343667
1590500219.049443,-0.1273271305093221,-4.329109043503108,8.641781912993785,0.5344444444444445,0.36,-0.62,-0.318068478105579,0.5569315218944211,0.23886304378884207
1590500219.059443,-0.13565290359492707,-4.34,8.69,0.5344444444444445,0.36,-0.62,-0.21377419662439212,0.28533064746829406,0.40216935253170594
1590500219.069443,-0.11165576427958425,-4.34,8.69,0.5344444444444445,0.36,-0.62,-0.01379803566320209,0.13534852674740155,0.5521514732525985
1590500219.079443,-0.08342963653308481,-4.316570363466916,8.736281453867662,0.5077777777777778,0.3466666666666667,-0.62,0.10537045666356011,0.03034715750232992,0.3106943150046598
1590500219.089443,-0.09634738058164649,-4.301826309709177,8.659042141744939,0.5077777777777778,0.3466666666666667,-0.62,0.27825669295293587,-0.125,-0.03424330704706414
1590500219.099443,-0.08215552242229614,-4.312155522422296,8.62077761211148,0.5077777777777778,0.3466666666666667,-0.62,0.11152798486064916,-0.125,-0.16055596972129832
1590500219.109443,-0.09432005800981705,-4.32,8.664320058009817,0.5077777777777778,0.3466666666666667,-0.62,0.028749546798304326,-0.09124954679830433,-0.055749909359660864
1590500219.119443,-0.1177153056671129,-4.32,8.687715305667112,0.5077777777777778,0.3466666666666667,-0.62,-0.1540258255243195,0.09152582552431951,-0.019194834895136105
1590500219.129443,-0.13766144851725068,-4.32,8.707661448517252,0.5188443145249176,0.3364514019769991,-0.62,-0.15423189353436673,0.13961594676718336,0.0
1590500219.139443,-0.1269287843372719,-4.304606823494092,8.710037098192268,0.5222222222222223,0.3333333333333333,-0.62,0.08169509789205069,0.125,0.014512255269873264
1590500219.149443,-0.11051259179355268,-4.33,8.603588142554868,0.5222222222222223,0.3333333333333333,-0.62,0.1842963012902958,0.13140739741940838,-0.24038890387088743
1590500219.159443,-0.11921337592830768,-4.33,8.664493631498154,0.5222222222222223,0.3333333333333333,-0.62,0.129916400448077,0.24016719910384599,-0.07724920134423102
1590500219.169443,-0.1104051607062019,-4.28202580353101,8.67,0.5222222222222223,0.3333333333333333,-0.62,0.36487098234495247,-0.049838727931190596,-0.0025322544137618835
1590500219.179443,-0.10267755991285403,-4.287322440087146,8.684644880174291,0.5173405954974583,0.3333333333333333,-0.62,0.14617374727668844,0.029030501089324617,-0.09153050108932462
1590500219.1894429,-0.11983878027429237,-4.329677560548585,8.709838780274293,0.5155555555555555,0.3333333333333333,-0.62,-0.06149237671432739,0.0625,-0.125
1590500219.1994429,-0.11179169371815302,-4.33,8.636125243463377,0.5155555555555555,0.3333333333333333,-0.62,-0.11380191426154361,0.01119808573845639,-0.125
1590500219.2094429,-0.10909941601538808,-4.32,8.673602335938448,0.5155555555555555,0.3333333333333333,-0.62,-0.07375729980764899,0.07938594971147347,-0.11937135009617551
1590500219.2194428,-0.10183114700123036,-4.32,8.702675411995079,0.5155555555555555,0.3333333333333333,-0.62,-0.16461066248462058,0.21566599372693088,-0.07394466875768971
1590500219.2294428,-0.11933337058560572,-4.319333370585606,8.778000111756816,0.5077777777777778,0.3533333333333333,-0.6222222222222222,-0.18333356616003577,0.125,0.0625
1590500219.2394428,-0.11152101028162718,-4.311521010281627,8.754563030844881,0.5077777777777778,0.3533333333333333,-0.6222222222222222,-0.13450631426016987,0.125,0.0625
1590500219.2494428,-0.129238783269962,-4.320761216730038,8.626089733840303,0.5077777777777778,0.3533333333333333,-0.6222222222222222,-0.12975760456273763,0.14878802281368822,-0.04346958174904943
1590500219.2594428,-0.1212648288973384,-4.328735171102662,8.689881368821291,0.5077777777777778,0.3533333333333333,-0.6222222222222222,-0.179594819391635,0.39797409695817487,0.15587927756653994
1590500219.2694428,-0.12637682730705987,-4.342753654614119,8.71913048192118,0.5077777777777778,0.3533333333333333,-0.6222222222222222,-0.3070655120073725,0.3179344879926275,0.22735517066912414
1590500219.2794428,-0.13790182277567228,-4.326294531672984,8.722098177224328,0.5077777777777778,0.34806545148288515,-0.6090525175961018,-0.2762272153040967,0.1018408229561451,0.3981591770438549
1590500219.2894428,-0.15,-4.322651996050219,8.673370009874454,0.5077777777777778,0.3466666666666667,-0.6055555555555555,0.03314995062773311,-0.17092502468613344,0.7123624629707999
1590500219.2994428,-0.14894361334867665,-4.34,8.637394706559265,0.5077777777777778,0.3466666666666667,-0.6055555555555555,0.283012082853855,-0.102114499424626,0.901409666283084
1590500219.3094428,-0.1401680092059839,-4.34,8.698823935558112,0.5077777777777778,0.3466666666666667,-0.6055555555555555,0.5572497123130035,-0.4311996547756041,1.1207997698504029
1590500219.3194427,-0.10568091762252346,-4.34,8.717159541188739,0.5077777777777778,0.3466666666666667,-0.6055555555555555,0.7769942648592284,-0.5983706986444213,1.3931178310740355
1590500219.3294427,-0.09346192496650291,-4.320385774899508,8.706923849933005,0.5215803806262717,0.33794923328867055,-0.611367177807553,1.098540782715498,-0.7884518758374274,1.1923221862438589
1590500219.3394427,-0.0570977973568282,-4.293548898678414,8.642421145374449,0.5288888888888889,0.3333333333333333,-0.6144444444444445,1.3528193832599118,-0.8235903083700441,0.8054515418502202
1590500219.3494427,-0.02246544939105135,-4.276232724695525,8.526745435216442,0.5288888888888889,0.3333333333333333,-0.6144444444444445,1.0308181173881419,-0.33924991140869504,0.7069772646735177
1590500219.3594427,0.016240770910603483,-4.366216160005546,8.663685396374223,0.5288888888888889,0.3333333333333333,-0.6144444444444445,0.10964418177406499,0.5856875454955112,0.3048220908870325
1590500219.3694427,0.044062781207491894,-4.371979072930836,8.706041854138329,0.5288888888888889,0.3333333333333333,-0.6144444444444445,0.40104635345819817,0.43684602908862613,-0.15104635345819817
1590500219.3794427,-7.475915221580309e-05,-4.344962620423892,8.701654206807964,0.506633440376793,0.35002491971740524,-0.6209356169271391,0.8129672447013487,0.11419396274887605,-0.980256904303147
1590500219.3894427,-0.11177231777231775,-4.303652743652743,8.721808353808354,0.5022222222222222,0.3533333333333333,-0.6222222222222222,0.6932637182637182,0.10793407043407044,-1.9882473382473382
1590500219.3994427,-0.20973066750782518,-4.180718219979132,8.640359109989568,0.5022222222222222,0.3533333333333333,-0.6222222222222222,0.561377781282605,0.0608166719239075,-3.1221944532065127
1590500219.4094427,-0.1793924777702093,-4.26060752222979,8.68020250740993,0.5022222222222222,0.3533333333333333,-0.6222222222222222,0.4375,-0.12753134262412782,-2.811234328687936
1590500219.4194427,-0.15622765514829065,-4.28377234485171,8.687924114950569,0.5022222222222222,0.3533333333333333,-0.6222222222222222,0.4375,-0.22405143688212226,-2.7629742815589386
1590500219.4294426,-0.16231161427596452,-4.308467421413947,8.726934842827893,0.5145338364981867,0.3533333333333333,-0.6174343722260138,0.12970964310088723,-0.17305241077522182,-2.4806834377132763
1590500219.4394426,-0.14497218155197658,-4.294972181551977,8.649888726207907,0.5222222222222223,0.3533333333333333,-0.6144444444444445,-0.1667825768667643,-0.2814238653001464,-1.6868045387994144
1590500219.4494426,-0.11103205326726541,-4.29,8.572064106534532,0.5222222222222223,0.3533333333333333,-0.6144444444444445,-0.1875,-0.2521501109734696,-0.8986512207081656
1590500219.4594426,-0.09168038795534002,-4.308319612044659,8.624958836133981,0.5222222222222223,0.3533333333333333,-0.6144444444444445,-0.6454903011164994,-0.07825363708131272,-0.30251212360437574
1590500219.4694426,-0.09796556826945121,-4.31,8.709655682694512,0.5222222222222223,0.3533333333333333,-0.6144444444444445,-0.5879303966318598,-0.012715198315929883,-0.10064559494778966
1590500219.4794426,-0.09000062142679592,-4.300000621426796,8.73,0.5422209793686305,0.3466670809511973,-0.6199996547628911,-0.5000038839174745,0.18748834824757643,-0.0625
1590500219.4894426,-0.09794577902394666,-4.307945779023946,8.722054220976053,0.5422222222222223,0.3466666666666667,-0.62,-0.5,0.1875,-0.0625
1590500219.4994426,-0.1,-4.3283043465466,8.6742391336335,0.5422222222222223,0.3466666666666667,-0.62,-0.671603248874371,0.1875,-0.005298917041876343
1590500219.5094426,-0.10774947426893625,-4.314501051462127,8.708747371344682,0.5422222222222223,0.3466666666666667,-0.62,-0.3968947149148911,0.28436842836170295,0.04843421418085149
1590500219.5194426,-0.12731626801478912,-4.315772089338263,8.714227910661737,0.5422222222222223,0.3466666666666667,-0.62,-0.276424441635856,0.24034888327171205,0.09857555836414397
1590500219.5294425,-0.1258672841739634,-4.32,8.738265431652074,0.5328004116715311,0.3513775719420122,-0.6364881684637094,-0.2941647369563644,0.09917052608727116,0.16916473695636441
1590500219.5394425,-0.14061308206242512,-4.32,8.688160753812724,0.5288888888888889,0.3533333333333333,-0.6433333333333333,-0.2695560790366143,0.0625,0.445163525780314
1590500219.5494425,-0.14,-4.310151216522848,8.600907299137088,0.5288888888888889,0.3533333333333333,-0.6433333333333333,-0.3143902065356013,0.12405489673219934,0.7556706196068039
1590500219.5594425,-0.14,-4.317098067144774,8.642588402868641,0.5288888888888889,0.3533333333333333,-0.6433333333333333,-0.4012258393096709,0.08063708034516456,1.0161775179290127
1590500219.5694425,-0.14651913939458652,-4.313480860605413,8.673038278789173,0.5288888888888889,0.3533333333333333,-0.6433333333333333,-0.39675537878383427,0.1032446212161657,1.532446212161657
1590500219.5794425,-0.1627824337173562,-4.316391216858678,8.724738518010748,0.5288888888888889,0.3490725220942146,-0.6156380602790615,-0.375,0.2448353161002145,2.2692863697675962
1590500219.5894425,-0.09238851681082354,-4.2855060074714775,8.706882509339346,0.5288888888888889,0.3466666666666667,-0.6,-0.26720627334836605,0.258603136674183,2.993674906606536
1590500219.5994425,0.18573998508183054,-4.321521872669036,8.625260629195735,0.5288888888888889,0.3466666666666667,-0.6,-0.4576093633451801,0.7171210675266553,1.7649414790926243
1590500219.6094425,-0.08960502116479341,-4.320011969055613,8.669928185666326,0.5288888888888889,0.3466666666666667,-0.6,-0.0005984527806159323,0.562799226390308,0.06422055174427088
1590500219.6194425,-0.11921068683664755,-4.327302671709162,8.699210686836649,0.5288888888888889,0.3466666666666667,-0.6,0.1369250945467854,0.4712166036354764,0.0625
1590500219.6294425,-0.11175513580587343,-4.33,8.71,0.5228072674908467,0.33957144170228415,-0.6324353141228917,0.24451520060664553,0.4375,0.11951520060664553
1590500219.6394424,-0.11764455914312325,-4.322355440856877,8.73293367742937,0.5222222222222223,0.3388888888888889,-0.6355555555555555,0.25,0.294164516066439,0.125
1590500219.6494424,-0.10180908203125,-4.3290954589843755,8.658140869140626,0.5222222222222223,0.3388888888888889,-0.6355555555555555,0.25,0.19315338134765625,0.0113067626953125
1590500219.6594424,-0.09244402659584779,-4.314888053191695,8.68777986702076,0.5222222222222223,0.3388888888888889,-0.6355555555555555,0.20277516622404868,0.14027516622404868,-0.04722483377595131
1590500219.6694424,-0.08518395692075323,-4.31,8.690367913841506,0.5222222222222223,0.3388888888888889,-0.6355555555555555,0.1573997307547077,0.125,-0.03239973075470769
1590500219.6794424,-0.07206779142277822,-4.31,8.691898312865833,0.5195781526964817,0.3419736366689196,-0.6293860599954941,0.10021184819618195,0.10021184819618195,-0.02478815180381805
1590500219.6894424,-0.07693185249083459,-4.315643950830278,8.687424196678888,0.5155555555555555,0.3466666666666667,-0.62,0.0625,-0.008049385378477464,-0.30942284882467114
1590500219.6994424,-0.14883116883116884,-4.286382189239332,8.594359925788497,0.5155555555555555,0.3466666666666667,-0.62,0.009972170686456394,0.09508348794063079,-0.5525278293135436
1590500219.7094424,-0.14686135191008115,-4.2931386480899185,8.625985268314716,0.5155555555555555,0.3466666666666667,-0.62,0.0,0.08394172471900353,-0.48038344943800704
1590500219.7194424,-0.16491930277598452,-4.3,8.674919302775985,0.5155555555555555,0.3466666666666667,-0.62,0.03893641058747579,0.023563589412524212,-0.5153728211749515
1590500219.7294424,-0.1916342936423733,-4.311634293642373,8.695817146821186,0.5155555555555555,0.3466666666666667,-0.6167682517660075,0.17157150289724965,0.0,-0.5261428323675834
1590500219.7394423,-0.2084633905664101,-4.30307321886718,8.72539017169923,0.5155555555555555,0.3466666666666667,-0.6144444444444445,0.19710380895993684,-0.10579238208012631,-0.23551904479968422
1590500219.7494423,-0.1663135778089049,-4.308737284438219,8.660101724494249,0.5155555555555555,0.3466666666666667,-0.6144444444444445,0.07828394452226228,-0.125,-0.24210802773886886
1590500219.7594423,-0.10502614641995174,-4.319162308930008,8.686649235720031,0.5155555555555555,0.3466666666666667,-0.6144444444444445,0.17702886162510056,-0.18226443081255028,-0.19273556918744972
1590500219.7694423,-0.1,-4.313306694865305,8.70338661026939,0.5155555555555555,0.3466666666666667,-0.6144444444444445,0.10383368581631591,-0.31299947127552613,-0.1875
1590500219.7794423,-0.1,-4.3273439514599925,8.727343951459993,0.5271181898622171,0.3399217966544474,-0.6211893144566637,0.008300151687523703,-0.3208001516875237,-0.024900455062571103
1590500219.7894423,-0.1,-4.322568197196714,8.692840985983567,0.5288888888888889,0.3388888888888889,-0.6222222222222222,0.1857950700821653,-0.26605123247945867,-0.13934630256162397
1590500219.7994423,-0.1162664244969776,-4.32,8.631200726509066,0.5288888888888889,0.3388888888888889,-0.6222222222222222,0.25,-0.5041628827652751,-0.13666742344694496
1590500219.8094423,-0.12,-4.298977351536648,8.648030197951137,0.5288888888888889,0.3388888888888889,-0.6222222222222222,0.2937971842986506,-0.2997168942080964,-0.08120281570134939
1590500219.8194423,-0.12401102842284586,-4.306044113691383,8.672033085268538,0.5288888888888889,0.3388888888888889,-0.6222222222222222,0.23729321707163992,-0.2125689276427867,-0.0625
1590500219.8294423,-0.12859920426394414,-4.328599204263944,8.69,0.5288888888888889,0.33990057469826257,-0.6226891541342409,0.11624502664965093,-0.26750994670069816,-0.06687748667517454
1590500219.8394423,-0.11,-4.314804914912673,8.680390170174652,0.5288888888888889,0.3533333333333333,-0.6288888888888889,0.03003071820420958,-0.5300307182042095,-0.18506143640841916
1590500219.8494422,-0.11819644547271006,-4.32,8.61262488169103,0.5288888888888889,0.3533333333333333,-0.6288888888888889,0.011272215795562104,-0.3575888631822484,-0.3524555684088758
1590500219.8594422,-0.10861800185586143,-4.302927002783792,8.634145994432416,0.5288888888888889,0.3533333333333333,-0.6288888888888889,0.0,-0.34806874420043304,-0.2682937673987009
1590500219.8694422,-0.09107385103011094,-4.294463074484945,8.673389223454834,0.5288888888888889,0.3533333333333333,-0.6288888888888889,-0.055788431061806656,-0.45868264659270996,-0.35486529318542
1590500219.8794422,-0.07018606143235223,-4.3,8.709627877135295,0.5288888888888889,0.3500620204774507,-0.62180104436781,-0.125,-0.6851742320955971,-0.6851742320955971
1590500219.8894422,-0.07959369817578772,-4.280406301824212,8.73,0.5288888888888889,0.3466666666666667,-0.6144444444444445,-0.2882808181315644,-1.0166010226644555,-1.3431626589275845
1590500219.8994422,-0.09,-4.275880120588757,8.67707891470119,0.5288888888888889,0.3466666666666667,-0.6144444444444445,-0.5220030147189219,-1.3087537683986523,-2.5070180883135307
1590500219.9094422,-0.10940975103734439,-4.267060165975104,8.691759336099585,0.5288888888888889,0.3466666666666667,-0.6144444444444445,-0.7463109439834025,-1.7205588692946059,-4.176361514522822
1590500219.9194422,-0.10753182461103253,-4.278702263083451,8.757404526166903,0.5288888888888889,0.3466666666666667,-0.6144444444444445,-0.5397586633663367,-1.4464064710042432,-5.56822400990099
1590500219.9294422,-0.09280837491315606,-4.304383250173688,8.765616749826313,0.5328842361593578,0.3466666666666667,-0.6248323473476635,-0.060366402450577894,-0.28854686414450836,-6.467028911134971
1590500219.9394422,-0.10196380090497738,-4.3458914027149325,8.718126696832579,0.5344444444444445,0.3466666666666667,-0.6288888888888889,0.1372737556561086,0.6606900452488688,-6.288518099547511
1590500219.9494421,-0.13627757628190196,-4.37,8.63087545336572,0.5344444444444445,0.3466666666666667,-0.6288888888888889,0.2696174258809437,0.7340302964762253,-5.200267028250091
1590500219.9594421,-0.17065896029258099,-4.342454719609892,8.620658960292582,0.5344444444444445,0.3466666666666667,-0.6288888888888889,0.14034199756182514,0.04602599268547536,-3.7170519853709507
1590500219.9694421,-0.19182965974748556,-4.300425850631286,8.677318638989943,0.5344444444444445,0.3466666666666667,-0.6288888888888889,-0.01143537342178473,-0.4093061202653542,-2.436710892360368
1590500219.9794421,-0.20969250996691832,-4.27515374501654,8.71,0.5215210978218867,0.3402049933553878,-0.6245811066813697,-0.09278909364661973,-0.8351018428195776,-1.3903745016540843
1590500219.989442,-0.2093019588816787,-4.264650979440839,8.720698041118322,0.5077777777777778,0.3333333333333333,-0.62,-0.25872551397901633,-1.158431378494754,-0.5406862150524592
1590500219.999442,-0.18094516198343163,-4.266351612672189,8.704593549311243,0.5077777777777778,0.3333333333333333,-0.62,-0.45439515840236827,-0.9890121039940794,-0.09120968319526346
1590500220.009442,-0.15676457447336634,-4.265588191491122,8.681176382982244,0.5077777777777778,0.3333333333333333,-0.62,-0.47242619681951314,-0.43381914911221064,0.2481642286243815
1590500220.019442,-0.13712633170422983,-4.2743683414788505,8.695863014661931,0.5077777777777778,0.3333333333333333,-0.62,-0.5811834147885095,0.358485549031328,0.8498668295770191
1590500220.029442,-0.14452942753720338,-4.317264713768602,8.76,0.5134281107089124,0.3478627608705367,-0.6313006658622693,-0.8466910778924789,0.528859850516155,2.515993682128972
1590500220.039442,-0.16377563919585697,-4.292448721608286,8.691121804020716,0.5155555555555555,0.3533333333333333,-0.6355555555555555,-0.8985977449741059,0.2458533825388411,4.080368429637483
1590500220.049442,-0.1792627376095825,-4.252211787171253,8.61831768075688,0.5155555555555555,0.3533333333333333,-0.6355555555555555,-0.9085539449700547,0.21644605502994532,5.435489540838469
1590500220.059442,-0.20240932642487047,-4.191044905008636,8.598955094991364,0.5155555555555555,0.3533333333333333,-0.6355555555555555,-1.0301165803108807,0.12073618307426598,7.176435664939551
1590500220.069442,-0.23094181213632584,-4.133587281795512,8.661883624272653,0.5155555555555555,0.3533333333333333,-0.6355555555555555,-1.2841931629260184,-0.02830683707398171,9.50926070241064
1590500220.079442,-0.22599256143765858,-4.02194793006361,8.722022315687024,0.5101082183368673,0.34321684992719786,-0.6059842963683904,-1.5313662275365845,-0.1313197365219507,11.681877628697556
1590500220.089442,-0.24664901954512014,-3.9053827452736636,8.750659607818047,0.5077777777777778,0.3388888888888889,-0.5933333333333334,-1.7915563721570007,-0.2874338232942004,12.986970586353603
1590500220.099442,-0.2956842274980854,-3.773221008504978,8.734315772501915,0.5077777777777778,0.3388888888888889,-0.5933333333333334,-2.13013170623564,-0.6318422749808537,14.07276341247128
1590500220.109442,-0.3881955821561715,-3.5887634095001393,8.694845426187518,0.5077777777777778,0.3388888888888889,-0.5933333333333334,-2.7860804316400802,-0.875,14.67429021582004
1590500220.119442,-0.32930278464516377,-3.3451532225608003,8.72103739052109,0.5077777777777778,0.3388888888888889,-0.5933333333333334,-4.178995620843635,-0.5258293566377279,14.478422832940455
1590500220.129442,-0.04858635097493039,-3.011273963624447,8.91696337866623,0.5173569920075737,0.3388888888888889,-0.6029125475631293,-5.391252252990332,0.7651616008520399,13.77366919957398
1590500220.139442,0.19549514270652912,-2.667987047217411,9.106996761804353,0.5288888888888889,0.3388888888888889,-0.6144444444444445,-1.7322205173582343,0.3013145756457565,13.951678872656073
1590500220.149442,-0.016282743721307058,-2.7448865784499055,8.841623008371592,0.5288888888888889,0.3388888888888889,-0.6144444444444445,2.1511780988387796,-0.6981529615626969,19.866383675398325
1590500220.159442,-0.13329196217494088,-2.836633569739953,8.923093380614658,0.5288888888888889,0.3388888888888889,-0.6144444444444445,-0.9124261229314419,-2.268713061465721,27.160564420803784
1590500220.169442,-0.16712842623960578,-2.8385810491735963,8.831587311364336,0.5288888888888889,0.3388888888888889,-0.6144444444444445,-0.7694204907093727,-2.661105122677343,33.58594856790884
1590500220.179442,-0.20257105065598968,-2.8600947342079865,8.69,0.5238730998542245,0.3388888888888889,-0.6144444444444445,-0.5975985771994423,-3.2999834661995493,41.12373315339792
1590500220.189442,-0.21,-2.87,8.69,0.5222222222222223,0.3388888888888889,-0.6144444444444445,-1.0,-3.625,42.625
1590500220.199442,-0.24,-2.8980863121185703,8.85382737576286,0.5222222222222223,0.3388888888888889,-0.6144444444444445,-1.0864210985178726,-3.745661235832607,51.083608053618136
1590500220.209442,-0.28370952369883073,-2.9637095236988307,8.834976870685047,0.5222222222222223,0.3388888888888889,-0.6144444444444445,-1.2027636044538461,-3.7106845231176924,56.83337159162231
1590500220.219442,-0.36523025098818074,-2.9598744085519018,8.814853476643885,0.5222222222222223,0.3388888888888889,-0.6144444444444445,-1.5944041221255136,-4.251569893101233,60.53975358763168
1590500220.229442,-0.4031609983543609,-2.93,8.701417992320351,0.5141145547632109,0.32891022124702873,-0.6188101115377583,-1.75,-5.1161375479978055,64.56213144541964
1590500220.2394419,-0.39,-2.9716334734522305,8.651895278129208,0.5077777777777778,0.3211111111111111,-0.6222222222222222,-2.196072929845325,-5.760209209076439,68.13232818430396
1590500220.2494419,-0.39,-3.0696216897856243,8.636792770071459,0.5077777777777778,0.3211111111111111,-0.6222222222222222,-1.992341845313157,-6.155067780580076,71.31306483816729
1590500220.2594419,-0.39982907115410093,-3.1298290711541012,8.683888962501657,0.5077777777777778,0.3211111111111111,-0.6222222222222222,-1.6557158473565656,-6.373931694713131,73.88434974161919
1590500220.2694418,-0.42470604013753077,-3.1951476505157403,8.79044161037821,0.5077777777777778,0.3211111111111111,-0.6222222222222222,-1.7334563754297838,-6.552390938574459,76.12960569631056
1590500220.2794418,-0.4537753778679054,-3.271123110660473,8.871326133603716,0.5258156942577702,0.31565778752413665,-0.6247391408008258,-1.529346659907095,-6.56123110660473,78.64665224362753
1590500220.2894418,-0.5020191917826734,-3.1717188133531558,8.753437626706312,0.5555555555555556,0.30666666666666664,-0.6288888888888889,-0.6357425834572239,-6.118690025679146,81.30678976888768
1590500220.2994418,-0.54,-3.121766294030795,8.67706517612318,0.5555555555555556,0.30666666666666664,-0.6288888888888889,-1.0589327146171694,-5.889690993461295,83.80901708500316
1590500220.3094418,-0.5608638615588584,-3.1560798269485733,8.824751238573722,0.5555555555555556,0.30666666666666664,-0.6288888888888889,-2.0161974042285955,-6.07329826948573,85.8230932942572
1590500220.3194418,-0.5756274930960417,-3.0925498619208347,8.908137465480209,0.5555555555555556,0.30666666666666664,-0.6288888888888889,-1.6098112918073029,-6.5584535133476525,87.81579855783983
1590500220.3294418,-0.62973511761054,-3.084536455818445,8.93973511761054,0.5621927908456156,0.29339219608654665,-0.6322075065339189,-1.4961371318203764,-6.875,90.4630936573084
1590500220.3394418,-0.722525984439033,-3.19,8.95121102334145,0.5688888888888889,0.28,-0.6355555555555555,-3.2220308447664863,-7.213812337906594,92.96972441646373
1590500220.3494418,-0.7819902513673591,-3.1846682914387734,8.675404823306033,0.5688888888888889,0.28,-0.6355555555555555,-2.138048360586051,-7.5,95.39957349732197
1590500220.3594418,-0.8157034731397094,-3.1742965268602905,8.595476409073605,0.5688888888888889,0.28,-0.6355555555555555,-1.7744880421882347,-8.46246109232595,97.90828145643461
1590500220.3694417,-0.8025085032379561,-3.117525509713868,8.733728741905109,0.5688888888888889,0.28,-0.6355555555555555,-2.4961867541651452,-8.914195363093064,100.10487086608121
1590500220.3794417,-0.825478593122367,-3.1244195160184187,8.847881845792102,0.5707264078029239,0.2639217095021935,-0.6447431501257307,-2.456720877828941,-8.407459341628295,102.6952642794161
1590500220.3894417,-0.8779813571213791,-3.1899378570712638,8.978074571514483,0.5733333333333334,0.2411111111111111,-0.6577777777777778,-2.4745727673649394,-8.26261651799138,105.05143705522703
1590500220.3994417,-0.8829955245391792,-3.1208017901843284,8.969515664112873,0.5733333333333334,0.2411111111111111,-0.6577777777777778,-1.6457061177273762,-8.216905768793143,106.83992167943563
1590500220.4094417,-0.9026278765597936,-2.979080561348934,8.722948849376081,0.5733333333333334,0.2411111111111111,-0.6577777777777778,-1.827733394605677,-7.639689897133161,108.66560102866839
1590500220.4194417,-0.8505992813260693,-2.8426292453923727,8.794509389127159,0.5733333333333334,0.2411111111111111,-0.6577777777777778,-3.778698055523357,-7.765496406630347,109.58974730497276
1590500220.4294417,-0.9768839891229565,-2.910651967368869,8.75495822822134,0.5817437487941698,0.22534158212204275,-0.6640855893734051,-1.8514501359630442,-8.621635733709006,110.60145013596305
1590500220.4394417,-0.9276728000762704,-2.732200400419487,8.689435599199161,0.5911111111111111,0.20777777777777776,-0.6711111111111111,-2.928859996186481,-8.032617504051863,111.83294999523311
1590500220.4494417,-0.9244583009918068,-2.6677084950409657,8.738791893057352,0.5911111111111111,0.20777777777777776,-0.6711111111111111,-2.4765685640362225,-8.321609529969814,112.45182190599397
1590500220.4594417,-0.9735754189944135,-2.7089944134078214,8.725418994413408,0.5911111111111111,0.20777777777777776,-0.6711111111111111,-1.6644553072625698,-9.664106145251397,112.73847765363128
1590500220.4694417,-1.117903001596046,-2.8554636255985173,8.914293878391597,0.5911111111111111,0.20777777777777776,-0.6711111111111111,-2.539942979972198,-9.33291716006796,113.44146758997066
1590500220.4794416,-1.1784421304199386,-2.8412287470126323,9.05835984977808,0.5911111111111111,0.19247699252683886,-0.6752550737832403,-3.044055138272448,-8.090681546602935,114.19672243086377
1590500220.4894416,-1.1,-2.6707786467188033,8.844981298877933,0.5911111111111111,0.15444444444444444,-0.6855555555555556,-2.1561331179870793,-8.406133117987078,114.43093335600136
1590500220.4994416,-1.1406766832034019,-2.6416374202693125,8.627009213323884,0.5911111111111111,0.15444444444444444,-0.6855555555555556,-2.064953933380581,-9.049394046775337,114.16102763997165
1590500220.5094416,-1.2320699118543155,-2.6852587389817897,8.57939856269042,0.5911111111111111,0.15444444444444444,-0.6855555555555556,-3.3744752540874945,-9.54038508500593,113.65139864409144
1590500220.5194416,-1.2944969388769727,-2.711434821517351,8.693683290955837,0.5911111111111111,0.15444444444444444,-0.6855555555555556,-3.669564731033111,-8.5625,113.52422353300473
1590500220.5294416,-1.3421601159107375,-2.753140101421895,8.759220159377264,0.5911111111111111,0.15444444444444444,-0.6855555555555556,-3.14824873222631,-8.5625,113.44974981888947
1590500220.5394416,-1.4547365780230808,-2.8645609633718014,8.869056698444556,0.5811111111111111,0.12222222222222222,-0.7,-1.2918025589563473,-8.539199698946312,113.11650150526845
1590500220.5494416,-1.3977035134579823,-2.627462091637559,8.829213889459625,0.5811111111111111,0.12222222222222222,-0.7,-1.3234487363879186,-8.946939850010274,111.95581852270392
1590500220.5594416,-1.4929133645836845,-2.640204701042053,8.858314841668633,0.5811111111111111,0.12222222222222222,-0.7,-1.865846204431255,-9.617224648433549,110.85413364583684
1590500220.5694416,-1.4221903348733687,-2.5624093683607057,8.462265875290864,0.5811111111111111,0.12222222222222222,-0.7,-1.0260102266212525,-10.412858732674604,110.14690334873369
1590500220.5794415,-1.6512826572626058,-2.768717342737394,9.246959620391056,0.5804354711980125,0.10397994456856,-0.7,-3.2939430586584444,-7.55611625523901,109.25846203910562
1590500220.5894415,-1.698365894931159,-2.710195369586955,9.161562956695638,0.5788888888888889,0.06222222222222223,-0.7,-2.392984193523575,-9.360678986231829,108.38887633643566
1590500220.5994415,-1.6587426738914077,-2.610881344686498,8.70641601238527,0.5788888888888889,0.06222222222222223,-0.7,-2.5947417892292384,-8.106124903240076,107.05346676987725
1590500220.6094415,-1.68008304876383,-2.6100830487638302,8.727813686654828,0.5788888888888889,0.06222222222222223,-0.7,-2.6307659472749623,-8.480569594317716,106.06670878295314
1590500220.6194415,-1.9112406257954613,-2.7017892737561433,8.786421452487714,0.5788888888888889,0.06222222222222223,-0.7,-2.7293486029253393,-7.985660893657849,105.4263170390241
1590500220.6294415,-2.0002525961268596,-2.637886612405276,8.748422677518946,0.5783771478466959,0.03970561636573425,-0.7194461596033305,-2.042783468986809,-7.735212601740106,104.81821849564973
1590500220.6394415,-1.86,-2.53,8.77,0.5777777777777777,0.013333333333333334,-0.7422222222222222,-2.3125,-7.9375,104.3125
1590500220.6494415,-2.0324158778140164,-2.6829663511256063,8.89107032057911,0.5777777777777777,0.013333333333333334,-0.7422222222222222,-1.6637996181688013,-7.4829891217882425,102.4191517182404
1590500220.6594415,-2.0248657718120806,-2.638108687546607,8.844325130499627,0.5777777777777777,0.013333333333333334,-0.7422222222222222,-2.157094752050708,-7.471290082028337,98.81588483407904
1590500220.6694415,-1.9047964693267978,-2.565738684230681,8.73717335528835,0.5777777777777777,0.013333333333333334,-0.7422222222222222,-1.791488760817952,-6.616300164662633,96.35653289423298
1590500220.6794415,-2.023740947018381,-2.6419629924311976,8.83785196972479,0.5777777777777777,0.005481363608543975,-0.7422222222222222,-1.3849557296448172,-7.079394648795316,93.89883356794581
1590500220.6894414,-2.0722282321363212,-2.6380832892756922,8.85497458213022,0.5777777777777777,-0.02666666666666667,-0.7422222222222222,-1.9018793972914718,-6.053758794582944,91.32739995526455
1590500220.6994414,-1.944296026678596,-2.441920574240514,8.607638984911953,0.5777777777777777,-0.02666666666666667,-0.7422222222222222,-1.3155234556102322,-4.881046911220464,89.51502704461345
1590500220.7094414,-2.182677247451344,-2.65584655931418,8.836338623725672,0.5777777777777777,-0.02666666666666667,-0.7422222222222222,-2.4296295759962927,-5.048842606000926,86.8080688137164
1590500220.7194414,-2.2880245234502836,-2.779728201967826,8.896814714070171,0.5777777777777777,-0.02666666666666667,-0.7422222222222222,-3.112964064857513,-5.310801262298914,86.36882663578214
1590500220.7294414,-2.4198950278307,-2.912578729126975,8.920524860846502,0.5736548495149862,-0.04425782725457722,-0.7567899020840857,-2.482570790840151,-6.017429209159849,87.18290746759311
1590500220.7394414,-2.44656386747239,-2.880264291171772,8.767709244981592,0.5611111111111111,-0.09777777777777777,-0.8011111111111111,-2.946310429256095,-5.517896523581301,88.6897031499618
1590500220.7494414,-2.3520578000805834,-2.676637485806381,8.789623457016226,0.5611111111111111,-0.09777777777777777,-0.8011111111111111,-2.248823303175708,-6.219023570565181,92.65942410534413
1590500220.7594414,-2.274087837837838,-2.559197072072072,8.954817567567567,0.5611111111111111,-0.09777777777777777,-0.8011111111111111,-2.694798704954955,-7.307481700450451,95.14325028153154
1590500220.7694414,-2.5048196681345134,-2.5127926678754817,8.972792667875481,0.5611111111111111,-0.09777777777777777,-0.8011111111111111,-2.859799974096817,-6.2865958646330125,97.61627291288912
1590500220.7794414,-2.396173947492724,-2.4233197214645967,8.883319721464595,0.5611111111111111,-0.09777777777777777,-0.8011111111111111,-4.777077397187219,-3.9698856450654434,97.89587587042314
1590500220.7894413,-2.4835323137641834,-2.453532313764183,8.805140082569523,0.5155555555555555,-0.19111111111111112,-0.7922222222222223,-2.236449380728585,-5.48820041284761,94.92440701840937
1590500220.7994413,-2.4564736001761824,-2.299524307658426,8.729048615316852,0.5155555555555555,-0.19111111111111112,-0.7922222222222223,-2.5767838462809007,-4.90298615316853,89.27565999559545
1590500220.8094413,-2.5749927933121937,-2.191233784952436,8.744390314211588,0.5155555555555555,-0.19111111111111112,-0.7922222222222223,-2.6738253098875755,-4.134729028538484,81.15732199481118
1590500220.8194413,-2.50334358284488,-2.03002306140098,8.896644886454629,0.5155555555555555,-0.19111111111111112,-0.7922222222222223,-2.645837337048781,-3.7708853816341565,72.39708649626854
1590500220.8294413,-2.5531081291933218,-1.9267202371664847,9.051800592916212,0.5109110452315321,-0.20349647197517381,-0.7807657634229642,-2.2069940708378843,-4.109591980028085,62.94895849586519
1590500220.8394413,-2.816235590300782,-1.9812932290976546,9.1185914933086,0.4988888888888889,-0.23555555555555555,-0.7511111111111111,-2.160212667285014,-3.687657347290314,51.79881078574268
1590500220.8494413,-2.8268805808687363,-2.0236328132162305,8.975725444177561,0.4988888888888889,-0.23555555555555555,-0.7511111111111111,-2.9254673261335924,-1.3456333999523278,43.00530125231486
1590500220.8594413,-2.782494131083053,-2.034937821204238,8.750648753251697,0.4988888888888889,-0.23555555555555555,-0.7511111111111111,-0.9240966626483091,-2.627184981917391,36.12936996383478
1590500220.8694413,-2.5918263796542553,-1.9913393450797872,8.666539644281915,0.4988888888888889,-0.23555555555555555,-0.7511111111111111,-0.7131529463098404,-1.2034808219747342,28.55847427692819
1590500220.8794413,-2.7594291506953463,-2.130383628472772,8.998920708334653,0.49959658996913087,-0.24687877283942797,-0.7709267413578877,-1.2810549783001235,-2.757583077264232,23.683932191845916
1590500220.8894413,-2.48,-1.96,8.59,0.5011111111111111,-0.27111111111111114,-0.8133333333333334,-0.8125,-0.5,21.9375
1590500220.8994412,-2.5279174785100285,-2.0797936962750714,8.869518624641833,0.5011111111111111,-0.27111111111111114,-0.8133333333333334,-0.4631017191977077,-1.348538681948424,20.589820916905445
1590500220.9094412,-2.6117246175243394,-2.0382753824756605,8.700917941585535,0.5011111111111111,-0.27111111111111114,-0.8133333333333334,-1.5704102920723226,-1.3632649513212796,18.705928372739915
1590500220.9194412,-2.8436564749389155,-2.169944693917982,9.187839926038434,0.5011111111111111,-0.27111111111111114,-0.8133333333333334,-0.44823515815888526,-1.2439410948953311,16.726801368619164
1590500220.9294412,-2.8713544211847055,-2.093775341742059,8.71697483986,0.5011111111111111,-0.27111111111111114,-0.8133333333333334,0.41732566202205645,-0.7246046027867662,16.077630753483458
1590500220.9394412,-2.7769640886853337,-2.018355782242115,8.76822670969085,0.3888888888888889,-0.3111111111111111,-0.7333333333333333,0.2650463203913813,0.1258067034454044,13.246071874674715
1590500220.9494412,-2.5237431039866762,-1.8524523784740294,8.907934839179765,0.3888888888888889,-0.3111111111111111,-0.7333333333333333,-1.5358787863016552,-1.7842653794108463,9.862515613615072
1590500220.9594412,-2.7607579830125797,-1.8994968282980325,8.630172024513493,0.3888888888888889,-0.3111111111111111,-0.7333333333333333,-0.2547373938286206,-0.744227771207397,5.420142995376841
1590500220.9694412,-2.9813053660821454,-2.0342694458268684,9.158934102286366,0.3888888888888889,-0.3111111111111111,-0.7333333333333333,-1.670209534822448,-1.4078592025527679,1.9296031060628238
1590500220.9794412,-2.6304007841428882,-1.8052755390982358,8.839477238074494,0.39186669570899585,-0.30143323894576346,-0.7227248965367022,-0.7392180352864299,-0.1468770420387715,-2.201099978218253
1590500220.9894412,-3.029059028534088,-2.0793530821171857,9.977314310607712,0.40663181587163294,-0.253446598417193,-0.6701241559573078,-0.375857656284034,-1.1850495534741885,-5.3675261380962755
1590500220.9994411,-2.085301345247924,-1.6047098246806857,8.107929678014667,0.4066666666666667,-0.2533333333333333,-0.67,1.2133790248166676,-4.02040333155262,-9.00006981205381
1590500221.0094411,-2.1973340294303334,-1.6658185615074548,7.929695862269924,0.4066666666666667,-0.2533333333333333,-0.67,3.441301721625953,-6.853047903210141,-10.082203693361178
1590500221.0194411,-2.35129489803119,-1.718258979606238,7.83,0.4066666666666667,-0.2533333333333333,-0.67,4.720105320725425,-4.443348211135417,-10.8179212829017
1590500221.029441,-2.558479288688166,-1.7596958577376332,7.83,0.4066666666666667,-0.2533333333333333,-0.67,4.794099745960059,4.620968880107261,-11.113898983840237
1590500221.039441,-2.898772134510077,-2.146070830432246,9.398580850943716,0.4666666666666667,-0.23555555555555555,-0.6622222222222223,-0.4815820176511545,-2.197815716678271,-13.30482584068798
1590500221.049441,-2.8593082553960216,-2.01978641726727,9.031566775183004,0.4666666666666667,-0.23555555555555555,-0.6622222222222223,0.1103761690596714,-0.5206008543309308,-13.058176596225136
1590500221.059441,-2.8198443762819667,-1.8935020041022939,8.664552699422291,0.4666666666666667,-0.23555555555555555,-0.6622222222222223,0.7023343557704973,1.1566140080164096,-12.811527351762292
1590500221.069441,-2.7889761392873504,-1.9034924047509956,8.538793923800798,0.4666666666666667,-0.23555555555555555,-0.6622222222222223,1.2066973883621754,1.6325379762450216,-12.779365505938745
1590500221.079441,-2.750731373236072,-2.0184388239416426,8.663122352116714,0.46837943349012695,-0.2343780283644266,-0.6622222222222223,1.1470202354027967,0.7470992737234415,-13.328893981142294
1590500221.089441,-2.6171251552893957,-1.9382750931736372,8.823449813652726,0.48025554175205376,-0.22621320393435196,-0.6622222222222223,-1.7338638390724048,-1.0064823368266809,-16.04277028318415
1590500221.099441,-2.5391506164422473,-1.915141563926292,8.689762134727193,0.4844444444444445,-0.22333333333333333,-0.6622222222222223,0.2706688066965892,0.11027782512357254,-16.710787029146072
1590500221.109441,-2.64883013414363,-2.082974505299044,8.944598680797451,0.4844444444444445,-0.22333333333333333,-0.6622222222222223,1.6537023827169643,1.1086651411843178,-17.984248777143705
1590500221.119441,-2.657372020420906,-2.1234385720057296,9.124419803871158,0.4844444444444445,-0.22333333333333333,-0.6622222222222223,0.6444645939692217,0.9170221654974842,-19.889398391302752
1590500221.129441,-2.5464565321188526,-2.0340899842068536,8.982694457707423,0.4844444444444445,-0.22333333333333333,-0.6622222222222223,0.5866961104785691,1.2251207441142982,-21.083280383442904
1590500221.139441,-2.4355410438167993,-1.9447413964079772,8.840969111543687,0.4844444444444445,-0.22333333333333333,-0.6622222222222223,0.5289276269879164,1.5332193227311124,-22.27716237558306
1590500221.149441,-2.5016277162771625,-1.9429274292742926,8.698454284542846,0.5074980638695277,-0.20981914263587081,-0.6574525078584119,0.9024446494464945,3.4314268142681428,-32.041794792947925
1590500221.159441,-2.503918831168831,-1.938172077922078,8.640896103896104,0.5166666666666667,-0.20444444444444448,-0.6555555555555556,0.7744926948051948,3.321611201298701,-36.86984577922078
1590500221.169441,-2.446421212121212,-1.9109363636363637,8.604581818181819,0.5166666666666667,-0.20444444444444448,-0.6555555555555556,0.4151325757575758,2.319185606060606,-38.345113636363635
1590500221.179441,-2.388923593073593,-1.8837006493506494,8.568267532467534,0.5166666666666667,-0.20444444444444448,-0.6555555555555556,0.055772456709956675,1.3167600108225108,-39.820381493506495
1590500221.189441,-2.4928562062937063,-1.9648972902097903,8.76256993006993,0.5263672785547786,-0.19347853535353537,-0.6534467268842269,0.017345935314685312,1.2632621284965035,-44.66680780157343
1590500221.199441,-2.6786350537684793,-2.1347599746971864,9.11,0.5422222222222223,-0.17555555555555555,-0.65,0.515218295340065,2.4266555185905396,-52.032280123234074
1590500221.209441,-2.529776228118358,-2.211927733861916,9.089552456236715,0.5422222222222223,-0.17555555555555555,-0.65,1.0591640197740788,3.6202654455138155,-55.342190970315
1590500221.219441,-2.4986155667994403,-2.28396167509958,9.064462267197761,0.5422222222222223,-0.17555555555555555,-0.65,-1.9612175691678329,0.8705188933146732,-57.390064861664335
1590500221.229441,-2.5784050962913128,-2.347497687326549,9.429651627281137,0.5432956531083266,-0.17441898167615097,-0.6511997168727048,-1.6718605457909343,4.175412339164073,-57.82670717349256
1590500221.239441,-2.243312589353293,-2.1534967622571695,8.803557732739046,0.559952298190041,-0.15678253394257094,-0.6698159672581504,-0.4593547641073079,3.0180204566478848,-58.04716277016231
1590500221.249441,-2.4752467976088814,-2.206727583262169,8.582988898377454,0.5611111111111111,-0.15555555555555556,-0.6711111111111111,3.8389517506404784,5.714122544833476,-57.179387275832624
1590500221.259441,-2.49,-2.31,9.21,0.5611111111111111,-0.15555555555555556,-0.6711111111111111,0.75,5.4375,-58.5625
1590500221.269441,-2.4108912396694215,-2.29681520661157,8.92652694214876,0.5611111111111111,-0.15555555555555556,-0.6711111111111111,0.5439876033057851,3.0065537190082647,-59.88097933884298
1590500221.2794409,-2.3894531101749594,-2.3798011309727123,8.929850848229535,0.5613044559987518,-0.15562736937096497,-0.6711829249265205,0.9990678014345895,5.928178014345895,-60.88370051994383
1590500221.2894409,-2.301902728756309,-2.3479646286386577,8.905973471478994,0.5922566110457491,-0.16712388410270684,-0.6826794396582624,0.8498341967437094,4.435841967437094,-62.276547497058715
1590500221.2994409,-2.1590228098825266,-2.392439375581661,8.818280918014365,0.6,-0.17,-0.6855555555555556,1.4817226816976592,4.96950780522924,-64.30033011993187
1590500221.3094409,-2.092737712690302,-2.407169397179933,8.324825194472247,0.6,-0.17,-0.6855555555555556,2.1261611266220655,4.785382535250839,-65.35905042230767
1590500221.3194408,-2.1490961317502872,-2.634361547299885,8.9276327077748,0.6,-0.17,-0.6855555555555556,3.4275469168900803,3.295193412485638,-67.09989228265033
1590500221.3294408,-2.0687763309076983,-2.6664894676369206,8.983856568364612,0.6,-0.17,-0.6855555555555556,-0.7892426273458444,7.31118345461509,-68.75648817502872
1590500221.3394408,-2.001513430098629,-2.787195893811643,8.7,0.7466666666666667,-0.29444444444444445,-0.7,1.8201026547089214,4.001392212555633,-73.38520955874131
1590500221.3494408,-2.0390354035739047,-2.8106471272336906,8.7,0.7466666666666667,-0.29444444444444445,-0.7,1.2338218191577393,4.616987089884374,-77.8995719924854
1590500221.3594408,-2.042676016960999,-2.8077992637808116,8.674383765900936,0.7466666666666667,-0.29444444444444445,-0.7,0.8140405852476585,5.317121755742976,-82.64964936396254
1590500221.3694408,-1.9007977479249032,-2.7052584297571984,8.52370785121401,0.7466666666666667,-0.29444444444444445,-0.7,1.2235955579474653,6.2664325929912446,-88.43019705657096
1590500221.3794408,-1.840024632071371,-2.7399859245306453,8.350070377346773,0.7466666666666667,-0.29444444444444445,-0.7,1.8747360849495975,6.374956014158267,-93.74784469375504
1590500221.3894408,-1.6,-2.79,9.22,1.2844444444444445,-0.7122222222222222,-0.8088888888888889,1.25,9.25,-106.125
1590500221.3994408,-1.6667349799410316,-2.890102469911547,9.043628981584417,1.2844444444444445,-0.7122222222222222,-0.8088888888888889,1.25,9.25,-106.125
1590500221.4094408,-1.6348798373918936,-3.0808616635446975,8.704449005619544,1.2844444444444445,-0.7122222222222222,-0.8088888888888889,3.3726186680483043,10.614540572316766,-114.91870591048583
1590500221.4194407,-1.5830086480463168,-3.0280230614568446,8.454069184370534,1.2844444444444445,-0.7122222222222222,-0.8088888888888889,3.4251441341052784,11.04996396647368,-122.84812625663137
1590500221.4294407,-1.6727908689248894,-3.224139911634757,8.96818703976436,1.2844444444444445,-0.7122222222222222,-0.8088888888888889,1.1132225699558176,7.930808173784978,-130.51730946244476
1590500221.4394407,-1.7110934853225452,-3.3488271986289084,9.188787540604636,0.9493257693014564,-0.47038400304687,-0.7777954035663436,3.5610128240897585,10.79684853225453,-135.38643780266645
1590500221.4494407,-1.4924935815147624,-3.343742939666239,8.852498716302952,0.8533333333333334,-0.4011111111111111,-0.7688888888888888,3.0625320924261876,10.296818838254172,-144.62867959724005
1590500221.4594407,-1.6270988446726573,-3.491808729139923,8.879419768934532,0.8533333333333334,-0.4011111111111111,-0.7688888888888888,2.389505776636714,11.474614890885752,-149.38192795250322
1590500221.4694407,-1.5466556094835713,-3.4788829917245714,8.685538601208142,0.8533333333333334,-0.4011111111111111,-0.7688888888888888,3.2917634170187506,11.326338210133036,-156.52821545794197
1590500221.4794407,-1.5108997511641085,-3.6801027371948063,8.70775062208973,0.8533333333333334,-0.4011111111111111,-0.7688888888888888,3.258435167163517,12.44376555224322,-161.54474426568774
1590500221.4894407,-1.4694221026675633,-3.7928052006276616,8.819207800941493,0.6711111111111111,-0.05111111111111112,-0.7333333333333333,3.3448862362698946,12.448741874019278,-167.01444743331092
1590500221.4994407,-1.340074388281756,-3.7678356353302545,8.763283741145496,0.6711111111111111,-0.05111111111111112,-0.7333333333333333,3.971550661345258,12.611937647575067,-170.89178176651274
1590500221.5094407,-1.4189525043358338,-3.8291852811500933,8.710698330442778,0.6711111111111111,-0.05111111111111112,-0.7333333333333333,3.259456558079278,13.488361159287043,-173.95926405750464
1590500221.5194407,-1.2332510643306978,-3.8624780757685744,8.726239037884287,0.6711111111111111,-0.05111111111111112,-0.7333333333333333,3.8589639206607678,14.007469933883973,-176.79108463636186
1590500221.5294406,-1.1812180426640613,-3.8875639146718775,8.782691744015631,0.6711111111111111,-0.05111111111111112,-0.7333333333333333,3.835338299951148,13.52124043315421,-180.6209595342778
1590500221.5394406,-0.9083593590644334,-3.5844042789474875,8.840932620175419,0.6522471777128078,0.07905002933718121,-0.7333333333333333,6.040802132674569,15.506637694626384,-183.07858288194365
1590500221.5494406,-0.9025802685347344,-3.6647324382175523,8.019571901148083,0.6488888888888888,0.10222222222222224,-0.7333333333333333,1.3632576863202956,11.645511043004475,-187.73253551274567
1590500221.5594406,-0.85,-3.84,8.3,0.6488888888888888,0.10222222222222224,-0.7333333333333333,3.9375,13.5625,-188.9375
1590500221.5694406,-0.8586074450673816,-3.951896785875962,8.876698819514575,0.6488888888888888,0.10222222222222224,-0.7333333333333333,3.6147208099731865,13.992872253369084,-189.6906514433959
1590500221.5794406,-0.686276295814357,-3.7597028844068534,8.622552591628715,0.6488888888888888,0.10222222222222224,-0.7333333333333333,5.2197327044025155,13.776770223378877,-190.0410838212969
1590500221.5894406,-0.6985672824691633,-4.018531004074343,8.76140369481498,0.6179409995472952,0.1545955734156884,-0.7492040458162018,3.812726739967628,14.241000167438745,-189.97322724228385
1590500221.5994406,-0.6957215595681485,-4.1455270850030645,8.727390033473199,0.6055555555555555,0.17555555555555555,-0.7555555555555555,4.588024786667296,14.084889620951394,-189.4793370774598
1590500221.6094406,-0.47871760025697413,-3.9176916804625534,9.089056855526179,0.6055555555555555,0.17555555555555555,-0.7555555555555555,5.86110733611722,12.081201662919128,-188.41078333868697
1590500221.6194406,-0.33244508204070655,-3.655705191428315,7.830867031292029,0.6055555555555555,0.17555555555555555,-0.7555555555555555,4.25,14.236416210884963,-185.21571550255535
1590500221.6294405,-0.388855464897337,-3.7873294180937864,8.081579843988164,0.6055555555555555,0.17555555555555555,-0.7555555555555555,4.25,13.923025195014795,-182.98280451448042
1590500221.6394405,-0.37900043649061543,-3.9173993889131387,8.925192492361415,0.5499783694650565,0.2238439303554974,-0.6680898200688685,2.866264731558272,14.46749236141423,-178.82878109995636
1590500221.6494405,-0.35516669281455915,-3.915166692814559,8.88716700658927,0.5377777777777778,0.2344444444444445,-0.6488888888888888,3.396873529181048,12.909898856683402,-175.96250392218388
1590500221.6594405,-1.2977109184362183,-26.47245885468044,0.016815845490888326,0.5377777777777778,0.2344444444444445,-0.6488888888888888,-74.86076787290379,65.2471250194694,-287.25827124759877
1590500221.6694405,2.0050018171434503,-4.747141892944292,-0.45500025959192153,0.5377777777777778,0.2344444444444445,-0.6488888888888888,-192.86016107678728,5.408140153678417,-227.646121047713
1590500221.6794405,-0.06480025992511695,-0.23319027137419956,0.25277686666460386,0.5377777777777778,0.2344444444444445,-0.6488888888888888,-223.6181692298171,-25.90620261781725,1.2044647553919106
1590500221.6894405,-0.3439609172194981,-0.1588491491202769,-0.43672627631958466,0.4811111111111111,0.4088888888888889,-0.6911111111111111,-226.62388231900778,-26.995705040380734,44.98739454139025
1590500221.6994405,0.015273730372046962,-0.34859103126326213,-0.028248691469797693,0.4811111111111111,0.4088888888888889,-0.6911111111111111,-230.9100120243316,-30.082207525816948,53.91548486348847
1590500221.7094405,1.3979726580332044,-1.121255135628649,3.415611590302972,0.4811111111111111,0.4088888888888889,-0.6911111111111111,-224.06349408952212,-26.014319694385048,62.742691489872904
1590500221.7194405,3.0446518987341773,-4.430938818565401,15.739841772151898,0.4811111111111111,0.4088888888888889,-0.6911111111111111,-82.27149261603375,34.6170226793249,57.47376054852321
1590500221.7294405,0.7656854549796992,-1.5843177294801367,7.1498913303080975,0.4811111111111111,0.4088888888888889,-0.6911111111111111,46.807330228485,7.121250796114957,47.56067391131279
1590500221.7394404,3.05239604496817,-1.7272666937559258,9.443648245970474,0.4666666666666667,0.5511111111111111,-0.5966666666666667,110.69326070025735,-37.40122578897467,44.650248036028714
1590500221.7494404,0.7511847096585935,-1.4361628246279545,5.841555296177415,0.4666666666666667,0.5511111111111111,-0.5966666666666667,194.74246790195505,-17.15722570761599,37.45768894076452
1590500221.7594404,1.8030919630575752,-1.7737423855374337,6.456591471801925,0.4666666666666667,0.5511111111111111,-0.5966666666666667,269.7131644232659,-9.048189722931813,28.650612841422678
1590500221.7694404,1.1025309491059148,-2.3918844566712516,7.148910591471801,0.4666666666666667,0.5511111111111111,-0.5966666666666667,325.7065337001376,-3.7939821182943607,21.18139614855571
1590500221.7794404,5.838818339445458,-1.4857548602906199,13.605049485200471,0.4666666666666667,0.5511111111111111,-0.5966666666666667,338.25465793834684,-3.4723956974728023,19.078472403369595
1590500221.7894404,5.86625892149088,0.3981050753370341,9.743067406819984,0.4887248215701824,0.5355701383381796,-0.6177221781654771,229.49747967882632,-13.644176249008723,26.29901615781126
1590500221.7994404,0.6671082872674726,0.7362552469206598,-1.1218602197398904,0.5155555555555555,0.5166666666666667,-0.6433333333333333,49.97502408422598,-14.900483404821433,41.98049034337225
1590500221.8094404,0.04912553969776925,0.06643244782921566,0.15043535620052773,0.5155555555555555,0.5166666666666667,-0.6433333333333333,-24.0056087341089,25.888573961081793,54.551115750179896
1590500221.8194404,1.237544075317822,-4.504891760614056,15.090554089709764,0.5155555555555555,0.5166666666666667,-0.6433333333333333,-86.49190078556009,15.081196405013193,53.843723764691774
1590500221.8294404,1.3592626599888704,-3.105467445742905,11.582206455203117,0.5155555555555555,0.5166666666666667,-0.6433333333333333,-65.54710976627713,-13.92713550361714,47.892233583750695
1590500221.8394403,0.30571746458393,-3.6886157439027074,12.93660270109498,0.5164035828553664,0.42847182748634643,-0.681494561824818,5.055124865055404,3.701367622111082,50.15664588336381
1590500221.8494403,-0.14386145059627736,-1.8505696446009523,4.947677033705206,0.5166666666666667,0.4011111111111111,-0.6933333333333334,50.44472967774391,16.67824882372089,54.158858713343
1590500221.8594403,-0.0012614308768154892,-0.7845754886139502,1.6683709879863726,0.5166666666666667,0.4011111111111111,-0.6933333333333334,1.6304352698583529,-0.6302363501882731,51.012828917876995
1590500221.8694403,-0.4132366376141972,-4.4054625643179675,14.770335766040112,0.5166666666666667,0.4011111111111111,-0.6933333333333334,-26.671144859813083,-14.974179289614618,48.576832077601594
1590500221.8794403,-0.24685687337892007,-3.2759608582881397,10.862713982551284,0.5166666666666667,0.4011111111111111,-0.6933333333333334,-11.773579344494223,-6.778015208677198,52.68044093374204
1590500221.8894403,-0.3173689891149589,-2.848091213888761,8.207320075322647,0.5333333333333333,0.38666666666666666,-0.6788888888888889,19.284686021678226,-2.0914334841317226,57.482504133559914
1590500221.8994403,-0.13436320213107977,-2.019749230698572,5.934195563312359,0.5333333333333333,0.38666666666666666,-0.6788888888888889,-0.03928030129058868,4.590685711661232,60.61286627933679
1590500221.9094403,-0.1008963605345465,-2.2231279025684767,6.491176428774524,0.5333333333333333,0.38666666666666666,-0.6788888888888889,-5.1687088309165015,-13.924835323666006,59.77801126670458
1590500221.9194403,-0.286571887181839,-2.896328168506568,8.675566547646346,0.5333333333333333,0.38666666666666666,-0.6788888888888889,-7.103256952861401,-7.670136272807678,62.831767779342876
1590500221.9294403,0.6513364630069117,-4.410805515616609,9.255541947442271,0.5333333333333333,0.38666666666666666,-0.6788888888888889,-4.63694631628181,-4.74044532887557,65.30918157881061
1590500221.9394403,1.9614536256323776,-9.404401349072511,7.837480607082631,0.5359838860783211,0.38401611392167884,-0.678406970207982,-5.844751264755481,-4.708600337268128,33.00364671163575
1590500221.9494402,0.11953331100037684,-12.706891043088646,7.915830367237553,0.5455555555555556,0.3744444444444445,-0.6766666666666666,-17.564143566014824,4.240783729743311,-142.93072029018884
1590500221.9594402,0.3599277630628462,-2.4567348904406456,9.662329239906894,0.5455555555555556,0.3744444444444445,-0.6766666666666666,31.666556304679347,28.72035777349707,-196.79322176739706
1590500221.9694402,0.5625775280898877,-1.6734711610486892,5.512924344569289,0.5455555555555556,0.3744444444444445,-0.6766666666666666,33.06031718164794,23.218067649812735,-179.44566947565542
1590500221.9794402,-0.7230327920641941,-2.517048714222531,8.553860491565047,0.5455555555555556,0.3744444444444445,-0.6766666666666666,-11.917411701522717,7.162562393378404,-163.85886854741898
1590500221.9894402,-0.6815718730177908,-2.855283776844776,9.275108587307821,0.5674624030500431,0.39426492551088566,-0.6839689491648292,-4.691587126589543,8.834608239949254,-138.55294197601717
1590500221.9994402,-0.19508235294117648,-2.67521568627451,7.591027450980392,0.5688888888888889,0.3955555555555556,-0.6844444444444444,16.031176470588235,15.716372549019608,-121.54399509803922
1590500222.0094402,-0.2802018645504276,-2.7301009322752137,7.626839509977656,0.5688888888888889,0.3955555555555556,-0.6844444444444444,6.690307419677941,12.217717081439247,-110.14277390399877
1590500222.0194402,-7.6883935192051,-12.791021800385586,8.082013569627762,0.5688888888888889,0.3955555555555556,-0.6844444444444444,-5.964073854367492,1.4073228718671213,-94.22740017425478
1590500222.0294402,-5.024172540491902,-14.026383473305339,6.40629649070186,0.5688888888888889,0.3955555555555556,-0.6844444444444444,-10.30521473830234,2.122616882873425,-31.116292366526693
1590500222.0394402,0.9248075345387723,-1.0771420601844248,11.456800118137366,0.5147245466843143,0.42411493599069483,-0.677550800891135,0.1671048961375643,-16.236395743773176,118.2758630591015
1590500222.0494401,7.083868479184366,-8.806191333899744,7.6326740866610026,0.5077777777777778,0.42777777777777776,-0.6766666666666666,11.617828164825827,-5.733121282922683,105.97344413763807
1590500222.0594401,0.7229534815681689,-2.9145757753071955,9.117223522527794,0.5077777777777778,0.42777777777777776,-0.6766666666666666,-0.9741259508484497,-1.537576799297835,8.939995977179635
1590500222.0694401,-1.2698888775092176,-1.3189328144203196,8.956028779188857,0.5077777777777778,0.42777777777777776,-0.6766666666666666,0.3084449252355599,3.847033746415403,-13.424477032978288
1590500222.07944,-0.6924587054453488,-2.474716667983877,8.2665952738481,0.5077777777777778,0.42777777777777776,-0.6766666666666666,1.7150823915277007,3.6054493005611317,-9.92520054532522
1590500222.08944,-0.029178023062218672,-4.249959918603934,8.445663192945675,0.5077777777777778,0.43744417723513734,-0.6766666666666666,-3.8228248134673493,-2.5134773694271444,-9.87906980329284
1590500222.09944,-0.05905182167911288,-4.984441427170552,8.939183827411933,0.5077777777777778,0.4477777777777778,-0.6766666666666666,-3.9416251791506376,-1.2761088481556913,-23.766661009278117
1590500222.10944,-2.3783504162812212,-6.06800703052729,8.236194264569843,0.5077777777777778,0.4477777777777778,-0.6766666666666666,3.6028445883441256,5.436426919518964,-31.217072155411657
1590500222.11944,-0.9815480911282166,-5.571523831739367,8.452144778788586,0.5077777777777778,0.4477777777777778,-0.6766666666666666,0.6614853044086768,0.5903137392115694,-6.95425705621647
1590500222.12944,0.23368328664799254,-4.225383753501401,8.673532773109244,0.5077777777777778,0.4477777777777778,-0.6766666666666666,-0.5047735760971057,-1.5749626517273576,8.74033613445378
1590500222.13944,-0.13104121019299453,-4.356392232193775,8.783220277936188,0.5033252627120622,0.44332526271206224,-0.6829001877586683,1.422366959810307,0.3217313983852088,-1.8229413662694727
1590500222.14944,-0.00868927859901124,-4.4534463929950565,8.758835870821754,0.5022222222222222,0.44222222222222224,-0.6844444444444444,-0.3495077723393265,-0.342231964975281,-0.3716764640775265
1590500222.15944,-0.01,-4.394236146387791,8.72686838792323,0.5022222222222222,0.44222222222222224,-0.6844444444444444,-0.38634682068158227,-0.277137122600879,0.0625
1590500222.16944,-0.005640025729677575,-4.341559459676771,8.632800514593551,0.5022222222222222,0.44222222222222224,-0.6844444444444444,-0.27249839189515157,-0.0625,0.00800032162096969
1590500222.17944,-0.01280194455272994,-4.389589304959985,8.692826251461854,0.5022222222222222,0.44222222222222224,-0.6844444444444444,-0.22493923272718935,-0.0625,-0.02249392327271893
1590500222.18944,-0.02,-4.4015157292659675,8.686968541468065,0.5022222222222222,0.44222222222222224,-0.6738142145959115,-0.13798856053384176,-0.0625,0.0
1590500222.19944,-0.02,-4.36513974395736,8.70486025604264,0.5022222222222222,0.44222222222222224,-0.67,0.018225960159900162,-0.028212339973349973,0.0
1590500222.20944,-0.02,-4.393801652892562,8.59671964399237,0.5022222222222222,0.44222222222222224,-0.67,0.1165368722186904,0.0,0.0
1590500222.21944,-0.027570200573065903,-4.351587392550144,8.646544412607449,0.5022222222222222,0.44222222222222224,-0.67,0.1098137535816619,-0.04731375358166189,0.0
1590500222.22944,-0.01865675323302442,-4.37104461045139,8.64895538954861,0.5022222222222222,0.44222222222222224,-0.67,-0.12313352302759084,-0.09794764614679868,0.0
1590500222.23944,-0.01749126967018754,-4.368798016813969,8.677421427031687,0.4997251323321597,0.44222222222222224,-0.6670867284615938,-0.07839782280663937,-0.10158978228066394,0.0
1590500222.24944,-0.024913647271725875,-4.340690821826193,8.703532003619339,0.4955555555555556,0.44222222222222224,-0.6622222222222223,0.21713088634486014,-0.030710295448286712,-0.03178970455171329
1590500222.25944,-0.01262476524352072,-4.357874295730562,8.642125704269437,0.4955555555555556,0.44222222222222224,-0.6622222222222223,0.125,-0.04609521722799549,-0.0625
1590500222.26944,-0.019547089080067366,-4.369094178160134,8.640452910919933,0.4955555555555556,0.44222222222222224,-0.6622222222222223,0.0056613864991579,-0.00283069324957895,-0.00283069324957895
1590500222.27944,-0.027507729131345367,-4.3800309165253815,8.657414979555202,0.4955555555555556,0.44222222222222224,-0.6622222222222223,-0.125,0.0625,0.04692330707090855
1590500222.28944,-0.02,-4.36797270532896,8.674100080460482,0.491561621038009,0.4495444355043909,-0.6755353372807108,-0.16244313610199912,-0.012386272203998266,-0.03744313610199913
1590500222.29944,-0.02574543148214215,-4.368509137035716,8.68170888333928,0.4888888888888889,0.4544444444444444,-0.6844444444444444,0.06386262734371906,0.009317893526776866,-0.0625
1590500222.30944,-0.02513321449792038,-4.374600356506239,8.627531075460487,0.4888888888888889,0.4544444444444444,-0.6844444444444444,0.06749554367201427,0.001665181224004747,-0.12333481877599525
1590500222.31944,-0.00706529340708246,-4.357663233517706,8.627010299446882,0.4888888888888889,0.4544444444444444,-0.6844444444444444,-0.003737125691398044,-0.0625,-0.10665808379426538
1590500222.3294399,-0.02352824457774318,-4.368233893493292,8.661177404337806,0.4888888888888889,0.4544444444444444,-0.6844444444444444,-0.02573091716653693,-0.09191030572217898,-0.003679388555642045
1590500222.3394399,-0.03518215977781408,-4.394072863911126,8.666672112399935,0.4888888888888889,0.4472001670024868,-0.6778587376790285,-0.06943309916680282,-0.1064776997222676,0.0439776997222676
1590500222.3494399,-0.0042907241193729274,-4.38,8.695674207045016,0.4888888888888889,0.43,-0.6622222222222223,0.11613405149216159,0.07158512873040399,-0.026817025746080796
1590500222.3594398,-0.013319649598651175,-4.3634017520067445,8.653319649598652,0.4888888888888889,0.43,-0.6622222222222223,0.22899561998313966,0.14626095004215078,-0.0625
1590500222.3694398,-0.026085807395242615,-4.366514844371456,8.629570963023786,0.4888888888888889,0.43,-0.6622222222222223,0.08428222267840191,-0.0625,-0.0625
1590500222.3794398,-0.03538334308247776,-4.379233313835044,8.663833430824777,0.4888888888888889,0.43,-0.6622222222222223,0.03843768279645804,-0.02885410573451399,-0.0625
1590500222.3894398,-0.0345338496844521,-4.386398450946644,8.677203098106713,0.4925329890992542,0.43303675017530435,-0.6780133231338051,-0.04581719736087203,0.0,-0.09666343947217441
1590500222.3994398,-0.03,-4.375060945065955,8.69364334613458,0.4955555555555556,0.4355555555555555,-0.6911111111111111,0.046303640006678914,0.03896727333444648,-0.04706545333110704
1590500222.4094398,-0.023775461640967065,-4.353775461640967,8.65775461640967,0.4955555555555556,0.4355555555555555,-0.6911111111111111,0.10969327051208833,0.023596635256044163,0.03890336474395584
1590500222.4194398,-0.026494408886011008,-4.356494408886011,8.652472044430056,0.4955555555555556,0.4355555555555555,-0.6911111111111111,0.10309005553756881,-0.0405900555375688,0.021909944462431198
1590500222.4294398,-0.01951816745655608,-4.3652409162717225,8.654277251184835,0.4955555555555556,0.4355555555555555,-0.6911111111111111,-0.03877863349131122,-0.09525572669826224,-0.06551145339652448
1590500222.4394398,-0.01,-4.37,8.672254604200322,0.5063070902889966,0.44212593789265836,-0.6875272661999641,-0.12030290791599355,0.009394184168012909,-0.125
1590500222.4494398,-0.015285296199238699,-4.37,8.668288222804568,0.5155555555555555,0.4477777777777778,-0.6844444444444444,-0.09553310124524188,0.02590069626427438,-0.058933797509516245
1590500222.4594398,-0.025205574283650372,-4.37,8.613972128581748,0.5155555555555555,0.4477777777777778,-0.6844444444444444,0.005139357091259317,-0.02996516072718517,-0.03253483927281483
1590500222.4694397,-0.03,-4.375045481875134,8.59,0.5155555555555555,0.4477777777777778,-0.6844444444444444,0.0934657382804166,0.0,-0.030965738280416606
1590500222.4794397,-0.02432928727046374,-4.374329287270464,8.61835356364768,0.5155555555555555,0.4477777777777778,-0.6844444444444444,0.0625,-0.03544195455960162,-0.03544195455960162
1590500222.4894397,-0.010201278335781492,-4.360603835007344,8.689798721664218,0.5147504422124296,0.4477777777777778,-0.6842878946277254,0.06501597919726865,-0.11871005200682838,-0.12248402080273135
1590500222.4994397,-0.02349880407021527,-4.379503587789354,8.690496412210646,0.4755555555555556,0.4477777777777778,-0.6766666666666666,0.16563247456115457,0.1875,0.02186752543884542
1590500222.5094397,-0.02308605653041925,-4.366913943469581,8.665059367447725,0.4755555555555556,0.4477777777777778,-0.6766666666666666,0.10339392665756016,0.12268177997268047,0.040893926657560156
1590500222.5194397,-0.020614163168461395,-4.369385836831539,8.633070815842308,0.4755555555555556,0.4477777777777778,-0.6766666666666666,0.12883851980288374,0.033169259901441865,-0.033169259901441865
1590500222.5294397,-0.021072450450074144,-4.364463774774963,8.675536225225036,0.4755555555555556,0.4477777777777778,-0.6766666666666666,0.1596014076564817,0.006702815312963385,-0.03460140765648169
1590500222.5394397,-0.01,-4.37,8.680234732444799,0.4846530955064872,0.4436080719669341,-0.6766666666666666,0.06103292222001194,-0.01985528148000796,-0.02132235925999602
1590500222.5494397,-0.014031293601754036,-4.378062587203508,8.691937412796491,0.5022222222222222,0.4355555555555555,-0.6766666666666666,-0.11289117002192545,0.11289117002192545,-0.11289117002192545
1590500222.5594397,-0.015843777627541734,-4.385843777627541,8.638437776275417,0.5022222222222222,0.4355555555555555,-0.6766666666666666,-0.10957083051640751,0.16152361017213585,-0.13554722034427166
1590500222.5694396,-0.01,-4.38,8.602689294011103,0.5022222222222222,0.4355555555555555,-0.6766666666666666,-0.02025829822419971,0.10474170177580029,-0.0625
1590500222.5794396,-0.019345604043299512,-4.375327197978351,8.6686912080866,0.5022222222222222,0.4355555555555555,-0.6766666666666666,0.025115037905932946,0.0625,-0.03329498736468902
1590500222.5894396,-0.021783657307415407,-4.357675485961123,8.694108171346292,0.4967446604271658,0.4465106791456683,-0.6853394728421727,0.047971787257019435,0.1138521418286537,0.025676070914326853
1590500222.5994396,-0.014391108310854713,-4.353173324932564,8.69121778337829,0.4888888888888889,0.4622222222222222,-0.6977777777777778,0.019833280828525854,0.10516671917147415,-0.019833280828525854
1590500222.6094396,-0.02,-4.37,8.627618244339194,0.4888888888888889,0.4622222222222222,-0.6977777777777778,0.125,0.0,-0.125
1590500222.6194396,-0.02575480093676815,-4.37,8.611793208430914,0.4888888888888889,0.4622222222222222,-0.6977777777777778,0.16096750585480094,-0.035967505854800935,-0.05306498829039813
1590500222.6294396,-0.02192828455711647,-4.357892426835675,8.670179288607208,0.4888888888888889,0.4622222222222222,-0.6977777777777778,0.13705177848197792,-0.037275889240988964,-0.025224110759011036
1590500222.6394396,-0.015328279837340596,-4.347992419756011,8.70532827983734,0.49244107544711596,0.45363777137317346,-0.6921534823939183,0.0625,0.016650874491689366,-0.045849125508310634
1590500222.6494396,-0.022365858440624796,-4.373817070779688,8.700914646101563,0.5022222222222222,0.43,-0.6766666666666666,0.01478661525390497,0.0625,-0.023856692373047515
1590500222.6594396,-0.01,-4.378396167383652,8.655565506452874,0.5022222222222222,0.43,-0.6766666666666666,-0.07252395385217052,0.012380230739147444,-0.0625
1590500222.6694396,-0.015053561731747052,-4.3649464382682535,8.610321370390484,0.5022222222222222,0.43,-0.6766666666666666,-0.06183047835316187,-0.1552457175297428,-0.030915239176580935
1590500222.6794395,-0.02,-4.372984941901826,8.657313255869102,0.5022222222222222,0.43,-0.6766666666666666,0.0,-0.008396075409058575,-0.027051962295470713
1590500222.6894395,-0.023068403003058673,-4.393068403003059,8.683068403003059,0.5001766202201832,0.4354549386721043,-0.6790532023357123,0.03835503753823338,0.0625,-0.04332248123088331
1590500222.6994395,-0.022860068259385666,-4.3928600682593855,8.675720136518771,0.4955555555555556,0.4477777777777778,-0.6844444444444444,0.1026877133105802,0.1071245733788396,0.0
1590500222.7094395,-0.01,-4.383530794546309,8.635876821814763,0.4955555555555556,0.4477777777777778,-0.6844444444444444,0.040432534085566525,0.16543253408556652,-0.022067465914433475
1590500222.7194395,-0.01172611327280588,-4.388273886727194,8.611726113272805,0.4955555555555556,0.4477777777777778,-0.6844444444444444,0.0,0.11421179204496325,-0.040923584089926496
1590500222.7294395,-0.023054022304114834,-4.376945977695885,8.629162066912343,0.4955555555555556,0.4477777777777778,-0.6844444444444444,0.038175278801435446,0.08158763940071773,0.043412360599282274
1590500222.7394395,-0.02980367229365475,-4.370196327706346,8.649411016880965,0.4955555555555556,0.4477777777777778,-0.6844444444444444,0.12254590367068441,0.1237729518353422,0.0012270481646577958
1590500222.7494395,-0.03538041341637526,-4.365380413416375,8.706929379875437,0.5077777777777778,0.4477777777777778,-0.6766666666666666,0.19225516770469075,0.20669137577851807,-0.09137241614765462
1590500222.7594395,-0.016855995787810978,-4.351572002106094,8.709563972620773,0.5077777777777778,0.4477777777777778,-0.6766666666666666,-0.019650026326181385,0.052674986836909306,-0.1776749868369093
1590500222.7694395,-0.003958313136209404,-4.36395831313621,8.627708191953465,0.5077777777777778,0.4477777777777778,-0.6766666666666666,-0.10026054289869123,0.024739457101308773,-0.05078162869607368
1590500222.7794394,-0.015868961592190815,-4.372934480796095,8.672934480796096,0.5077777777777778,0.4477777777777778,-0.6766666666666666,-0.0625,0.04415949502440371,0.04415949502440371
1590500222.7894394,-0.030383828045035824,-4.379616171954964,8.680383828045036,0.5070527692482657,0.4473086546116229,-0.6769651995905834,-0.0625,-0.004797850562947799,-0.0023989252814738994
1590500222.7994394,-0.03181724750070074,-4.37,8.702274128748948,0.4888888888888889,0.4355555555555555,-0.6844444444444444,0.03978440624124077,-0.07385779687937961,-0.0625
1590500222.8094394,-0.02,-4.380476620025593,8.671109106547233,0.4888888888888889,0.4355555555555555,-0.6844444444444444,0.07836854140007132,0.08730516687994294,-0.0625
1590500222.8194394,-0.02345590329419955,-4.393088193411601,8.593823613176799,0.4888888888888889,0.4355555555555555,-0.6844444444444444,-0.125,0.14200302205626403,-0.08409939558874718
1590500222.8294394,-0.03,-4.383939708361898,8.635758833447591,0.4888888888888889,0.4355555555555555,-0.6844444444444444,-0.0757536454762743,-0.0625,-0.051130468214411445
1590500222.8394394,-0.028167258727103135,-4.38450177618131,8.669163706364484,0.4923507335154718,0.43779557266687386,-0.6830189790099691,0.02290926591121078,-0.02813610113318383,0.0625
1590500222.8494394,-0.01971533715770105,-4.36,8.709430674315403,0.5077777777777778,0.4477777777777778,-0.6766666666666666,0.12144171447126312,0.11966257170689469,0.06072085723563156
1590500222.8594394,-0.01,-4.365166718282234,8.658999690306596,0.5077777777777778,0.4477777777777778,-0.6766666666666666,0.0,-0.078645994631981,0.0
1590500222.8694394,-0.01,-4.3795994631981,8.572403220811397,0.5077777777777778,0.4477777777777778,-0.6766666666666666,0.0,-0.1237483224940642,0.0
1590500222.8794394,-0.03750741982577447,-4.362492580174226,8.639970320696902,0.5077777777777778,0.4477777777777778,-0.6766666666666666,-0.046921373911090435,0.125,0.0625
1590500222.8894393,-0.030778560313156754,-4.369221439686843,8.666885758747373,0.5077777777777778,0.4477777777777778,-0.6766666666666666,-0.004866001957229714,0.125,0.0625
1590500222.8994393,-0.02,-4.38347010500442,8.704353263330386,0.5022222222222222,0.4477777777777778,-0.6911111111111111,0.027207895814916234,0.013603947907458117,-0.20918815627762566
1590500222.9094393,-0.018255441149269375,-4.365233676552192,8.699065293791232,0.5022222222222222,0.4477777777777778,-0.6911111111111111,0.0813860287317344,0.0625,-0.0515965071829336
1590500222.9194393,-0.013661121707428957,-4.39,8.614644486829716,0.5022222222222222,0.4477777777777778,-0.6911111111111111,-0.125,0.01673597865713803,-0.04576402134286197
1590500222.9294393,-0.02,-4.39,8.646252814922578,0.5022222222222222,0.4477777777777778,-0.6911111111111111,-0.10545995336694633,-0.12112013989916101,-0.08591990673389266
1590500222.9394393,-0.021870012547051444,-4.39,8.667480050188205,0.5022222222222222,0.4477777777777778,-0.6884099818764813,-0.0625,-0.1915621079046424,-0.011687578419071518
1590500222.9494393,-0.03,-4.387337517433751,8.692012552301255,0.5022222222222222,0.4477777777777778,-0.6766666666666666,-0.012578451882845183,0.0625,-0.012578451882845183
1590500222.9594393,-0.03,-4.376877458517202,8.648142209620415,0.5022222222222222,0.4477777777777778,-0.6766666666666666,0.125,0.0625,0.04693646293005331
1590500222.9694393,-0.027618518400914487,-4.37,8.609525926396342,0.5022222222222222,0.4477777777777778,-0.6766666666666666,0.125,0.017847220017146663,-0.06546296002286223
1590500222.9794393,-0.02,-4.37,8.649968899255803,0.5022222222222222,0.4477777777777778,-0.6766666666666666,0.10423145988374245,-0.10423145988374245,0.10423145988374245
1590500222.9894392,-0.018843390097450535,-4.3676867801949015,8.67346982970765,0.5006800756854897,0.44854885104614406,-0.6758955933983003,0.06972881189093415,-0.0769576237818683,0.04081356432719756
1590500222.9994392,-0.010586081307215278,-4.35117216261443,8.698241756078353,0.48967033063184257,0.4540537235729675,-0.6703907208714769,0.12133699182990453,-0.18017398365980905,-0.11401097548971356
1590500223.0094392,-0.022396006655574043,-4.37,8.683643926788687,0.4888888888888889,0.4544444444444444,-0.67,0.125,0.17512479201331116,0.03254991680532446
1590500223.0194392,-0.029820334902821537,-4.37,8.601976316068964,0.4888888888888889,0.4544444444444444,-0.67,0.125,-0.0568854657131731,-0.060254186285269226
1590500223.0294392,-0.00851638903815153,-4.38716120365395,8.6756775926921,0.4888888888888889,0.4544444444444444,-0.67,-0.10725752283718432,-0.008469908651262764,0.10725752283718432
1590500223.0394392,-0.030673601812751056,-4.380673601812751,8.688652796374498,0.49016124786852977,0.4531720854648035,-0.6714220482713634,-0.0625,-0.17907997734061182,0.0625
1590500223.0494392,-0.028959695192559115,-4.387239923798139,8.681040304807441,0.5077777777777778,0.4355555555555555,-0.6911111111111111,-0.0625,0.006501905046505538,0.010748571215120843
1590500223.0594392,-0.0022074855912783834,-4.378896257204361,8.69565134365669,0.5077777777777778,0.4355555555555555,-0.6911111111111111,-0.05560160752725505,0.1599064301090202,-0.1112032150545101
