time,acc_x,acc_y,acc_z,mag_x,mag_y,mag_z,gyr_x,gyr_y,gyr_z
1590505322.2345061,0.05,-4.58,8.65,0.46,0.3055555555555556,-0.6311111111111111,0.125,-0.25,0.1875
1590505322.2445061,0.02,-4.620560651741613,8.648644236320482,0.46,0.3055555555555556,-0.6311111111111111,-0.04001018346269805,0.10601425684777727,-0.036506110077618836
1590505322.254506,0.02,-4.6060405483888,8.695624329033281,0.46,0.3055555555555556,-0.6311111111111111,-0.06770274194399958,0.19270274194399958,-0.005202741943999584
1590505322.264506,0.02321422064909039,-4.58321422064909,8.670357338052728,0.46214281376606026,0.3055555555555556,-0.6425394511967658,0.16294439528407462,-0.058033274340889576,0.08482224188637014
1590505322.274506,0.024697982092743553,-4.579395964185487,8.660604035814513,0.4666666666666667,0.3055555555555556,-0.6666666666666666,0.3418623880796472,-0.3125,0.0
1590505322.284506,0.02450507368148914,-4.583515221044467,8.633959410548087,0.4666666666666667,0.3055555555555556,-0.6666666666666666,0.3125,-0.3125,0.0
1590505322.294506,0.03,-4.597095806191905,8.60161677523238,0.4666666666666667,0.3055555555555556,-0.6666666666666666,0.23989515479762863,-0.34880242260118566,-0.018151211300592843
1590505322.304506,0.03429229393068534,-4.585707706069314,8.634292293930686,0.4666666666666667,0.3055555555555556,-0.6666666666666666,0.0625,-0.33019265173286644,0.0179805112003502
1590505322.314506,0.04446724221698995,-4.58446724221699,8.66233621108495,0.46120670395701224,0.30853371703354887,-0.6567394617400223,-0.10502158313712301,-0.1037392084314385,0.06915947228762567
1590505322.324506,0.05,-4.59,8.696014582686937,0.4544444444444444,0.31222222222222223,-0.6444444444444445,-0.38768228358672047,0.3007291343468818,0.07518228358672045
1590505322.334506,0.019585417248470387,-4.608248749650918,8.66958541724847,0.4544444444444444,0.31222222222222223,-0.6444444444444445,-0.551554685318236,0.5,0.010945314681763949
1590505322.344506,0.011769353693181819,-4.614115323153409,8.64411532315341,0.4544444444444444,0.31222222222222223,-0.6444444444444445,-0.44110384854403406,0.4632207697088068,0.011058460582386367
1590505322.354506,0.02,-4.605570341485576,8.653288975543273,0.4544444444444444,0.31222222222222223,-0.6444444444444445,-0.14638780570909365,0.3267585371393958,0.0625
1590505322.364506,0.02,-4.604089394236424,8.67,0.45944259295562956,0.30949595939793945,-0.6358112788342155,0.11361742795530289,0.13638257204469711,0.08805871397765144
1590505322.374506,0.02,-4.5938867372213466,8.653886737221347,0.4666666666666667,0.3055555555555556,-0.6233333333333333,0.3217771898221121,-0.1389157847331682,0.09143070254447197
1590505322.384506,0.024179320318148952,-4.58,8.598206796818511,0.4666666666666667,0.3055555555555556,-0.6233333333333333,0.4375,-0.4169830079537238,0.0625
1590505322.394506,0.026262756670355342,-4.583737243329645,8.566160703307512,0.4666666666666667,0.3055555555555556,-0.6233333333333333,0.27399560432804626,-0.44571114594860445,0.015784458379441785
1590505322.404506,0.028483048847636278,-4.59,8.643932195390544,0.4666666666666667,0.3055555555555556,-0.6233333333333333,-0.1590571658931802,-0.22349047235113664,-0.009480944702273265
1590505322.414506,0.03540271624664101,-4.596895925630038,8.701493209383397,0.47126395042002567,0.3055555555555556,-0.6233333333333333,-0.375,-0.1587669765415063,0.019400464812259426
1590505322.424506,0.02017176265524003,-4.61974235601714,8.7395705933619,0.48649490401142664,0.3055555555555556,-0.6233333333333333,-0.375,-0.06357351659525019,-0.1233897251071247
1590505322.434506,0.02,-4.615935228486855,8.694992731157935,0.4866666666666667,0.3055555555555556,-0.6233333333333333,-0.25193324925997934,0.08008096439143153,0.03516192878286305
1590505322.444506,0.019627293577981653,-4.580745412844037,8.582608944954128,0.4866666666666667,0.3055555555555556,-0.6233333333333333,0.0741470756880734,0.11801175458715596,0.12034116972477064
1590505322.454506,0.0130775008763291,-4.603077500876329,8.653077500876329,0.4866666666666667,0.3055555555555556,-0.6233333333333333,0.3172968585688294,-0.024031239045886263,0.03846876095411374
1590505322.464506,0.020329704945574185,-4.609505442581639,8.660494557418362,0.4865750819595627,0.3054273369656101,-0.6234615519232788,0.18956065590983864,0.06043934409016135,0.12396967204508068
1590505322.474506,0.03451588622137707,-4.585484113778623,8.67354765866413,0.4811111111111111,0.2977777777777777,-0.6311111111111111,0.2782242888836067,-0.11391356667458996,0.045362144441803344
1590505322.484506,0.023778506271379705,-4.59622149372862,8.614885974914483,0.4811111111111111,0.2977777777777777,-0.6311111111111111,0.17569216790193842,-0.2618078320980616,0.0
1590505322.494506,0.036578365264547434,-4.583421634735452,8.577373077883621,0.4811111111111111,0.2977777777777777,-0.6311111111111111,0.125,-0.29111478290342147,0.021385217096578545
1590505322.5045059,0.0312909966616549,-4.59516398664662,8.64290996661655,0.4811111111111111,0.2977777777777777,-0.6311111111111111,0.06045016691725491,-0.20158762518794118,0.04636254172931373
1590505322.5145059,0.03824993804492306,-4.628249938044923,8.731750061955077,0.4799444031410598,0.30166680434461535,-0.6311111111111111,-0.36406211278076916,0.11406211278076914,-0.04062422556153829
1590505322.5245059,0.027909533532275797,-4.617909533532276,8.731638134129103,0.4744444444444445,0.32,-0.6311111111111111,-0.2602383383068949,0.07556541542327627,0.04943458457672373
1590505322.5345058,0.00996085474808879,-4.61,8.6548238463664,0.4744444444444445,0.32,-0.6311111111111111,0.0002446578244450631,0.18774465782444505,0.03137232891222253
1590505322.5445058,0.009419019798766633,-4.605290490100617,8.62412852969815,0.4744444444444445,0.32,-0.6311111111111111,0.09193443687114573,0.19113112625770853,0.0036311262577085335
1590505322.5545058,0.02,-4.596269410846664,8.647461178306672,0.4744444444444445,0.32,-0.6311111111111111,0.10168381779165041,0.07836763558330082,-0.015867635583300815
1590505322.5645058,0.02285639382464317,-4.592856393824643,8.665712787649287,0.4744444444444445,0.32,-0.6336501278441272,0.026795077191960386,0.0,0.044647538595980196
1590505322.5745058,0.041685114375796604,-4.6,8.687790076250531,0.4744444444444445,0.32,-0.64,-0.0868439882829096,0.0,-0.024343988282909595
1590505322.5845058,0.04155022934623721,-4.607379908261505,8.663100458692474,0.4744444444444445,0.32,-0.64,-0.10193778668279652,-0.06918663995161047,-0.0625
1590505322.5945058,0.00663106293093141,-4.623368937069069,8.626951496552548,0.4744444444444445,0.32,-0.64,-0.020388286636642626,-0.2085558566816787,-0.041444143318321316
1590505322.6045058,0.0,-4.623307129177735,8.677322851671095,0.4744444444444445,0.32,-0.64,0.0959643541113239,-0.258366088527831,0.01673217705566195
1590505322.6145058,0.0,-4.590917711743992,8.664367084697597,0.4744444444444445,0.32,-0.64,0.2579114412800395,-0.2988528603200099,0.09770572064001977
1590505322.6245058,0.021860884887293982,-4.609069557556353,8.706278230225413,0.4933333333333334,0.31222222222222223,-0.6233333333333333,0.3633694694544126,-0.22673893890882524,-0.17586946945441262
1590505322.6345057,0.039886541891398244,-4.600056729054301,8.670226916217203,0.4933333333333334,0.31222222222222223,-0.6233333333333333,0.250709113178761,-0.001418226357521979,-0.06320911317876099
1590505322.6445057,0.057434705293965105,-4.604869410587931,8.547695884118104,0.4933333333333334,0.31222222222222223,-0.6233333333333333,0.3877683566109732,0.07853309191271811,-0.030433816174563776
1590505322.6545057,0.048470657972732666,-4.589490219324244,8.575097806757558,0.4933333333333334,0.31222222222222223,-0.6233333333333333,0.05612774155305276,0.13455838767042086,0.049755483106105516
1590505322.6645057,0.02,-4.587360205187167,8.682880359077542,0.48842652987522206,0.3109955213576944,-0.6247644843419491,-0.0625,0.28949935879010325,-0.14149871758020652
1590505322.6745057,0.02180302054255243,-4.618196979457448,8.738196979457447,0.4666666666666667,0.3055555555555556,-0.6311111111111111,-0.017424486436189254,0.14242448643618927,0.05123112160904732
1590505322.6845057,0.017737343810382583,-4.605912447936794,8.676861823178324,0.4666666666666667,0.3055555555555556,-0.6311111111111111,0.1875,-0.13914160118510885,0.02554720039503628
1590505322.6945057,0.007431637601898669,-4.603715818800949,8.618579094004746,0.4666666666666667,0.3055555555555556,-0.6311111111111111,0.21072386750593333,-0.15710452997626664,0.03927613249406666
1590505322.7045057,0.023000102375102374,-4.61,8.653000102375103,0.4666666666666667,0.3055555555555556,-0.6311111111111111,0.2124987203112203,-0.018750639844389846,0.018750639844389846
1590505322.7145057,0.03034756928668787,-4.609304861426625,8.659652430713312,0.4669369983340906,0.3055555555555556,-0.631420061588167,0.1271723080417992,-0.06901692412539755,0.06467230804179919
1590505322.7245057,0.04,-4.59,8.639823262528356,0.4744444444444445,0.3055555555555556,-0.64,0.1662984636007424,-0.18639539080222728,0.10379846360074242
1590505322.7345057,0.037387197213573274,-4.592612802786427,8.601710380495012,0.4744444444444445,0.3055555555555556,-0.64,0.09233996516966594,0.03548010449100217,0.013509947754498916
1590505322.7445056,0.036260436304874764,-4.603130218152438,8.578171963371938,0.4744444444444445,0.3055555555555556,-0.64,0.0,0.3125,-0.06630840964179908
1590505322.7545056,0.0450094667782132,-4.611663511073929,8.651644577517503,0.4744444444444445,0.3055555555555556,-0.64,0.020793888424111666,0.2813091673638325,0.052103055787944164
1590505322.7645056,0.02654132358768879,-4.617819558804104,8.694736911628727,0.4744444444444445,0.3055555555555556,-0.64,0.09774448505129674,0.16588327242305492,0.013627757474351632
1590505322.7745056,0.03880361245851417,-4.582392775082972,8.723589162624458,0.4811111111111111,0.32,-0.6233333333333333,0.22756773359714066,0.0625,0.05502257786571356
1590505322.7845056,0.02350157300319127,-4.5967507865015955,8.711009438019149,0.4811111111111111,0.32,-0.6233333333333333,0.08280758436502728,0.042192415634972724,-0.040615168730054545
1590505322.7945056,0.01912435281935423,-4.592281088204838,8.634562176409677,0.4811111111111111,0.32,-0.6233333333333333,0.06797279487903604,0.0,-0.09648639743951802
1590505322.8045056,0.0502463529841593,-4.599753647015841,8.65,0.4811111111111111,0.32,-0.6233333333333333,-0.125,0.003079412301991179,0.0015397061509955896
1590505322.8145056,0.05781800812037258,-4.590727330626542,8.654363983759255,0.4806262240267495,0.3194342984015781,-0.6248688091004785,-0.12045418358410954,0.10681673433643818,0.057954183584109545
1590505322.8245056,0.03778313828516838,-4.59740562057161,8.694433723429665,0.47617403073003745,0.3142400728887474,-0.6389674212067333,-0.07871487142743412,-0.060140514290263514,0.01621487142743412
1590505322.8345056,0.02006006820647962,-4.580120136412959,8.680180204619438,0.4744444444444445,0.31222222222222223,-0.6444444444444445,0.1859982948380096,-0.06287542629049761,-0.0621245737095024
1590505322.8445055,0.030460097154753642,-4.590460097154754,8.563220680083276,0.4744444444444445,0.31222222222222223,-0.6444444444444445,0.12787560721721028,0.0028756072172102707,0.0
1590505322.8545055,0.03762703235342421,-4.602372967646575,8.639491870586303,0.4744444444444445,0.31222222222222223,-0.6444444444444445,0.1875,0.0625,0.0
1590505322.8645055,0.03073870914764329,-4.609261290852357,8.667045163409426,0.4744444444444445,0.31222222222222223,-0.6444444444444445,0.1875,0.0625,0.0
1590505322.8745055,0.028612706453108837,-4.595693646773445,8.695693646773446,0.4811111111111111,0.2977777777777777,-0.6311111111111111,0.08941470766596511,0.03558529233403489,0.013457353832982556
1590505322.8845055,0.058536724574608484,-4.580731637712696,8.680731637712695,0.4811111111111111,0.2977777777777777,-0.6311111111111111,0.18292726429565154,-0.05792726429565155,0.060213632147825775
1590505322.8945055,0.017057043242457992,-4.598828870272626,8.601771827030168,0.4811111111111111,0.2977777777777777,-0.6311111111111111,-0.1617869594692751,0.01839347973463755,0.0625
1590505322.9045055,0.011697960483539232,-4.614906118549382,8.641885723384775,0.4811111111111111,0.2977777777777777,-0.6311111111111111,-0.2075509879115192,0.04127549395575961,0.0837245060442404
1590505322.9145055,0.01726357134326774,-4.598209285970197,8.680844999402874,0.4811111111111111,0.2977777777777777,-0.6311111111111111,-0.06841071641830657,-0.028294641790846717,0.15329464179084673
1590505322.9245055,0.011152744927175402,-4.598847255072824,8.68230548985435,0.4683317426725867,0.3105571462163022,-0.6242299127211364,0.05529534420515374,-0.22838603261546123,0.07690931158969253
1590505322.9345055,0.012679164378905535,-4.607320835621095,8.662491698695321,0.4666666666666667,0.31222222222222223,-0.6233333333333333,0.4040104452636808,-0.2332552226318404,0.0
1590505322.9445055,0.02413800267101944,-4.6,8.572414008013059,0.4666666666666667,0.31222222222222223,-0.6233333333333333,0.3383625166938715,-0.20043125834693576,-0.012931258346935747
1590505322.9545054,0.036585843596972846,-4.6,8.609757530790917,0.4666666666666667,0.31222222222222223,-0.6233333333333333,0.4161615224810803,-0.23933076124054015,-0.05183076124054014
1590505322.9645054,0.020444572933731652,-4.590222286466866,8.649333140599403,0.4666666666666667,0.31222222222222223,-0.6233333333333333,0.3763892904179114,-0.18888929041791142,0.0597214191641772
1590505322.9745054,0.036442194631006244,-4.598221097315503,8.666442194631006,0.4666666666666667,0.3186164090231691,-0.6370351621925052,0.16947256711242203,-0.1875,0.0625
1590505322.9845054,0.018229649682382266,-4.575311050952854,8.626459299364765,0.4666666666666667,0.32,-0.64,-0.14712937897022166,-0.06967655257444585,0.0
1590505322.9945054,0.015087477083946314,-4.6,8.627806169793812,0.4666666666666667,0.32,-0.64,-0.28179673177466447,0.15570326822533553,0.0
1590505323.0045054,0.03,-4.6,8.68149552124707,0.4666666666666667,0.32,-0.64,-0.33761196882322636,0.0625,0.01869401558838682
1590505323.0145054,0.03,-4.6,8.688465923254615,0.4666666666666667,0.32,-0.64,-0.16335191863460355,0.0625,0.10582404068269823
1590505323.0245054,0.03854892969234528,-4.59,8.7,0.4933333333333334,0.3055555555555556,-0.64,-0.0625,-0.027207568268526,0.044361621154315994
1590505323.0345054,0.03066624067357026,-4.59,8.7,0.4933333333333334,0.3055555555555556,-0.64,-0.0625,-0.17500798737055762,-0.05417199158037174
1590505323.0445054,0.03215544206266457,-4.601378231749342,8.592155442062664,0.4933333333333334,0.3055555555555556,-0.64,-0.08944302578330712,-0.09805697421669288,0.0625
1590505323.0545053,0.03956756852280559,-4.571729725908778,8.599567568522806,0.4933333333333334,0.3055555555555556,-0.64,-0.18209460653506987,-0.005405393464930117,0.0625
1590505323.0645053,0.020508315649212853,-4.57,8.658475053052362,0.4933333333333334,0.3055555555555556,-0.64,-0.4920575679810492,0.06091151359620984,0.001588486403790161
1590505323.0745053,0.02884509782726192,-4.587690195654524,8.695380391309047,0.4766259263262831,0.3055555555555556,-0.64,-0.5,0.22834558426116094,0.055281861420386984
1590505323.0845053,0.02,-4.608168560397132,8.722528405956977,0.4744444444444445,0.3055555555555556,-0.64,-0.44276751241036955,0.32921400992829564,0.011446497517926089
1590505323.0945053,0.019136775235153728,-4.6,8.606042573353923,0.4744444444444445,0.3055555555555556,-0.64,-0.17670969043942159,0.11420969043942159,0.0625
1590505323.1045053,0.011776288080864806,-4.6,8.657565983433946,0.4744444444444445,0.3055555555555556,-0.64,-0.08470360101081005,0.02220360101081005,0.0625
1590505323.1145053,0.018893267376540623,-4.582213465246919,8.67,0.4744444444444445,0.3055555555555556,-0.64,0.15983168441351556,-0.2779146055168944,-0.10424876331013666
1590505323.1245053,0.0387780795385166,-4.607556159077033,8.66633423861555,0.4666666666666667,0.2977777777777777,-0.6444444444444445,0.07013700288427124,-0.13263700288427124,-0.10208899134718626
1590505323.1345053,0.030153341989735977,-4.589923329005132,8.63923329005132,0.4666666666666667,0.2977777777777777,-0.6444444444444445,0.1235624188462252,-0.1875,0.06202080628207506
1590505323.1445053,0.045753078963828915,-4.582123460518085,8.552740763108513,0.4666666666666667,0.2977777777777777,-0.6444444444444445,-0.11558651295213856,-0.12114185880982681,0.03981488471410392
1590505323.1545053,0.027826304718020636,-4.591086847640989,8.610868476409896,0.4666666666666667,0.2977777777777777,-0.6444444444444445,-0.3192927977561855,0.125,0.1875
1590505323.1645052,0.011020534909345889,-4.599489732545327,8.69489732545327,0.4666666666666667,0.2977777777777777,-0.6444444444444445,-0.3718108284082941,0.125,0.1875
1590505323.1745052,0.01,-4.613353814644137,8.73,0.4811111111111111,0.31222222222222223,-0.6444444444444445,-0.3470515446321898,0.2360257723160949,0.0625
1590505323.1845052,0.01,-4.634830005120327,8.73,0.4811111111111111,0.31222222222222223,-0.6444444444444445,-0.16808329066393585,0.14654164533196792,0.0625
1590505323.1945052,0.04118082788671024,-4.58763834422658,8.60236165577342,0.4811111111111111,0.31222222222222223,-0.6444444444444445,0.125,-0.10678104575163398,0.007380174291938998
1590505323.2045052,0.04879575163398693,-4.572408496732026,8.617591503267974,0.4811111111111111,0.31222222222222223,-0.6444444444444445,0.125,-0.3923406862745098,0.0549734477124183
1590505323.2145052,0.05,-4.587445221214891,8.637445221214891,0.4811111111111111,0.31222222222222223,-0.6444444444444445,0.125,-0.11040210222079494,-0.04653263259306835
1590505323.2245052,0.033542048963881306,-4.598228975518059,8.681144877590297,0.4637388294618747,0.31222222222222223,-0.6334724770870319,-0.029293290963612745,-0.011068903012129074,-0.11393109698787093
1590505323.2345052,0.03888732170877484,-4.591112678291225,8.643323930252649,0.46,0.31222222222222223,-0.6311111111111111,-0.20140847864031453,0.034771196600786335,0.05554576067984274
1590505323.2445052,0.0314924452123627,-4.598507554787637,8.598954671274177,0.46,0.31222222222222223,-0.6311111111111111,-0.29384443484546624,0.26586108711366563,0.00932778257726688
1590505323.2545052,0.002764731442821787,-4.62,8.669676560049876,0.46,0.31222222222222223,-0.6311111111111111,-0.40294085696472765,0.22408064272354575,0.045220428482363836
1590505323.2645051,0.01861291114847632,-4.62,8.725145189019667,0.46,0.31222222222222223,-0.6311111111111111,-0.20483861064404604,0.0755039579830345,-0.05383069467797698
1590505323.2745051,0.040826833375268545,-4.588346333249463,8.707519499874195,0.4811111111111111,0.3055555555555556,-0.64,0.125,-0.07283541719085683,-0.11466458280914317
1590505323.2845051,0.0489447810014129,-4.572110437997175,8.683165656995762,0.4811111111111111,0.3055555555555556,-0.64,0.125,-0.17430976251766117,-0.013190237482338815
1590505323.2945051,0.056313724017500046,-4.58184313799125,8.55921568995625,0.4811111111111111,0.3055555555555556,-0.64,0.1644607751093753,-0.0625,-0.011519612445312353
1590505323.304505,0.02481138629663706,-4.597594306851681,8.637971534258408,0.4811111111111111,0.3055555555555556,-0.64,-0.03242883564601834,-0.0625,-0.10996441782300917
1590505323.314505,0.02774969469644103,-4.6,8.642250305303559,0.4811111111111111,0.3055555555555556,-0.64,-0.20780677555826937,-0.20780677555826937,0.0687423674110258
1590505323.324505,0.030481810989294884,-4.609518189010705,8.690481810989294,0.4933333333333334,0.31222222222222223,-0.64,0.128011318683093,-0.190511318683093,-0.06551131868309303
1590505323.334505,0.03725412946248365,-4.602745870537516,8.697254129462483,0.4933333333333334,0.31222222222222223,-0.64,0.17033830914052284,-0.23283830914052284,-0.10783830914052282
1590505323.344505,0.04968126407329762,-4.580637471853405,8.593506095193726,0.4933333333333334,0.31222222222222223,-0.64,0.1875,-0.25,0.0565237013743303
1590505323.354505,0.05,-4.5875590522233045,8.597559052223305,0.4933333333333334,0.31222222222222223,-0.64,-0.0014763055826179927,-0.06102369441738201,0.015255923604345502
1590505323.364505,0.05,-4.605907211631844,8.655675240711451,0.4933333333333334,0.31222222222222223,-0.64,-0.36076021809706155,0.24855018174755125,0.04971003634951025
1590505323.374505,0.04310432874526232,-4.596208657490525,8.683791342509474,0.48490529068865396,0.31222222222222223,-0.6484280426446795,-0.5236958906842211,0.26940205465788947,0.0625
1590505323.384505,0.019555899701655697,-4.619777949850828,8.698223598806623,0.4811111111111111,0.31222222222222223,-0.6522222222222223,-0.6875,0.3152756268646519,0.1222243731353481
1590505323.394505,0.0004513880981120051,-4.610225694049056,8.621805552392447,0.4811111111111111,0.31222222222222223,-0.6522222222222223,-0.6875,0.43467882438679994,0.0028211756132000276
1590505323.404505,0.003944615713598375,-4.635069230358002,8.6619723078568,0.4811111111111111,0.31222222222222223,-0.6522222222222223,-0.3881923035800203,0.27551922768501524,0.11267307589500508
1590505323.414505,0.033841438423294186,-4.597698201970882,8.676920719211648,0.4811111111111111,0.31222222222222223,-0.6522222222222223,-0.014482019708822624,-0.004763485218383046,0.019245504927205656
1590505323.424505,0.03283021320852834,-4.6,8.697169786791472,0.4811111111111111,0.32,-0.64,0.11320744496446525,-0.3066037224822326,0.005896277517767378
1590505323.434505,0.059964381340735465,-4.6,8.669643813407355,0.4811111111111111,0.32,-0.64,-0.0002226166204033506,-0.24933215013878995,0.0625
1590505323.444505,0.05,-4.599183024606027,8.572178601050595,0.4811111111111111,0.32,-0.64,-0.06590406414155378,-0.05739390378766934,0.06420203207077689
1590505323.454505,0.05,-4.574334294403412,8.6384418815909,0.4811111111111111,0.32,-0.64,-0.16944043998578145,0.09791065997867215,0.11597021999289073
1590505323.464505,0.0278907210241512,-4.575527319743962,8.661054639487924,0.4811111111111111,0.32,-0.64,-0.39477449039858253,0.22863724519929127,0.055908503200472484
1590505323.474505,0.02083333333333333,-4.590833333333333,8.67,0.4877314814814815,0.32,-0.64,-0.6640625,0.2786458333333333,0.1015625
1590505323.484505,0.01791707561342013,-4.6,8.65791707561342,0.4933333333333334,0.32,-0.64,-0.5234451677516274,0.32551827741612416,-0.0012956935403104775
1590505323.494505,0.026157348388271717,-4.616157348388271,8.60960662902932,0.4933333333333334,0.32,-0.64,-0.4254917137133491,0.22352485885995263,0.02647514114004737
1590505323.504505,0.0030990591126680463,-4.626725235221833,8.653801881774664,0.4933333333333334,0.32,-0.64,-0.35343455972708765,0.14546727986354382,0.10453272013645618
1590505323.514505,-0.003204502496685192,-4.61640900499337,8.70718199001326,0.4933333333333334,0.32,-0.64,-0.05766884362569469,-0.002415578187152656,0.0400562812085649
1590505323.524505,0.0,-4.616752031084423,8.74700812433769,0.48883197927705174,0.3147484202676714,-0.6287466148592958,0.3579013599434829,-0.48450194277640407,0.08440038855528081
1590505323.534505,-0.02,-4.618072382095181,8.751807623904519,0.4866666666666667,0.31222222222222223,-0.6233333333333333,0.5835833208339583,-0.9051190297627976,0.19954761190511902
1590505323.544505,-0.02,-4.582123036705307,8.599022905997558,0.4866666666666667,0.31222222222222223,-0.6233333333333333,0.9767792860356982,-1.466827551479569,0.42423102059182755
1590505323.5545049,-0.2713890054553085,-4.418610994544691,8.529444397817876,0.4866666666666667,0.31222222222222223,-0.6233333333333333,0.363714330675619,-1.7508681284095677,0.6866318715904323
1590505323.5645049,-0.44739823751573643,-4.242601762484263,8.459040704993704,0.4866666666666667,0.31222222222222223,-0.6233333333333333,-1.0663606798153586,-1.8608738984473352,0.5766261015526647
1590505323.5745049,0.2589287680029355,-4.02142463994129,8.311413631776901,0.4666666666666667,0.31222222222222223,-0.6444444444444445,-4.4017119988991835,-1.7009592009907348,-1.3838695991193468
1590505323.5845048,0.25,-4.2,8.99,0.4666666666666667,0.31222222222222223,-0.6444444444444445,-7.75,1.3125,-4.0625
1590505323.5945048,0.1646345299414147,-3.6792706326426297,8.529026461683639,0.4666666666666667,0.31222222222222223,-0.6444444444444445,-4.335381197656588,-0.5015162387449377,-8.597540596862345
1590505323.6045048,0.2148080323619892,-2.4790051595087568,8.311125644938596,0.4666666666666667,0.31222222222222223,-0.6444444444444445,-1.8404776179056754,0.055464719133783924,-12.557537303490541
1590505323.6145048,-0.09615067184355494,-2.642920537474844,9.2247407151424,0.4666666666666667,0.31222222222222223,-0.6444444444444445,-6.380361535177769,3.9286877706177705,-10.787159758502225
1590505323.6245048,-0.1600653333893534,-2.9093466661064658,8.925119112642326,0.47626483947920023,0.3173904691212788,-0.6304163457184339,-4.17796389857569,0.6183222343599013,-8.173472228057644
1590505323.6345048,-0.1404563827441758,-3.3535702212096714,8.888590431395606,0.4811111111111111,0.32,-0.6233333333333333,-0.5884241566840596,-0.13095741162636876,-3.188257881972514
1590505323.6445048,-0.1235225294522489,-3.3947162058216267,8.669315412331484,0.4811111111111111,0.32,-0.6233333333333333,-0.8604446682320553,-0.4744367636937776,-0.8373319906076677
1590505323.6545048,-0.11077584771629946,-3.381551695432599,8.739913979688106,0.4811111111111111,0.32,-0.6233333333333333,-1.0528019035462568,-0.15894333758810147,-0.375
1590505323.6645048,0.08455077787381156,-3.0078159031979257,8.766917458945548,0.4811111111111111,0.32,-0.6233333333333333,-0.7981647039757995,-0.125,-0.7450694144338808
1590505323.6745048,0.05254249487846742,-3.017094291567466,8.538717125297602,0.4607667841696965,0.31250472165316306,-0.6393946440765554,1.05689745861248,1.1398282210287358,3.8854333923924482
1590505323.6845047,0.015141557995881953,-3.1071461050102953,8.747865262525737,0.46,0.31222222222222223,-0.64,-0.3455905220487303,-1.6447484128345917,10.816323138297872
1590505323.6945047,0.0037443446787777546,-3.12,8.673653859539222,0.46,0.31222222222222223,-0.64,-0.4061086169694439,-1.7106193881812488,16.465143645159046
1590505323.7045047,0.016847445044747805,-3.1536948900894957,8.778474450447478,0.46,0.31222222222222223,-0.64,-0.04925867117581556,-1.6052965315296737,24.14628871612983
1590505323.7145047,0.044035939470365694,-3.1960539092055487,8.822017969735183,0.46,0.31222222222222223,-0.64,-0.45067386506935686,-1.9254492433795711,27.916767812105928
1590505323.7245047,0.024999157823816745,-3.276001347481893,8.76699848408287,0.46466677895682446,0.3075554432653978,-0.6236662736511145,-0.3999915782381674,-2.2125021054404583,32.17505684689237
1590505323.7345047,-0.016692816804231722,-3.4156688728183378,8.820078450412696,0.4666666666666667,0.3055555555555556,-0.6166666666666667,-1.0285404901234252,-2.861710385096977,35.57873150537909
1590505323.7445047,-0.02,-3.4595817719661435,8.711672912135427,0.4666666666666667,0.3055555555555556,-0.6166666666666667,-1.4331434579806608,-3.307272149576793,37.785489439480095
1590505323.7545047,-0.03485116912924975,-3.4897023382584993,8.650595323483001,0.4666666666666667,0.3055555555555556,-0.6166666666666667,-0.5557118329507961,-2.9876306752976616,39.11197729880935
1590505323.7645047,-0.04673272642959998,-3.5605945378664,8.6771290850072,0.4666666666666667,0.3055555555555556,-0.6166666666666667,-0.8391135625899983,-2.917079540185,40.193693102775
1590505323.7745047,-0.05,-3.583663515732481,8.693663515732482,0.4715950433191813,0.3055555555555556,-0.6314517966242105,-0.8477788132960546,-3.2543242133759374,40.935633293391916
1590505323.7845047,-0.07238163684364916,-3.602381636843649,8.697460545614549,0.4744444444444445,0.3055555555555556,-0.64,-0.7341284100909358,-3.76389887063655,41.700412511000295
1590505323.7945046,-0.09325211505922167,-3.6232521150592216,8.633739424703892,0.4744444444444445,0.3055555555555556,-0.64,-0.7085871404399323,-4.040651438240271,42.082064297800336
1590505323.8045046,-0.08576732532315928,-3.5944183133078984,8.635581686692102,0.4744444444444445,0.3055555555555556,-0.64,-0.6875,-3.8581373498092364,42.36540843346051
1590505323.8145046,-0.11436561602108493,-3.621238739225302,8.725604355246388,0.4744444444444445,0.3055555555555556,-0.64,-0.3868008598155069,-3.6211289399209314,42.351585959947286
1590505323.8245046,-0.10556283731688512,-3.623708558211257,8.890331534309945,0.48440032553756535,0.2847387132699392,-0.6553863616893686,-1.1154828450269854,-3.5625,42.3125
1590505323.8345046,-0.1,-3.4735360904655512,8.610798413205051,0.4866666666666667,0.28,-0.6588888888888889,-0.14282294469016454,-2.6979560895536,42.363355524143905
1590505323.8445046,-0.1336113461059965,-3.507222692211993,8.646435929335656,0.4866666666666667,0.28,-0.6588888888888889,-0.7152836526499129,-3.340283652649913,41.88483453595422
1590505323.8545046,-0.15406576923076923,-3.5421973076923075,8.65878923076923,0.4866666666666667,0.28,-0.6588888888888889,-1.115377403846154,-3.2211322115384613,41.907978365384615
1590505323.8645046,-0.16821905609973287,-3.5542920747996436,8.682876224398932,0.4866666666666667,0.28,-0.6588888888888889,-0.8236308993766697,-2.9152382012466607,42.37728183437222
1590505323.8745046,-0.18,-3.4756339869281048,8.601931839402427,0.4926581595601204,0.2837446830584086,-0.679110177404295,-1.0870214752567695,-3.020372315592904,42.37361694677871
1590505323.8845046,-0.22055039116428898,-3.5690299125632765,8.592136217211229,0.4955555555555556,0.2855555555555556,-0.6888888888888889,-0.417268752876208,-2.4569144040497006,41.91423722963645
1590505323.8945045,-0.2698585101955889,-3.6567609932029406,8.848443612151478,0.4955555555555556,0.2855555555555556,-0.6888888888888889,-1.6742353308364544,-4.255210500762935,40.714818282702176
1590505323.9045045,-0.2362201119597489,-3.5843301679396236,8.76299050381887,0.4955555555555556,0.2855555555555556,-0.6888888888888889,-1.0288582485325113,-3.5052339482809423,40.660436450377354
1590505323.9145045,-0.2908310986205565,-3.5921959539184347,8.812344624890052,0.4955555555555556,0.2855555555555556,-0.6888888888888889,0.3673988479608693,-3.1344595391843475,40.611275288009786
1590505323.9245045,-0.3412953183145041,-3.6551812732580165,8.902590636629009,0.5093609446066162,0.28241796713486,-0.6888888888888889,-0.987691356374089,-3.806670176259554,40.147021302671746
1590505323.9345045,-0.32655753138075316,-3.5571593444909344,8.740274407252441,0.52,0.28,-0.6888888888888889,-1.0075226638772663,-3.1130535216178523,40.21686933403068
1590505323.9445045,-0.3348237102906651,-3.5792948411626604,8.697411855145331,0.52,0.28,-0.6888888888888889,-0.2544072427333735,-2.9514722839749847,40.59044456794997
1590505323.9545045,-0.347803212745124,-3.576590361764628,8.785835340196364,0.52,0.28,-0.6888888888888889,-0.9053212745123984,-3.1950803186281,40.6875
1590505323.9645045,-0.3370345890740919,-3.466276712592735,8.654415068889103,0.52,0.28,-0.6888888888888889,-0.3146618171307448,-2.885347817708835,40.93060145486078
1590505323.9745045,-0.3144456846459407,-3.347782738583763,8.554445684645941,0.5104945850614082,0.25926091286125424,-0.6767910880579538,0.4166434128886117,-2.347249351629953,41.111107235481434
1590505323.9845045,-0.3713996115826914,-3.537223689091584,8.864673009361294,0.5077777777777778,0.2533333333333333,-0.6733333333333333,-1.9943592205468392,-3.880927182665241,40.50141019486329
1590505323.9945045,-0.3730288565849425,-3.53211542633977,8.76200332682433,0.5077777777777778,0.2533333333333333,-0.6733333333333333,-2.0782255731539743,-4.127504158530412,40.27714345121863
1590505324.0045044,-0.3788855326472551,-3.4988855326472548,8.502981981665554,0.5077777777777778,0.2533333333333333,-0.6733333333333333,0.1686738259983842,-3.2686373854097153,40.486069158090686
1590505324.0145044,-0.40320412168792935,-3.5320068694798823,8.65126594700687,0.5077777777777778,0.2533333333333333,-0.6733333333333333,-0.4079980372914622,-3.315137389597645,40.047319676153094
1590505324.0245044,-0.4243140119451725,-3.561725604778069,8.878585485326344,0.5082571124383525,0.25151186162314937,-0.6764010751610116,-2.286509581918962,-3.8048973058909468,39.26396736561681
1590505324.0345044,-0.49837489218223163,-3.6164820042342978,8.577820904885124,0.5133333333333333,0.23222222222222225,-0.7088888888888889,-0.3328138477221046,-3.0371652748372933,38.445983298047516
1590505324.0445044,-0.521501075611505,-3.6884989243884947,8.826247310971237,0.5133333333333333,0.23222222222222225,-0.7088888888888889,-1.4311558839933074,-3.2601411242132103,37.24848119671739
1590505324.0545044,-0.46111705883692855,-3.5933511765107853,8.653182843215417,0.5133333333333333,0.23222222222222225,-0.7088888888888889,-1.2063406870002962,-3.076463235461607,35.80795710803854
1590505324.0645044,-0.4679894347596408,-3.5803809825673536,8.748317591125197,0.5133333333333333,0.23222222222222225,-0.7088888888888889,-0.2374339672477549,-2.9174603803486527,34.660316957210775
1590505324.0745044,-0.4966103021762956,-3.5935587912948175,8.728301236887429,0.5228815475879826,0.22414296400674982,-0.7088888888888889,-0.9947158290277126,-2.421598559574135,32.84319711914827
1590505324.0845044,-0.5610112001568512,-3.747780800431341,8.622373599980394,0.5277777777777778,0.22,-0.7088888888888889,-0.07320999681395968,-2.55398500110286,30.20040499473078
1590505324.0945044,-0.6205565450621293,-3.9149102110093668,8.653797120885107,0.5277777777777778,0.22,-0.7088888888888889,-1.3351096431490057,-2.518514395574461,27.492426345787145
1590505324.1045043,-0.6325186482820977,-3.9176305379746834,8.557779724231464,0.5277777777777778,0.22,-0.7088888888888889,-0.02086982933996362,-1.8763986211573238,25.00372965641953
1590505324.1145043,-0.6513679664882175,-3.937393941354381,8.680259748661632,0.5277777777777778,0.22,-0.7088888888888889,0.05313849488104283,-1.7208874476378397,22.89740251338369
1590505324.1245043,-0.6808962029514176,-3.97,8.765518985242911,0.5199082978684205,0.22,-0.7246278487076033,-0.7724050737854419,-1.75,19.865569557287348
1590505324.1345043,-0.6836173984745414,-3.97,8.700852195423623,0.5133333333333333,0.22,-0.7377777777777778,-0.5213048855905998,-1.4707611832611833,16.984132137703565
1590505324.1445043,-0.6914037958115183,-3.9985094895287956,8.638682918848167,0.5133333333333333,0.22,-0.7377777777777778,-0.42818430955497383,-1.169952552356021,14.592614937827225
1590505324.1545043,-0.7110517302052786,-4.025525865102639,8.59447413489736,0.5133333333333333,0.22,-0.7377777777777778,-0.4588900293255132,-1.0279633431085045,11.986960410557185
1590505324.1645043,-0.682515671733519,-3.9737735076002787,8.655597574466341,0.5133333333333333,0.22,-0.7377777777777778,-0.4628538943745647,-0.8828614741672471,9.670399373130659
1590505324.1745043,-0.6453602894375398,-3.936801447187699,8.708558842249841,0.5133333333333333,0.2152352982777424,-0.7568365846668081,-0.294485528123011,-0.6159927640615055,7.034927640615055
1590505324.1845043,-0.6545587018255579,-3.9235303853955377,8.813084949290062,0.5133333333333333,0.2111111111111111,-0.7733333333333333,0.10845131845841785,-0.3290486815415822,4.79230831643002
1590505324.1945043,-0.6336321956189506,-3.8371523178807947,8.844640855832909,0.5133333333333333,0.2111111111111111,-0.7733333333333333,0.8274961793173714,0.6165944982170148,2.902604431991849
1590505324.2045043,-0.5939407604221241,-3.791822281266372,8.819111406331862,0.5133333333333333,0.2111111111111111,-0.7733333333333333,1.0617889753760945,1.2827457244966693,0.0029914489933386967
1590505324.2145042,-0.5686645173290347,-3.7738632277264554,8.824387748775498,0.5133333333333333,0.2111111111111111,-0.7733333333333333,-0.3141895033790068,0.5191774133548267,-3.306737863475727
1590505324.2245042,-0.5279681523690579,-3.72042834283038,8.391175161970182,0.5228165248614473,0.19663676614714784,-0.776328025394843,0.4662619038326439,1.682832380376239,-6.653761903832644
1590505324.2345042,-0.43598489502403065,-3.5717128609113575,8.512901745383587,0.5344444444444445,0.17888888888888888,-0.78,-0.5389481624688326,1.2318640913525818,-10.450818487334224
1590505324.2445042,-0.3942120115911286,-3.470716301445103,8.25111763480369,0.5344444444444445,0.17888888888888888,-0.78,-0.3307673914278677,2.3379289853974505,-13.62267159415898
1590505324.2545042,-0.5215997123524989,-3.727999215506815,8.499996731278397,0.5344444444444445,0.17888888888888888,-0.78,1.857502124669042,3.672504739646324,-16.90748904978263
1590505324.2645042,-0.5753224450133612,-3.8280653299198324,8.730653299198325,0.5344444444444445,0.17888888888888888,-0.78,-0.8285696933455422,1.8105109973277522,-21.078569693345543
1590505324.2745042,-0.5033073841735318,-3.672178973622553,8.795116771219107,0.5472265470821891,0.14977409954735932,-0.7757392991207518,-0.5182998261658227,2.0333780515456126,-24.9624272541758
1590505324.2845042,-0.43929189396522333,-3.6483189140811456,8.727697323559495,0.5544444444444444,0.13333333333333333,-0.7733333333333333,-1.1720268283327653,3.0326351005796113,-28.50222947920218
1590505324.2945042,-0.46713905011404955,-3.7937968337134986,8.5109625330292,0.5544444444444444,0.13333333333333333,-0.7733333333333333,-0.012114941620180897,3.5356785948192146,-31.83013110052169
1590505324.3045042,-0.47818751472320375,-3.8404687868080094,8.739405889281507,0.5544444444444444,0.13333333333333333,-0.7733333333333333,-0.8540989399293286,3.565429917550059,-35.95605123674912
1590505324.3145041,-0.433748237300364,-3.787776210933657,8.766797133768405,0.5544444444444444,0.13333333333333333,-0.7733333333333333,-1.8341781310464698,3.4626748352080807,-39.360315277276754
1590505324.3245041,-0.3477028805380904,-3.6915543208071355,8.522111419798216,0.5528744455817127,0.13221190557423923,-0.7675019089860441,-0.9483751279426816,3.966794304722913,-42.912418665009504
1590505324.3345041,-0.3099485599264432,-3.6399199821078003,8.295157178002535,0.5466666666666666,0.12777777777777774,-0.7444444444444445,-0.25,5.8125,-48.25
1590505324.344504,-0.4302713330711758,-3.870813999213527,8.428662996460872,0.5466666666666666,0.12777777777777774,-0.7444444444444445,-3.4978617774282346,3.4160194651985845,-50.89874164372788
1590505324.354504,-0.45397127078315025,-3.9780861876505496,8.54664972680806,0.5466666666666666,0.12777777777777774,-0.7444444444444445,-2.4297099905998474,2.79575964984431,-55.534696110686795
1590505324.364504,-0.43340947118564926,-4.028711233900152,8.58120705085801,0.5466666666666666,0.12777777777777774,-0.7444444444444445,-0.7310352542900502,4.144881610179384,-57.80821724580723
1590505324.374504,-0.42,-4.122601377830947,8.82651396394538,0.5501445209906082,0.1408197314925585,-0.7418360537014883,-1.0870194092652943,4.043509704632648,-59.24720257002599
1590505324.384504,-0.3824201655266241,-4.144840331053248,8.751495786251464,0.5555555555555556,0.16111111111111112,-0.7377777777777778,0.42526265069347347,4.329621896375798,-60.987762650693476
1590505324.394504,-0.33564840510118177,-4.081757974494091,8.519538835708273,0.5555555555555556,0.16111111111111112,-0.7377777777777778,0.7795379782357894,4.8530253188238595,-62.67471391599888
1590505324.404504,-0.3257340203106332,-4.101468040621267,8.588782482078853,0.5555555555555556,0.16111111111111112,-0.7377777777777778,0.5699484767025089,4.966591528524492,-64.12829254405615
1590505324.414504,-0.27182882223847843,-4.1166536617085265,8.896692676582948,0.5555555555555556,0.16111111111111112,-0.7377777777777778,1.75,5.839251605299521,-66.06979496870682
1590505324.424504,-0.20346642357945913,-4.101465512002431,8.827867517471892,0.5555555555555556,0.13906634255038997,-0.7377777777777778,1.491662868429049,5.204174263141902,-68.10917654208447
1590505324.434504,-0.1748377386029328,-4.057109398161874,8.63123788455837,0.5555555555555556,0.10777777777777778,-0.7377777777777778,1.5444337385117106,5.453537994024949,-70.15948054687678
1590505324.444504,-0.17,-4.151928329397268,8.545605811684977,0.5555555555555556,0.10777777777777778,-0.7377777777777778,1.0062570592463291,4.800447941267071,-71.91919088202074
1590505324.454504,-0.10158760095855153,-4.02738772521523,8.636850093192509,0.5555555555555556,0.10777777777777778,-0.7377777777777778,1.27288902325375,5.3485926821691665,-72.79273403523564
1590505324.464504,-0.027476230056561315,-3.92339671984917,8.609222129868023,0.5555555555555556,0.10777777777777778,-0.7377777777777778,1.7542674397388853,6.1043647495286555,-73.52182374764328
1590505324.474504,0.022410281577817312,-3.9051794368443655,8.702666707563953,0.5384501291672631,0.11588034817223208,-0.7053674961999604,1.5182695846880558,5.870192012759953,-74.88301331206675
1590505324.484504,0.03020697826854233,-4.0146498260474965,8.870955478243332,0.5133333333333333,0.12777777777777774,-0.6577777777777778,1.4769103262239702,5.77438328795442,-76.62967812484243
1590505324.494504,0.08487009330759332,-3.9153897200772203,8.855129906692406,0.5133333333333333,0.12777777777777774,-0.6577777777777778,2.1855896074646073,6.249808960746461,-77.59322464205276
1590505324.504504,0.15197911434236616,-3.786146199603437,8.544738929279577,0.5133333333333333,0.12777777777777774,-0.6577777777777778,2.9588202247191013,6.57210343688037,-78.24723397224058
1590505324.514504,0.14378556226382314,-3.999737436476567,8.541116057855188,0.5133333333333333,0.12777777777777774,-0.6577777777777778,2.0878007861703516,6.123221886808843,-79.42915779872301
1590505324.524504,0.16291879866518355,-4.037893214682981,8.661521690767518,0.5097659127425535,0.15469558769002592,-0.6519401804474108,2.0418798665183537,4.801710233592881,-80.66687986651836
1590505324.534504,0.16928667790893762,-3.965706576728499,8.202826306913996,0.5011111111111111,0.22,-0.6377777777777778,2.657862563237774,3.645720910623946,-81.36013912310287
1590505324.544504,0.1763057201752126,-4.118312129605772,8.934267585673796,0.5011111111111111,0.22,-0.6377777777777778,0.23646450657047158,6.778861561131151,-80.71218154148416
1590505324.554504,0.25736021643906215,-3.9359395130121104,8.474958773511982,0.5011111111111111,0.22,-0.6377777777777778,3.276008116464829,6.145623309069827,-80.62774977454265
1590505324.564504,0.34545993413830955,-4.097791437980241,8.84785510428101,0.5011111111111111,0.22,-0.6377777777777778,1.7381037321624588,7.165642151481888,-80.57553512623491
1590505324.574504,0.3950421345942751,-4.090708266486532,8.231619184328295,0.5011111111111111,0.22,-0.6377777777777778,4.3057533986321035,7.69688001351009,-81.01823334459174
1590505324.584504,0.4301735895846249,-3.647743335399876,8.835914445133293,0.4533333333333333,0.2855555555555556,-0.6377777777777778,3.2690251084934903,6.636353068815871,-81.74240545567265
1590505324.5945039,0.45314240656047944,-3.5219810755401357,8.825417757451506,0.4533333333333333,0.2855555555555556,-0.6377777777777778,2.0804979498501814,8.485976186721338,-81.28744086106292
1590505324.6045039,0.4672732182397523,-3.908188446236656,8.84817224432483,0.4533333333333333,0.2855555555555556,-0.6377777777777778,0.687550630974455,4.863660911987615,-81.68746624601702
1590505324.6145039,0.48569516407599306,-4.1179677605066205,8.643662924582614,0.4533333333333333,0.2855555555555556,-0.6377777777777778,2.035594775474957,5.5949194012665515,-80.6226611974669
1590505324.6245039,0.533729649163036,-4.157396812657647,8.727171520293512,0.4432262605416698,0.3044513872964917,-0.6342622741980688,2.48412061453795,6.5932412290759,-79.44172423182756
1590505324.6345038,0.5905054329121392,-4.123790746841044,8.626389940508384,0.42777777777777776,0.3333333333333333,-0.6288888888888889,2.6811820885982596,6.314529659766951,-78.71480130537391
1590505324.6445038,0.615178040500995,-4.223397635491045,8.736958445510943,0.42777777777777776,0.3333333333333333,-0.6288888888888889,2.4698627531312187,5.608215790705841,-77.97997044363807
1590505324.6545038,0.6347305223932096,-4.027784601936834,8.75562878108251,0.42777777777777776,0.3333333333333333,-0.6288888888888889,3.389969061256412,6.0613771766383735,-76.88510541025464
1590505324.6645038,0.7149166554255872,-3.912004894687145,8.823102923322992,0.42777777777777776,0.3333333333333333,-0.6288888888888889,3.381709720000771,5.910202243077101,-75.73970598153893
1590505324.6745038,0.8006457940991839,-4.030320935342122,8.93000196170747,0.4226166562042268,0.3436555764804352,-0.6275986084955012,1.9354818934400502,5.5625,-74.6915362131199
1590505324.6845038,0.7219783090563647,-4.237691972767575,8.679670281823938,0.4011111111111111,0.38666666666666666,-0.6222222222222222,2.20604664740342,5.57074295440152,-74.1462852279924
1590505324.6945038,0.7632212321548337,-4.2622832231484145,8.661610616077416,0.4011111111111111,0.38666666666666666,-0.6222222222222222,2.225663504838555,5.23572985532241,-72.4655971543547
1590505324.7045038,0.7838642859865086,-4.4271159342962765,8.606135714013492,0.4011111111111111,0.38666666666666666,-0.6222222222222222,1.8374175845116048,4.8170947825755555,-70.99004463775296
1590505324.7145038,0.8728488014140732,-4.465814383031121,8.544214812019622,0.4011111111111111,0.38666666666666666,-0.6222222222222222,2.4109749558102123,5.500182469067148,-69.16133989394451
1590505324.7245038,0.8895090464936148,-4.265891442076622,8.685826895195726,0.4011111111111111,0.38666666666666666,-0.6222222222222222,1.890342297074537,5.135739607952176,-67.91182151297889
1590505324.7345037,0.9319195937204318,-4.361261320408597,8.818738679591403,0.3911111111111111,0.4355555555555555,-0.6377777777777778,2.611746191129048,5.406878174059127,-66.05175888736555
1590505324.7445037,0.9385810857899505,-4.139539340720607,8.80874695100704,0.3911111111111111,0.4355555555555555,-0.6377777777777778,2.9845285385741165,5.041461948567845,-65.18193340999373
1590505324.7545037,0.8983277448934205,-3.7804235809354365,8.396443699319123,0.3911111111111111,0.4355555555555555,-0.6377777777777778,3.054905352927088,4.336817198138707,-63.37994726622644
1590505324.7645037,1.0024361328227456,-4.165481298851178,8.4233987305251,0.3911111111111111,0.4355555555555555,-0.6377777777777778,2.1624514766825786,4.16687103289094,-61.65643524104286
1590505324.7745037,1.04,-4.2273133776792315,8.622437792559744,0.38669982343762827,0.4391265979578987,-0.6405085749089814,1.2024263211382114,4.552549119241192,-58.812809882360185
1590505324.7845037,1.0200643661720008,-4.169871267655998,8.693665295905596,0.36777777777777776,0.4544444444444444,-0.6522222222222223,2.0526551045950296,3.761454049704988,-55.56692517432505
1590505324.7945037,1.047895233600755,-4.205187757028248,8.701126542169487,0.36777777777777776,0.4544444444444444,-0.6522222222222223,1.3294217285781702,4.25,-52.31108002427021
1590505324.8045037,1.1489890710382513,-4.253551912568306,8.47860655737705,0.36777777777777776,0.4544444444444444,-0.6522222222222223,1.9438183060109289,3.79900956284153,-49.72301912568306
1590505324.8145037,1.1769353300267074,-4.334835940480732,8.576457458985121,0.36777777777777776,0.4544444444444444,-0.6522222222222223,1.6159206886684472,3.2731960606638686,-47.50298669400992
1590505324.8245037,1.1861192307692308,-4.240447435897436,8.800597435897435,0.372752849002849,0.4637975783475783,-0.6496351851851853,1.4244391025641026,3.7723878205128205,-45.3759375
1590505324.8345037,1.2279567899888812,-4.266068586627133,8.655603566679021,0.3955555555555556,0.5066666666666667,-0.6377777777777778,2.1600222917438794,3.7637388541280603,-42.774189812291525
1590505324.8445036,1.1971686247516542,-4.102693553181171,8.599681804671246,0.3955555555555556,0.5066666666666667,-0.6377777777777778,2.51398459865776,3.6352731020133597,-41.33576334026876
1590505324.8545036,1.2890294573158332,-4.247046290067738,8.192869546172739,0.3955555555555556,0.5066666666666667,-0.6377777777777778,2.349947397650298,3.881328903524553,-40.14649363296466
1590505324.8645036,1.2835160070417944,-4.1570320140835895,9.189835039447088,0.3955555555555556,0.5066666666666667,-0.6377777777777778,-0.6860146215035535,1.2402401056269152,-38.24754474473495
1590505324.8745036,1.3177004955336769,-4.225400991067353,8.41042870183217,0.3955555555555556,0.5066666666666667,-0.6377777777777778,1.151401634935124,1.753007433005151,-37.008357036904215
1590505324.8845036,1.349002601357782,-4.3774510923587755,8.7663428716452,0.4755555555555556,0.5866666666666667,-0.6522222222222223,-0.35837668929636446,1.8118073620540152,-33.96952393037667
1590505324.8945036,1.2691669310322948,-4.173426601526976,8.473612080451748,0.4755555555555556,0.5866666666666667,-0.6522222222222223,0.9722178161284181,1.7563659243279826,-31.53010067043123
1590505324.9045036,1.4409788925761837,-4.453618078601148,8.725873355457102,0.4755555555555556,0.5866666666666667,-0.6522222222222223,0.7034548034971279,2.032449716153159,-27.61756270741034
1590505324.9145036,1.4127168438252784,-4.27698027390799,8.55630106295167,0.4755555555555556,0.5866666666666667,-0.6522222222222223,1.1450493152300254,1.546695753246972,-26.02782246517191
1590505324.9245036,1.3955345271865052,-4.161706979060653,8.63936207531236,0.4964653092060468,0.6044576773997965,-0.6576800223276047,0.2539870292977631,1.6276945605335527,-24.31120753123579
1590505324.9345036,1.331958381152422,-4.043636993568784,8.630279768736061,0.7941631358735796,0.8577531163609853,-0.7353842008137065,0.31075144539962324,0.7762283190056516,-23.40297687360603
1590505324.9445035,1.4096396800302036,-4.270360319969797,8.790832959720618,0.8033333333333333,0.8655555555555555,-0.7377777777777778,0.19580600061351142,1.0820659996696478,-21.155825998725785
1590505324.9545035,1.4550372971725922,-4.275087026736049,8.542580810540617,0.8033333333333333,0.8655555555555555,-0.7377777777777778,0.5305506780138936,0.7656638512214503,-19.48340371946374
1590505324.9645035,1.4951485885519058,-4.392128528620235,8.647277117172141,0.8033333333333333,0.8655555555555555,-0.7377777777777778,-0.1912147137976447,0.7973393392247056,-17.812198194415284
1590505324.9745035,1.4807413363087425,-4.406277238120241,8.667775991073773,0.836116872319944,0.8603662013943584,-0.7516984262419416,0.19676670385928066,0.7824334635074823,-16.08783268246259
1590505324.9845035,1.4722303710094908,-4.145539257981018,8.65776962899051,1.2455555555555555,0.7955555555555556,-0.9255555555555556,0.33101003019844694,0.6507091242450388,-13.58123921484038
1590505324.9945035,1.4322265522270303,-4.236679656681091,8.662148612140482,1.2455555555555555,0.7955555555555556,-0.9255555555555556,0.41674785425681976,-0.3466809716212016,-11.866945991823464
1590505325.0045035,1.4457329604183133,-4.231335197908433,8.549109868061045,1.2455555555555555,0.7955555555555556,-0.9255555555555556,0.5266689973855414,0.625,-9.361422295859427
1590505325.0145035,1.4706095712592102,-4.115181355703288,8.633962213184867,1.2455555555555555,0.7955555555555556,-0.9255555555555556,0.37119017962993534,0.5907116166694178,-7.139877245374191
1590505325.0245035,1.4831980731425485,-4.222183621711662,8.715787475426565,1.2455555555555555,0.7955555555555556,-0.9255555555555556,0.2925120428590723,-0.11739161426834943,-6.1564005357384035
1590505325.0345035,1.49,-4.230429736281495,8.689185337544993,0.7876207383465152,0.5878325456875373,-0.8035969702163781,0.5598141482406522,0.07536913244692578,-4.164447586865497
1590505325.0445035,1.42,-4.154421876598793,8.659148419113887,0.5988888888888889,0.5022222222222222,-0.7533333333333333,0.7151367287424537,-0.346728550598588,-1.2387205182646066
1590505325.0545034,1.4034716804774146,-4.134877321014506,8.486198119820969,0.5988888888888889,0.5022222222222222,-0.7533333333333333,0.6833725037298006,-0.5325470044757608,1.0919227347078173
1590505325.0645034,1.3431578379738645,-4.006710405694462,8.5088158107598,0.5988888888888889,0.5022222222222222,-0.7533333333333333,0.21217060917081587,0.03289526899502093,3.0238505023996547
1590505325.0745034,1.3796825159116435,-4.049603144889554,8.738174466491952,0.5988888888888889,0.5022222222222222,-0.7533333333333333,0.12549606888805692,-0.7435511044552602,5.233133657806065
1590505325.0845034,1.387949315356263,-4.042050684643737,8.724101369287474,0.4293034946219446,0.5022222222222222,-0.7250691009555092,-0.12341610488321905,-1.0977825468365068,7.0882791761358215
1590505325.0945034,1.42823885848319,-4.144119429241595,8.620387998436279,0.3855555555555555,0.5022222222222222,-0.7177777777777777,0.39458927873338545,-0.9718285770132916,9.501307173573103
1590505325.1045034,1.4678212187958883,-4.1593435664464025,8.569134085903084,0.3855555555555555,0.5022222222222222,-0.7177777777777777,0.18208803689427314,-1.2065293456314243,10.877793456314244
1590505325.1145034,1.4031829866791306,-4.103182986679131,8.62424398223884,0.3855555555555555,0.5022222222222222,-0.7177777777777777,0.46684388875905586,-1.3191312222481888,12.017074666978266
1590505325.1245034,1.4299158681935031,-4.129915868193503,8.659887824258004,0.3855555555555555,0.5022222222222222,-0.7177777777777777,0.18837637298434212,-1.3748247254031316,12.68539670483758
1590505325.1345034,1.3593932158735387,-3.9687864317470773,8.754305779680552,0.3533333333333333,0.52,-0.7322222222222222,0.1329491190515396,-1.4882584801580767,13.468932158735386
1590505325.1445034,1.3939255722048411,-4.037851144409682,8.623082825621603,0.3533333333333333,0.52,-0.7322222222222222,0.39194179153630826,-1.4450930347439486,13.814255722048411
1590505325.1545033,1.4237469510148364,-4.043114328551928,8.622506097970328,0.3533333333333333,0.52,-0.7322222222222222,0.23829077807863586,-1.2186737753709131,14.285127665764092
1590505325.1645033,1.4244594781168023,-4.068141930139444,8.59,0.3533333333333333,0.52,-0.7322222222222222,0.21663847853099544,-1.6395692392654977,14.524915435592986
1590505325.1745033,1.3086428275576418,-3.8307177964931656,8.59,0.3533333333333333,0.52,-0.7322222222222222,0.4337946983294215,-1.7481473491647108,15.176384094988265
1590505325.1845033,1.3004475895621408,-3.871342768686422,8.567332153914197,0.33318413681261977,0.49901125362425675,-0.7431363703376087,1.6014429455992922,-1.954174038036267,16.790341662980982
1590505325.1945033,1.3745432774546698,-3.9272836127266504,8.94635420230357,0.32666666666666666,0.4922222222222222,-0.7466666666666667,-1.1021139810696772,-0.5001496749914471,19.45452731212225
1590505325.2045033,1.3466029609188546,-4.05,8.809426648269689,0.32666666666666666,0.4922222222222222,-0.7466666666666667,0.5601110344570406,-2.1379598467332936,19.235845670495227
1590505325.2145033,1.3231414081145585,-4.05,8.598272673031026,0.32666666666666666,0.4922222222222222,-0.7466666666666667,-0.3196971957040573,-1.7958122016706444,19.138089200477328
1590505325.2245033,1.2651626537851914,-3.9494648652728506,8.697953807834555,0.32666666666666666,0.4922222222222222,-0.7466666666666667,0.19084459204468263,-2.0356111782021284,18.610899879236168
1590505325.2345033,1.26,-3.925775422790045,8.681550845580091,0.3416814981660636,0.4606120506445446,-0.7466666666666667,0.11664458865667232,-1.7513373735322355,19.09592164537331
1590505325.2445033,1.2398412901574298,-4.079404838090363,8.679285805708435,0.3477777777777778,0.4477777777777778,-0.7466666666666667,-0.31051612696787406,-1.9992560476129528,19.94270766670933
1590505325.2545033,1.2091649448720996,-3.964368543270374,8.541242251924448,0.3477777777777778,0.4477777777777778,-0.7466666666666667,0.07293818909875482,-1.8554606790879669,20.949275246384232
1590505325.2645032,1.194764061833472,-4.074764061833472,8.682617969083264,0.3477777777777778,0.4477777777777778,-0.7466666666666667,-0.11409179548640029,-2.0570458977432002,23.101123067703995
1590505325.2745032,1.1436441934632025,-4.023644193463202,8.7081779032684,0.3477777777777778,0.4477777777777778,-0.7466666666666667,-0.007592069715005381,-2.0037960348575026,24.69861895427492
1590505325.2845032,4.328915559647507,-11.404712175018634,1.4617576395282565,0.2677777777777778,0.44222222222222224,-0.6311111111111111,-22.690826537770178,-17.697493314042703,74.39258488973651
1590505325.2945032,-6.8769287646080945,-4.238085006078952,-2.0533503709401284,0.2677777777777778,0.44222222222222224,-0.6311111111111111,-111.31322885393146,-62.779455003349625,299.71638122472274
1590505325.3045032,0.22626254226952713,-2.8571066393185136,-0.1347083171646618,0.2677777777777778,0.44222222222222224,-0.6311111111111111,-169.06257506883236,-42.6187970046381,619.7824158767115
1590505325.3145032,0.9005499196186041,-3.3376332760500396,2.415183029362308,0.2677777777777778,0.44222222222222224,-0.6311111111111111,-148.95989822976145,-90.52614012232755,610.0459386606797
1590505325.3245032,1.9172853458737862,-4.801423695388349,8.789833131067962,0.2677777777777778,0.44222222222222224,-0.6311111111111111,-57.13982541970064,-84.41566956158981,581.2666774120146
1590505325.3345032,1.761596805125287,-4.1563336915976485,7.227297211860656,0.3077420918421109,0.48979878658452347,-0.6748815503244282,9.202436460770059,-87.9162017133464,562.0074168616046
1590505325.3445032,0.49976128225531435,-3.9370978742753215,8.087970899170172,0.3144444444444445,0.4977777777777778,-0.6822222222222222,103.93751065704217,-74.76549889166762,534.119060475162
1590505325.3545032,-6.127585540525178,-5.256210071615324,21.66052290553598,0.3144444444444445,0.4977777777777778,-0.6822222222222222,160.40703506877344,-61.90216835284756,519.020788336933
1590505325.3645031,2.2444148967349893,-6.810841556106997,-1.4353273803708553,0.3144444444444445,0.4977777777777778,-0.6822222222222222,147.4183527423357,-31.918477305144688,482.23773911174504
1590505325.3745031,-1.886043299009359,-19.054699779206317,-2.205690615291428,0.3144444444444445,0.4977777777777778,-0.6822222222222222,21.005024033294916,-44.26272860939057,393.9328044705836
1590505325.3845031,0.2810114224348336,0.5634530899150639,16.839112564678317,0.4777777777777778,0.3377777777777778,-0.7111111111111111,-56.20617738943669,-48.08395367568095,181.667327687201
1590505325.394503,-3.2159447427511467,1.6608585375378306,4.603860782973737,0.4777777777777778,0.3377777777777778,-0.7111111111111111,-2.2572342087279083,40.26127965439812,173.4777347944938
1590505325.404503,-2.180923472289512,-1.0752010616560994,8.442095928211826,0.4777777777777778,0.3377777777777778,-0.7111111111111111,-5.417347755566322,17.770218071324756,173.66890390327134
1590505325.414503,-2.4769241457166427,0.8567643610785463,12.540852329468978,0.4777777777777778,0.3377777777777778,-0.7111111111111111,7.014814272068082,-48.25882234813946,183.14871803221746
1590505325.424503,-1.7757798185054927,0.11919695193434943,10.455630888802048,0.4777777777777778,0.3377777777777778,-0.7111111111111111,-3.855199242325561,-36.02294326125657,188.55526925665407
1590505325.434503,-3.307532977386934,-0.7020229620323842,9.867253105806812,0.5288888888888889,0.16444444444444445,-0.7066666666666667,-16.443556759491905,6.036673166178113,185.25986813407314
1590505325.444503,-13.780109924623114,5.98696049692909,11.352880723059743,0.5288888888888889,0.16444444444444445,-0.7066666666666667,-5.008615124232273,11.845623516890004,167.10118081728086
1590505325.454503,0.34585478524578606,-4.706930495803653,11.204138514704844,0.5288888888888889,0.16444444444444445,-0.7066666666666667,-1.134699643839481,-7.804812574934763,-12.48687319274984
1590505325.464503,-0.6451110797658508,-3.7233598984413567,8.482680019747514,0.5288888888888889,0.16444444444444445,-0.7066666666666667,5.243718703716763,-25.368573242118625,-51.496910043021366
1590505325.474503,-2.287958576560395,-5.303442130669062,9.049824595868882,0.5288888888888889,0.16444444444444445,-0.7066666666666667,0.31811819431971244,-3.555603109564437,-55.36067299057027
1590505325.484503,-2.35,-5.1,8.46,0.5377777777777778,0.10444444444444444,-0.7,5.0,19.0625,-47.0625
1590505325.494503,-1.3705990783410138,-4.369744926833212,9.181663837011886,0.5377777777777778,0.10444444444444444,-0.7,-2.4099411836041718,4.833265118441265,-44.9683861872423
1590505325.504503,-1.603034818775995,-4.496789304812834,9.144614141414142,0.5377777777777778,0.10444444444444444,-0.7,-3.0537284610814024,3.813924539512775,-43.368202614379086
1590505325.514503,-1.3224804562858967,-4.031291081684748,8.209037571793235,0.5377777777777778,0.10444444444444444,-0.7,2.9441508455647734,4.864876655232929,-45.09081595006381
1590505325.524503,-1.565051252393108,-4.056384612316528,8.3846922862157,0.5377777777777778,0.10444444444444444,-0.7,0.6439105376515637,3.4533655571952777,-48.07067271258775
1590505325.534503,-1.7246339556700083,-4.093991078819093,8.69128575370183,0.5311111111111111,0.10444444444444444,-0.6933333333333334,0.8583705049204451,5.271205049204451,-51.11183091143199
1590505325.544503,-1.832771813481114,-4.128842024717694,8.795614348320077,0.5311111111111111,0.10444444444444444,-0.6933333333333334,0.7008776404572542,4.218201474714216,-53.087061179771375
1590505325.554503,-1.9266899738798473,-4.210613421740004,8.486134217400041,0.5311111111111111,0.10444444444444444,-0.6933333333333334,0.33051160337552743,4.446325597749649,-53.2204867389994
1590505325.564503,-1.606450070323488,-4.219040787623066,8.57040787623066,0.5311111111111111,0.10444444444444444,-0.6933333333333334,1.4366033755274261,3.708931082981716,-51.956381856540084
1590505325.574503,-1.6789978690543683,-4.278132196828996,8.877927508748607,0.5311111111111111,0.10444444444444444,-0.6933333333333334,1.1991737698187719,3.897494672635921,-50.49544241559305
1590505325.584503,-1.5841916458506802,-4.135089855675826,8.57287434082709,0.5278775788694606,0.11953426157214667,-0.7138123708637863,0.6987276228143213,3.757485081876214,-49.02994032750486
1590505325.594503,-1.5301715473921331,-4.208301854098076,8.58847340149021,0.5277777777777778,0.12,-0.7144444444444444,0.7764793796569052,4.0169381389707155,-48.82204124068619
1590505325.604503,-1.2532257812804808,-4.012853575748117,8.432109164683391,0.5277777777777778,0.12,-0.7144444444444444,1.1828474308454606,4.186724571807577,-51.09553372868792
1590505325.614503,-1.3668564560560068,-4.104945870545505,8.700230554629517,0.5277777777777778,0.12,-0.7144444444444444,1.2787941062937553,4.324441159440633,-53.77252908251891
1590505325.624503,-1.3352928314852412,-4.13169920349836,8.758496017491801,0.5277777777777778,0.12,-0.7144444444444444,1.4162599562704983,4.323120021864751,-57.65527877557395
1590505325.634503,-1.3428858934169279,-4.152885893416928,8.757628631138976,0.5150633925461512,0.13949539068849412,-0.7017300592128178,1.4851789446186,4.789289446185998,-60.44323145245559
1590505325.6445029,-1.3157695857690264,-4.237018432019691,8.777115207115486,0.5111111111111111,0.14555555555555555,-0.6977777777777778,0.9116647554051408,4.990985022235896,-63.15743084496406
1590505325.6545029,-1.257256434152986,-4.18846583984515,8.489910387841421,0.5111111111111111,0.14555555555555555,-0.6977777777777778,1.3619121442397304,5.439529715391784,-65.75258979138289
1590505325.6645029,-1.1586802672303163,-4.159434400241564,8.669560089076771,0.5111111111111111,0.14555555555555555,-0.6977777777777778,1.2535349984902242,5.68671444477995,-68.96106665660149
1590505325.6745028,-0.9924533856722276,-4.0881943081452405,8.61415112855741,0.5111111111111111,0.14555555555555555,-0.6977777777777778,1.6987855740922473,5.587769872423945,-71.92940382728165
1590505325.6845028,-0.9793948045428876,-4.118991340904813,8.864553240885988,0.5045789323238028,0.1553538237365181,-0.6999551707068805,1.8125,6.113652585179143,-77.58663409048127
1590505325.6945028,-0.8725877763328999,-4.0418820191512,8.5868223194231,0.5044444444444445,0.15555555555555556,-0.7,1.4463219647712495,6.735296725381251,-82.56987380305
1590505325.7045028,-0.8414349494244855,-4.220911986978258,8.599043367050342,0.5044444444444445,0.15555555555555556,-0.7,1.1994579118707127,7.226084176258574,-87.09127863039181
1590505325.7145028,-0.8690368608799048,-4.123531510107016,8.551605231866827,0.5044444444444445,0.15555555555555556,-0.7,1.7924346016646848,7.612960760998811,-92.091483353151
1590505325.7245028,-0.8112570726151955,-4.164057195538603,8.718885916231313,0.5044444444444445,0.15555555555555556,-0.7,1.904285824038757,7.8544645600968925,-95.78375422549215
1590505325.7345028,-0.689708098744045,-4.1623014291901255,8.709205716760502,0.49198989461527354,0.19554121553341997,-0.6986889947548242,2.232476180164573,7.790011909917713,-99.49605348635774
1590505325.7445028,-0.5631118254311677,-4.131037275143723,8.65525931878593,0.4833333333333333,0.22333333333333333,-0.6977777777777778,2.259724454472399,8.131938863819002,-103.61709912221055
1590505325.7545028,-0.4931905275381553,-4.130428417385534,8.588714747843397,0.4833333333333333,0.22333333333333333,-0.6977777777777778,2.2752960144326475,8.880355217319178,-109.84491383958195
1590505325.7645028,-0.43164451714032576,-4.1283289034280655,8.60668438628774,0.4833333333333333,0.22333333333333333,-0.6977777777777778,2.265583469638111,9.328249591085667,-114.63660720370748
1590505325.7745028,-0.3234714513799133,-4.133305709724017,8.713181403482096,0.4833333333333333,0.22333333333333333,-0.6977777777777778,2.6448837717630957,9.604080342887555,-120.90829326009276
1590505325.7845027,-0.24291783092588207,-4.100764859104902,8.74215297182098,0.4737425211145315,0.23728360565159048,-0.6942902096982135,2.875,10.066395335069856,-127.6457169074118
1590505325.7945027,-0.18220699487895717,-4.0804413989757915,8.749558601024209,0.4711111111111111,0.2411111111111111,-0.6933333333333334,2.6957762307960893,10.605688794809124,-134.254471819716
1590505325.8045027,-0.1143520623579084,-4.183161044866144,8.717176031178955,0.4711111111111111,0.2411111111111111,-0.6933333333333334,2.5409644249060457,11.152528070338237,-139.48220955319445
1590505325.8145027,-0.04624066255277687,-4.290193244559922,8.683120331276388,0.4711111111111111,0.2411111111111111,-0.6933333333333334,2.3889300503410196,11.699851818772329,-144.65137828840534
1590505325.8245027,-0.024409845121427257,-4.3545655420750045,8.633229535364281,0.4711111111111111,0.2411111111111111,-0.6933333333333334,2.618596169977699,11.9935961699777,-149.46101182560304
1590505325.8345027,0.044606135986733006,-4.342311656005686,8.693835583984837,0.44649924978283184,0.2841818684355998,-0.6933333333333334,3.437392649846008,12.639340499881545,-156.3982209488273
1590505325.8445027,0.06873202552137891,-4.293169936196553,8.728098038282068,0.4444444444444444,0.2877777777777778,-0.6933333333333334,3.3243872607370726,13.097263058280165,-162.26045733739645
1590505325.8545027,-3.5946884498480247,-8.165359042553192,7.784431990881459,0.4444444444444444,0.2877777777777778,-0.6933333333333334,3.3737414513677813,13.15562072568389,-164.52348499240122
1590505325.8645027,-6.144153788164342,-16.209467639298463,7.561798851466708,0.4444444444444444,0.2877777777777778,-0.6933333333333334,0.5377957251502181,16.194600729473848,-160.6289938138844
1590505325.8745027,-0.4300425833924777,-6.087444996451383,10.94305180979418,0.4444444444444444,0.2877777777777778,-0.6933333333333334,-11.321016678495388,7.051721078779277,-47.13963804116395
1590505325.8845026,2.2729373474369408,-1.0076322213181448,7.18179414157852,0.4115771630051533,0.32134436307747943,-0.6933333333333334,9.352827502034174,-12.348835435313264,49.32096724979659
1590505325.8945026,0.4988027040211862,-2.1011547843055265,8.058668896787232,0.3922222222222223,0.3411111111111111,-0.6933333333333334,21.844091922782077,-0.7487847585197578,35.74416335633145
1590505325.9045026,0.35664130344884626,-3.746061946902655,10.294245099660905,0.3922222222222223,0.3411111111111111,-0.6933333333333334,-10.05116150442478,-1.4295821788933916,-2.503070465635595
1590505325.9145026,0.3947399926428787,-4.415140286927733,9.888398822860584,0.3922222222222223,0.3411111111111111,-0.6933333333333334,-15.725495769655218,2.1353814834631972,-17.516133414707554
1590505325.9245026,-1.6309542400240247,-6.529092683659297,8.486969105446901,0.3922222222222223,0.3411111111111111,-0.6933333333333334,-2.3466111715905242,4.175442959570555,-30.91159343443823
1590505325.9345026,-0.3474064606831324,-7.6597641946512445,9.227367479311116,0.3922222222222223,0.3472669726952885,-0.6851255178877634,-0.9548139598044543,5.010560117583156,-40.58239208230821
1590505325.9445026,1.1844423030595035,-3.1484702481329796,8.829026740544448,0.3922222222222223,0.3477777777777778,-0.6844444444444444,-2.715941941700795,-0.0004667549987953379,-0.2618646109371241
1590505325.9545026,0.3181304107570453,-4.049804752256401,9.055962424019157,0.3922222222222223,0.3477777777777778,-0.6844444444444444,3.3867309817645967,-1.0374723706023208,7.312338828513538
1590505325.9645026,0.04888198015066364,-5.002078201602296,8.821118019849337,0.3922222222222223,0.3477777777777778,-0.6844444444444444,-0.2168629678345093,-0.4680213440153055,-1.300624775798159
1590505325.9745026,0.11753224593141662,-4.684617910940682,8.675616938517146,0.3922222222222223,0.3477777777777778,-0.6844444444444444,-1.7690207419775057,-0.2675529328660808,-2.398279681852375
1590505325.9845026,0.06790329996816752,-4.735485799172356,8.634676900222827,0.39836923330857477,0.35216849998231525,-0.6914695999717044,-0.09777437838220215,-0.016126251193718355,-0.09777437838220215
1590505325.9945025,0.07866682709661894,-4.616663458067621,8.646000481289857,0.4,0.3533333333333333,-0.6933333333333334,0.34167067741547347,-0.045835338707736734,0.125
1590505326.0045025,0.0727954069361471,-4.6224206687873375,8.624783924276516,0.4,0.3533333333333333,-0.6933333333333334,0.375,0.05007176662270153,0.125
1590505326.0145025,0.06563936097139439,-4.606688307371873,8.613836165828367,0.4,0.3533333333333333,-0.6933333333333334,0.30450798785757016,0.07376996964392546,0.08975399392878508
1590505326.0245025,0.07509287642402893,-4.555092876424029,8.665464382120145,0.4,0.3533333333333333,-0.6933333333333334,0.12267808939927713,-0.0625,0.12616095530036142
1590505326.0345025,0.07578275812393243,-4.640127595645284,8.664696548743594,0.3967199229852808,0.35942490493209756,-0.6900532563186141,-0.052715523450844806,-0.0361422382745776,0.1347844765491552
1590505326.0445025,0.07,-4.7047951020408165,8.636457842565598,0.3922222222222223,0.36777777777777776,-0.6855555555555556,-0.125,0.0,0.0625
1590505326.0545025,0.0650691209043,-4.6247926372871,8.6352073627129,0.3922222222222223,0.36777777777777776,-0.6855555555555556,0.05990796608874971,0.0,0.0625
1590505326.0645025,0.06673613721804511,-4.619791588345865,8.633472274436091,0.3922222222222223,0.36777777777777776,-0.6855555555555556,0.03949571193609025,0.08420171522556391,-0.06380257283834587
1590505326.0745025,0.08122057558848823,-4.671713165736685,8.634389712205756,0.3922222222222223,0.36777777777777776,-0.6855555555555556,-0.16769289614207716,0.05487140257194856,-0.05487140257194856
1590505326.0845025,0.07827021794608548,-4.661351089730427,8.641729782053915,0.3967838041320779,0.35930626851661723,-0.6901171374654113,-0.14003329324455133,-0.03665556891848288,0.0
1590505326.0945024,0.06426151468315301,-4.683123338485317,8.661476970633695,0.4,0.3533333333333333,-0.6933333333333334,0.1885587326120557,-0.0625,-0.035865533230293664
1590505326.1045024,0.06953478465574064,-4.701395646032778,8.631860861377037,0.4,0.3533333333333333,-0.6933333333333334,0.375,-0.0029075959016209713,-0.032703797950810486
1590505326.1145024,0.08,-4.6390644850177924,8.596187102996442,0.4,0.3533333333333333,-0.6933333333333334,0.2589918188167215,-0.09217757491103792,-0.03866939372775948
1590505326.1245024,0.08,-4.625662214130455,8.63397328478273,0.4,0.3533333333333333,-0.6933333333333334,0.0813334850539692,-0.15211116168465638,0.008277676630687208
1590505326.1345024,0.08,-4.647251275707438,8.654249574764188,0.3955274470388125,0.36163950311839593,-0.6882218442348332,-0.107820473171486,-0.125,0.02655984227617133
1590505326.1445024,0.0896468213925328,-4.6648234106962665,8.645176589303734,0.3922222222222223,0.36777777777777776,-0.6844444444444444,-0.157353683148335,-0.18529263370332996,0.06029263370332997
1590505326.1545024,0.08133855436128981,-4.660669277180645,8.598011747312903,0.3922222222222223,0.36777777777777776,-0.6844444444444444,0.020792544052423395,-0.162524473568546,0.03752447356854598
1590505326.1645024,0.06658180060311687,-4.643418199396883,8.596072604221817,0.3922222222222223,0.36777777777777776,-0.6844444444444444,0.1052274924610391,-0.02136374623051955,-0.0625
1590505326.1745024,0.07534556574923548,-4.6346544342507645,8.636036697247706,0.3922222222222223,0.36777777777777776,-0.6844444444444444,-0.0043195718654434195,-0.03340978593272171,-0.0625
1590505326.1845024,0.08,-4.63888351041944,8.65,0.39863809085848445,0.35889426735833785,-0.6844444444444444,-0.09026097006074982,-0.03473902993925018,-0.03473902993925018
1590505326.1945024,0.07414349637401636,-4.65,8.644143496374017,0.4066666666666667,0.3477777777777778,-0.6844444444444444,-0.051793704675204444,0.03660314766239778,-0.03660314766239778
1590505326.2045023,0.07,-4.65,8.605060038508665,0.4066666666666667,0.3477777777777778,-0.6844444444444444,0.15598197094346228,-0.03108918256607736,0.06228557675476981
1590505326.2145023,0.06127254869864135,-4.65436372565068,8.596182353904076,0.4066666666666667,0.3477777777777778,-0.6844444444444444,0.3125,-0.09772671468325422,0.10568014404976266
1590505326.2245023,0.054967555296622936,-4.645097334110131,8.64490266588987,0.4066666666666667,0.3477777777777778,-0.6844444444444444,0.25040555879221327,-0.00040555879221327445,0.062094441207786726
1590505326.2345023,0.06569401375219092,-4.641388027504382,8.671388027504381,0.3984419801357243,0.3477777777777778,-0.697097808338202,0.009562070244033966,-0.07985034380477282,0.05382482809761359
1590505326.2445023,0.07,-4.656039923796903,8.631680609624782,0.3922222222222223,0.3477777777777778,-0.7066666666666667,0.06374761865319306,-0.03650190507744555,0.0
1590505326.2545023,0.0654012494961709,-4.6645987505038295,8.586203748488513,0.3922222222222223,0.3477777777777778,-0.7066666666666667,0.15875780935106812,0.03375780935106812,0.08622657194679564
1590505326.2645023,0.06,-4.654240763226365,8.585759236773633,0.3922222222222223,0.3477777777777778,-0.7066666666666667,0.25632697311361663,-0.06566348655680833,0.12183651344319167
1590505326.2745023,0.0696401159815794,-4.630359884018421,8.648200579907897,0.3922222222222223,0.3477777777777778,-0.7066666666666667,0.3147492751151288,-0.125,0.0625
1590505326.2845023,0.07162166075436183,-4.6325675088684575,8.691621660754361,0.40106602475928477,0.3528978739834456,-0.709924909706637,0.14527075942952292,-0.125,0.010135379714761458
1590505326.2945023,0.06413221821431991,-4.65413221821432,8.66347112714272,0.4133333333333333,0.36,-0.7144444444444444,-0.025826363839499475,-0.07334727232100105,-0.036673636160500525
1590505326.3045022,0.07209846029173421,-4.664196920583469,8.627409238249596,0.4133333333333333,0.36,-0.7144444444444444,-0.0625,0.013115376823338736,0.0
1590505326.3145022,0.08858268318800673,-4.6714173168119935,8.588582683188006,0.4133333333333333,0.36,-0.7144444444444444,-0.00885823007495793,-0.0179626548875631,0.05364176992504207
1590505326.3245022,0.08759116220585594,-4.66,8.61551104724268,0.4133333333333333,0.36,-0.7144444444444444,0.1206664271600503,-0.1056111909466499,0.047444763786599606
1590505326.3345022,0.06323677933687173,-4.653526441326257,8.659710338010616,0.40470192176834197,0.36,-0.7090498122163249,0.18931038743365494,-0.022040258289103297,-0.0845402582891033
1590505326.3445022,0.07357376937256777,-4.647147538745135,8.644262306274323,0.38666666666666666,0.36,-0.6977777777777778,-0.00450817573564552,0.04016394142145149,0.0
1590505326.3545022,0.07172909734893206,-4.664135451325534,8.563458194697864,0.38666666666666666,0.36,-0.6977777777777778,-0.04746028764623805,-0.10338628313834926,0.05169314156917463
1590505326.3645022,0.06712346879253354,-4.659314796811199,8.557808671981332,0.38666666666666666,0.36,-0.6977777777777778,0.08476083997666732,-0.13869580011666344,0.08047832004666536
1590505326.3745022,0.07094711692757551,-4.6535793246086365,8.617158649217274,0.38666666666666666,0.36,-0.6977777777777778,0.20987077880397959,0.005919480797346929,0.028290259601326535
1590505326.3845022,0.06751077118332721,-4.6662446144083365,8.668776927958318,0.39167384745555145,0.36,-0.6961087175148162,0.21861536020840988,-0.10944231989579506,0.03902884005210247
1590505326.3945022,0.08464093912835154,-4.650718121743297,8.681436243486594,0.4,0.36,-0.6933333333333334,0.0044882608956058265,-0.10048239134340874,0.058011739104394174
1590505326.4045022,0.08531913574506339,-4.649361728509873,8.608510493195698,0.4,0.36,-0.6933333333333334,-0.15026620478006136,0.05851080318670759,0.03723379521993862
1590505326.4145021,0.08,-4.66,8.55,0.4,0.36,-0.6933333333333334,-0.1414150855220114,0.016415085522011402,0.009889942985325736
1590505326.4245021,0.08,-4.653444100484892,8.582779497575542,0.4,0.36,-0.6933333333333334,-0.042012814015286414,-0.042012814015286414,0.021525628030572827
1590505326.4345021,0.08,-4.64195381201545,8.640230939922747,0.4,0.36,-0.6933333333333334,-0.006105662548283701,-0.006105662548283701,-0.0502886749034326
1590505326.444502,0.07806941311342036,-4.656138826226841,8.69579176065974,0.38666666666666666,0.36777777777777776,-0.6977777777777778,0.21380149587663178,0.01206616804112274,-0.01206616804112274
1590505326.454502,0.07031396767871012,-4.64062793535742,8.71905809696387,0.38666666666666666,0.36777777777777776,-0.6977777777777778,0.06838689397581449,0.060537702008061835,-0.060537702008061835
1590505326.464502,0.07,-4.657713364874078,8.555142243249385,0.38666666666666666,0.36777777777777776,-0.6977777777777778,0.016069510154329277,-0.10893048984567072,-0.09286097969134144
1590505326.474502,0.07,-4.676932342388518,8.579202972834445,0.38666666666666666,0.36777777777777776,-0.6977777777777778,0.08167286007175807,-0.03374070989236289,0.0
1590505326.484502,0.07391586258434622,-4.658042068707827,8.631957931292174,0.38927724172289746,0.36386191519343153,-0.6969075860923676,0.19973707057608195,0.10052585884783613,0.024474141152163877
1590505326.494502,0.08806854256854256,-4.648068542568542,8.64,0.4,0.3477777777777778,-0.6933333333333334,0.21378517316017315,0.0,0.08878517316017316
1590505326.504502,0.08,-4.64,8.608262663016069,0.4,0.3477777777777778,-0.6933333333333334,0.04046018265004683,-0.044079634699906334,0.0036194520498595006
1590505326.514502,0.07793286279910484,-4.64413427440179,8.55826854880358,0.4,0.3477777777777778,-0.6933333333333334,0.012919607505594767,-0.08624117748321569,0.09916078498881047
1590505326.524502,0.06628863145493816,-4.667422737090123,8.615979579815432,0.4,0.3477777777777778,-0.6933333333333334,0.10889210681327312,0.016107893186726882,0.02319605340663656
1590505326.534502,0.06641872208195766,-4.670371916877063,8.663209361040979,0.40427914805463844,0.3477777777777778,-0.6947597160182128,0.16744149349388232,-0.0825585065061177,0.0625
1590505326.544502,0.07505391058157368,-4.645053910581574,8.679892178836852,0.4133333333333333,0.3477777777777778,-0.6977777777777778,0.18682611773032912,-0.03226082340450631,0.09341305886516456
1590505326.554502,0.06502774210743101,-4.644972257892569,8.63530516318174,0.4133333333333333,0.3477777777777778,-0.6977777777777778,0.1256935526857752,0.0625,0.0628467763428876
1590505326.564502,0.0641167900227286,-4.658233580045457,8.592350370068186,0.4133333333333333,0.3477777777777778,-0.6977777777777778,0.0,-0.040419750568214924,0.0
1590505326.574502,0.07216137046238275,-4.67,8.614322740924765,0.4133333333333333,0.3477777777777778,-0.6977777777777778,0.0,-0.1604828692202158,0.0
1590505326.584502,0.07993752085728058,-4.67,8.629875041714563,0.4133333333333333,0.3477777777777778,-0.6977777777777778,0.0,-0.06328098928399273,0.0
1590505326.594502,0.06856998106818121,-4.65,8.64143001893182,0.4188888888888889,0.3533333333333333,-0.6933333333333334,0.2767811908380663,0.08037523664773485,0.0
1590505326.604502,0.07578200514138818,-4.645782005141388,8.596256041131106,0.4188888888888889,0.3533333333333333,-0.6933333333333334,0.18068766066838046,-0.009775064267352182,-0.02636246786632391
1590505326.614502,0.0735235959637142,-4.647047191927428,8.564094383854858,0.4188888888888889,0.3533333333333333,-0.6933333333333334,-0.02202247477321374,0.0625,-0.01845505045357252
1590505326.624502,0.08,-4.6566165090283755,8.6035339638865,0.4188888888888889,0.3533333333333333,-0.6933333333333334,-0.04135318142734308,0.04135318142734308,0.08364681857265692
1590505326.634502,0.08,-4.648111497027139,8.639442514864308,0.41658071858872475,0.35459233531524104,-0.6958513372971488,0.035409430741155,-0.02360628716077,0.113196856419615
1590505326.644502,0.08,-4.640258742154477,8.68,0.4066666666666667,0.36,-0.7066666666666667,0.1842657230690406,-0.1233828615345203,0.0608828615345203
1590505326.654502,0.07649033962679584,-4.653509660373205,8.644903396267958,0.4066666666666667,0.36,-0.7066666666666667,0.08443537733252601,-0.0625,0.0
1590505326.664502,0.07,-4.655344057827227,8.586983913259159,0.4066666666666667,0.36,-0.7066666666666667,0.125,-0.047950180710084334,0.01454981928991567
1590505326.674502,0.0664705780035136,-4.650588265989459,8.617058843992973,0.4066666666666667,0.36,-0.7066666666666667,0.10294111252195996,0.0,0.04044111252195996
1590505326.684502,0.06316315982526927,-4.666836840174731,8.634744739737904,0.4035035068413974,0.36123011770982694,-0.7066666666666667,0.05261512554603354,-0.009884874453966455,0.01976974890793291
1590505326.6945019,0.07585342836565923,-4.645853428365659,8.66414657163434,0.38666666666666666,0.36777777777777776,-0.7066666666666667,0.05183214542925969,-0.0625,0.09908392728537016
1590505326.7045019,0.07450053889868705,-4.649001077797374,8.633995688810504,0.38666666666666666,0.36777777777777776,-0.7066666666666667,0.125,-0.09062836811679405,0.03437163188320595
1590505326.7145019,0.08924360980699009,-4.655378195096505,8.603865414710485,0.38666666666666666,0.36777777777777776,-0.7066666666666667,0.09611371935315598,-0.06722743870631195,0.05777256129368805
1590505326.7245018,0.09155651347994448,-4.647185504493315,8.622814495506685,0.38666666666666666,0.36777777777777776,-0.7066666666666667,0.0625,0.0,0.08981880616643531
1590505326.7345018,0.07316986921896691,-4.641056623072989,8.628943376927012,0.38666666666666666,0.36777777777777776,-0.7066666666666667,0.0625,0.0,0.013207788412362101
1590505326.7445018,0.06795586261091648,-4.65,8.665691038276416,0.38666666666666666,0.3477777777777778,-0.6711111111111111,0.07389656527291183,0.18612070659113977,0.0
1590505326.7545018,0.06,-4.646524727709609,8.589148366257657,0.38666666666666666,0.3477777777777778,-0.6711111111111111,-0.03811819274023595,-0.084220451814941,-0.043440903629882024
1590505326.7645018,0.06,-4.64,8.564668848457954,0.38666666666666666,0.3477777777777778,-0.6711111111111111,0.09443989904592856,-0.07915984856889283,-0.07915984856889283
1590505326.7745018,0.06,-4.64,8.615981650629616,0.38666666666666666,0.3477777777777778,-0.6711111111111111,-0.056077974652643574,0.043807341782452144,0.043807341782452144
1590505326.7845018,0.05858187189879171,-4.642836256202417,8.634254384303626,0.3857212479325278,0.3485656267228935,-0.6722140996342731,-0.1786366993674482,-0.026589901897655394,-0.008863300632551797
1590505326.7945018,0.05063842278701565,-4.658723154425969,8.658084731638953,0.38042561519134377,0.35297865400721345,-0.6783923378323211,-0.12899014241884776,-0.17552957274345668,-0.05850985758115222
1590505326.8045018,0.0753133083460909,-4.6623433458269545,8.645939925038272,0.38,0.3533333333333333,-0.6788888888888889,-0.08106226574460224,-0.09570817716306815,-0.0625
1590505326.8145018,0.06055218286438262,-4.669723908567809,8.601656548593148,0.38,0.3533333333333333,-0.6788888888888889,0.057323285646412925,-0.003451142902391388,-0.0625
1590505326.8245018,0.06309881512557401,-4.643098815125574,8.629296445376722,0.38,0.3533333333333333,-0.6788888888888889,0.02816202732581212,-0.04313240546516242,-0.08186759453483758
1590505326.8345017,0.07167293812843131,-4.65,8.651672938128431,0.3865058704994551,0.35240392326198255,-0.6798182989602396,-0.1561324100919129,-0.020911726605391402,-0.1040882733946086
1590505326.8445017,0.08734524365369965,-4.65,8.637964269038902,0.4188888888888889,0.3477777777777778,-0.6844444444444444,0.022953886417811417,-0.125,0.022953886417811417
1590505326.8545017,0.08505582725846637,-4.653736043185384,8.588791870443849,0.4188888888888889,0.3477777777777778,-0.6844444444444444,0.0625,-0.1016497300913537,0.039149730091353696
1590505326.8645017,0.06335533927720684,-4.6633553392772065,8.580066017831621,0.4188888888888889,0.3477777777777778,-0.6844444444444444,0.0625,-0.1044417409650854,-0.020970870482542706
1590505326.8745017,0.07,-4.664992084850404,8.615023745448788,0.4188888888888889,0.3477777777777778,-0.6844444444444444,0.031200530315022956,-0.17185026515751148,-0.04685026515751148
1590505326.8845017,0.07089109779913545,-4.650891097799136,8.660891097799135,0.41601757375834136,0.3471837125783542,-0.6839493901115914,-0.06806936124459659,-0.125,0.0
1590505326.8945017,0.07971417202732277,-4.66,8.669714172027323,0.38666666666666666,0.3411111111111111,-0.6788888888888889,-0.12589321241461635,-0.12232036275615094,-0.0008932124146163538
1590505326.9045017,0.0669559275708917,-4.662318642523631,8.629132217287326,0.38666666666666666,0.3411111111111111,-0.6788888888888889,-0.15851696845461793,0.10597454731807311,-0.04800848422730896
1590505326.9145017,0.08908687970740477,-4.668630319561107,8.560913120292597,0.38666666666666666,0.3411111111111111,-0.6788888888888889,-0.05679299817127979,0.2328789945138394,-0.005707001828720206
1590505326.9245017,0.06787864954826439,-4.64,8.596970803613885,0.38666666666666666,0.3411111111111111,-0.6788888888888889,0.049241559676652405,-0.1117415596766524,-0.1117415596766524
1590505326.9345016,0.06012117124450543,-4.640121171244505,8.660242342489012,0.3869090091556775,0.34125920929883996,-0.679117767906288,-0.0007573202781589413,-0.06325732027815895,-0.060985359443682115
1590505326.9445016,0.06987603786310674,-4.649876037863107,8.679752075726213,0.4064187423928801,0.35318182405490817,-0.6975436270747573,-0.06172523664441705,-0.12422523664441705,0.0609504732888341
1590505326.9545016,0.0640278309715307,-4.663958253542704,8.649860845142346,0.4066666666666667,0.3533333333333333,-0.6977777777777778,0.04991302821396655,-0.04991302821396655,-0.012586971786033447
1590505326.9645016,0.07741446444529554,-4.643878303332056,8.582927677773522,0.4066666666666667,0.3533333333333333,-0.6977777777777778,0.008079798608451427,-0.008079798608451427,-0.05442020139154857
1590505326.9745016,0.061871870926300275,-4.6437437418526,8.6237437418526,0.4066666666666667,0.3533333333333333,-0.6977777777777778,0.011699193289376734,-0.13669919328937674,0.0
1590505326.9845016,0.06979596077912754,-4.659591921558255,8.639591921558255,0.4066666666666667,0.3533333333333333,-0.6977777777777778,0.06122475486954714,-0.18622475486954715,0.0
1590505326.9945016,0.08543803178880655,-4.66,8.669123936422388,0.3922222222222223,0.3533333333333333,-0.6855555555555556,0.0625,-0.04550615065997954,-0.21601230131995908
1590505327.0045016,0.09744545854849686,-4.662554541451503,8.622118209839478,0.3922222222222223,0.3533333333333333,-0.6855555555555556,0.03056823185621072,-0.03193176814378928,-0.125
1590505327.0145016,0.08713572693608114,-4.667135726936081,8.571909515375946,0.3922222222222223,0.3533333333333333,-0.6855555555555556,-0.05056552890033811,-0.11903276445016905,-0.11903276445016905
1590505327.0245016,0.06181190629528256,-4.641811906295282,8.588792062469812,0.3922222222222223,0.3533333333333333,-0.6855555555555556,0.05495039043632266,-0.06627480478183867,-0.06627480478183867
1590505327.0345016,0.07856546923792043,-4.64,8.682827346189601,0.3922222222222223,0.3533333333333333,-0.6855555555555556,0.004482908631498653,-0.12051709136850135,-0.004482908631498653
1590505327.0445015,0.07140283083445581,-4.64,8.672805661668912,0.38744601713025323,0.3533333333333333,-0.7103918220337944,0.10746461456930244,-0.07126769271534877,-0.16119692185395368
1590505327.0545015,0.06809259917110717,-4.661907400828893,8.654740793368857,0.38666666666666666,0.3533333333333333,-0.7144444444444444,-0.05057874481941978,0.0,-0.011921255180580225
1590505327.0645015,0.06391882011849237,-4.666081179881508,8.597837640236985,0.38666666666666666,0.3533333333333333,-0.7144444444444444,-0.012246312870288668,0.0,-0.07474631287028867
1590505327.0745015,0.07609943529137801,-4.65,8.631950282354312,0.38666666666666666,0.3533333333333333,-0.7144444444444444,-0.03812147057111254,-0.060946323572218665,-0.11281073528555627
1590505327.0845015,0.06,-4.650137079785183,8.640411239355547,0.38666666666666666,0.35325717789712086,-0.7144444444444444,0.06335674865738955,-0.3090730053704418,-0.06164325134261045
1590505327.0945015,0.06218040591330493,-4.66436081182661,8.656917564520171,0.38666666666666666,0.3477777777777778,-0.7144444444444444,0.0977449260836883,-0.0625,-0.01362753695815585
1590505327.1045015,0.06841937098769069,-4.673677483950763,8.603677483950761,0.38666666666666666,0.3477777777777778,-0.7144444444444444,0.019757862653866542,-0.03286320601920019,-0.07237893132693327
1590505327.1145015,0.062243653925437306,-4.648974615701749,8.57897461570175,0.38666666666666666,0.3477777777777778,-0.7144444444444444,0.09695432593203368,0.08293148889805055,-0.11097716296601684
1590505327.1245015,0.06,-4.668766606822262,8.61794434470377,0.38666666666666666,0.3477777777777778,-0.7144444444444444,-0.11472172351885099,-0.054791292639138234,-0.005139138240574506
1590505327.1345015,0.06,-4.649090815908159,8.647878912122454,0.38666666666666666,0.3477777777777778,-0.7144444444444444,-0.08143919980866476,-0.018939199808664757,-0.17424320076534097
1590505327.1445014,0.06977624298234986,-4.64977624298235,8.66,0.39209791276797223,0.3477777777777778,-0.6709944756340007,-0.0625,-0.06110151863968658,-0.12779696272062685
1590505327.1545014,0.06,-4.65,8.648002158238093,0.3922222222222223,0.3477777777777778,-0.67,0.09688005837053024,0.0,-0.01874662775297984
1590505327.1645014,0.06127215886267181,-4.651272158862672,8.581272158862673,0.3922222222222223,0.3477777777777778,-0.67,-0.04659801421660234,0.0,-0.1011470213249035
1590505327.1745014,0.06859755139109629,-4.658597551391097,8.588597551391096,0.3922222222222223,0.3477777777777778,-0.67,0.044969392388703566,0.0,0.03620408858305535
1590505327.1845014,0.07,-4.66,8.647280635081497,0.3922222222222223,0.3477777777777778,-0.67,-0.05683465641978437,-0.059667328209892186,0.0028326717901078144
1590505327.1945014,0.07,-4.66,8.65,0.38783080189449615,0.3477777777777778,-0.6884439653764495,0.08571043606075451,-0.0625,-0.19761391474767273
1590505327.2045014,0.07,-4.65,8.672248732284487,0.38666666666666666,0.3477777777777778,-0.6933333333333334,0.16531091535561046,0.040310915355610454,-0.05510363845187015
1590505327.2145014,0.07,-4.650670236287595,8.541675590718985,0.38666666666666666,0.3477777777777778,-0.6933333333333334,-0.0020944883987319856,-0.127094488398732,-0.0020944883987319856
1590505327.2245014,0.07109239644228359,-4.668907603557717,8.596554378653702,0.38666666666666666,0.3477777777777778,-0.6933333333333334,-0.04884504447145531,-0.1738450444714553,-0.04884504447145531
1590505327.2345014,0.07918465783025602,-4.6608153421697445,8.645107946981536,0.38666666666666666,0.3477777777777778,-0.6933333333333334,0.052308222878200306,-0.0726917771217997,0.052308222878200306
1590505327.2445014,0.07092908275269638,-4.651858165505393,8.66,0.4133333333333333,0.3477777777777778,-0.6933333333333334,0.011613534408704782,-0.11338646559129521,-0.17588646559129523
1590505327.2545013,0.07893576405459578,-4.667871528109192,8.66,0.4133333333333333,0.3477777777777778,-0.6933333333333334,0.11169705068244726,-0.013302949317552742,-0.07580294931755274
1590505327.2645013,0.08350238814924202,-4.652599044740303,8.54779713422091,0.4133333333333333,0.3477777777777778,-0.6933333333333334,-0.016244029626894946,-0.11687798518655253,0.046255970373105054
1590505327.2745013,0.041971210523050195,-4.6686858596512995,8.6039424210461,0.4133333333333333,0.3477777777777778,-0.6933333333333334,-0.1208933114103121,-0.0666066885896879,-0.05017993423093628
1590505327.2845013,0.06148926599243036,-4.655673822671713,8.64297853198486,0.4133333333333333,0.3477777777777778,-0.6933333333333334,-0.08023069584910342,-0.10726930415089658,0.07180791245268972
1590505327.2945013,0.07,-4.640966583922093,8.669033416077907,0.38924422379224743,0.35279634226550394,-0.6933333333333334,-0.006041149513080005,0.10083540194767998,0.01208229902616001
1590505327.3045013,0.08,-4.66,8.644693869702332,0.38666666666666666,0.3533333333333333,-0.6933333333333334,0.057762383662795166,-0.07197523267440967,0.12026238366279517
1590505327.3145013,0.08,-4.66,8.588236481809092,0.38666666666666666,0.3533333333333333,-0.6933333333333334,0.007354001615260362,-0.17279199676947926,0.06985400161526037
1590505327.3245013,0.06550398575648445,-4.66,8.61624003560879,0.38666666666666666,0.3533333333333333,-0.6933333333333334,0.045300044510986126,-0.09689991097802775,0.017199955489013874
1590505327.3345013,0.07690284487385937,-4.676902844873859,8.64690284487386,0.38666666666666666,0.3533333333333333,-0.6933333333333334,-0.09596417069243154,0.09596417069243154,-0.10564278046162104
1590505327.3445013,0.06616835092869644,-4.659252526393045,8.656915824535652,0.3958877660475357,0.3533333333333333,-0.6871859337460873,-0.08177609665217636,0.038552193304352736,-0.038552193304352736
1590505327.3545012,0.06060729948710324,-4.65,8.608582967863425,0.4,0.3533333333333333,-0.6844444444444444,0.0037956217943953025,0.12246958547040313,0.06123479273520156
1590505327.3645012,0.08888369714298998,-4.6505581514285055,8.545581514285049,0.4,0.3533333333333333,-0.6844444444444444,0.18401155357184368,0.0,0.0
