time,acc_x,acc_y,acc_z,mag_x,mag_y,mag_z,gyr_x,gyr_y,gyr_z
1590500044.6653032,-3.71,-0.68,8.99,0.2911111111111111,-0.3588888888888889,-0.6111111111111112,-0.0625,0.125,-0.125
1590500044.6753032,-3.7202346329029297,-0.68,9.000469265805858,0.29095468917582495,-0.3587585372761504,-0.6114500253042312,-0.05810063307007647,0.0,-0.0029329112866156868
1590500044.6853032,-3.7289979524466172,-0.68,9.017995904893235,0.28511247614669954,-0.3538900264185459,-0.6241081535340028,0.10621160837407545,0.0,-0.11247440558271699
1590500044.6953032,-3.71,-0.672553907698312,8.959353107620256,0.28444444444444444,-0.3533333333333333,-0.6255555555555555,0.18615230754219925,0.09307615377109962,0.0013476924578007532
1590500044.7053032,-3.7128624796289333,-0.6857249592578664,8.878587438886798,0.28444444444444444,-0.3533333333333333,-0.6255555555555555,-0.035780995361664784,0.0,0.1338285069575028
1590500044.7153032,-3.72,-0.6975387678313759,8.929534786023488,0.28444444444444444,-0.3533333333333333,-0.6255555555555555,-0.125,0.030765402107801057,0.0
1590500044.7253032,-3.7202349841938886,-0.6897650158061116,9.020469968387776,0.2841050228310502,-0.3533333333333333,-0.6257122116848144,-0.1220626975763962,0.12059404636459431,-0.0014686512118018968
1590500044.7353032,-3.7272089443249325,-0.68,9.042791055675067,0.27,-0.3533333333333333,-0.6322222222222222,0.0,-0.0625,-0.0625
1590500044.7453032,-3.72,-0.6769698156488657,9.034849078244328,0.27,-0.3533333333333333,-0.6322222222222222,0.009469326097294877,-0.0625,-0.05303067390270512
1590500044.7553031,-3.7176774141931355,-0.6623225858068645,8.956967757420593,0.27,-0.3533333333333333,-0.6322222222222222,0.1060484838787103,-0.03346767741419314,0.0
1590500044.7653031,-3.7107692141436845,-0.6715384282873693,8.98,0.27,-0.3533333333333333,-0.6322222222222222,0.24038482320394225,0.05288482320394225,-0.004807588398028875
1590500044.7753031,-3.7198344428114467,-0.6896688856228926,8.98,0.27,-0.3533333333333333,-0.6322222222222222,0.12706946485692056,-0.060430535143079445,-0.06146526757153972
1590500044.785303,-3.73,-0.6924909254127473,8.985018149174506,0.2766666666666667,-0.3588888888888889,-0.6111111111111112,0.10943171617032903,-0.031363432340658054,0.01579514851098708
1590500044.795303,-3.7289601152426397,-0.6979202304852795,8.961680921941118,0.2766666666666667,-0.3588888888888889,-0.6111111111111112,0.0625,0.043002160799495814,-0.10550216079949581
1590500044.805303,-3.715844535359439,-0.6820777323202806,8.902466393921683,0.2766666666666667,-0.3588888888888889,-0.6111111111111112,0.07548582700175337,-0.09902834599649328,0.023542518994739914
1590500044.815303,-3.701424691442913,-0.6892876542785437,8.945725925671262,0.2766666666666667,-0.3588888888888889,-0.6111111111111112,0.120547839240898,-0.008904321518204,-0.11164351772269399
1590500044.825303,-3.728770741360938,-0.6708195057593749,9.007541482721875,0.2766666666666667,-0.3588888888888889,-0.6111111111111112,-0.05481713350586084,0.0,0.05481713350586084
1590500044.835303,-3.73,-0.67,9.01,0.2658924737450575,-0.36476572139158486,-0.6032753344408499,-0.00740469528722567,0.05509530471277433,0.00740469528722567
1590500044.845303,-3.72,-0.68,9.01645416888675,0.2644444444444444,-0.3655555555555556,-0.6022222222222222,0.125,0.11273654629518227,-0.012263453704817724
1590500044.855303,-3.72,-0.68,8.929945514858803,0.2644444444444444,-0.3655555555555556,-0.6022222222222222,0.125,0.0676799556556264,-0.05732004434437359
1590500044.865303,-3.711660805076647,-0.6716608050766467,8.963321610153294,0.2644444444444444,-0.3655555555555556,-0.6022222222222222,0.3125,-0.020760063458083258,-0.125
1590500044.875303,-3.71967773997477,-0.6796777399747698,8.97935547994954,0.2644444444444444,-0.3655555555555556,-0.6022222222222222,0.3125,-0.12097174968462096,-0.125
1590500044.885303,-3.72,-0.675222714496689,8.987834071745034,0.28444444444444444,-0.3533333333333333,-0.6166666666666667,0.016320982802153303,0.016320982802153303,-0.0625
1590500044.895303,-3.72,-0.69,9.01,0.28444444444444444,-0.3533333333333333,-0.6166666666666667,0.0625,0.0625,-0.0625
1590500044.905303,-3.72,-0.6849048610350242,8.959048610350242,0.28444444444444444,-0.3533333333333333,-0.6166666666666667,-0.0011892370621964105,0.0625,-0.12618923706219642
1590500044.915303,-3.7263783989512413,-0.6863783989512412,8.954648792658688,0.28444444444444444,-0.3533333333333333,-0.6166666666666667,-0.10236499344525732,-0.01722998689051465,-0.0280400262189707
1590500044.925303,-3.73,-0.69,9.009447728275253,0.28444444444444444,-0.3533333333333333,-0.6166666666666667,-0.16180966034406705,-0.025690339655932953,-0.011119320688134093
1590500044.935303,-3.7221304072589154,-0.69,9.069347963705424,0.27307725492954443,-0.3629517244613256,-0.6122946706993975,-0.1875,-0.09836990926355771,-0.1608699092635577
1590500044.945303,-3.7126093227299135,-0.6752186454598266,9.035655936379479,0.27,-0.3655555555555556,-0.6111111111111112,-0.09511653412391578,0.013575198814126332,-0.09511653412391578
1590500044.955303,-3.71,-0.6705497425402693,8.920549742540269,0.27,-0.3655555555555556,-0.6111111111111112,-0.05906410912331661,-0.05219232736994983,0.05906410912331661
1590500044.965303,-3.71,-0.6774719434908899,8.92747194349089,0.27,-0.3655555555555556,-0.6111111111111112,-0.01580035318193821,0.07759894045418536,0.01580035318193821
1590500044.975303,-3.727930500370395,-0.6620694996296047,8.947930500370395,0.27,-0.3655555555555556,-0.6111111111111112,0.056032813657485345,0.06896718634251466,0.0
1590500044.985303,-3.7136209257737605,-0.6681895371131197,8.96637907422624,0.2754596914087465,-0.3655555555555556,-0.6284001339054749,-0.03986921391399616,0.011315393043001921,0.05118460695699808
1590500044.995303,-3.711233245796528,-0.668766754203472,8.988900787831247,0.2766666666666667,-0.3655555555555556,-0.6322222222222222,-0.1875,-0.05479221377169946,-0.007707786228300536
1590500045.005303,-3.7183856280481566,-0.6616143719518435,8.92452934756659,0.2766666666666667,-0.3655555555555556,-0.6322222222222222,-0.1875,-0.010089824699021178,-0.05241017530097882
1590500045.015303,-3.719120415382388,-0.6882408307647752,9.000879584617612,0.2766666666666667,-0.3655555555555556,-0.6322222222222222,-0.0054974038600773675,-0.06799740386007737,0.06799740386007737
1590500045.025303,-3.710443929583583,-0.6708878591671666,9.009556070416416,0.2766666666666667,-0.3655555555555556,-0.6322222222222222,-0.059725440102604416,-0.12222544010260442,0.12222544010260442
1590500045.0353029,-3.7130665934870106,-0.6745998902305159,9.023866813025979,0.2644444444444444,-0.3655555555555556,-0.6111111111111112,0.13458310464690815,0.014584476765459202,-0.05291689535309184
1590500045.0453029,-3.7284134650567142,-0.6976201975850713,8.993173069886572,0.2644444444444444,-0.3655555555555556,-0.6111111111111112,0.18254207830223199,-0.2252103915111599,-0.004957921697768021
1590500045.0553029,-3.711211272450308,-0.67,8.917267634701851,0.2644444444444444,-0.3655555555555556,-0.6111111111111112,0.022711358443281492,0.007570452814427164,-0.07007045281442717
1590500045.0653028,-3.7188431765786367,-0.6746272936854535,8.971156823421364,0.2644444444444444,-0.3655555555555556,-0.6111111111111112,0.18026985361647893,0.04803970723295785,-0.11053970723295785
1590500045.0753028,-3.710981762974903,-0.706072948100388,8.979018237025098,0.2644444444444444,-0.3655555555555556,-0.6111111111111112,0.13113601859314378,-0.050227962813712446,-0.012272037186287554
1590500045.0853028,-3.719638918067227,-0.6714443277310924,9.028194590336135,0.26979939892623717,-0.3655555555555556,-0.6250339927637721,0.0045135241596638564,0.23871618960084034,0.06024323792016807
1590500045.0953028,-3.72,-0.6626549826187718,9.000619930475088,0.27,-0.3655555555555556,-0.6255555555555555,0.04590635863267671,0.15818728273464658,0.01659364136732329
1590500045.1053028,-3.7194516905153856,-0.66,8.91493478536153,0.27,-0.3655555555555556,-0.6255555555555555,0.0,0.11814613144231986,0.05564613144231987
1590500045.1153028,-3.71085875097522,-0.6608587509752202,9.00085875097522,0.27,-0.3655555555555556,-0.6255555555555555,0.0,-0.01610158078537727,-0.051765612809748486
1590500045.1253028,-3.7186499238399526,-0.6686499238399525,9.008649923839952,0.27,-0.3655555555555556,-0.6255555555555555,0.0,-0.16218607199910837,0.04562404799940559
1590500045.1353028,-3.7273462164802953,-0.6713268917598524,9.018673108240147,0.28444444444444444,-0.3588888888888889,-0.6255555555555555,0.00829307349907719,-0.07908614699815439,-0.00829307349907719
1590500045.1453028,-3.7103542881449054,-0.68,9.006457118550946,0.28444444444444444,-0.3588888888888889,-0.6255555555555555,0.06028569909434096,-0.17864279637736383,-0.05807139818868192
1590500045.1553028,-3.7177879588111233,-0.68,8.93212041188877,0.28444444444444444,-0.3588888888888889,-0.6255555555555555,0.013825257430480471,0.007198970278078115,0.03484948513903906
1590500045.1653028,-3.720521997401151,-0.6884340077965472,8.981565992203453,0.28444444444444444,-0.3588888888888889,-0.6255555555555555,0.11847503248561352,0.006524967514386485,-0.05923751624280676
1590500045.1753027,-3.7283079636161127,-0.6650761091516614,9.004923890848339,0.28444444444444444,-0.3588888888888889,-0.6255555555555555,0.021150454798589208,0.10384954520141079,-0.010575227399294604
1590500045.1853027,-3.7399978681285218,-0.6699978681285215,9.039993604385563,0.2766683247889279,-0.3588888888888889,-0.6166685616635366,-0.062486675803258715,0.125,0.12497335160651743
1590500045.1953027,-3.7244361558017407,-0.6933457662973891,9.008872311603481,0.2766666666666667,-0.3588888888888889,-0.6166666666666667,-0.013862986880439424,0.27091103935868177,0.07636298688043942
1590500045.2053027,-3.729791428084111,-0.6898957140420554,8.920104285957944,0.2766666666666667,-0.3588888888888889,-0.6166666666666667,-0.12369642552569382,0.0006517872371530908,0.125
1590500045.2153027,-3.71,-0.6792170022371365,8.932609992542877,0.2766666666666667,-0.3588888888888889,-0.6166666666666667,0.0,0.06413124533929904,0.12336875466070096
1590500045.2253027,-3.71,-0.6545243141410574,9.014918952863141,0.2766666666666667,-0.3588888888888889,-0.6166666666666667,0.0,0.11557434553946389,0.07192565446053611
1590500045.2353027,-3.73,-0.68,9.04,0.2766666666666667,-0.3655555555555556,-0.6166666666666667,0.1214729866256134,0.125,0.001763506687193303
1590500045.2453027,-3.729350236717517,-0.6796751183587586,9.036101420305101,0.2766666666666667,-0.3655555555555556,-0.6166666666666667,-0.002030510257759074,0.12296948974224092,0.06453051025775908
1590500045.2553027,-3.711699316149395,-0.6708496580746975,8.93019589689637,0.2766666666666667,-0.3655555555555556,-0.6166666666666667,-0.05718963703314046,0.06781036296685955,0.11968963703314045
1590500045.2653027,-3.7296191069655134,-0.6803808930344868,8.97057133955173,0.2766666666666667,-0.3655555555555556,-0.6166666666666667,0.06130970926722879,0.06369029073277122,-0.06130970926722879
1590500045.2753026,-3.713283936673612,-0.6967160633263879,8.995074094989581,0.2766666666666667,-0.3655555555555556,-0.6166666666666667,0.010262302105037674,0.11473769789496233,-0.010262302105037674
1590500045.2853026,-3.72,-0.69,9.0,0.27,-0.3588888888888889,-0.6111111111111112,0.0,0.1762772763123302,0.11377727631233021
1590500045.2953026,-3.72,-0.69,9.0,0.27,-0.3588888888888889,-0.6111111111111112,0.0,0.003980534133730618,-0.05851946586626938
1590500045.3053026,-3.7269422747835517,-0.6830577252164484,8.95140407651514,0.27,-0.3588888888888889,-0.6111111111111112,-0.0867784347943952,0.0433892173971976,-0.0625
1590500045.3153026,-3.711257304208008,-0.6612573042080082,8.94874269579199,0.27,-0.3588888888888889,-0.6111111111111112,-0.007858151300050978,-0.11321277304992353,-0.0625
1590500045.3253026,-3.7176413092892866,-0.6752826185785725,8.988206546446431,0.27,-0.3588888888888889,-0.6111111111111112,-0.0477581830580391,-0.029483633883921806,0.033016366116078194
1590500045.3353026,-3.7104596920289854,-0.68,9.019080615942029,0.2837804448470209,-0.3535887177938808,-0.6111111111111112,-0.0625,0.0,0.0625
1590500045.3453026,-3.7247400967589392,-0.6726299516205304,8.983149758102652,0.28444444444444444,-0.3533333333333333,-0.6111111111111112,-0.15462560474337056,0.13818840711505584,0.01643719762831472
1590500045.3553026,-3.7205736456250595,-0.6794263543749406,8.932868228125297,0.28444444444444444,-0.3533333333333333,-0.6111111111111112,-0.06608528515662192,0.0035852851566219174,0.07325585546986575
1590500045.3653026,-3.7295851203345975,-0.6704148796654025,8.980829759330806,0.28444444444444444,-0.3533333333333333,-0.6111111111111112,-0.11981400418246907,0.057314004182469076,0.23962800836493814
1590500045.3753026,-3.722151844894198,-0.6778481551058023,8.995696310211605,0.28444444444444444,-0.3533333333333333,-0.6111111111111112,-0.026898061177471372,-0.03560193882252863,0.053796122354942744
1590500045.3853025,-3.720478680420212,-0.660957360840424,9.030478680420211,0.27,-0.3466666666666667,-0.6022222222222222,-0.12200824737367495,0.002991752626325046,0.1190164947473499
1590500045.3953025,-3.7291343523732903,-0.68,9.034806114239741,0.27,-0.3466666666666667,-0.6022222222222222,-0.06520514883346741,0.05438455349959775,0.005410297666934834
1590500045.4053025,-3.71,-0.6799310729853343,8.92048248910266,0.27,-0.3466666666666667,-0.6022222222222222,-0.1228460307916944,-0.12456920615833889,0.12370761847501664
1590500045.4153025,-3.71,-0.6709248244615749,8.983526228768977,0.27,-0.3466666666666667,-0.6022222222222222,0.15859923557578748,-0.06828015288484249,-0.04515954134547251
1590500045.4253025,-3.7171107920193474,-0.67,8.997110792019347,0.27,-0.3466666666666667,-0.6022222222222222,0.143057549879081,0.11526980048367594,-0.0625
1590500045.4353025,-3.710601946540659,-0.6887961069186825,9.028194160378023,0.27,-0.3393570695316235,-0.6022222222222222,0.007524331758233999,0.070024331758234,0.054975668241766
1590500045.4453025,-3.7269062375259985,-0.6730937624740015,9.013093762474002,0.27,-0.3388888888888889,-0.6022222222222222,0.0,-0.04316398453749028,-0.04316398453749028
1590500045.4553025,-3.7030091517552246,-0.6902431361835815,8.935775167326868,0.27,-0.3388888888888889,-0.6022222222222222,0.04217320038246141,0.06401960114738425,-0.0625
1590500045.4653025,-3.708263005780347,-0.6726054913294798,8.945657514450867,0.27,-0.3388888888888889,-0.6022222222222222,0.005428106936416183,0.18207189306358382,-0.0625
1590500045.4753025,-3.725260131223466,-0.6547398687765342,8.995780393670398,0.27,-0.3388888888888889,-0.6022222222222222,-0.04768791007333076,0.1875,0.032875820146661516
1590500045.4853024,-3.73,-0.6591875483970885,9.01,0.28327090324023885,-0.3572639856830658,-0.6083472544869479,-0.2921887099272108,0.0152334675545919,-0.052344354963605386
1590500045.4953024,-3.73,-0.6979738278043363,9.028986913902168,0.28444444444444444,-0.3588888888888889,-0.6088888888888889,-0.3125,-0.11866821188855087,-0.18116821188855087
1590500045.5053024,-3.721420481460747,-0.665681925842987,8.944204814607467,0.28444444444444444,-0.3588888888888889,-0.6088888888888889,-0.25887800912966713,-0.28586597261099866,-0.08025601825933422
1590500045.5153024,-3.7116565952223586,-0.6850302143329241,8.971717023888207,0.28444444444444444,-0.3588888888888889,-0.6088888888888889,-0.45858511944103486,-0.2603537201397413,-0.010353720139741292
1590500045.5253024,-3.71,-0.69,9.001132086888122,0.28444444444444444,-0.3588888888888889,-0.6088888888888889,-0.279874094915391,-0.1619496379661564,-0.0440251810169218
1590500045.5353024,-3.71,-0.6780751666120398,9.02192483338796,0.27583206477536204,-0.3628638333515423,-0.61021387037644,-0.1875,-0.125,0.01203020867475145
1590500045.5453024,-3.719559991851701,-0.67,8.982200040741496,0.27,-0.3655555555555556,-0.6111111111111112,-0.1875,-0.06525005092686902,0.12224994907313098
1590500045.5553024,-3.7273491960720837,-0.67,8.928555627495413,0.27,-0.3655555555555556,-0.6111111111111112,-0.27936495090104674,-0.0625,0.125
1590500045.5653024,-3.73,-0.67,8.963558209738812,0.27,-0.3655555555555556,-0.6111111111111112,-0.20092039637747736,-0.17407960362252264,0.06921019818873868
1590500045.5753024,-3.708248650067497,-0.6845008999550022,9.006252249887506,0.27,-0.3655555555555556,-0.6111111111111112,-0.23281531235938202,-0.1875,0.017184687640617972
1590500045.5853024,-3.6834963850319147,-0.6982518074840427,9.02,0.2874204824663124,-0.3655555555555556,-0.6092773761146573,-0.35314759355053393,0.018795187101067867,0.05157379677526697
1590500045.5953023,-3.7150451825471813,-0.6824774087264094,8.993716113089615,0.2911111111111111,-0.3655555555555556,-0.6088888888888889,-0.04645141362017585,0.17201619545994137,0.007741902270029313
1590500045.6053023,-3.72,-0.6983989009616585,8.925603846634194,0.2911111111111111,-0.3655555555555556,-0.6088888888888889,0.057496565505182964,0.13000343449481705,0.057496565505182964
1590500045.6153023,-3.729241155561917,-0.6815176888761659,8.984688088933419,0.2911111111111111,-0.3655555555555556,-0.6088888888888889,0.0047427777380185596,0.009485555476037119,0.0625
1590500045.6253023,-3.73,-0.68,9.005466648932632,0.2911111111111111,-0.3655555555555556,-0.6088888888888889,0.16111092638159205,0.09666655582895524,0.030277814723681587
1590500045.6353023,-3.73,-0.6777904975383261,9.024419004923347,0.28963810946999513,-0.3640825539144396,-0.6106073908035242,0.2158342673017652,0.13226243845815155,0.0
1590500045.6453023,-3.7255035503550356,-0.6744964496449646,9.053489348934892,0.28444444444444444,-0.3588888888888889,-0.6166666666666667,-0.0968971897189719,-0.1187056205620562,0.028102810281028102
1590500045.6553023,-3.72,-0.6743404071705958,8.968127329070725,0.28444444444444444,-0.3588888888888889,-0.6166666666666667,-0.09787245518377594,-0.046010179264896256,0.0625
1590500045.6653023,-3.7258024992953116,-0.6641975007046885,8.913209997181246,0.28444444444444444,-0.3588888888888889,-0.6166666666666667,-0.1612656205956967,0.13503124119139343,0.0625
1590500045.6753023,-3.7247550894839625,-0.6809796420641502,8.945734731548113,0.28444444444444444,-0.3588888888888889,-0.6166666666666667,-0.15471930927476527,0.12193861854953052,0.0625
1590500045.6853023,-3.709875369179531,-0.6949376845897656,8.985311577051172,0.2771322110741059,-0.3622637658290452,-0.6245413795270313,-0.21991841394189482,-0.0007789426279298794,0.09413947131396494
1590500045.6953022,-3.346453260015711,-0.7405066771406127,9.053291437549097,0.27,-0.3655555555555556,-0.6322222222222222,-0.4026904948939513,0.1178809897879026,0.07990475255302434
1590500045.7053022,-3.2159935340750807,-0.5622133755223471,8.848239239222025,0.27,-0.3655555555555556,-0.6322222222222222,-0.512419175938505,1.6484239308008461,-0.4993938195387869
1590500045.7153022,-3.3364028644876975,-0.3820694087403599,8.775319500550863,0.27,-0.3655555555555556,-0.6322222222222222,-2.2743068307014322,3.43810824458318,-3.100348879911862
1590500045.7253022,-3.1064548188832224,-1.036146201124624,9.478875811865219,0.27,-0.3655555555555556,-0.6322222222222222,-5.107296979207533,1.5859432893073535,-4.852038925940456
1590500045.7353022,-2.2311209561752987,-1.6463098007968127,9.636234262948207,0.28979498893315625,-0.3540952988047808,-0.6040925011066843,0.4541872509960161,1.8048645418326692,0.2665298804780871
1590500045.7453022,-1.8739054625869145,-0.9812872908205575,8.133537817091582,0.2911111111111111,-0.3533333333333333,-0.6022222222222222,12.51296939122669,7.401706925514045,4.398040304918242
1590500045.7553022,-1.931043588927776,-0.6775712467615108,7.758956411072225,0.2911111111111111,-0.3533333333333333,-0.6022222222222222,5.738500522703514,1.9800790304986142,3.6248821076314712
1590500045.7653022,-2.3919628434616413,-0.7649883885817629,8.884150722374072,0.2911111111111111,-0.3533333333333333,-0.6022222222222222,-3.6072065291107496,-1.4170387287038368,1.5204612712961632
1590500045.7753022,-2.5768608070287313,-0.7790937754632089,9.185468877316046,0.2911111111111111,-0.3533333333333333,-0.6022222222222222,-4.252220834661848,-1.0062683777943104,0.7453479824281716
1590500045.7853022,-2.5683701712071487,-0.6740745719821281,8.821111857973193,0.2880494159099196,-0.35588474600099285,-0.6185512632952433,0.3439662330473292,0.7532373176228697,0.92731357004468
1590500045.7953022,-2.7370920181550114,-0.6853742302911161,9.091386487814749,0.28444444444444444,-0.3588888888888889,-0.6377777777777778,-0.4004600185019225,0.05245403428637507,-0.4697085224480355
1590500045.8053021,-2.8584604443240313,-0.6758744242752642,9.121748848550528,0.28444444444444444,-0.3588888888888889,-0.6377777777777778,-0.9375,-0.9916858574911949,-1.6166858574911949
1590500045.8153021,-2.847348741351391,-0.6781628146621522,9.012046224054174,0.28444444444444444,-0.3588888888888889,-0.6377777777777778,0.43997497423818643,0.2920101575150891,-2.2206407331076106
1590500045.8253021,-2.81593672521563,-0.6739841813039076,8.99,0.28444444444444444,-0.3588888888888889,-0.6377777777777778,0.9003954674023117,0.5874011331494221,-2.8764830027586687
1590500045.835302,-2.808171078211455,-0.6863421564229102,8.985914460894273,0.2871681371815961,-0.3588888888888889,-0.6268830068291711,0.6425153282488411,0.5114307611784059,-3.7606923882159413
1590500045.845302,-2.804750258476238,-0.71,8.934250775428714,0.2911111111111111,-0.3588888888888889,-0.6111111111111112,0.1885405896823416,0.5645811793646832,-5.326027665870441
1590500045.855302,-2.77510922651057,-0.7199271823262866,8.840364088368567,0.2911111111111111,-0.3588888888888889,-0.6111111111111112,-0.09124689246610362,0.5944326656910627,-7.024650898319727
1590500045.865302,-2.7995784179579157,-0.73,8.893893347139528,0.2911111111111111,-0.3588888888888889,-0.6111111111111112,-0.6230238341777301,0.22171424873340484,-8.772357253799786
1590500045.875302,-2.8043847939118076,-0.70964845366389,8.954209020743752,0.2911111111111111,-0.3588888888888889,-0.6111111111111112,-0.7171021265494846,0.4780879495529209,-10.32458440530378
1590500045.885302,-2.880123124430896,-0.6957959539174156,8.96216358525674,0.2911111111111111,-0.3556689144903247,-0.619483044547378,-0.22652816817767923,0.9637752880161526,-11.978067223563878
1590500045.895302,-2.967478393735377,-0.7074783937353769,8.97756481879387,0.2911111111111111,-0.3533333333333333,-0.6255555555555555,-0.1244598433844244,1.2179397650766366,-14.2299187079215
1590500045.905302,-2.9262695094760316,-0.7172884150873281,8.940846339650687,0.2911111111111111,-0.3533333333333333,-0.6255555555555555,0.313578537253809,1.1758422171125975,-15.88881485739502
1590500045.915302,-2.91653962492438,-0.72,8.97577737447066,0.2911111111111111,-0.3533333333333333,-0.6255555555555555,0.6634906231094979,1.1658726557773744,-17.743042952208107
1590500045.925302,-2.8832188962973473,-0.7357633301582798,9.005254443386093,0.2911111111111111,-0.3533333333333333,-0.6255555555555555,0.7171597288369171,1.2203402711630829,-19.616569219544818
1590500045.935302,-2.863444847605225,-0.7455183841315917,9.014481615868409,0.2881233671988389,-0.36229656507014996,-0.6215718970058592,0.771530297532656,1.474080793420416,-21.521323173681665
1590500045.945302,-2.8470842079906395,-0.7729157920093603,8.954168415981279,0.28444444444444444,-0.37333333333333335,-0.6166666666666667,0.7927105199765994,1.7911447400117004,-23.94163168037441
1590500045.955302,-2.7781753981262267,-0.7640876990631134,8.84226309718934,0.28444444444444444,-0.37333333333333335,-0.6166666666666667,0.30463232764726117,1.6505481191444586,-26.082566927699872
1590500045.965302,-2.877369139984701,-0.7768145557862529,8.920665501038139,0.28444444444444444,-0.37333333333333335,-0.6166666666666667,-0.27268194732816087,1.6881932302480602,-28.257625532728664
1590500045.975302,-2.9902491030049334,-0.8011664673344298,8.98,0.28444444444444444,-0.37333333333333335,-0.6166666666666667,-0.1932335270593512,1.9942664729406487,-29.774985050082226
1590500045.985302,-3.0382216633734505,-0.8182216633734507,8.984110831686726,0.2894687942837754,-0.36237111550206574,-0.6203207392770892,0.10277079216813365,2.367348886294234,-31.0541247530088
1590500045.995302,-3.055735820132856,-0.8414716402657128,9.001471640265713,0.2966666666666667,-0.3466666666666667,-0.6255555555555555,0.14245337250894224,2.625,-32.90541964741952
1590500046.005302,-3.111639827484564,-0.854694529771324,8.958360172515436,0.2966666666666667,-0.3466666666666667,-0.6255555555555555,0.3265672996369729,2.859726488566198,-34.329179465698594
1590500046.015302,-3.151483104877271,-0.8476554032515141,8.890741552438636,0.2966666666666667,-0.3466666666666667,-0.6255555555555555,0.856461189034109,3.0478462703219638,-35.62649924290724
1590500046.025302,-3.1668540484785974,-0.8637338834450747,8.926854048478598,0.2966666666666667,-0.3466666666666667,-0.6255555555555555,1.1836642599277978,2.984334708612687,-37.597343991748325
1590500046.035302,-3.218741489581184,-0.9327551062512894,8.991496595832475,0.3103665956032368,-0.3433597872681842,-0.6283900236113976,0.9640731380235197,3.0984268619764803,-39.51126727872911
1590500046.045302,-3.1049664915353183,-0.9303768826619965,8.868802335084647,0.3288888888888889,-0.3388888888888889,-0.6322222222222222,1.2452889667250437,3.2669074722708698,-41.728800350262695
1590500046.055302,-3.18041128316402,-0.9400685471940033,8.883584673044679,0.3288888888888889,-0.3388888888888889,-0.6322222222222222,1.0823336867541178,3.3331905266791595,-43.35773683302101
1590500046.065302,-3.2094017038992253,-0.9622393184403099,8.926119659220154,0.3288888888888889,-0.3388888888888889,-0.6322222222222222,0.4785255584883795,3.4654914805038737,-44.945940363527114
1590500046.075302,-3.2406800240716485,-0.978446670678608,8.959563347375129,0.3288888888888889,-0.3388888888888889,-0.6322222222222222,0.3458750752239017,3.483312462388049,-46.047333533930406
1590500046.0853019,-3.279255908513342,-1.0041895806861498,9.0,0.3275750388253565,-0.3388888888888889,-0.6340616123111676,0.5625,3.4341232528589583,-46.90583545108005
1590500046.0953019,-3.2140541314035733,-1.0694595036591847,9.019459503659185,0.3233333333333333,-0.3388888888888889,-0.64,0.38006715319514295,3.5641890510650476,-48.390204014882045
1590500046.1053019,-3.176028970351866,-1.0956900792037028,8.983099207962972,0.3233333333333333,-0.3388888888888889,-0.64,0.1875,3.3577480199074343,-49.71125990046283
1590500046.1153018,-3.009964068987544,-1.1,8.856163100180986,0.3233333333333333,-0.3388888888888889,-0.64,0.6132342568934313,3.479241522942617,-50.51199031193442
1590500046.1253018,-3.0228445186588866,-1.1180551229854219,8.807082684478132,0.3233333333333333,-0.3388888888888889,-0.64,0.9435777406705567,3.8849779076530515,-51.032111296647216
1590500046.1353018,-3.192663752250101,-1.1493325006428858,8.88666250321443,0.3321473617182812,-0.33318569405156967,-0.6431108335476287,1.0499843870541126,4.154164064509019,-51.63747658058117
1590500046.1453018,-3.1239801005147823,-1.1488400105805032,8.912100026451258,0.3422222222222222,-0.32666666666666666,-0.6466666666666666,1.180250066128146,4.013125165320366,-52.355999603231126
1590500046.1553018,-3.083310485731233,-1.176647334080274,8.870010545047123,0.3422222222222222,-0.32666666666666666,-0.6466666666666666,0.9375988598167798,3.81253295327226,-52.89572348909247
1590500046.1653018,-3.163470137207425,-1.2488127522195318,8.83296811945117,0.3422222222222222,-0.32666666666666666,-0.6466666666666666,0.5884710451977401,3.6875,-53.327340597255855
1590500046.1753018,-3.0961979874898016,-1.2661979874898015,8.930677182485722,0.3422222222222222,-0.32666666666666666,-0.6466666666666666,0.8868812890943704,3.6875,-53.743489937449006
1590500046.1853018,-3.119131050685831,-1.3205687040044225,8.979131050685831,0.35305074725418156,-0.32212567229842565,-0.6533035045894804,0.6875,3.6678514666758804,-54.21968826659296
1590500046.1953018,-3.0817045623737105,-1.3423037328512177,8.899400829522493,0.37666666666666665,-0.31222222222222223,-0.6677777777777778,0.5406120387110497,3.625,-54.79752073806232
1590500046.2053018,-3.1902360299758072,-1.3950236029975807,8.864787573021774,0.37666666666666665,-0.31222222222222223,-0.6677777777777778,0.9401553372278278,4.127360299758069,-54.81131985012097
1590500046.2153018,-3.2102986514154215,-1.4297013485845784,8.83272914939339,0.37666666666666665,-0.31222222222222223,-0.6677777777777778,1.3674046938188464,4.465885632582616,-54.642057183708694
1590500046.2253017,-3.186314519451474,-1.467669354364075,8.852330645635924,0.37666666666666665,-0.31222222222222223,-0.6677777777777778,1.070967718203755,4.177167323877347,-54.851965746571715
1590500046.2353017,-3.2171153014801246,-1.4763462132284826,8.866538485291393,0.3806624076780735,-0.30168799591942236,-0.6703205220577639,0.8100965992136197,4.019231066142413,-54.98317233464397
1590500046.2453017,-3.207724892908139,-1.5257187053783912,8.876856258924322,0.3888888888888889,-0.28,-0.6755555555555556,0.9249613279390766,4.108906473108044,-54.42496132793908
1590500046.2553017,-3.3206913156843862,-1.5958065349651172,8.859769561438537,0.3888888888888889,-0.28,-0.6755555555555556,0.6569701205045688,3.969470120504569,-53.93317927697259
1590500046.2653017,-3.360935980970111,-1.6409359809701105,8.882807942910333,0.3888888888888889,-0.28,-0.6755555555555556,0.7900248215947875,4.1366997621263835,-53.44242553521564
1590500046.2753017,-3.360523598820059,-1.65,8.914738200589971,0.3888888888888889,-0.28,-0.6755555555555556,0.8157724926253688,4.04270372418879,-52.86174870943953
1590500046.2853017,-3.375294217977145,-1.6854119051680028,8.945294217977144,0.4023791384766995,-0.27381696893892016,-0.6755555555555556,1.034559952242879,3.9705888623571552,-52.088968957871394
1590500046.2953017,-3.4,-1.7256482833809885,8.97,0.4155555555555556,-0.2677777777777778,-0.6755555555555556,1.277198228868821,4.054396457737642,-51.26387874642585
1590500046.3053017,-3.371841993870744,-1.73,8.920723489273803,0.4155555555555556,-0.2677777777777778,-0.6755555555555556,1.2719984422884814,4.0,-50.76151246169215
1590500046.3153017,-3.308718539865514,-1.7370509125840539,8.837050912584054,0.4155555555555556,-0.2677777777777778,-0.6755555555555556,1.241990874159462,3.9559317963496636,-50.358177233429394
1590500046.3253016,-3.225853771268452,-1.78,8.896975474477857,0.4155555555555556,-0.2677777777777778,-0.6755555555555556,0.7594516422566947,3.6875,-49.69817214085565
1590500046.3353016,-3.195563018170263,-1.78,8.933324378195683,0.4155555555555556,-0.2677777777777778,-0.6755555555555556,0.6458613181384869,3.6875,-49.31953772712829
1590500046.3453016,-3.24,-1.820154440952696,8.977505788951373,0.4155555555555556,-0.2411111111111111,-0.6755555555555556,0.6611486416639101,3.9101833857095603,-48.61134169285478
1590500046.3553016,-3.2481337269608237,-1.8681337269608236,8.84051065187904,0.4155555555555556,-0.2411111111111111,-0.6755555555555556,0.36333579350514644,3.3972263225085775,-48.28708210324743
1590500046.3653016,-3.2624246049128955,-1.92,8.78,0.4155555555555556,-0.2411111111111111,-0.6755555555555556,0.6448006874010176,3.7667027496040704,-48.14634965629949
1590500046.3753016,-3.1738980509745125,-1.9262618690654671,8.831884057971013,0.4155555555555556,-0.2411111111111111,-0.6755555555555556,0.42272613693153427,3.2921351824087957,-48.1875
1590500046.3853016,-3.021095112113458,-1.962262219716355,9.201894652383224,0.4189457287013344,-0.23433076481955348,-0.6832604945232347,-0.7399583098408292,2.124550028191005,-48.01413887322722
1590500046.3953016,-3.0556569103556894,-1.8843430896443103,8.739087806798791,0.42777777777777776,-0.21666666666666667,-0.7033333333333334,0.9451371571072318,3.715325173907337,-47.13823172332327
1590500046.4053016,-3.0457461965708763,-1.9306345085728085,8.783818924575383,0.42777777777777776,-0.21666666666666667,-0.7033333333333334,2.2620454499718265,4.853775507123883,-46.390936921436044
1590500046.4153016,-2.9985987987062988,-2.0047983982750655,8.971592792237793,0.42777777777777776,-0.21666666666666667,-0.7033333333333334,0.31873748652394884,3.1737024487910057,-46.92250500539042
1590500046.4253016,-3.034526368407898,-1.9925830080941302,8.830639647780362,0.42777777777777776,-0.21666666666666667,-0.7033333333333334,0.9114380058831446,3.564727808432507,-46.52813719647011
1590500046.4353015,-3.1663141240770925,-2.055051299261674,8.786245725061526,0.43528632765472347,-0.2037352752119269,-0.7062533249521455,2.0,4.72610828778726,-45.82807156326909
1590500046.4453015,-3.2701306923529145,-2.1705227694116584,8.845849500293944,0.4477777777777778,-0.18222222222222226,-0.7111111111111111,1.1768812463256908,3.7459158639714194,-45.90829206801429
1590500046.4553015,-3.29394119277498,-2.2053529357416735,8.86817642167506,0.4477777777777778,-0.18222222222222226,-0.7111111111111111,0.34595584838545757,3.4665441516145425,-46.120588303229084
1590500046.4653015,-3.294152329484284,-2.1762284942264256,8.788304658968567,0.4477777777777778,-0.18222222222222226,-0.7111111111111111,0.6344058073504887,3.772381836988875,-45.93988014819193
1590500046.4753015,-3.2306989076734807,-2.1641852875855507,8.830694828445814,0.4477777777777778,-0.18222222222222226,-0.7111111111111111,0.936052440737887,3.979657684811676,-45.600289511852424
1590500046.4853015,-3.146934407889285,-2.2107541228142873,8.993770614071433,0.44931875730872994,-0.18222222222222226,-0.7126520906420633,0.3844265351785862,3.4133199013839395,-45.61526658448662
1590500046.4953015,-3.1520541562563307,-2.1702113579579985,8.830211357957998,0.4544444444444444,-0.18222222222222226,-0.7177777777777777,0.2141265446687825,3.2881440340333583,-45.16087345533122
1590500046.5053015,-3.0511709764569663,-2.159730605943651,8.788829023543034,0.4544444444444444,-0.18222222222222226,-0.7177777777777777,1.0917744114241605,3.849093014280201,-43.84177441142416
1590500046.5153015,-3.050482102464041,-2.1925298292265984,8.716143180287673,0.4544444444444444,-0.18222222222222226,-0.7177777777777777,0.6814737191994888,3.5436754269335036,-43.191258871065216
1590500046.5253015,-3.049169719169719,-2.1681006647673318,8.613232939899607,0.4544444444444444,-0.18222222222222226,-0.7177777777777777,0.5025946275946276,3.6105345272011937,-42.36981074481074
1590500046.5353014,-2.87229269216206,-2.23393495729732,9.0298373932433,0.4544444444444444,-0.17610117753750218,-0.7260849098498978,0.6310977533762463,3.2294716858092474,-41.23973584290462
1590500046.5453014,-2.781438919986829,-2.2391727033256505,9.01122324662496,0.4544444444444444,-0.1511111111111111,-0.76,-0.5366469789265723,2.376347958511689,-40.48448818735594
1590500046.5553014,-2.7438982472600113,-2.2302057657042944,8.753898247260011,0.4544444444444444,-0.1511111111111111,-0.76,0.9701879611070834,3.8355780097232293,-39.03268796110709
1590500046.5653014,-2.7434758099824865,-2.240484347635727,8.78948719352014,0.4544444444444444,-0.1511111111111111,-0.76,0.3374288528896673,3.4873577057793343,-38.343661066112084
1590500046.5753014,-2.7003531797702314,-2.2152472258391622,8.752588294942559,0.45864054275863037,-0.15418824987484747,-0.76,0.29853053017296016,3.220736636207552,-37.54367430833228
1590500046.5853014,-2.797014968369381,-2.2829104778585667,8.776753742092344,0.4666956918085595,-0.16009535917812884,-0.76,0.7516326642314739,3.7644591970777688,-36.667676849152485
1590500046.5953014,-2.8286138256336186,-2.332831704619829,8.82421787898621,0.4711111111111111,-0.16333333333333333,-0.76,0.9465345640840461,4.009034564084046,-35.920172820420234
1590500046.6053014,-2.824355955848161,-2.3459406740253064,8.849703370126532,0.4711111111111111,-0.16333333333333333,-0.76,0.49443818987248833,3.480825827846986,-35.486387637974495
1590500046.6153014,-2.8741776823862155,-2.361266523579323,8.7739225322448,0.4711111111111111,-0.16333333333333333,-0.76,0.22548417347000183,3.1890946883838485,-35.15347371271538
1590500046.6253014,-2.9063043665489623,-2.4126087330979242,8.71942037722849,0.4711111111111111,-0.16333333333333333,-0.76,0.841938678839032,3.875,-34.60552493325295
1590500046.6353014,-2.933309836994147,-2.455586884007804,8.833309836994147,0.47601457332466207,-0.1654173047740925,-0.7647808756582122,1.0702766064572975,3.8129405563597456,-33.93838111271949
1590500046.6453013,-2.959707344703883,-2.420390207061489,8.859707344703883,0.515121992153901,-0.18203795777651907,-0.8029106090167202,0.13536487507080386,3.3179872868021905,-32.94847457360438
1590500046.6553013,-2.8930396336649298,-2.4395594504973945,8.802599084162324,0.5155555555555555,-0.18222222222222226,-0.8033333333333333,-0.05836984841307438,3.332874427601453,-32.65225801357966
1590500046.6653013,-2.911985998887762,-2.4853426674081587,8.845957996663286,0.5155555555555555,-0.18222222222222226,-0.8033333333333333,-0.1369749582910792,3.4417833426019824,-31.327883231378195
1590500046.6753013,-2.8914048545912525,-2.499063430272498,8.784214563773757,0.5155555555555555,-0.18222222222222226,-0.8033333333333333,0.6348179528280282,3.6132928784062286,-29.441278337531486
1590500046.6853013,-2.76,-2.467332404887004,8.798002785338987,0.5084419685875659,-0.19141060538920895,-0.7979981431073411,0.20827530543774134,2.9333101221750963,-28.012395549787936
1590500046.6953013,-2.8133816631130064,-2.4981297593664333,8.785683216570211,0.4888888888888889,-0.21666666666666667,-0.7833333333333333,-0.10701340237587573,2.821493298812062,-26.639384709107524
1590500046.7053013,-2.814150590498584,-2.517075295249292,8.751462352375354,0.4888888888888889,-0.21666666666666667,-0.7833333333333333,-0.009139702345962702,2.6692205953080745,-25.385906522203815
1590500046.7153013,-2.5993487290962705,-2.40623248606418,8.75181370122463,0.4888888888888889,-0.21666666666666667,-0.7833333333333333,-0.2909882594752814,2.5572700320685278,-24.067729967931474
1590500046.7253013,-2.5503499327052492,-2.396887617765814,8.693775235531628,0.4888888888888889,-0.21666666666666667,-0.7833333333333333,-0.5214081426648721,3.062731325706595,-22.898826547779272
1590500046.7353013,-2.5534364869732262,-2.4587990755192703,8.831676671869372,0.48595586371579885,-0.21666666666666667,-0.7770762129640747,-1.4079965331972626,1.6984988443990876,-21.934526578820986
1590500046.7453012,-2.682973981161988,-2.483784388697193,8.91243495290497,0.4722222222222222,-0.21666666666666667,-0.7477777777777778,-1.0895446703347944,1.8851300941900588,-20.260153408561038
1590500046.7553012,-2.614802153982482,-2.4380791384070073,8.808755325312703,0.4722222222222222,-0.21666666666666667,-0.7477777777777778,0.6377019358576735,1.4396365154561876,-18.853462305306568
1590500046.7653012,-2.473687513525211,-2.2948647478900672,9.010528024237178,0.4722222222222222,-0.21666666666666667,-0.7477777777777778,5.187838130274832,-4.223571737719109,-17.332544362692058
1590500046.7753012,-1.9937897331293557,-1.9813691993880673,7.743723440421554,0.4722222222222222,-0.21666666666666667,-0.7477777777777778,5.296192418833928,1.3284144994050655,-15.4375
1590500046.7853012,-1.9225080348273242,-2.082505697423012,9.512533161923685,0.4808328301421272,-0.2125002434796159,-0.750833154781615,-6.234419739379419,6.515784783497926,-15.578116782562963
1590500046.7953012,-1.875685393258427,-2.0377223631750634,8.737975836655792,0.5066666666666667,-0.2,-0.76,-1.4307856107285248,-0.26211338649269056,-15.090701643107407
1590500046.8053012,-2.534920187332957,-2.469523575999804,10.149365176666748,0.5066666666666667,-0.2,-0.76,0.631952958340485,5.135897616653998,-13.197422945835275
1590500046.8153012,-2.67,-2.54,10.12,0.5066666666666667,-0.2,-0.76,-1.9375,9.6875,-12.5
1590500046.8253012,-2.6399617868236063,-2.5520152852705573,9.507220451201569,0.5066666666666667,-0.2,-0.76,-1.7122134011770476,1.464539142962236,-13.438694161762301
1590500046.8353012,-2.683612102530824,-2.5963497728747567,8.854639033095392,0.5066666666666667,-0.2,-0.76,-2.584837362102531,0.7141111696950038,-13.267348718364698
1590500046.8453012,-2.6977137246514884,-2.589399607256042,8.999407578791827,0.4511111111111111,-0.2344444444444445,-0.8388888888888889,0.8411282639550484,1.6965457488382945,-12.030119281395214
1590500046.8553011,-2.4820631622688554,-2.4420631622688553,8.271321074866682,0.4511111111111111,-0.2344444444444445,-0.8388888888888889,-0.2060197208947988,0.8432565447745689,-12.118717102984972
1590500046.8653011,-2.5369828771996397,-2.515917563914054,8.831360812028649,0.4511111111111111,-0.2344444444444445,-0.8388888888888889,0.47152030071621687,-0.09467343357207228,-11.731142982497747
1590500046.8753011,-2.4415314556179073,-2.4656456962547284,8.991142406368215,0.4511111111111111,-0.2344444444444445,-0.8388888888888889,0.1788595657708375,0.5086404342291625,-11.099285996019864
1590500046.885301,-2.402977017637627,-2.4677434526990916,9.273737039016568,0.4461177029514816,-0.23512536373893944,-0.829582991864125,-1.7116982896846606,2.3140833778727954,-10.84946552645644
1590500046.895301,-2.240596914822267,-2.342862412570662,8.416577560601706,0.37777777777777777,-0.24444444444444444,-0.7022222222222222,-0.8723352016863083,0.7195494394941075,-10.232109921433363
1590500046.905301,-2.4281354795439305,-2.4567251125802434,8.91221519593753,0.37777777777777777,-0.24444444444444444,-0.7022222222222222,-0.035109466321739946,0.9707171601034781,-9.520468046373479
1590500046.915301,-2.3020065718979925,-2.4141069004928926,8.48382563040217,0.37777777777777777,-0.24444444444444444,-0.7022222222222222,-0.2725328594899636,0.5724917851275091,-8.444356516536896
1590500046.925301,-2.4518137009786414,-2.5714043860275733,9.0680734338167,0.37777777777777777,-0.24444444444444444,-0.7022222222222222,-1.0215685048932066,0.38523287377669835,-8.023023965997572
1590500046.935301,-2.382080914201456,-2.46,8.888208152858416,0.37955040839383297,-0.2398201906634309,-0.6975979684412087,-0.327312382883298,0.827312382883298,-6.747471431204497
1590500046.945301,-2.376232787360487,-2.4487442624534954,8.656837705947723,0.4033333333333333,-0.17777777777777778,-0.6355555555555555,0.013519471420978868,0.169912910083587,-5.787064550417935
1590500046.955301,-2.29,-2.422776652172923,8.586619391262778,0.4033333333333333,-0.17777777777777778,-0.6355555555555555,-0.4029184783845926,-0.25678967377694817,-5.354251087030756
1590500046.965301,-2.294950917420074,-2.4101963303197036,8.887524541289963,0.4033333333333333,-0.17777777777777778,-0.6355555555555555,0.14415281043216904,-0.7858514918680466,-4.611368979809487
1590500046.975301,-2.316359428182437,-2.3605990469707283,8.913916950306332,0.4033333333333333,-0.17777777777777778,-0.6355555555555555,-0.8580071477195371,0.34677501701837987,-3.894009530292716
1590500046.985301,-2.327871232779686,-2.391408789885611,9.026355136877147,0.4046809741355904,-0.17614937847505047,-0.6335340943521699,-0.56565853313029,-0.6464390693062294,-3.4684146686970996
1590500046.995301,-2.1677062871508617,-2.304154504974753,9.121427871402092,0.43,-0.14555555555555555,-0.5955555555555555,0.3220819928840787,0.5884656560922087,-2.4921370667064364
1590500047.005301,-2.230175829943577,-2.361550190263745,9.375733368324367,0.43,-0.14555555555555555,-0.5955555555555555,3.8923533657000395,2.959422975987403,-0.9724084765778769
1590500047.015301,-2.073927926626706,-2.190938831515852,8.490860114104137,0.43,-0.14555555555555555,-0.5955555555555555,3.7077525817866688,2.375397197949014,-0.30379324041308586
1590500047.025301,-2.2,-2.39,9.38,0.43,-0.14555555555555555,-0.5955555555555555,-5.25,-6.375,-2.875
1590500047.035301,-2.096732966567922,-2.369346593313584,9.655378755818875,0.43,-0.14555555555555555,-0.5955555555555555,-8.348011002962336,-6.5901396529834955,-3.34830723656369
1590500047.045301,-2.051572007140252,-2.1811228622430376,8.828951995239832,0.44222222222222224,-0.13111111111111112,-0.6111111111111112,2.743917829516881,0.6315500297510509,0.007485748286915296
1590500047.055301,-2.220635328893069,-2.3018823777807635,8.716243114071286,0.44222222222222224,-0.13111111111111112,-0.6111111111111112,2.0898037870208643,1.335980537054454,0.8125491852050903
1590500047.065301,-2.307959795736403,-2.423879387209208,8.97755775310043,0.44222222222222224,-0.13111111111111112,-0.6111111111111112,-1.298492340115101,-1.8699744670503364,0.7295229796546973
1590500047.075301,-2.2949604360113036,-2.397480218005652,8.824485668146952,0.44222222222222224,-0.13111111111111112,-0.6111111111111112,-0.7165245256358499,-0.7490109002826,1.9557213867581753
1590500047.085301,-2.288143936587895,-2.3954292910585973,8.64719275501889,0.44523849503255386,-0.12930134742491214,-0.6083964655818127,0.03451181569005113,-0.4541771612712053,2.9770885806356024
1590500047.095301,-2.3580541151196384,-2.442036076746426,8.794780909697016,0.4711311537480143,-0.1137657521956359,-0.5850930727378983,-0.742267945773761,-1.133859452552041,3.3169297262760207
1590500047.105301,-2.4014415905221,-2.4689963306712714,8.903102141640884,0.4755555555555556,-0.1111111111111111,-0.5811111111111111,0.0076414370338393645,-1.5472171259323213,4.567404429575269
1590500047.115301,-2.3372038509836752,-2.3927961490163248,8.711398074508164,0.4755555555555556,-0.1111111111111111,-0.5811111111111111,0.07123796567601506,-1.4637138970280452,5.6398074508162415
1590500047.125301,-2.3121962182269065,-2.4021962182269063,8.729364538127713,0.4755555555555556,-0.1111111111111111,-0.5811111111111111,0.10549054556726596,-1.664018908865468,6.6365661810291385
1590500047.1353009,-2.2760808018185577,-2.3660808018185575,8.772703037817731,0.4755555555555556,-0.1111111111111111,-0.5811111111111111,0.015202004546393894,-1.8445959909072123,7.268585968175243
1590500047.1453009,-2.344935595567867,-2.411559325946445,8.856752539242844,0.4977777777777778,-0.09222222222222222,-0.6111111111111112,0.25813567636195756,-1.6663983148661126,8.469957583102493
1590500047.1553009,-2.3320421963754394,-2.3820421963754397,8.865915607249121,0.4977777777777778,-0.09222222222222222,-0.6111111111111112,-0.5330109999098368,-1.587587909115499,9.04621427283383
1590500047.1653008,-2.40776408973326,-2.457018786311013,8.727141978711675,0.4977777777777778,-0.09222222222222222,-0.6111111111111112,0.015918536109579745,-1.75,9.796581463890421
1590500047.1753008,-2.381083923497731,-2.421445231330308,8.931689919850728,0.4977777777777778,-0.09222222222222222,-0.6111111111111112,-0.5399182604639329,-1.75,10.352418260463933
1590500047.1853008,-2.4424095451221945,-2.42,8.850843506968294,0.4977777777777778,-0.09222222222222222,-0.6111111111111112,-0.00527191855183573,-1.5271087674207342,11.15511931402743
1590500047.1953008,-2.3470134924198685,-2.3645457266876218,8.721169414330618,0.48721505905161056,-0.10190471438787559,-0.5996681658244298,-0.23457646417345562,-1.846589208202365,11.695614696260183
1590500047.2053008,-2.3465182685977615,-2.396406970046083,8.776184372942726,0.4844444444444445,-0.10444444444444444,-0.5966666666666667,-0.5611087681040158,-1.813195615947992,12.185413152156023
1590500047.2153008,-2.3794033249829196,-2.487911637440219,8.713281712593943,0.4844444444444445,-0.10444444444444444,-0.5966666666666667,-0.141781484855386,-1.8712707811432476,12.799447734001367
1590500047.2253008,-2.4150875547750177,-2.3777198247199443,8.794210131460042,0.4844444444444445,-0.10444444444444444,-0.5966666666666667,-0.5635944346877184,-1.9188594434687718,12.330046121843509
1590500047.2353008,-2.2365202769535113,-2.338061655126937,8.934801516650182,0.4844444444444445,-0.10444444444444444,-0.5966666666666667,0.45924826904055394,-3.5498310253874052,12.175385344543356
1590500047.2453008,-2.28622593489594,-2.2511760600960553,8.84897007512007,0.5099402049724286,-0.10444444444444444,-0.5966666666666667,-0.4065617174992817,-0.3290274414022414,11.586087906900374
1590500047.2553008,-2.2616610279297436,-2.38734235531241,9.118406636913331,0.5188888888888888,-0.10444444444444444,-0.5966666666666667,-1.2419063129858912,-2.381440307371149,9.920889720702563
1590500047.2653008,-2.299401274114598,-2.326957961416643,8.627783436510223,0.5188888888888888,-0.10444444444444444,-0.5966666666666667,0.36205414987042905,-1.1077069986323065,9.543487258854016
1590500047.2753007,-2.1639680599369084,-2.319946766561514,8.923861593059936,0.5188888888888888,-0.10444444444444444,-0.5966666666666667,-0.7371007492113565,-1.5185171037066245,7.561834582018927
1590500047.2853007,-2.1143509463722396,-2.2372515772870663,8.708854100946372,0.5188888888888888,-0.10444444444444444,-0.5966666666666667,-0.1168868296529968,-1.156725650630915,6.528144716088328
1590500047.2953007,-2.2793217640503105,-2.2572982009234197,8.99540359815316,0.5433333333333333,-0.10444444444444444,-0.6255555555555555,-0.5261701958286897,-1.0016816589715014,4.846272488457252
1590500047.3053007,-2.130766711260783,-2.3030995986529503,8.876965908566683,0.5433333333333333,-0.10444444444444444,-0.6255555555555555,0.17312416386031276,-0.5577080546201043,4.0964530377819806
1590500047.3153007,-2.137333488210013,-2.2226665117899875,8.729332791264955,0.5433333333333333,-0.10444444444444444,-0.6255555555555555,-0.030553780926936926,-0.5277761644790335,2.955558136833546
1590500047.3253007,-2.0801592131610978,-2.2785670815501198,8.927293376261337,0.5433333333333333,-0.10444444444444444,-0.6255555555555555,-0.6745639306608033,-1.1200245887156937,1.9950245887156937
1590500047.3353007,-2.0883933409242608,-2.204459931681652,8.787313204287566,0.5433333333333333,-0.10444444444444444,-0.6255555555555555,-0.005541049903804662,-0.8627080961168478,1.7377080961168478
1590500047.3453007,-2.098844299268938,-2.2888442992689377,8.891926167885105,0.6433333333333333,-0.16444444444444445,-0.6522222222222223,-0.7019462591382797,-0.09620793798931923,1.0263843521543008
1590500047.3553007,-2.072219073519665,-2.262219073519665,8.914480654523848,0.6433333333333333,-0.16444444444444445,-0.6522222222222223,-0.9515463240167288,-0.8750885572594099,0.020980928765683207
1590500047.3653007,-2.091472318380982,-2.283680795952456,8.712944636761966,0.6433333333333333,-0.16444444444444445,-0.6522222222222223,-0.12231293422740808,-0.375,-0.9137218886925367
1590500047.3753006,-2.1071021349577146,-2.3292755337394286,8.752897865042286,0.6433333333333333,-0.16444444444444445,-0.6522222222222223,-0.820665030457153,-0.3478325152285765,-2.305225767342835
1590500047.3853006,-2.0740286238098053,-2.321007155952451,8.785971376190194,0.6433333333333333,-0.16444444444444445,-0.6522222222222223,-0.20053669643385186,-0.03776834821692593,-3.6488371577266543
1590500047.3953006,-2.0841107786616067,-2.296466467196964,8.87706706560607,0.9277777777777778,-0.3233333333333333,-0.76,-0.2609693132890608,0.06986152667299131,-6.176822593592644
1590500047.4053006,-2.040914480891925,-2.2809737707031,8.92085519108075,0.9277777777777778,-0.3233333333333333,-0.76,0.09070696655281305,0.15929303344718695,-8.711844267577495
1590500047.4153006,-2.047672069343301,-2.3620648321196107,8.853279306566991,0.9277777777777778,-0.3233333333333333,-0.76,-0.1627026003737836,0.4127026003737836,-10.739120802990268
1590500047.4253006,-2.0762572820169996,-2.381247572661,8.865009709355999,0.9277777777777778,-0.3233333333333333,-0.76,-0.9064320504249833,0.773513354343743,-14.829065593862413
1590500047.4353006,-2.1047085580609526,-2.404708558060953,8.820582883878094,0.9277777777777778,-0.3233333333333333,-0.76,-0.1763813979682457,1.2757854636428618,-18.606974408127016
1590500047.4453006,-2.1588942542273073,-2.4516586186590397,8.797235635568269,1.0766666666666669,-0.91,-1.242222222222222,-0.038311811222343735,1.3991881887776563,-24.21048098763355
1590500047.4553006,-2.1447803482796335,-2.47282947758055,8.761950870699083,1.0766666666666669,-0.91,-1.242222222222222,0.2704298813830235,1.7079298813830235,-27.69485151846555
1590500047.4653006,-2.1782684878587197,-2.5756712196467992,8.759567121964679,1.0766666666666669,-0.91,-1.242222222222222,0.4347945122792495,2.290856098233996,-33.419382933222956
1590500047.4753006,-2.1516499442586396,-2.5610999628390934,8.778900037160906,1.0766666666666669,-0.91,-1.242222222222222,0.6737504645113341,2.430625232255667,-38.05469620958751
1590500047.4853005,-2.1084243812245242,-2.6348361137958567,8.838205866285666,1.0766666666666669,-0.91,-1.242222222222222,0.4276523826532756,2.4375,-42.26218378367021
1590500047.4953005,-2.069698504819988,-2.670301495180012,8.79105523313004,0.5811111111111111,-0.3944444444444444,-0.7377777777777778,1.0568469653747787,3.3125,-47.326315967440486
1590500047.5053005,-2.05,-2.6896256356477175,8.854758899068045,0.5811111111111111,-0.3944444444444444,-0.7377777777777778,0.7015386632105899,3.3218591088070597,-52.49500262173767
1590500047.5153005,-2.05,-2.6813265003264806,8.738571004570728,0.5811111111111111,-0.3944444444444444,-0.7377777777777778,1.0127562377569799,3.5293374918379863,-56.54083109084074
1590500047.5253005,-2.010132367914922,-2.6899669080212694,8.86950362031904,0.5811111111111111,-0.3944444444444444,-0.7377777777777778,0.5641545989365313,4.185431751329336,-62.73159258683109
1590500047.5353005,-2.01,-2.73067569144591,8.853729723421635,0.5811111111111111,-0.3944444444444444,-0.7377777777777778,0.7150338429221612,4.645101528766483,-67.37685990197222
1590500047.5453005,-1.990011050266434,-2.76,8.810013260319721,0.5488888888888889,-0.1288888888888889,-0.6944444444444444,1.1250276256660856,5.375041438499128,-74.56378459347297
1590500047.5553005,-2.0371633661081106,-2.76,8.867730692886488,0.5488888888888889,-0.1288888888888889,-0.6944444444444444,1.25,5.569591584729723,-80.486101494099
1590500047.5653005,-1.940355444767576,-2.76,8.79028435581406,0.5488888888888889,-0.1288888888888889,-0.6944444444444444,1.25,5.81161138808106,-84.27774507993661
1590500047.5753005,-1.8980116237410931,-2.8240929899287446,8.75,0.5488888888888889,-0.1288888888888889,-0.6944444444444444,1.4002179451454957,6.1878632419091595,-91.1070468930377
1590500047.5853004,-1.9058318075636087,-2.8808226529452616,8.79665446050887,0.5488888888888889,-0.1288888888888889,-0.6944444444444444,1.5468463918176654,7.015424742723657,-95.51999415998485
1590500047.5953004,-1.8674333581242417,-2.976890437233335,8.848242846518183,0.561050786567677,-0.08159262013804622,-0.7032280372124581,1.8150296512310642,7.714523720984851,-101.15702186166673
1590500047.6053004,-1.8228069136334266,-2.997075884844569,8.80842074090028,0.5688888888888889,-0.05111111111111112,-0.7088888888888889,1.8658621401392779,7.740862140139278,-106.5362036937325
1590500047.6153004,-1.8224510577021977,-3.0796084616175814,8.71397024034011,0.5688888888888889,-0.05111111111111112,-0.7088888888888889,1.9292286659581033,8.115505108513046,-112.12808353618816
1590500047.6253004,-1.7199845040010162,-3.147858249714213,8.750724247427918,0.5688888888888889,-0.05111111111111112,-0.7088888888888889,2.147342182141496,8.522342182141497,-117.99162485710657
1590500047.6353004,-1.6148666018982138,-3.2752223301696435,8.861829708791072,0.5688888888888889,-0.05111111111111112,-0.7088888888888889,2.1875,8.979907767232145,-123.81051335226564
1590500047.6453004,-1.6,-3.315808393956351,8.808862227196418,0.564497668345458,-0.014224858546291123,-0.7036194242367717,1.8416913822048127,9.507111080022383,-129.04790710688303
1590500047.6553004,-1.6094314497452524,-3.3294314497452526,8.780568550254747,0.5633333333333334,-0.004444444444444445,-0.7022222222222222,2.457358730893932,10.332358730893933,-135.2569042380732
1590500047.6653004,-1.5537687682407961,-3.358115615879602,8.737826576180597,0.5633333333333334,-0.004444444444444445,-0.7022222222222222,2.456069350188122,10.506791949435634,-139.07695198495026
1590500047.6753004,-1.4873021447812595,-3.3443812868687557,8.694381286868756,0.5633333333333334,-0.004444444444444445,-0.7022222222222222,2.971223190234255,10.882733914140553,-144.29856233163977
1590500047.6853004,-1.487836853605244,-3.285142024763292,8.791879096868172,0.5633333333333334,-0.004444444444444445,-0.7022222222222222,3.0625,10.986480335032775,-147.87632010196648
1590500047.6953003,-1.39,-3.21,8.8,0.5133333333333333,0.042222222222222223,-0.6377777777777778,3.125,11.6875,-151.5625
1590500047.7053003,0.12196293754289655,-3.0314516129032256,7.041108442004119,0.5133333333333333,0.042222222222222223,-0.6377777777777778,-3.5230782429649974,32.70017587508579,-157.03133579272478
1590500047.7153003,7.336297839260086,-1.4644327061074789,-3.3433292138414927,0.5133333333333333,0.042222222222222223,-0.6377777777777778,-47.35836962804975,44.984498335592406,-296.6839432008452
1590500047.7253003,1.4221102879401206,-1.3566791415260062,-0.5912968761933859,0.5133333333333333,0.042222222222222223,-0.6377777777777778,-43.7310251661193,-66.92251107462002,-443.1651980065684
1590500047.7353003,-0.24216805750640338,-1.696037346112534,-0.1539626538874659,0.5133333333333333,0.042222222222222223,-0.6377777777777778,-44.81716826406676,-16.763292158968852,-442.96135772122614
1590500047.7453003,-0.1929974719341846,-1.2384270288799384,-0.08299747193418458,0.5439394264004341,0.17705447005836927,-0.6427409280048753,-43.54437773159654,-16.522109863741537,-426.74046485345787
1590500047.7553003,0.8370514657980456,-5.704614983713355,9.756307491856678,0.5544444444444444,0.22333333333333333,-0.6444444444444445,-33.52694625407166,0.8157003257328981,-402.50949511400654
1590500047.7653003,-0.06262609013844012,-1.423332316887235,0.5105013112154655,0.5544444444444444,0.22333333333333333,-0.6444444444444445,47.10275126547539,114.2091960419589,-370.24238427761173
1590500047.7753003,3.7621647054557323,-0.18533352673471976,13.767492611462657,0.5544444444444444,0.22333333333333333,-0.6444444444444445,87.69165435243777,155.16978224212644,-350.01875691258863
1590500047.7853003,1.8076920171673825,0.32425304721030046,3.892379399141632,0.5544444444444444,0.22333333333333333,-0.6444444444444445,153.6187811158798,79.63581545064379,-315.5835300429185
1590500047.7953002,0.00486429906542056,-0.08528186915887853,-1.8179957009345795,0.45809092419522324,0.3455207684319834,-0.6360658774662513,102.7023703271028,14.108688084112153,-274.83546261682244
1590500047.8053002,0.25291546534425097,-0.13556567869911196,-0.5975942797831854,0.4011111111111111,0.4177777777777778,-0.6311111111111111,20.985144447007265,21.77096788144389,-231.26305356936916
1590500047.8153002,3.3701960299955886,-1.946865284516983,21.511389325099255,0.4011111111111111,0.4177777777777778,-0.6311111111111111,-43.64927878253199,31.025542567269518,-205.02686479929423
1590500047.8253002,-0.34356387306753433,-1.7906834825061024,8.419739625711959,0.4011111111111111,0.4177777777777778,-0.6311111111111111,-106.83223148901546,7.880746541903989,-165.69034784377544
1590500047.8353002,0.041401270284023406,-1.737656194048135,8.017024256016887,0.4011111111111111,0.4177777777777778,-0.6311111111111111,-32.824774072259174,10.026340960063326,-136.83515991631958
1590500047.8453002,0.65,-0.97,4.45,0.37333333333333335,0.4622222222222222,-0.6222222222222222,47.75,20.0625,-95.1875
1590500047.8553002,0.65,-0.97,4.45,0.37333333333333335,0.4622222222222222,-0.6222222222222222,47.75,20.0625,-95.1875
1590500047.8653002,1.2659717087285003,-3.04190483845041,12.233642501205594,0.37333333333333335,0.4622222222222222,-0.6222222222222222,-11.513944703423888,-5.078011975566628,-47.70634745217811
1590500047.8753002,0.4879846576380339,-2.6519535940903496,11.041349180793635,0.37333333333333335,0.4622222222222222,-0.6222222222222222,-37.04767023392367,-2.6715124538308554,-26.05068188275405
1590500047.8853002,0.257021010751981,-2.6204672344063393,10.37476638279683,0.37333333333333335,0.4622222222222222,-0.6222222222222222,-23.1493214250485,-1.5144931854798935,-11.440606196363397
1590500047.8953001,0.1855903365682428,-2.1478856080941564,7.685423497831922,0.35594273521921677,0.48050464588065245,-0.6257895243994769,13.166296716911004,2.351210510014454,5.486947656411315
1590500047.9053001,0.31536349802801156,-2.8776208813390887,9.331646222167013,0.33,0.5077777777777778,-0.6311111111111111,11.472260178255333,-5.554278205645787,28.921339787584238
1590500047.9153001,0.21310121750311406,-2.6768895407240727,9.647462128822276,0.33,0.5077777777777778,-0.6311111111111111,-14.99026851368184,-1.2290703981998634,46.098633322618234
1590500047.9253001,0.11487802735875985,-2.51,8.11501679731243,0.33,0.5077777777777778,-0.6311111111111111,-6.433572393122983,-3.691422117559229,61.783106075576924
1590500047.9353,0.09660927356239254,-2.6620132919350286,7.75351004593159,0.33,0.5077777777777778,-0.6311111111111111,3.843046752713556,-3.3383268969233533,79.7695401708963
1590500047.9453,0.19789004249178227,-3.1603513589353005,9.730811953820252,0.33703784619221966,0.5128962113721194,-0.6259926775167696,-3.8134558145594486,-7.75068272468532,94.78131263529224
1590500047.9553,0.1045277910495302,-3.213518076126772,9.403551520942825,0.3422222222222222,0.5166666666666667,-0.6222222222222222,-1.1467888995062907,-8.505295429208473,114.43606665074057
1590500047.9653,0.08175567746674794,-3.154122161266626,9.101144871133618,0.3422222222222222,0.5166666666666667,-0.6222222222222222,-0.7084866991763179,-9.623561096262954,124.64500789296822
1590500047.9753,0.05322573025746004,-3.0887095504291,8.7009668530037,0.3422222222222222,0.5166666666666667,-0.6222222222222222,-3.0665351153452485,-11.358871840799937,136.77017557672625
1590500047.9853,0.01635735984534659,-3.2478182822424744,9.016633526650097,0.3422222222222222,0.5166666666666667,-0.6222222222222222,-3.383267743717205,-12.136599005799503,147.3920878210439
1590500047.9953,-3.943325470855223,-25.98966227082663,8.480050391336977,0.37650580354129193,0.4995248760071318,-0.6436494605466409,-4.691866802473107,-12.676320538937135,159.6534367070512
1590500048.0053,-0.8450138187798362,-18.79234690847628,8.043207784198625,0.37777777777777777,0.4988888888888889,-0.6444444444444445,-11.675988156963067,-28.08832598615838,196.17879045704757
1590500048.0153,2.479309746236951,-10.558179461410202,7.626469815673466,0.37777777777777777,0.4988888888888889,-0.6444444444444445,-18.771311327973322,-43.86569016810945,233.24212415202942
1590500048.0253,-1.3036884667222899,-2.2414915602336167,15.66414607534818,0.37777777777777777,0.4988888888888889,-0.6444444444444445,-13.383788749117514,-4.8156087542519685,2.6338007830049435
1590500048.0353,-2.062295765255085,1.304437312437479,7.347713821273757,0.37777777777777777,0.4988888888888889,-0.6444444444444445,33.51973574524842,22.26607567105702,-57.35851273341114
1590500048.0453,-1.0776892946865124,0.8650868472946325,3.9104422053540073,0.42140027193243107,0.45209384970480626,-0.6380993543855857,51.0830198681758,13.475168156892405,-50.7186849995948
1590500048.0553,-1.6776152962854167,-0.8689916415200148,8.906700136192486,0.4388888888888889,0.43333333333333335,-0.6355555555555555,-9.895967968061527,-1.3076314524527994,-44.285117966726304
1590500048.0653,-0.9963701630567048,-2.6540654660501337,10.074047213433925,0.4388888888888889,0.43333333333333335,-0.6355555555555555,-35.94037478705281,6.775409162813336,-37.237938062789
1590500048.0753,-0.8162961739245358,-2.718888521773607,9.336819203066145,0.4388888888888889,0.43333333333333335,-0.6355555555555555,-18.70674601863477,5.362454982488601,-28.11707237494218
1590500048.0853,-0.6017940861681812,-2.244760445740908,7.279627919665904,0.4388888888888889,0.43333333333333335,-0.6355555555555555,8.694157782627856,2.338143480724434,-10.49045927682525
1590500048.0953,-2.2640030644717712,-9.237345695988685,8.403003575217067,0.42781479589832244,0.4495185461656997,-0.6457777952391553,-5.197945723490353,-1.8500078576199268,5.3395989667229795
1590500048.1053,-0.22491648201806713,-5.08851883415715,9.147392193625361,0.4244444444444445,0.4544444444444444,-0.6488888888888888,-8.696996974603715,-6.0306907277995565,49.6915320862451
1590500048.1153,4.2671766537746745,-8.855760208950727,8.115614546185142,0.4244444444444445,0.4544444444444444,-0.6488888888888888,-1.5999924657190219,-8.594891129639862,89.86320885026872
1590500048.1253,3.002187089846081,-6.875482639303185,8.208445292924472,0.4244444444444445,0.4544444444444444,-0.6488888888888888,-0.46479387901205094,-8.543528516883427,65.16811090561986
1590500048.1353,-1.0475389912902573,-1.130664371075552,8.22558856982596,0.4244444444444445,0.4544444444444444,-0.6488888888888888,3.308334047459528,3.5518182951340744,-4.361393948364782
1590500048.1453,-1.4518323180506574,-3.103828150048092,7.826750561077268,0.4244444444444445,0.44854810124327593,-0.6492357326066046,9.819536009137543,11.31329903414556,-30.2441036790638
1590500048.1553,-1.5129744149387656,-6.767041348369104,9.15971626045835,0.4244444444444445,0.4355555555555555,-0.65,-5.827179580453498,-1.6617178974172422,-17.39211228325452
1590500048.1653,1.1947659870250233,-5.82964202965709,8.727004170528266,0.4244444444444445,0.4355555555555555,-0.65,-4.38932170991659,-4.584054969879518,13.533190454124188
1590500048.1753,0.013062922516900777,-4.435917836713468,8.520660426417058,0.4244444444444445,0.4355555555555555,-0.65,4.33586843473739,0.8265405616224646,6.620937337493501
1590500048.1852999,-0.19443729336566007,-4.54150694291382,8.65023253251047,0.4244444444444445,0.4355555555555555,-0.65,1.0984309565792367,0.4090120123429579,-4.1180226471236505
1590500048.1952999,0.04096820083682009,-4.3970401673640165,8.659502092050209,0.4178853556485356,0.44569232914923285,-0.6273413296141329,-1.3033368200836821,-0.669173640167364,-2.4598901673640166
1590500048.2052999,-0.05051509466143613,-4.419843083745523,8.704792768207403,0.4122222222222222,0.4544444444444444,-0.6077777777777778,-0.34343552788674736,-0.1842806583660242,0.3904677639433737
1590500048.2152998,-0.045490349241546144,-4.237714307312403,8.547583026760066,0.4122222222222222,0.4544444444444444,-0.6077777777777778,-0.2438706344806733,-0.11356177241344555,-0.0678088620672277
1590500048.2252998,-0.024142446392073996,-4.24928776803963,8.50396438840198,0.4122222222222222,0.4544444444444444,-0.6077777777777778,-0.11428057990092494,-0.07544514497523123,-0.050667717462846845
1590500048.2352998,-0.01629199796239286,-4.299401342162964,8.645766649686607,0.4122222222222222,0.4544444444444444,-0.6077777777777778,0.05173335031339282,0.0,0.028558337578348206
1590500048.2452998,-0.03435748021836472,-4.292289762620377,8.712067717597987,0.42045301819024444,0.44621364847642214,-0.626176027588651,-0.08973425136477949,-0.08170275409433846,0.02723425136477949
1590500048.2552998,-0.03474717146937131,-4.317977371754971,8.713033942367543,0.4311111111111111,0.4355555555555555,-0.65,-0.125,-0.15466982168357074,-0.06882071326571709
1590500048.2652998,-0.03434250947835339,-4.332110113740241,8.622354677735984,0.4311111111111111,0.4355555555555555,-0.65,-0.125,-0.15214068423970867,-0.13321863152058264
1590500048.2752998,-0.03846012495406101,-4.389220874678427,8.466957001102536,0.4311111111111111,0.4355555555555555,-0.65,-0.057630466740169056,-0.1682515619257626,-0.08174843807423741
1590500048.2852998,-0.033369780073012195,-4.343479120292049,8.656520879707951,0.4311111111111111,0.4355555555555555,-0.65,0.2914388745436738,-0.0625,-0.14537774908734752
1590500048.2952998,-0.036383109404990406,-4.344681765834933,8.660743570057582,0.4299054809127746,0.4377658775858391,-0.6487943698016635,0.238697216890595,-0.073802783109405,-0.0625
1590500048.3052998,-0.028211054875861796,-4.291582911568963,8.721994978679312,0.4244444444444445,0.4477777777777778,-0.6433333333333333,0.05920226756465946,-0.022361814051727574,-0.036840453512931894
1590500048.3152997,-0.03101246955320464,-4.353037408659614,8.596518704329807,0.4244444444444445,0.4477777777777778,-0.6433333333333333,-0.06882793470752899,0.06882793470752899,0.0
1590500048.3252997,-0.02,-4.338650148765508,8.58,0.4244444444444445,0.4477777777777778,-0.6433333333333333,-0.11656342978442052,0.0,0.02914085744610513
1590500048.3352997,-0.02,-4.332786484890773,8.631403306317427,0.4244444444444445,0.4477777777777778,-0.6433333333333333,-0.15550862809296334,-0.11338964628844399,0.0625
1590500048.3452997,-0.023487578726382085,-4.266512421273617,8.753487578726382,0.4244444444444445,0.4477777777777778,-0.6433333333333333,-0.0028921011196640922,-0.22241843072078377,0.08429736703988804
1590500048.3552997,-0.034285915641847846,-4.285715493851087,8.72142675922337,0.4244444444444445,0.4477777777777778,-0.6433333333333333,-0.15178697276154904,0.0625,0.0446390817153529
1590500048.3652997,-0.03467955743976838,-4.3572430979216215,8.563591148795368,0.4244444444444445,0.4477777777777778,-0.6433333333333333,-0.3537638300072381,0.0625,0.03725829800434288
1590500048.3752997,-0.03,-4.318210369819735,8.589649383633773,0.4244444444444445,0.4477777777777778,-0.6433333333333333,-0.2756574056866753,-0.012280864771108221,0.08760956761444588
1590500048.3852997,-0.020066686095349118,-4.284899970856976,8.674966656952325,0.4244444444444445,0.4477777777777778,-0.6433333333333333,-0.09395839404796599,-0.12458321190406803,0.031458394047965986
1590500048.3952997,-0.018036792181661397,-4.3,8.708128772635815,0.43516016735332635,0.4477777777777778,-0.6397614256970394,0.08818985340615118,-0.13727004886461627,-0.025114975567691867
1590500048.4052997,-0.03932907348242812,-4.313993610223642,8.712683706070287,0.4511111111111111,0.4477777777777778,-0.6344444444444445,0.16673322683706068,0.024960063897763576,-0.0625
1590500048.4152997,-0.039881656804733726,-4.319881656804734,8.659881656804734,0.4511111111111111,0.4477777777777778,-0.6344444444444445,0.0,-0.00147928994082841,-0.0625
1590500048.4252996,-0.04848504968176198,-4.3223233664545075,8.637676633545492,0.4511111111111111,0.4477777777777778,-0.6344444444444445,-0.2695736411923623,-0.047978959659325054,-0.0625
1590500048.4352996,-0.06,-4.326558219646226,8.643767121415097,0.4511111111111111,0.4477777777777778,-0.6344444444444445,-0.2438998551001996,0.0,-0.040988872788911064
1590500048.4452996,-0.06,-4.320824698581076,8.666701205675698,0.4511111111111111,0.4477777777777778,-0.6344444444444445,0.07861070481450083,0.0,-0.00515436613172212
1590500048.4552996,-0.043042857535073996,-4.323042857535074,8.661742854789555,0.4244444444444445,0.4477777777777778,-0.6433333333333333,0.14401785959421246,-0.125,-0.019017859594212448
1590500048.4652996,-0.0448386595374285,-4.3145159786122855,8.583870616761999,0.4244444444444445,0.4477777777777778,-0.6433333333333333,-0.10282540101964682,-0.09274162210892813,-0.09475837789107187
1590500048.4752996,-0.035799280186005034,-4.312602159441985,8.583605758511961,0.4244444444444445,0.4477777777777778,-0.6433333333333333,-0.2699820046501258,-0.14126349651240566,-0.07249100232506289
1590500048.4852996,-0.03154605723237013,-4.33154605723237,8.62690788553526,0.4244444444444445,0.4477777777777778,-0.6433333333333333,-0.17331428851156677,-0.2113485691907466,-0.019325715404626704
1590500048.4952996,-0.037678044335268134,-4.344643911329464,8.626253689653122,0.4306363262170628,0.4459718122607641,-0.6412693727424605,-0.2923777709542582,0.01451222290457418,-0.11048777709542582
1590500048.5052996,-0.03,-4.354161319890009,8.677664527956004,0.4511111111111111,0.44,-0.6344444444444445,0.14370989917506874,0.07709670027497709,-0.07709670027497709
1590500048.5152996,-0.03,-4.305177732159256,8.645533196477771,0.4511111111111111,0.44,-0.6344444444444445,-0.0066649559721246865,0.06694330398141646,-0.09708247798606234
1590500048.5252995,-0.03,-4.3,8.652465658832524,0.4511111111111111,0.44,-0.6344444444444445,0.04708963229672741,-0.027397408074181853,0.0
1590500048.5352995,-0.03453076375089048,-4.313592291252672,8.656407708747329,0.4511111111111111,0.44,-0.6344444444444445,-0.005865453113868997,-0.0283172734430655,-0.0283172734430655
1590500048.5452995,-0.03599240474546482,-4.325992404745465,8.656030381018141,0.44042419043235065,0.44,-0.6344444444444445,0.13764241102253466,-0.0625,-0.037452529659155104
1590500048.5552995,-0.03421929241450624,-4.307342122756482,8.717973631730557,0.4244444444444445,0.44,-0.6344444444444445,0.25,-0.0625,0.0
1590500048.5652995,-0.04,-4.282340869815668,8.712556523617511,0.4244444444444445,0.44,-0.6344444444444445,0.08245652721774194,-0.11036956365207373,-0.023934781826036866
1590500048.5752995,-0.03484923997009719,-4.295753800149514,8.630301520059806,0.4244444444444445,0.44,-0.6344444444444445,-0.2840767505606778,-0.1553077498131074,-0.0625
1590500048.5852995,-0.02461544031396174,-4.322692279843019,8.64269227984302,0.4244444444444445,0.44,-0.6344444444444445,-0.30769300392452176,-0.09134650196226088,-0.04567325098113044
1590500048.5952995,-0.012467380128307243,-4.328766309935847,8.648766309935846,0.4244444444444445,0.44,-0.6344444444444445,-0.15584225160384052,-0.01542112580192026,-0.00771056290096013
1590500048.6052995,-0.024793271028037384,-4.318402242990654,8.69,0.4388888888888889,0.4477777777777778,-0.6644444444444444,-0.20007009345794394,-0.07248598130841122,-0.042528037383177564
1590500048.6152995,-0.04831271028037383,-4.3105624299065415,8.69,0.4388888888888889,0.4477777777777778,-0.6644444444444444,0.04492406542056071,-0.12148481308411216,0.055469626168224304
1590500048.6252995,-0.027536590679527045,-4.304926818640946,8.58739022796142,0.4388888888888889,0.4477777777777778,-0.6644444444444444,0.015396308252955973,-0.1259147669881761,-0.030792616505911946
1590500048.6352994,-0.022105605023140004,-4.322105605023141,8.61315840753471,0.4388888888888889,0.4477777777777778,-0.6644444444444444,0.05591998430268749,0.04275995290806246,-0.11841998430268749
1590500048.6452994,-0.04,-4.338094216577999,8.651434700532006,0.4361360906126652,0.44629550178288807,-0.6547037736208836,0.04764458555002574,-0.11308885361249356,-0.07441114638750644
1590500048.6552994,-0.034882109868740886,-4.324882109868741,8.701705963377085,0.4244444444444445,0.44,-0.6133333333333333,0.25,-0.07316227110678983,-0.13566227110678983
1590500048.6652994,-0.013973938956447702,-4.307947877912896,8.666286671479076,0.4244444444444445,0.44,-0.6133333333333333,0.20032576304440372,-0.125,-0.06331440761100932
1590500048.6752994,-0.0228995983935743,-4.325799196787149,8.614497991967871,0.4244444444444445,0.44,-0.6133333333333333,0.03438755020080321,-0.10687751004016063,0.10687751004016063
1590500048.6852994,-0.03,-4.324417367004336,8.665582632995664,0.4244444444444445,0.44,-0.6133333333333333,-0.1875,-0.11119572811145129,0.03815213594427436
1590500048.6952994,-0.033728705086398685,-4.314914820345595,8.678813884740803,0.4269302478353769,0.44290010395608786,-0.6212050440712861,-0.21080440678999177,-0.16419559321000823,0.0
1590500048.7052994,-0.04,-4.335421131590227,8.655421131590227,0.4311111111111111,0.4477777777777778,-0.6344444444444445,-0.07829243463351909,-0.15361792756108017,-0.028617927561080156
1590500048.7152994,-0.031086124273820043,-4.33445693786309,8.62771531068455,0.4311111111111111,0.4477777777777778,-0.6344444444444445,0.06928827671137525,-0.13178827671137525,-0.006788276711375253
1590500048.7252994,-0.02828412060693529,-4.335857939696532,8.620710301517338,0.4311111111111111,0.4477777777777778,-0.6344444444444445,0.02588787689667278,-0.08838787689667278,0.010724246206654443
1590500048.7352993,-0.03743577043178637,-4.33,8.655128459136428,0.4311111111111111,0.4477777777777778,-0.6344444444444445,0.014420695595994397,-0.125,-0.0785264348013352
1590500048.7452993,-0.03,-4.328466771432116,8.673066457135768,0.4331554158682896,0.44658526666942366,-0.6380219777695069,-0.125,-0.11541732145072578,-0.13458267854927422
1590500048.7552993,-0.0306687930166191,-4.320668793016619,8.688996810475071,0.4444444444444444,0.44,-0.6577777777777778,-0.1166400872922612,-0.060410021823065305,-0.17914008729226122
1590500048.7652993,-0.05,-4.331880413983251,8.641054299294254,0.4444444444444444,0.44,-0.6577777777777778,0.1757474126046789,-0.01691580420155964,0.0625
1590500048.7752993,-0.04699461009970159,-4.313005389900298,8.597513474750746,0.4444444444444444,0.44,-0.6577777777777778,0.2561489393694048,-0.04371631312313493,0.05310815656156746
1590500048.7852993,-0.03137018725015779,-4.327259625499685,8.648221123500948,0.4444444444444444,0.44,-0.6577777777777778,-0.04537265937302756,0.036808989059541344,-0.008563670313486219
1590500048.7952993,-0.03507808709091889,-4.31164063763636,8.695078087090918,0.4411631691717237,0.441276051494947,-0.6530381579394035,0.031738044318243085,-0.09423804431824309,-0.0625
1590500048.8052993,-0.01246446093848283,-4.319178513020506,8.672464460938484,0.42608741840343306,0.44713884346039334,-0.6312620734963168,-0.10959711913448231,0.04709711913448231,-0.0625
1590500048.8152993,-0.02,-4.325624121962641,8.637503512149436,0.4244444444444445,0.4477777777777778,-0.6288888888888889,0.04492461886674645,-0.05272614339976065,-0.009773856600239349
1590500048.8252993,-0.02,-4.329055459272097,8.60553726169844,0.4244444444444445,0.4477777777777778,-0.6288888888888889,0.0,-0.11909662045060658,0.07939774696707105
1590500048.8352993,-0.023437058277129358,-4.316874116554258,8.660311174831389,0.4244444444444445,0.4477777777777778,-0.6288888888888889,-0.06444484269617544,-0.04296322846411696,-0.04296322846411696
1590500048.8452992,-0.03,-4.332965545400295,8.68,0.426421474711308,0.4477777777777778,-0.6305364141112751,-0.24310397625553568,-0.10646534124815478,-0.06939602374446432
1590500048.8552992,-0.02617405261509552,-4.34,8.668522157845286,0.4311111111111111,0.4477777777777778,-0.6344444444444445,-0.2554391442217351,-0.014675657688694013,0.03858782884434701
1590500048.8652992,-0.02,-4.337086391394476,8.629604739761332,0.4311111111111111,0.4477777777777778,-0.6344444444444445,0.010340215138102973,0.0625,0.0
1590500048.8752992,-0.03268588847961387,-4.321542741013591,8.601143147466024,0.4311111111111111,0.4477777777777778,-0.6344444444444445,0.10821319700241332,-0.016786802997586683,0.05285786866505779
1590500048.8852992,-0.04348129058510368,-4.319778064122344,8.64955612824469,0.4311111111111111,0.4477777777777778,-0.6344444444444445,0.020370966921551006,-0.08425806615689799,0.06388709923534697
1590500048.8952992,-0.030326771006173668,-4.339346457987652,8.69,0.43154680578600935,0.4477777777777778,-0.6347349075610433,0.0625,0.0,-0.060457681211414566
1590500048.9052992,-0.03659655888903837,-4.3268068822219234,8.69,0.43990652296316224,0.4477777777777778,-0.6403080523458119,0.0625,0.0,-0.02127150694351017
1590500048.9152992,-0.044194924524174145,-4.324194924524174,8.648050754758259,0.4444444444444444,0.4477777777777778,-0.6433333333333333,-0.04237311310435353,-0.052436556552176765,-0.026218278276088382
1590500048.9252992,-0.04478349189152588,-4.3195669837830515,8.605649524325422,0.4444444444444444,0.4477777777777778,-0.6433333333333333,-0.13859523648305516,-0.07609523648305515,-0.029896824322036768
1590500048.9352992,-0.030583336154653487,-4.291166672309307,8.64824999153604,0.4444444444444444,0.4477777777777778,-0.6433333333333333,-0.005468776449876422,0.05703122355012358,0.05885414903341571
1590500048.9452991,-0.02761427949499347,-4.311192860252503,8.664771441010013,0.4420587239394379,0.44857301794611326,-0.6433333333333333,-0.0625,-0.0625,-0.055044623421854594
1590500048.9552991,-0.01542572048835866,-4.317287139755821,8.689148559023282,0.4244444444444445,0.4544444444444444,-0.6433333333333333,-0.0625,0.005321506104483259,0.0
1590500048.9652991,-0.028352510460251047,-4.314942468619247,8.646820083682009,0.4244444444444445,0.4544444444444444,-0.6433333333333333,-0.0625,0.1566095711297071,-0.020593619246861924
1590500048.9752991,-0.02294619030549249,-4.334107619389015,8.59178476122197,0.4244444444444445,0.4544444444444444,-0.6433333333333333,-0.08091368940932808,-0.01841368940932808,-0.08817262118134384
1590500048.985299,-0.028459812995844352,-4.318459812995845,8.627700935020778,0.4244444444444445,0.4544444444444444,-0.6433333333333333,-0.0961214936720816,-0.043247662448054405,0.019252337551945598
1590500048.995299,-0.01804025899096096,-4.313919482018078,8.673919482018078,0.4272751814575009,0.4544444444444444,-0.6433333333333333,0.03800323738701199,0.050251618693505994,0.10050323738701199
1590500049.005299,-0.015126497597761964,-4.327436751201119,8.684873502402237,0.4388888888888889,0.4544444444444444,-0.6433333333333333,-0.07852030499300613,0.03204060998601228,0.01602030499300614
1590500049.015299,-0.02788055707595937,-4.321059721462021,8.672119442924041,0.4388888888888889,0.4544444444444444,-0.6433333333333333,-0.11837674086237304,0.11175348172474608,0.05587674086237304
1590500049.025299,-0.024814469747191516,-4.318395176750936,8.576419292996256,0.4388888888888889,0.4544444444444444,-0.6433333333333333,-0.0625,0.15740956408005302,-0.042439709386702024
1590500049.035299,-0.04735921738663036,-4.310880260871123,8.606478956515506,0.4388888888888889,0.4544444444444444,-0.6433333333333333,-0.0625,0.016504891333560284,0.0514967391109598
1590500049.045299,-0.04935439023330582,-4.32,8.69870878046661,0.4388888888888889,0.4535118970036639,-0.6442658807741138,0.054429877916322714,0.05846493895816136,-0.05846493895816136
1590500049.055299,-0.040243081200851544,-4.32,8.680486162401703,0.4388888888888889,0.4403511172901189,-0.6574266604876589,-0.059461484989355703,0.0015192575053221483,-0.0015192575053221483
1590500049.065299,-0.02705482119539071,-4.33,8.668767496735471,0.4388888888888889,0.44,-0.6577777777777778,-0.1875,-0.04409263247119195,-0.0625
1590500049.075299,-0.02302162953325744,-4.33,8.591151406732802,0.4388888888888889,0.44,-0.6577777777777778,-0.168614815417141,0.0,-0.0625
1590500049.085299,-0.03596300046019328,-4.332981500230097,8.645963000460194,0.4388888888888889,0.44,-0.6577777777777778,-0.106365623561896,-0.037268752876208004,-0.0625
1590500049.095299,-0.046221899448717525,-4.338740633149572,8.662518733700855,0.4395885371391264,0.4418190854506175,-0.6548392551267803,-0.03888687155448453,-0.09351582873931272,-0.05462895718482818
1590500049.105299,-0.022764964599871273,-4.327235035400129,8.677235035400129,0.4444444444444444,0.4544444444444444,-0.6344444444444445,0.0904379425016091,0.07315691375241365,0.0
1590500049.115299,-0.028532511433684626,-4.32,8.666086697156492,0.4444444444444444,0.4544444444444444,-0.6344444444444445,0.003057267846490356,-0.05638546430701929,0.0
1590500049.125299,-0.012758579169175195,-4.323189644792294,8.59,0.4444444444444444,0.4544444444444444,-0.6344444444444445,-0.017241119807344968,0.04256472004816376,0.0
1590500049.135299,-0.04,-4.331877817482133,8.606900357339198,0.4444444444444444,0.4544444444444444,-0.6344444444444445,-0.140554562946674,0.0117363592633315,-0.023472718526663
1590500049.145299,-0.04,-4.337642385926333,8.658781473336997,0.4444444444444444,0.4544444444444444,-0.6344444444444445,0.0035596481583287654,0.04776491203958219,-0.09552982407916438
1590500049.155299,-0.020172440045679484,-4.31,8.7,0.4188888888888889,0.4477777777777778,-0.6355555555555555,0.12068899885801294,0.18642224971450325,-0.0625
1590500049.165299,-0.028155500570993527,-4.31,8.7,0.4188888888888889,0.4477777777777778,-0.6355555555555555,-0.0788875142748382,0.13652812143129045,-0.0625
1590500049.175299,-0.012886876417724367,-4.311443438208862,8.625773752835448,0.4188888888888889,0.4477777777777778,-0.6355555555555555,-0.0805429776107773,0.05347851119461135,0.0
1590500049.185299,-0.02741233918027393,-4.318706169590137,8.654824678360548,0.4188888888888889,0.4477777777777778,-0.6355555555555555,-0.17132711987671212,0.008086440061643947,0.0
1590500049.195299,-0.01081241352045859,-4.31,8.672437240561376,0.4188888888888889,0.4477777777777778,-0.6373609189343524,0.0,0.10976724649140146,-0.0625
1590500049.205299,-0.02,-4.314537648931552,8.681849404273793,0.4188888888888889,0.4477777777777778,-0.6577777777777778,-0.01418015291109932,-0.0625,-0.04831984708890068
1590500049.215299,-0.02378640219035402,-4.33,8.612427195619292,0.4188888888888889,0.4477777777777778,-0.6577777777777778,-0.0743325068448563,-0.0625,-0.011832506844856306
1590500049.225299,-0.03984759424840606,-4.33,8.580304811503188,0.4188888888888889,0.4477777777777778,-0.6577777777777778,-0.12452373202626893,-0.0625,-0.06202373202626893
1590500049.2352989,-0.021646995533239868,-4.32,8.6282349776662,0.4188888888888889,0.4477777777777778,-0.6577777777777778,-0.16691255583450165,0.010293722082749177,-0.020587444165498354
1590500049.2452989,-0.028484561964070294,-4.32,8.66242280982035,0.4188888888888889,0.4477777777777778,-0.6577777777777778,-0.08144297544912131,0.053028512275439345,-0.10605702455087869
1590500049.2552989,-0.04,-4.326719145000514,8.7,0.4388888888888889,0.44,-0.6433333333333333,-0.05566488541773713,0.10449465625321139,-0.05566488541773713
1590500049.2652988,-0.04,-4.300857671359572,8.7,0.4388888888888889,0.44,-0.6433333333333333,-0.0017868153324427094,-0.05713955400267187,-0.0017868153324427094
1590500049.2752988,-0.03256064626172652,-4.315121292523453,8.605121292523453,0.4388888888888889,0.44,-0.6433333333333333,0.09299192172841846,-0.13948788259262768,0.10747980432104615
1590500049.2852988,-0.036398120461341305,-4.331800939769329,8.629004698846646,0.4388888888888889,0.44,-0.6433333333333333,0.0,0.02251174711661683,-0.13625587355830843
1590500049.2952988,-0.02206475865014951,-4.338967620674925,8.664838103374626,0.4388888888888889,0.44,-0.6433333333333333,0.0,0.11209525843656558,-0.1810476292182828
1590500049.3052988,-0.013212972250083584,-4.318393513874958,8.694819458375125,0.4311111111111111,0.4355555555555555,-0.6288888888888889,-0.0825810765630224,-0.0625,-0.0725405382815112
1590500049.3152988,-0.02596121698428619,-4.312019391507857,8.71394182547643,0.4311111111111111,0.4355555555555555,-0.6288888888888889,-0.1622576061517887,-0.0625,-0.11237880307589435
1590500049.3252988,-0.04920393743997805,-4.300398031280011,8.592786218960077,0.4311111111111111,0.4355555555555555,-0.6288888888888889,-0.0649876955000686,0.0024876955000685966,0.0024876955000685966
1590500049.3352988,-0.03481821923446289,-4.307590890382769,8.64313623267938,0.4311111111111111,0.4355555555555555,-0.6288888888888889,-0.10994306489230347,0.047443064892303474,0.047443064892303474
1590500049.3452988,-0.03,-4.328941400149385,8.66,0.4311111111111111,0.4355555555555555,-0.6288888888888889,0.052575626400488906,-0.17426750186731854,-0.05588375093365927
1590500049.3552988,-0.0011537027833001987,-4.32,8.669230864811134,0.4188888888888889,0.4477777777777778,-0.6488888888888888,0.06490354746520875,-0.060096452534791255,0.05769290506958251
1590500049.3652987,-0.026463318475129942,-4.32,8.635853273900521,0.4188888888888889,0.4477777777777778,-0.6488888888888888,0.125,-0.01105212976521893,-0.0625
1590500049.3752987,-0.012964452955280564,-4.32,8.581857811821122,0.4188888888888889,0.4477777777777778,-0.6488888888888888,0.125,-0.05323608451474824,-0.0625
1590500049.3852987,-0.018685446968458898,-4.317370893936918,8.645258212126166,0.4188888888888889,0.4477777777777778,-0.6488888888888888,0.01643191289426377,0.008215956447131885,0.01643191289426377
1590500049.3952987,-0.010117257721849975,-4.3002345154437,8.6795309691126,0.4188888888888889,0.4477777777777778,-0.6488888888888888,0.12353427847687531,0.06176713923843766,0.12353427847687531
1590500049.4052987,-0.028123224138879212,-4.321876775861121,8.69187677586112,0.4388888888888889,0.44,-0.6433333333333333,-0.03904030173599017,-0.11327015086799508,-0.11327015086799508
1590500049.4152987,-0.020434455830323918,-4.329565544169676,8.699565544169676,0.4388888888888889,0.44,-0.6433333333333333,0.05706930212095104,-0.06521534893952448,-0.06521534893952448
1590500049.4252987,-0.026717709104367136,-4.311641145447816,8.609846872686898,0.4388888888888889,0.44,-0.6433333333333333,-0.010257159048852701,-0.1044856819022946,0.0522428409511473
1590500049.4352987,-0.01323195962369881,-4.322154639749133,8.6632319596237,0.4388888888888889,0.44,-0.6433333333333333,-0.08269974764811756,0.006733249216039189,-0.006733249216039189
1590500049.4452987,-0.036579889781604286,-4.3377199265210695,8.686579889781603,0.4388888888888889,0.44,-0.6433333333333333,-0.22862431113502682,0.05537477037834227,-0.05537477037834227
1590500049.4552987,-0.017565331829291222,-4.317565331829291,8.69,0.42808701162151064,0.4366763454561912,-0.6541352106007117,-0.20326110797769004,0.015761107977690036,-0.0625
1590500049.4652987,-0.020688751795825234,-4.302066255387476,8.627933744612525,0.4244444444444445,0.4355555555555555,-0.6577777777777778,-0.11208590382827685,0.004304698723907716,0.0
1590500049.4752986,-0.02955019859714358,-4.328650595791431,8.60134940420857,0.4244444444444445,0.4355555555555555,-0.6577777777777778,0.05406622369644215,0.05968874123214739,0.0
1590500049.4852986,-0.022512259671518643,-4.318743870164241,8.633768389507278,0.4244444444444445,0.4355555555555555,-0.6577777777777778,0.125,-0.04679837705300849,-0.02355243442048727
1590500049.4952986,-0.03883630419553204,-4.310581847902234,8.658254456293298,0.4244444444444445,0.4355555555555555,-0.6577777777777778,0.125,0.055226901222075186,-0.17659035183311278
1590500049.5052986,-0.02485262093638202,-4.317573689531809,8.675147379063619,0.435384218212613,0.4448122872055443,-0.6468380040096092,0.0776644404261938,-0.03217111914761238,-0.09282888085238762
1590500049.5152986,-0.03,-4.302742861142217,8.65657142357223,0.4388888888888889,0.4477777777777778,-0.6433333333333333,0.0,0.017142882138857785,-0.058214279465285554
1590500049.5252986,-0.03,-4.3320982642777155,8.619877169652856,0.4388888888888889,0.4477777777777778,-0.6433333333333333,0.0,0.20061415173572228,-0.01234646206606943
1590500049.5352986,-0.02915907578206713,-4.2995795378910335,8.62210231054483,0.4388888888888889,0.4477777777777778,-0.6433333333333333,-0.11974422363791956,-0.0026278881810402207,-0.05987211181895978
1590500049.5452986,-0.013206617856803271,-4.291603308928401,8.661983455357992,0.4388888888888889,0.4477777777777778,-0.6433333333333333,-0.020041361605020444,-0.05247931919748978,-0.010020680802510222
