time,acc_x,acc_y,acc_z,mag_x,mag_y,mag_z,gyr_x,gyr_y,gyr_z
1590503539.4346685,-0.38,-4.33,8.78,0.4988888888888889,0.28,-0.6533333333333333,0.0,-0.25,0.0
1590503539.4446685,-0.388666267201124,-4.321333732798876,8.771333732798876,0.4988888888888889,0.28,-0.6533333333333333,-0.05416417000702508,-0.41249251002107523,0.05416417000702508
1590503539.4546685,-0.3808981352277052,-4.307305594316884,8.674490676138525,0.4988888888888889,0.28,-0.6533333333333333,-0.24438665482684258,-0.23315996448052773,0.17627330965368515
1590503539.4646685,-0.3890562839235447,-4.281887432152911,8.724718580382277,0.4988888888888889,0.28,-0.6533333333333333,-0.16390709808861725,-0.04480532356646293,0.05070354904430862
1590503539.4746685,-0.38253316536804616,-4.294933669263908,8.75733417315977,0.4988888888888889,0.28,-0.6533333333333333,-0.0008291342011539637,0.07750314934913452,-0.030835432899423018
1590503539.4846685,-0.3996161639331728,-4.309808081966586,8.809232327866345,0.5130561183961803,0.28,-0.6467946120222757,-0.06010102458232977,0.24760102458232977,0.12140153687349467
1590503539.4946685,-0.39581995171118695,-4.302090024144406,8.745369830989153,0.5133333333333333,0.28,-0.6466666666666666,0.036374698194918176,0.22387469819491818,-0.11193734909745909
1590503539.5046685,-0.3802148241612475,-4.31,8.691503769128733,0.5133333333333333,0.28,-0.6466666666666666,-0.06518530201559417,0.12902795302339123,-0.057129395968811676
1590503539.5146685,-0.39217362220818314,-4.312173622208183,8.762173622208183,0.5133333333333333,0.28,-0.6466666666666666,-0.21467027760228918,0.2853297223977108,0.1875
1590503539.5246685,-0.39996711137537627,-4.319967111375377,8.769967111375376,0.5133333333333333,0.28,-0.6466666666666666,-0.31208889219220337,0.18791110780779663,0.1875
1590503539.5346684,-0.3823062910400339,-4.302306291040034,8.787693708959965,0.5133333333333333,0.2691871778577985,-0.6338878768622467,-0.2572071595001059,0.02162147850031773,0.1875
1590503539.5446684,-0.39,-4.2930016093028085,8.76949436744017,0.5133333333333333,0.2677777777777778,-0.6322222222222222,-0.10002011628510615,-0.13438002907127655,0.11561997092872346
1590503539.5546684,-0.39,-4.307517520635415,8.718688677776049,0.5133333333333333,0.2677777777777778,-0.6322222222222222,-0.28146900794268803,-0.179742251985672,0.07025774801432799
1590503539.5646684,-0.38,-4.316395442750847,8.720813671747461,0.5133333333333333,0.2677777777777778,-0.6322222222222222,-0.14752848280721048,-0.0850284828072105,0.0625
1590503539.5746684,-0.38,-4.3019803069097655,8.764059079270702,0.5133333333333333,0.2677777777777778,-0.6322222222222222,-0.23762308181396388,-0.17512308181396388,0.0625
1590503539.5846684,-0.36216793578153716,-4.312167935781537,8.81,0.5188888888888888,0.2733333333333333,-0.6322222222222222,-0.04064879590382235,0.07604959863460745,0.10314879590382235
1590503539.5946684,-0.37,-4.32,8.809506027007437,0.5188888888888888,0.2733333333333333,-0.6322222222222222,-0.1875,0.1262349324814089,0.24938253375929556
1590503539.6046684,-0.3731889300501198,-4.321062976683374,8.714251906733494,0.5188888888888888,0.2733333333333333,-0.6322222222222222,-0.1875,0.38828720854216603,0.0984255829156679
1590503539.6146684,-0.39983875158044235,-4.329838751580443,8.750806242097788,0.5188888888888888,0.2733333333333333,-0.6322222222222222,-0.18649219737776468,0.4989921973777647,-0.12197659213329408
1590503539.6246684,-0.3925742591405858,-4.322574259140586,8.787128704297071,0.5188888888888888,0.2733333333333333,-0.6322222222222222,-0.141089119628661,0.453589119628661,0.014232641114017008
1590503539.6346684,-0.39,-4.3102942546862115,8.809705745313789,0.5134968081590067,0.2679412526034511,-0.6397711352440574,0.11764363284470089,-0.04778726568940178,0.0625
1590503539.6446683,-0.3864705086580087,-4.308235254329004,8.765882034632034,0.5133333333333333,0.2677777777777778,-0.64,0.10294067911255411,-0.09558898133116883,0.051470339556277056
1590503539.6546683,-0.37291235520197813,-4.3,8.704368532802967,0.5133333333333333,0.2677777777777778,-0.64,0.009101110006181632,-0.23179777998763673,0.018202220012363265
1590503539.6646683,-0.3862399555637845,-4.3,8.735640066654323,0.5133333333333333,0.2677777777777778,-0.64,0.03899972227365303,-0.14850027772634697,0.10149972227365303
1590503539.6746683,-0.37070838733567857,-4.3,8.758937418996481,0.5133333333333333,0.2677777777777778,-0.64,-0.05807257915200889,-0.2455725791520089,0.004427420847991109
1590503539.6846683,-0.37,-4.3,8.783332038080435,0.5081484359821256,0.2772834229216588,-0.6339509530902575,-0.0625,-0.1527831746648533,0.0
1590503539.6946683,-0.38,-4.31,8.805245443931165,0.5066666666666667,0.28,-0.6322222222222222,-0.183254860652825,-0.056132290979237526,0.0021225696735874917
1590503539.7046683,-0.38,-4.31,8.70588303974821,0.5066666666666667,0.28,-0.6322222222222222,-0.09453842834661659,0.07694235748007514,0.046480785826691705
1590503539.7146683,-0.3994832376365994,-4.3,8.752583811817003,0.5066666666666667,0.28,-0.6322222222222222,-0.19395952954250786,0.19072976477125395,-0.05927023522874606
1590503539.7246683,-0.3908513922331296,-4.3,8.795743038834352,0.5066666666666667,0.28,-0.6322222222222222,-0.3018575970858801,0.24467879854294006,-0.00532120145705995
1590503539.7346683,-0.3921677966101695,-4.32,8.781328813559321,0.5133333333333333,0.2733333333333333,-0.6466666666666666,-0.2364512711864407,0.1739512711864407,0.125
1590503539.7446682,-0.39568874112678587,-4.322155629436607,8.741377482253572,0.5133333333333333,0.2733333333333333,-0.6466666666666666,-0.1875,0.125,0.11152731602120586
1590503539.7546682,-0.38,-4.33,8.716830051057624,0.5133333333333333,0.2733333333333333,-0.6466666666666666,-0.17682804522246537,0.10365609044493071,0.051828045222465355
1590503539.7646682,-0.38,-4.327739278450154,8.752260721549847,0.5133333333333333,0.2733333333333333,-0.6466666666666666,-0.1320647548432699,-0.01412950968653982,0.0
1590503539.7746682,-0.38,-4.315638532665926,8.764361467334073,0.5133333333333333,0.2733333333333333,-0.6466666666666666,-0.1698795854189807,-0.08975917083796142,0.0
1590503539.7846682,-0.38,-4.317203640573744,8.791610921721233,0.5173353558743022,0.2781357603824961,-0.6466666666666666,-0.09745449282819836,-0.21504550717180165,0.04502275358590082
1590503539.7946682,-0.39,-4.33,8.77347435594422,0.5188888888888888,0.28,-0.6466666666666666,0.16872085902752412,-0.043720859027524116,-0.11561042951376206
1590503539.8046682,-0.3893842117447334,-4.33,8.683078941276333,0.5188888888888888,0.28,-0.6466666666666666,0.06634867659541631,0.07019735319083263,-0.058651323404583684
1590503539.8146682,-0.38105028276843766,-4.328949717231563,8.737351979379063,0.5188888888888888,0.28,-0.6466666666666666,0.125,0.2137570692109414,0.0
1590503539.8246682,-0.38911841649674916,-4.320881583503251,8.793828915477244,0.5188888888888888,0.28,-0.6466666666666666,0.125,0.4154604124187281,0.0
1590503539.8346682,-0.3830844270033134,-4.29925328100994,8.786168854006627,0.5150469038907296,0.2853787789974229,-0.6512770486644577,0.08177766877070877,0.35105533754141754,0.08644466245858246
1590503539.8446681,-0.38911976911976914,-4.299119769119769,8.807359307359308,0.5133333333333333,0.2877777777777778,-0.6533333333333333,0.17649711399711399,0.369498556998557,-0.102994227994228
1590503539.8546681,-0.37597667690232345,-4.3,8.72586006141394,0.5133333333333333,0.2877777777777778,-0.6533333333333333,0.09985423063952147,0.24353134595928222,-0.037354230639521466
1590503539.8646681,-0.3892560493921847,-4.319256049392185,8.738140123480463,0.5133333333333333,0.2877777777777778,-0.6533333333333333,0.0023248456494228686,0.006974536948268606,-0.06017515435057713
1590503539.8746681,-0.383149702400856,-4.313149702400856,8.767401190396576,0.5133333333333333,0.2877777777777778,-0.6533333333333333,0.0,-0.0428143599946499,0.0231287199892998
1590503539.884668,-0.363745602926692,-4.318127198536654,8.804381595609962,0.5350058627644106,0.27603849100261085,-0.6596544877507309,-0.050794990854087514,-0.16408998170817501,-0.03908998170817503
1590503539.894668,-0.3896372134431338,-4.32,8.787772089917649,0.54,0.2733333333333333,-0.6611111111111111,-0.1088081460048965,0.04404073002448253,-0.0625
1590503539.904668,-0.3903283258097141,-4.32,8.681313303238856,0.54,0.2733333333333333,-0.6611111111111111,0.054291854757147436,-0.05839592737857372,-0.11884389106786059
1590503539.914668,-0.39946339932115604,-4.3189267986423125,8.723219604073064,0.54,0.2733333333333333,-0.6611111111111111,-0.1740849830288999,0.05579249151444996,0.05579249151444996
1590503539.924668,-0.3912342796601856,-4.302468559320371,8.772594322038886,0.54,0.2733333333333333,-0.6611111111111111,0.03164300849535992,-0.04707150424767996,-0.04707150424767996
1590503539.934668,-0.3705652920493881,-4.309717353975306,8.789717353975306,0.5194855860521318,0.2679348033470523,-0.6470749331467802,-0.05896692469132438,-0.0625,-0.18396692469132436
1590503539.944668,-0.38,-4.291655862457723,8.762548618940247,0.5188888888888888,0.2677777777777778,-0.6466666666666666,-0.0625,-0.04697628945885006,-0.06767457018038331
1590503539.954668,-0.3806520121745012,-4.3093479878254985,8.683260060872506,0.5188888888888888,0.2677777777777778,-0.6466666666666666,-0.054349847818735204,0.1168498478187352,-0.1209249239093676
1590503539.964668,-0.39,-4.300190208238394,8.730570624715183,0.5188888888888888,0.2677777777777778,-0.6466666666666666,0.0607167977650532,-0.0011888014899645342,-0.0625
1590503539.974668,-0.39,-4.3168108418695885,8.780432525608765,0.5188888888888888,0.2677777777777778,-0.6466666666666666,-0.09510164252739198,-0.10506776168492798,-0.0625
1590503539.984668,-0.3704164762453554,-4.310208238122677,8.818542333141256,0.5188888888888888,0.28,-0.6466666666666666,0.06119851173326445,-0.05859553519979335,-0.125
1590503539.994668,-0.38708466628251237,-4.318542333141257,8.760203668011206,0.5188888888888888,0.28,-0.6466666666666666,0.009110417867148841,0.09766874639855347,-0.125
1590503540.004668,-0.37,-4.309929071377774,8.680496500355579,0.5188888888888888,0.28,-0.6466666666666666,0.06161339222218063,-0.125,-0.06338660777781936
1590503540.014668,-0.37,-4.30207957480256,8.735442976382078,0.5188888888888888,0.28,-0.6466666666666666,-0.0365053149679979,-0.125,-0.16150531496799791
1590503540.024668,-0.3861859512809744,-4.305395317093658,8.755395317093658,0.5188888888888888,0.28,-0.6466666666666666,0.004941463670726592,0.009882927341453185,-0.15377926816463672
1590503540.034668,-0.38867145031528594,-4.315664274842357,8.782657099369429,0.5157420695320238,0.273076997414897,-0.6428904834384286,0.0625,0.054196564470537084,-0.08959828223526854
1590503540.044668,-0.38,-4.313665962391718,8.780997887175154,0.5133333333333333,0.2677777777777778,-0.64,0.0625,0.07917547010352842,-0.02291226494823579
1590503540.054668,-0.3887481768702643,-4.31,8.691266408167621,0.5133333333333333,0.2677777777777778,-0.64,0.00782389456084806,0.07032389456084806,0.0
1590503540.064668,-0.39,-4.323773524034842,8.700660286052264,0.5133333333333333,0.2677777777777778,-0.64,-0.04304226260888268,0.14858452521776536,-0.04304226260888268
1590503540.074668,-0.3763103064066852,-4.309465459610028,8.730534540389973,0.5133333333333333,0.2677777777777778,-0.64,0.10862116991643453,0.01637883008356547,0.023060584958217265
1590503540.084668,-0.38315092029810355,-4.313150920298104,8.77287730074526,0.5133333333333333,0.27143081119391765,-0.6487672801987358,0.0642101222052791,0.1429831296578682,0.0625
1590503540.094668,-0.3807057057057057,-4.292117117117117,8.80858858858859,0.5133333333333333,0.2733333333333333,-0.6533333333333333,0.0,0.19191066066066065,0.0625
1590503540.104668,-0.3892871250319493,-4.327148500127797,8.744990124776356,0.5133333333333333,0.2733333333333333,-0.6533333333333333,0.0,0.1875,0.0625
1590503540.114668,-0.3801915688175518,-4.319616862364897,8.789616862364895,0.5133333333333333,0.2733333333333333,-0.6533333333333333,0.24880269489030127,0.25598652554849366,-0.0011973051096987324
1590503540.124668,-0.38772200078997454,-4.304555998420051,8.77455599842005,0.5133333333333333,0.2733333333333333,-0.6533333333333333,0.20173749506265934,0.4913125246867033,-0.048262504937340654
1590503540.1346679,-0.3711592336177749,-4.309420383191112,8.80768153276445,0.5070530778725917,0.2733333333333333,-0.660660298037532,0.24637739494445338,0.44474521011109325,-0.00362260505554661
1590503540.1446679,-0.3782886993867564,-4.31,8.727113006132436,0.5066666666666667,0.2733333333333333,-0.6611111111111111,0.25,0.28208688649831715,-0.1036087423344552
1590503540.1546679,-0.39924792679439525,-4.31,8.690752073205605,0.5066666666666667,0.2733333333333333,-0.6611111111111111,0.189850228767515,0.189850228767515,-0.064850228767515
1590503540.1646678,-0.38424843949908893,-4.325751560500911,8.697875780250454,0.5066666666666667,0.2733333333333333,-0.6611111111111111,0.03982912030395844,0.08905274686930563,-0.0625
1590503540.1746678,-0.3848330993604742,-4.310667602558103,8.719332397441896,0.5066666666666667,0.2733333333333333,-0.6611111111111111,-0.060413742005927314,0.0625,-0.09270687100296365
1590503540.1846678,-0.39,-4.293449786784555,8.736550213215446,0.5108830727366779,0.2733333333333333,-0.6538282278992736,-0.125,0.019377665193067564,-0.10343883259653378
1590503540.1946678,-0.39,-4.3,8.748489306284164,0.5188888888888888,0.2733333333333333,-0.64,-0.29833724641402837,-0.29361632855203784,0.05305816427601892
1590503540.2046678,-0.3802517475680696,-4.30974825243193,8.691510485408417,0.5188888888888888,0.2733333333333333,-0.64,-0.4343531553991299,-0.1906468446008701,-0.05935315539912989
1590503540.2146678,-0.38,-4.300393303277919,8.728426786888326,0.5188888888888888,0.2733333333333333,-0.64,-0.37745814548699164,-0.007374436460974937,-0.0024581454869916433
1590503540.2246678,-0.365005120184699,-4.329989759630601,8.774984639445902,0.5188888888888888,0.2733333333333333,-0.64,-0.2812820011543689,-0.09371799884563109,0.046858999422815545
1590503540.2346678,-0.3714952912944403,-4.32850470870556,8.80149529129444,0.5118639886533976,0.2771650970981468,-0.64,-0.28592278529512594,-0.05315442940974813,0.026577214704874064
1590503540.2446678,-0.38,-4.312358760167069,8.82528247966586,0.5066666666666667,0.28,-0.64,-0.36025774895581447,0.0,-0.047757748955814465
1590503540.2546678,-0.39387293400539214,-4.323872934005392,8.746762395967648,0.5066666666666667,0.28,-0.64,-0.4183529187668503,-0.08670583753370062,-0.0625
1590503540.2646677,-0.4,-4.304535052845923,8.735464947154078,0.5066666666666667,0.28,-0.64,-0.3313960535246776,-0.2841559197129836,-0.1155519732376612
1590503540.2746677,-0.406870828570375,-4.306870828570375,8.767483314281499,0.5066666666666667,0.28,-0.64,-0.3983853571296877,-0.48427071425937535,-0.03911464287031233
1590503540.2846677,-0.4551653161626393,-4.273867747069888,8.816132252930112,0.5066666666666667,0.2739779578449814,-0.6650918423125773,-0.15521677398350453,-0.5060433547967009,0.16936993560989727
1590503540.2946677,-0.46,-4.27,8.783699389905712,0.5066666666666667,0.2733333333333333,-0.6677777777777778,0.28338186356073214,-0.4092484747642817,0.7320091514143094
1590503540.3046677,-0.3915896336465099,-4.312756478970932,8.675935746263951,0.5066666666666667,0.2733333333333333,-0.6677777777777778,0.38405440128633583,-0.16121760514534333,1.6322927832776342
1590503540.3146677,-0.31472055931833076,-4.352639720340835,8.700799650426044,0.5066666666666667,0.2733333333333333,-0.6677777777777778,0.27300087393489186,-0.125,1.851999126065108
1590503540.3246677,-0.3186595786133764,-4.36,8.747319157226753,0.5066666666666667,0.2733333333333333,-0.6677777777777778,0.3374667747502018,-0.0666888168331988,1.5542884925825935
1590503540.3346677,-0.3460963651732883,-4.355427726120034,8.791524091293322,0.5066666666666667,0.2733333333333333,-0.6645602517140978,0.4184488588334742,0.009525570583262892,1.1112954353338969
1590503540.3446677,-0.38876050588329464,-4.303718482350116,8.808760505883296,0.5066666666666667,0.2733333333333333,-0.6466666666666666,0.20299367645881694,0.00774683822940847,0.3589810293764508
1590503540.3546677,-0.3680046429986977,-4.307331785667101,8.758677500330295,0.5066666666666667,0.2733333333333333,-0.6466666666666666,-0.08744196251627878,0.09164732083875961,0.3583236604193798
1590503540.3646677,-0.36,-4.31,8.755413525498891,0.5066666666666667,0.2733333333333333,-0.6466666666666666,-0.1875,0.15711151145602364,0.375
1590503540.3746676,-0.3704639796464917,-4.304768010176754,8.785695969469737,0.5066666666666667,0.2733333333333333,-0.6466666666666666,-0.1875,0.25289987279057313,0.375
1590503540.3846676,-0.3850401208173366,-4.305040120817337,8.794959879182663,0.5066666666666667,0.2806135078472639,-0.6500267472115576,-0.21900075510835348,0.5330052857584745,0.43800151021670697
1590503540.3946676,-0.39,-4.33093154199779,8.784767114500552,0.5066666666666667,0.2877777777777778,-0.6533333333333333,-0.1518833968853569,0.75,0.5
1590503540.4046676,-0.4007076992278282,-4.333938451158258,8.731815353474772,0.5066666666666667,0.2877777777777778,-0.6533333333333333,-0.0625,0.6496153197391109,0.5
1590503540.4146676,-0.4037627722628268,-4.307525544525654,8.702474455474347,0.5066666666666667,0.2877777777777778,-0.6533333333333333,-0.0625,0.4455519799280026,0.34406930657067014
1590503540.4246676,-0.3944974659955764,-4.316507602013271,8.743015204026541,0.5066666666666667,0.2877777777777778,-0.6533333333333333,-0.1656725125829429,0.375,0.25
1590503540.4346676,-0.3962622377622378,-4.304951048951049,8.782524475524475,0.49762121212121213,0.2912567987567987,-0.6401130536130536,-0.289138986013986,0.25758304195804194,0.289138986013986
1590503540.4446676,-0.4059014058791309,-4.278197188241738,8.79,0.4922222222222222,0.2933333333333333,-0.6322222222222222,-0.2756162132554318,0.2243837867445682,0.3493837867445682
1590503540.4546676,-0.41,-4.2924364138566,8.730169563049067,0.4922222222222222,0.2933333333333333,-0.6322222222222222,-0.4369701154716692,0.2032574711320827,0.5152275866037519
1590503540.4646676,-0.4452810333649195,-4.27353922497631,8.771741808388608,0.4922222222222222,0.2933333333333333,-0.6322222222222222,-0.7205064585307466,0.02212015610194007,0.7278798438980599
1590503540.4746675,-0.5024842650870048,-4.256878933728249,8.812802665679378,0.4922222222222222,0.2933333333333333,-0.6322222222222222,-0.832006664198445,-0.12300999629766753,0.996019992595335
1590503540.4846675,-0.5568883189107559,-4.239244672435698,8.82462233621785,0.5035750679845413,0.28616311495713176,-0.6435750679845413,-0.8077792027231104,-0.38916239183066853,1.6291559795766712
1590503540.4946675,-0.6186953551912568,-4.217101548269581,8.845796903460837,0.5133333333333333,0.28,-0.6533333333333333,-0.5081540300546448,-1.0461919398907105,3.1508068647540983
1590503540.5046675,-0.5710211459931854,-4.225328634223737,8.714377974874502,0.5133333333333333,0.28,-0.6533333333333333,-0.27919603610164645,-1.983127747288475,4.899647566780243
1590503540.5146675,-0.5334395619117795,-4.2520805841176275,8.68656043808822,0.5133333333333333,0.28,-0.6533333333333333,-0.008493611213450797,-2.463507301470342,5.974519166359648
1590503540.5246675,-0.49238905885560236,-4.279203647048132,8.718407294096265,0.5133333333333333,0.28,-0.6533333333333333,0.21626139702541422,-2.6299772059491717,7.051443749432042
1590503540.5346675,-0.42068987995002444,-4.263793253300016,8.748735582233328,0.5104214725888907,0.28339717086851646,-0.6504214725888907,0.16810391656255091,-2.2622143607293532,7.816090861354048
1590503540.5446675,-0.37,-4.2195460099029,8.7634846633657,0.5066666666666667,0.2877777777777778,-0.6466666666666666,-0.19884975242749658,-1.5483128094656293,7.997162561893126
1590503540.5546675,-0.3739801351252111,-4.180099324373945,8.746119189248732,0.5066666666666667,0.2877777777777778,-0.6466666666666666,-0.8616309117279871,-0.5146106429463171,7.551614021076595
1590503540.5646675,-0.3907969333595439,-4.135604088853942,8.72439591114606,0.5066666666666667,0.2877777777777778,-0.6466666666666666,-1.1699872223314332,0.3049488893257323,6.702602221348536
1590503540.5746675,-0.46727079064294263,-4.026697031792084,8.812477226155938,0.5066666666666667,0.2877777777777778,-0.6466666666666666,-1.412701109781087,0.4948391121751303,5.704557558481609
1590503540.5846674,-0.52,-3.95,8.863194872747538,0.5112034181683076,0.29155840402914524,-0.6323002869114702,-1.6475640906557683,0.6301922719673045,5.332467954672116
1590503540.5946674,-0.525471342073741,-3.944528657926259,8.838114631705036,0.5133333333333333,0.2933333333333333,-0.6255555555555555,-1.5849123361173556,0.6132164481564741,5.5518712157261705
1590503540.6046674,-0.53,-3.957477762885342,8.767566711343974,0.5133333333333333,0.2933333333333333,-0.6255555555555555,-1.3907639819666138,0.31793996994435647,5.932060030055643
1590503540.6146674,-0.53,-3.9925750338632637,8.741287516931632,0.5133333333333333,0.2933333333333333,-0.6255555555555555,-1.0303120767092038,-0.09468792329079634,6.168320471234049
1590503540.6246674,-0.53,-4.001387091217795,8.784451635128818,0.5133333333333333,0.2933333333333333,-0.6255555555555555,-0.6510079603336696,-0.6354840793326608,6.142338640222446
1590503540.6346674,-0.6013705005792817,-3.914873157284967,8.803705605049739,0.5033164209713289,0.2783079647903266,-0.6226339561166375,-0.48445427669689584,-1.1329314150453438,6.023477138348448
1590503540.6446674,-0.675714877745545,-3.7715478657273107,8.77845213427269,0.4866666666666667,0.2533333333333333,-0.6177777777777778,-0.79315167840862,-1.042413489432242,6.9851067136344795
1590503540.6546674,-0.5938565941765713,-3.7461434058234286,8.785426376706285,0.4866666666666667,0.2533333333333333,-0.6177777777777778,-1.0339148544142835,-0.6491037136035709,9.560803446307157
1590503540.6646674,-0.5970060794205148,-3.73598784115897,8.727963523476912,0.4866666666666667,0.2533333333333333,-0.6177777777777778,-0.49962003621782436,-0.8001519855128703,11.194623916699005
1590503540.6746674,-0.7264171649133428,-3.6150753046242334,8.81343222583819,0.4866666666666667,0.2533333333333333,-0.6177777777777778,-0.6716396730492696,-0.839086032695073,12.486935215318248
1590503540.6846673,-0.82,-3.49177972426254,8.859423779410031,0.5223389240216295,0.2533333333333333,-0.6449566405244161,-1.3197027573746023,-0.19142051926627124,14.558260340154758
1590503540.6946673,-0.82,-3.48,8.85,0.5333333333333333,0.2533333333333333,-0.6533333333333333,-1.4375,0.0,15.0
1590503540.7046673,-0.8281601897184823,-3.0491156670746635,8.610439106487147,0.5333333333333333,0.2533333333333333,-0.6533333333333333,-2.390170784883721,-0.20634275550795594,16.27344228121175
1590503540.7146673,-0.6072559864244862,-2.8625460373326628,8.975460373326628,0.5333333333333333,0.2533333333333333,-0.6533333333333333,-6.189801866633147,3.2412521211740306,19.00725127270442
1590503540.7246673,-0.5686319055244196,-2.8886319055244196,9.343159527622097,0.5333333333333333,0.2533333333333333,-0.6533333333333333,-8.535789881905524,3.6938500800640512,21.800245196156926
1590503540.7346673,-0.33663705341823313,-2.768486674038205,9.149159263354557,0.5293790538164657,0.2635014806624216,-0.6533333333333333,-3.4477017958592286,-1.0601503221870592,25.217976703397262
1590503540.7446673,-0.21457896898747175,-2.704859656329157,8.732077086328472,0.5255555555555556,0.2733333333333333,-0.6533333333333333,2.5872591052235228,-1.4137934723077976,31.101843294310946
1590503540.7546673,-0.31948953647565026,-2.7349149227459417,8.713874437707803,0.5255555555555556,0.2733333333333333,-0.6533333333333333,0.401708879327205,-2.4278065714844517,39.059065128104834
1590503540.7646673,-0.3711185698650128,-2.7241610726012406,8.932170010944912,0.5255555555555556,0.2733333333333333,-0.6533333333333333,-2.7655201112732577,-5.105984357898577,47.58668939255746
1590503540.7746673,-0.41287365813377375,-2.7191494632535096,8.8,0.5255555555555556,0.2733333333333333,-0.6533333333333333,-1.5564616019818334,-5.255315854665565,55.261509083402146
1590503540.7846673,-0.49008067824422263,-2.87398194995214,8.893901271707918,0.5255555555555556,0.26081316377227765,-0.662375678016318,-1.4938893067140708,-4.952746820730207,64.07768699576097
1590503540.7946672,-0.5329985745160253,-2.96,8.885007127419874,0.5255555555555556,0.2533333333333333,-0.6677777777777778,-1.8406561824619487,-5.665531452614154,71.36200108060882
1590503540.8046672,-0.6030296310276494,-2.865455553458526,8.742849627252996,0.5255555555555556,0.2533333333333333,-0.6677777777777778,-1.963254635745966,-6.361361116353685,77.94881953618949
1590503540.8146672,-0.6336202039825158,-2.892937348227295,8.788456532297232,0.5255555555555556,0.2533333333333333,-0.6677777777777778,-2.0851262748907238,-7.616464303059738,84.40224623603692
1590503540.8246672,-0.6768435947787917,-3.0076629702360322,8.777132185899658,0.5255555555555556,0.2533333333333333,-0.6677777777777778,-1.411894516961226,-7.631924791113165,90.00558796349775
1590503540.8346672,-0.758308972340904,-3.127463458511356,8.895160032981035,0.5255555555555556,0.25049563167845157,-0.658555247399412,-1.6904139494790495,-8.1798450266097,96.5741557979162
1590503540.8446672,-0.802808615819209,-3.1904114877589453,9.038014359698682,0.5255555555555556,0.2488888888888889,-0.6533333333333333,-2.235017949623352,-8.907535899246705,102.83911546610169
1590503540.8546672,-0.7944024763929711,-3.098616096554312,8.870628478519167,0.5255555555555556,0.2488888888888889,-0.6533333333333333,-1.6163506034644488,-9.294943249327748,105.61727299731099
1590503540.8646672,-0.7683266812410999,-2.8979680699572796,8.447968069957279,0.5255555555555556,0.2488888888888889,-0.6533333333333333,0.0042331875890009585,-9.923058023626627,111.68052658496961
1590503540.8746672,-0.811294977102566,-3.0612949771025657,8.722362251944464,0.5255555555555556,0.2488888888888889,-0.6533333333333333,-1.3949353056625717,-8.955859971287344,116.12507609762302
1590503540.8846672,-0.8570276949916407,-3.1070276949916407,9.217800029076107,0.5255555555555556,0.2488888888888889,-0.6533333333333333,-5.77765410336556,-7.764903776259359,120.17432716071818
1590503540.8946671,-0.9560522282841906,-3.204453503340894,9.027308281738492,0.5522222222222222,0.1955555555555556,-0.6466666666666666,-2.6648646784772883,-9.430159228835898,126.35195856065714
1590503540.9046671,-1.0569987228607918,-3.19,8.908663260962111,0.5522222222222222,0.1955555555555556,-0.6466666666666666,-1.006066411238825,-10.295790762026394,130.64777564921243
1590503540.9146671,-1.0944563149942228,-3.2080703937427786,8.839893165051995,0.5522222222222222,0.1955555555555556,-0.6466666666666666,-3.408980312861079,-10.836620078215269,134.6783074837792
1590503540.9246671,-1.1257647734891294,-3.234235226510871,8.652275005586949,0.5522222222222222,0.1955555555555556,-0.6466666666666666,-1.8365198895380392,-10.749758563994508,137.87696740414393
1590503540.934667,-1.2004151011998545,-3.2637761079465117,8.856888053973256,0.5652928040147771,0.17800363143412473,-0.6586169128770025,-2.0845440451662425,-11.621367864501273,141.23729573183047
1590503540.944667,-1.2650842502115873,-3.328101100253905,8.934441024851889,0.5911111111111111,0.14333333333333334,-0.6822222222222222,-2.4841117180887897,-11.208269215972917,143.8639926521505
1590503540.954667,-1.245521519263652,-3.2272392403681742,8.907165569178158,0.5911111111111111,0.14333333333333334,-0.6822222222222222,-2.175382908283916,-11.863343353221524,145.89317563757413
1590503540.964667,-1.3810953346855983,-3.2810953346855984,8.833515889114267,0.5911111111111111,0.14333333333333334,-0.6822222222222222,-1.73144861392833,-11.258944669821952,147.34750394410636
1590503540.974667,-1.48,-3.3586246698620754,9.015658808568913,0.5911111111111111,0.14333333333333334,-0.6822222222222222,-2.939468600215201,-11.747670693534188,148.10019686002153
1590503540.984667,-1.4216709045740172,-3.1968285839544057,8.799420137366653,0.5911111111111111,0.1150525597934629,-0.674562846055174,-2.851395586730966,-11.86652783866725,148.98289675580887
1590503540.994667,-1.4780033397499828,-3.1960038963749797,8.768008905999954,0.5911111111111111,0.09,-0.6677777777777778,-2.1500046385416427,-11.437505798177053,149.9875092770833
1590503541.004667,-1.5438939847207458,-3.1884097708111847,8.685229312433556,0.5911111111111111,0.09,-0.6677777777777778,-2.2118374045046605,-11.257199236037284,150.3783129774767
1590503541.014667,-1.5717901933813416,-3.1088065377457723,8.520596731127114,0.5911111111111111,0.09,-0.6677777777777778,-1.061597317744154,-10.234630380694231,150.56622956954448
1590503541.024667,-1.6207639351543415,-3.081694425938263,8.745944925605151,0.5911111111111111,0.09,-0.6677777777777778,-1.0747418387741505,-10.719881190317565,149.8463524317122
1590503541.034667,-1.754057457555774,-3.0864301248772272,8.962372667321453,0.5941537268291163,0.054097134527540024,-0.6915101803782174,-2.6369177073102286,-12.095205731724429,147.92849375613864
1590503541.044667,-1.84,-3.1,8.89,0.5966666666666667,0.024444444444444446,-0.7111111111111111,-2.75,-11.8125,147.25
1590503541.054667,-1.911997738982977,-3.108999717372872,9.033995477965956,0.5966666666666667,0.024444444444444446,-0.7111111111111111,-2.4687588320977456,-11.8125,146.06878709481052
1590503541.064667,-1.7580609514947074,-2.8361726959016713,8.908721259354039,0.5966666666666667,0.024444444444444446,-0.7111111111111111,-1.702158698770889,-10.401777751928968,143.6275396456128
1590503541.074667,-1.7158425371325694,-2.704544195547554,8.374406052002907,0.5966666666666667,0.024444444444444446,-0.7111111111111111,-0.08520366651663608,-9.050040248589136,141.50869023300905
1590503541.084667,-1.920141650684701,-2.753447394098449,9.161050435718852,0.5935970077274205,0.001933612223306378,-0.7172504289896033,-4.138946367888026,-11.83050494599778,134.06286800578715
1590503541.094667,-1.85,-2.57,8.26,0.59,-0.024444444444444446,-0.7244444444444444,-4.375,-12.4375,131.5
1590503541.104667,-2.03,-2.750911525756629,8.625918221587359,0.59,-0.024444444444444446,-0.7244444444444444,-1.1248326042317651,-9.085120748147487,127.15076220873136
1590503541.114667,-2.0226338400528747,-2.6709969156201807,8.391101564221193,0.59,-0.024444444444444446,-0.7244444444444444,-5.483345725930822,-11.865230502313285,121.259576723948
1590503541.124667,-1.9909984443738187,-2.618165197464162,8.810831172741414,0.59,-0.024444444444444446,-0.7244444444444444,-0.5551818660823311,-8.409370138668184,116.80942847464999
1590503541.134667,-2.117284177776291,-2.7374350567887196,8.986228024689293,0.59,-0.024444444444444446,-0.7244444444444444,-2.7037933024438385,-8.804013055550909,112.46835638894
1590503541.144667,-2.188028608059529,-2.5951305965459164,9.044869403454083,0.5544444444444444,-0.08444444444444445,-0.7477777777777778,-2.1389536564518967,-8.704718570099802,103.43987091178762
1590503541.154667,-2.2448320064768588,-2.5046304142490894,8.989395223316691,0.5544444444444444,-0.08444444444444445,-0.7477777777777778,-1.7223198623667522,-7.315439886654972,96.31918094724058
1590503541.164667,-2.318739539858644,-2.440126046014136,8.69758394328978,0.5544444444444444,-0.08444444444444445,-0.7477777777777778,-0.984899645561125,-6.7008923890019085,89.60188937941737
1590503541.174667,-2.4909495941098734,-2.489747026618841,8.762595808948461,0.5544444444444444,-0.08444444444444445,-0.7477777777777778,-0.9477888427411743,-6.045096280913725,83.52016471587692
1590503541.1846669,-2.575609014940491,-2.5212180298809823,9.135933147632313,0.5442545229453307,-0.10142764694296727,-0.7579676992768914,-2.608730058242593,-6.463408457837427,76.33226766269942
1590503541.1946669,-2.508987009159893,-2.3824675228997325,8.922909064119251,0.5277777777777778,-0.1288888888888889,-0.7744444444444445,-1.6685064217479924,-5.4837660543699815,69.83733669359789
1590503541.2046669,-2.551841701381276,-2.3929901736062664,8.798732534731219,0.5277777777777778,-0.1288888888888889,-0.7744444444444445,-1.3821779514061907,-4.561756293476311,65.23551454027226
1590503541.2146668,-2.591126772879103,-2.397645896364177,8.783923506059706,0.5277777777777778,-0.1288888888888889,-0.7744444444444445,-1.4185109564365785,-4.0,61.175805774645426
1590503541.2246668,-2.5403370892313486,-2.3100561815385583,8.929887636922883,0.5277777777777778,-0.1288888888888889,-0.7744444444444445,-1.8746488653840119,-4.004915884623835,57.218046749945074
1590503541.2346668,-2.635463914286612,-2.3296719766236214,8.913223992207874,0.5249120069263343,-0.14035197229466245,-0.7841164210680659,-1.530400681811041,-4.371251217519716,49.728854431771765
1590503541.2446668,-2.719000242927497,-2.3545001214637487,8.929000242927497,0.5188888888888888,-0.16444444444444445,-0.8044444444444444,-0.8531227225547139,-2.66560753958614,43.00617256686027
1590503541.2546668,-2.7505499608032324,-2.3771249673360266,8.936575006532793,0.5188888888888888,-0.16444444444444445,-0.8044444444444444,-0.75,-1.9392186275101007,37.10250457295624
1590503541.2646668,-2.7770885190882395,-2.3996708152705915,8.896430149629422,0.5188888888888888,-0.16444444444444445,-0.8044444444444444,-0.6693032443014963,-1.755852328345686,30.78922877919172
1590503541.2746668,-2.7559856118090975,-2.37,8.831971223618195,0.5188888888888888,-0.16444444444444445,-0.8044444444444444,-0.21769783762491188,-0.7351258966703984,23.696960391010492
1590503541.2846668,-2.7978085355075977,-2.367397154830801,8.905205690338398,0.5136831985504905,-0.17340980002724166,-0.8102285448204426,0.08732217692505059,-0.3398933061550304,17.191705034638083
1590503541.2946668,-2.8111490648862,-2.3540993765908,8.9022981297724,0.4988888888888889,-0.1988888888888889,-0.8266666666666667,-0.3012422073850013,0.19565227415249548,9.846660703087537
1590503541.3046668,-2.794849314175871,-2.343636985631903,8.852726028736193,0.4988888888888889,-0.1988888888888889,-0.8266666666666667,-0.170462320398788,0.895847587397778,4.151370019222624
1590503541.3146667,-2.694917962721121,-2.298904190905853,8.93508203727888,0.4988888888888889,-0.1988888888888889,-0.8266666666666667,-0.5444348806838418,1.4333476789742372,-4.421700997269381
1590503541.3246667,-2.531470756628204,-2.212364793446666,9.082235092046155,0.4988888888888889,-0.1988888888888889,-0.8266666666666667,0.2915460120672949,0.35521860961860297,-11.05294580727561
1590503541.3346667,-2.722480158730159,-2.3128458049886618,9.072687074829933,0.48818405139833715,-0.21530297304106827,-0.8127503779289493,0.5215596655328798,0.7835884353741496,-18.01580215419501
1590503541.3446667,-2.6783392766174225,-2.2919872401329355,9.008601994032459,0.4655555555555556,-0.25,-0.7833333333333333,-2.2361606384785193,4.947480775295345,-25.720057674113967
1590503541.3546667,-2.7353274680073127,-2.3454595521023767,8.600985146252285,0.4655555555555556,-0.25,-0.7833333333333333,-0.2611103176416819,4.097447726234003,-31.691180587294333
1590503541.3646667,-2.922131457172538,-2.4640985928794032,8.72240532628199,0.4655555555555556,-0.25,-0.7833333333333333,0.11510175653980548,5.435103645292284,-37.39308480498631
1590503541.3746667,-2.9355016080506275,-2.471561157796452,8.705203859321506,0.4655555555555556,-0.25,-0.7833333333333333,-0.6498625376076357,6.065987135594979,-42.983033769063184
1590503541.3846667,-3.043335082349512,-2.5691234513919254,8.986670164699023,0.46389868661840683,-0.25629610196116537,-0.7743862410727299,0.19628516251275324,5.43967169508818,-48.15235934994899
1590503541.3946667,-2.9770745669187892,-2.5837208385728494,8.790428295264729,0.46,-0.27111111111111114,-0.7533333333333333,-0.4352055610818115,6.622323154595446,-54.05301139242882
1590503541.4046667,-3.0747196557633556,-2.6978343640563294,8.90080247373519,0.46,-0.27111111111111114,-0.7533333333333333,0.2744823876760301,5.947691584084644,-58.39629940950749
1590503541.4146667,-2.8481443260561803,-2.6197049400193726,8.713291856046494,0.46,-0.27111111111111114,-0.7533333333333333,0.03032793756053942,7.217294724685194,-62.54692506147083
1590503541.4246666,-2.9832684214612937,-2.7467315785387068,8.942878950229055,0.46,-0.27111111111111114,-0.7533333333333333,0.6968009938659834,5.732006561068406,-69.04998350027176
1590503541.4346666,-2.957214845873127,-2.772785154126873,8.760503921111889,0.46,-0.27111111111111114,-0.7533333333333333,0.24900516344436685,6.871850493050703,-72.38809787250563
1590503541.4446666,-2.771507188422355,-2.8015071884223555,8.985397124631058,0.5155555555555555,-0.23777777777777775,-0.7888888888888889,-0.125,6.5,-83.5625
1590503541.4546666,-2.8513757973912215,-2.8813757973912217,8.95344968104351,0.5155555555555555,-0.23777777777777775,-0.7888888888888889,-0.125,6.5,-83.5625
1590503541.4646666,-2.7921150565709314,-2.912690339425587,8.736531244560487,0.5155555555555555,-0.23777777777777775,-0.7888888888888889,1.5685280678851174,8.121404482158399,-89.65714643167972
1590503541.4746666,-2.7994158398607483,-2.9564950391644906,8.897148476936467,0.5155555555555555,-0.23777777777777775,-0.7888888888888889,1.157859007832898,7.8932550043516105,-96.45600087032201
1590503541.4846666,-2.6051056782938318,-2.8428558027338515,8.799798024275377,0.5082093825647833,-0.2414508642731639,-0.7905213717757271,1.9579320940383658,8.281910489336447,-102.09940125205804
1590503541.4946666,-2.452538959298541,-2.8990645939426427,8.711469923804419,0.47609007330261693,-0.25751051890424714,-0.7976589960562086,0.9542036795956657,7.328368495615882,-105.81319638549604
1590503541.5046666,-2.486278280755028,-3.0450808824907685,9.08899660724662,0.4755555555555556,-0.2577777777777778,-0.7977777777777778,2.9635923353764833,10.399271776415677,-109.81978223584322
1590503541.5146666,-2.3487347318109397,-2.9723220924057356,8.537642060541689,0.4755555555555556,-0.2577777777777778,-0.7977777777777778,3.1202369888475836,9.973355350504514,-112.93251294476899
1590503541.5246665,-2.39357517968573,-3.14357517968573,9.026274069650102,0.4755555555555556,-0.2577777777777778,-0.7977777777777778,1.2432527750890705,8.922953951026628,-116.98208033857117
1590503541.5346665,-2.3480061394532963,-3.159766116064903,8.710910685572285,0.4697490620279687,-0.24537299615066022,-0.7787747080511296,2.0632308872971787,9.660923110656336,-118.95399978073381
1590503541.5446665,-2.3629995580675924,-3.3176545018956576,9.021515595562068,0.4511111111111111,-0.20555555555555555,-0.7177777777777777,2.4691868443700136,10.297417602865583,-121.18146704114623
1590503541.5546665,-2.1505826369899634,-3.0467886222330853,8.453143703884756,0.4511111111111111,-0.20555555555555555,-0.7177777777777777,4.111279998777898,11.167851850720275,-122.54793407525091
1590503541.5646665,-2.06728739249324,-3.066010601732329,8.773510028872153,0.4511111111111111,-0.20555555555555555,-0.7177777777777777,1.9488073051129682,9.165562319549045,-124.630315187669
1590503541.5746665,-2.11492766934558,-3.31492766934558,9.025572904707234,0.4511111111111111,-0.20555555555555555,-0.7177777777777777,2.033926521239954,9.608036739380022,-127.3455223880597
1590503541.5846665,-2.185554994259472,-3.385554994259472,8.9100009184845,0.4511111111111111,-0.20555555555555555,-0.7177777777777777,2.194443168771527,9.527778415614236,-128.38888059701492
1590503541.5946665,-2.0252432868968304,-3.326741368867353,9.032733696749444,0.5044444444444445,-0.13111111111111112,-0.6766666666666666,2.5498561477892188,10.045654149000606,-129.90613012315768
1590503541.6046665,-2.020647838638608,-3.355642900554585,9.130019752336093,0.5044444444444445,-0.13111111111111112,-0.6766666666666666,4.851261585504824,5.9651022278356,-131.05078510787814
1590503541.6146665,-1.7259029096710476,-3.1246266048773075,8.875105219174959,0.5044444444444445,-0.13111111111111112,-0.6766666666666666,8.734725176631468,2.62930657904733,-131.00099711312012
1590503541.6246665,-2.0172603550295856,-3.5163471400394477,10.167136094674557,0.5044444444444445,-0.13111111111111112,-0.6766666666666666,-4.643035009861933,19.2833949704142,-129.47991863905327
1590503541.6346664,-1.1104613627712219,-2.593211267605634,8.429710696612105,0.5069636678932454,-0.1213141310324409,-0.6747072706509326,-4.338589645984012,8.422532832127903,-131.24519413779979
1590503541.6446664,-1.4936482679862961,-3.1839577464788733,10.265814617434335,0.5229297889438735,-0.059223660279998314,-0.662289176500444,12.924778740007614,15.457604920060906,-127.25366387514275
1590503541.6546664,-1.4584735876488506,-3.321557740238161,8.976490584325672,0.5244444444444445,-0.05333333333333334,-0.6611111111111111,3.2573300332317916,9.17289618526724,-127.39103066152036
1590503541.6646664,-1.5673674189975078,-3.495787870396012,9.702449459983384,0.5244444444444445,-0.05333333333333334,-0.6611111111111111,-2.913320409858766,7.539488715037386,-127.43640309124896
1590503541.6746664,-1.3036042689434364,-3.0539090715048025,8.437208537886873,0.5244444444444445,-0.05333333333333334,-0.6611111111111111,5.235082710779082,9.40037886872999,-123.70748665955176
1590503541.6846664,-1.4521678661738961,-3.3995571548985284,8.730732671983402,0.5278473347885914,-0.035117861491135174,-0.6613112811313551,0.2791994910199054,8.076527345522921,-122.61831963625754
1590503541.6946664,-1.28,-3.17,8.37,0.5433333333333333,0.04777777777777778,-0.6622222222222223,2.6875,9.5625,-120.3125
1590503541.7046664,-1.372623653281097,-3.355247306562194,8.833118266405483,0.5433333333333333,0.04777777777777778,-0.6622222222222223,1.799856656056154,8.674856656056154,-118.53721331211231
1590503541.7146664,-1.30587808814401,-3.3093658597144633,8.77,0.5433333333333333,0.04777777777777778,-0.6622222222222223,3.5615859714463065,8.962347920546245,-113.77393389199256
1590503541.7246664,-1.1832963342971736,-3.3020865590896373,8.771098778099057,0.5433333333333333,0.04777777777777778,-0.6622222222222223,1.6936736311911202,7.7369590056897675,-110.51238224046264
1590503541.7346663,-1.2302430743400803,-3.4742246059136273,8.786747691446692,0.5433333333333333,0.04777777777777778,-0.6622222222222223,2.671730715418338,6.661096213039828,-108.01833667568324
1590503541.7446663,-1.1321797472304571,-3.464159775315962,9.025358090185676,0.5644444444444444,0.10666666666666667,-0.6533333333333333,2.9492510532064284,8.340370962708691,-102.53161569667655
1590503541.7546663,-1.0660776239884218,-3.425526020751371,8.54442281427727,0.5644444444444444,0.10666666666666667,-0.6533333333333333,3.0144920704486617,7.088738610188148,-99.4267752308539
1590503541.7646663,-1.108826874859857,-3.6050728744113987,8.997564873514483,0.5644444444444444,0.10666666666666667,-0.6533333333333333,1.357958599180545,6.394063283527325,-96.27401797908556
1590503541.7746663,-1.1245350888132695,-3.668140355253078,8.603017513228455,0.5644444444444444,0.10666666666666667,-0.6533333333333333,3.174808254200146,7.010910135580538,-92.96252716955584
1590503541.7846663,-1.0875048819628392,-3.6744912124668896,9.088023433421627,0.5642226561744745,0.11021527898618443,-0.6530006509283786,1.7780700779180603,5.971807873010962,-88.32534173739873
1590503541.7946663,-1.0469575220896734,-3.7474764602385875,8.893396106030432,0.560618446407971,0.16788263525024222,-0.6475943362786231,2.2342278764911736,6.52933407126699,-85.48702654627714
1590503541.8046663,-1.0025392603038268,-3.7625392603038263,8.839528876354079,0.56,0.17777777777777778,-0.6466666666666666,1.9295648115505417,6.115101796359208,-81.94846283892058
1590503541.8146663,-1.015981667841805,-3.775981667841805,8.678219985898341,0.56,0.17777777777777778,-0.6466666666666666,1.8875572879943594,5.400973895904109,-80.35217694378565
1590503541.8246663,-0.9523474462927359,-3.8051301930953776,8.995390579286132,0.56,0.17777777777777778,-0.6466666666666666,2.9782597906043633,6.032063706846109,-76.00923028295578
1590503541.8346663,-0.855930786591992,-3.743774136922177,8.81132241076653,0.56,0.17777777777777778,-0.6466666666666666,2.7043488255454315,5.6485883557636045,-73.76316036947254
1590503541.8446662,-0.9634634904668282,-3.930585707100727,8.922024598783777,0.5611111111111111,0.21666666666666667,-0.6622222222222223,0.7504515111334644,4.595580334689772,-70.3679958621005
1590503541.8546662,-0.9168296646476585,-3.7576104299010193,8.818146698182893,0.5611111111111111,0.21666666666666667,-0.6622222222222223,3.2301854040478655,4.166157297976067,-66.24452928793028
1590503541.8646662,-0.7764305508289173,-3.5093543682240265,8.610134668676164,0.5611111111111111,0.21666666666666667,-0.6622222222222223,3.002017599299917,4.944786450483738,-61.779653240313095
1590503541.8746662,-0.5230137576117934,-3.063644024357739,8.053534537551515,0.5611111111111111,0.21666666666666667,-0.6622222222222223,3.7811622209009084,6.641949695528264,-58.08167813134316
1590503541.8846662,-0.6511946943131575,-3.4703982314377195,8.695331910352188,0.5611553590486354,0.21739675763581848,-0.6623328420660332,-0.897400518371703,1.5824115718859582,-58.14145449001372
1590503541.8946662,-0.71,-3.49,9.45,0.5633333333333334,0.2533333333333333,-0.6677777777777778,-2.0,2.5625,-55.875
1590503541.9046662,-0.6904816200353935,-3.5534347348849713,9.010836450796353,0.5633333333333334,0.2533333333333333,-0.6677777777777778,0.7752696512174908,3.477424060840931,-54.350126565265114
1590503541.9146662,-0.628285672653091,-3.6895238789115155,8.807238351972606,0.5633333333333334,0.2533333333333333,-0.6677777777777778,1.0369021164984882,2.7863078758515174,-51.75059424064697
1590503541.9246662,-0.4933780945236309,-3.493780945236309,8.61715903975994,0.5633333333333334,0.2533333333333333,-0.6677777777777778,0.9726884846211553,4.1311984246061515,-47.3919167291823
1590503541.9346662,-0.5169769317329332,-3.7297693173293323,8.876746249062265,0.5633333333333334,0.2533333333333333,-0.6677777777777778,1.2185097055513878,3.7378844711177797,-45.32701847336834
1590503541.9446661,-0.52,-3.9120441631634866,8.76640273479004,0.6205845305739055,0.2927521904497929,-0.6931184716383589,0.8804482145331917,2.526051531390031,-42.68680995057052
1590503541.9546661,-0.5771825218186835,-3.9559126090934176,8.812817478181318,0.6311111111111111,0.3,-0.6977777777777778,-0.046626090934173664,2.608258426150473,-38.96911984665205
1590503541.9646661,-0.565000943903112,-3.89500471951556,8.824999056096889,0.6311111111111111,0.3,-0.6977777777777778,0.5624528048444012,2.2656515472750245,-37.48449003819177
1590503541.974666,-0.43052785923753667,-3.5851612903225805,8.614213098729229,0.6311111111111111,0.3,-0.6977777777777778,0.9203934506353861,2.3407869012707723,-34.663184261974585
1590503541.984666,-0.485305269980735,-3.7248402081345313,8.799069876307593,0.6311111111111111,0.3,-0.6977777777777778,0.16733246610611985,1.4764712104571398,-33.49954538088979
1590503541.994666,-0.5288984526593363,-3.7688984526593363,8.704773371809543,0.9155555555555556,0.4088888888888889,-0.7388888888888889,0.4954102194139012,2.4225832130951788,-29.737916065475893
1590503542.004666,-0.468292023020659,-3.7196785362162657,8.940642927567469,0.9155555555555556,0.4088888888888889,-0.7388888888888889,0.2677914268681357,1.6036502877582373,-25.458220599362576
1590503542.014666,-0.4396337590377728,-3.881281843367795,8.62567673491452,0.9155555555555556,0.4088888888888889,-0.7388888888888889,0.5544884789512805,1.2465664909791203,-20.515127711331846
1590503542.024666,-0.42073923913777955,-3.9474126630177717,8.918541793364415,0.9155555555555556,0.4088888888888889,-0.7388888888888889,0.14117085613892827,1.0694303669166836,-14.846771741333875
1590503542.034666,-0.44548447610817193,-3.8990310477836565,8.785587968720359,0.9155555555555556,0.4088888888888889,-0.7388888888888889,0.39046329279345743,0.31920278017831927,-9.475012119806927
1590503542.044666,-0.3708708256359244,-3.8108708256359245,8.710544266022454,1.5870545213395861,0.3770174158811362,-1.271911799535787,0.1284016626403297,-0.24523767230353843,-2.751451257638198
1590503542.054666,-0.3875364907310464,-3.9590145962924184,8.862116770339348,1.5944444444444446,0.37666666666666665,-1.2777777777777777,-0.30634122682761594,-0.6403969329309601,2.288207489068178
1590503542.064666,-0.3444835868694956,-3.9417934347477983,8.724347477982386,1.5944444444444446,0.37666666666666665,-1.2777777777777777,-0.19870896717373898,-0.9094775820656525,5.140462369895916
1590503542.074666,-0.3013704122545492,-3.8241112367636476,8.806573969363628,1.5944444444444446,0.37666666666666665,-1.2777777777777777,0.41608730852266884,-0.8771412691477332,7.610414310681608
1590503542.084666,-0.3,-3.973874329017998,8.878388590674666,1.5944444444444446,0.37666666666666665,-1.2777777777777777,-0.09678586464582672,-1.3558572781812441,9.183500421008315
1590503542.094666,-0.2927304405542189,-3.9709217622168755,8.824573964987971,1.0524584013200955,0.18523493459443016,-0.9336852973441374,-0.051195760391603756,-1.482934746536132,10.391629677258774
1590503542.104666,-0.22346555254640332,-3.8174261840280073,8.761980315740802,0.8488888888888889,0.11333333333333333,-0.8044444444444444,0.7128690798599644,-1.7376230266199881,11.819303619789947
1590503542.114666,-0.22645678342220377,-3.81,8.727716082888982,0.8488888888888889,0.11333333333333333,-0.8044444444444444,0.4675157252785849,-1.75,12.43996854944283
1590503542.124666,-0.266319332058261,-3.7882084007650434,8.73905546564661,0.8488888888888889,0.11333333333333333,-0.8044444444444444,-0.005294155509783738,-1.5230041746358687,12.795399165072826
1590503542.134666,-0.2682087996582657,-3.8448516018795384,8.720521999145664,0.8488888888888889,0.11333333333333333,-0.8044444444444444,0.2803225117471166,-1.4375,12.66510999572832
1590503542.144666,-0.28546823930652265,-3.9218352991331535,8.80187295722609,0.6897123932231223,0.2137913883757283,-0.7627048300254212,-0.07420598266306666,-1.4375,12.005382265169816
1590503542.154666,-0.27372571759930414,-3.8349028703972166,8.754902870397215,0.5988888888888889,0.27111111111111114,-0.7388888888888889,0.1372499275152218,-1.3553928674978255,10.78432154247608
1590503542.164666,-0.26967734553775746,-3.78,8.796773455377576,0.5988888888888889,0.27111111111111114,-0.7388888888888889,-0.16733409610983985,-1.191533180778032,8.860898169336384
1590503542.174666,-0.22606102724201343,-3.7712122054484025,8.720909849035625,0.5988888888888889,0.27111111111111114,-0.7388888888888889,0.3617371594748322,-1.1875,7.2197122375229865
1590503542.184666,-0.24430961688819391,-3.7132775605942143,8.782928850664582,0.5988888888888889,0.27111111111111114,-0.7388888888888889,0.7413702111024238,-1.1875,5.430003909304144
1590503542.194666,-0.25687817415441555,-3.6931218258455845,8.896294438161817,0.5583840855351085,0.30091653244691186,-0.7304822315890477,0.4685912922792228,-1.1015228230698058,4.0737624653027655
1590503542.204666,-0.23957896684942281,-3.6685263839729796,8.834105535891918,0.54,0.3144444444444445,-0.7266666666666667,-0.9046067851111573,-0.3697370856177852,2.40197532792005
1590503542.214666,-0.2201730399981493,-3.6006056399935225,8.56242255997409,0.54,0.3144444444444445,-0.7266666666666667,0.6114812501445857,-0.12716299997686634,0.7646002498438478
1590503542.2246659,-0.18056259190740476,-3.501406479768512,8.56,0.54,0.3144444444444445,-0.7266666666666667,0.19365334898723968,-0.8028304515914805,-1.0986285043404014
1590503542.2346659,-0.22222834967320262,-3.7195874183006534,8.923163807189542,0.54,0.3144444444444445,-0.7266666666666667,0.24028543709150327,-0.5485728145424836,-2.8141339869281046
1590503542.2446659,-0.18103260404484126,-3.5347499786062695,8.735369541033174,0.554146136609268,0.3231497592809171,-0.7614879260125573,0.3112092449439484,0.11209244943948427,-5.267323573038195
1590503542.2546659,-0.17004323880380695,-3.569827044784772,8.85943789555051,0.5544444444444444,0.3233333333333333,-0.7622222222222222,0.9347975747620658,0.06277024252379342,-8.05060932895309
1590503542.2646658,-0.24458023616598584,-3.653902765686734,8.738807116230273,0.5544444444444444,0.3233333333333333,-0.7622222222222222,0.1800444764392063,0.5868922855420879,-10.218334951673029
1590503542.2746658,-0.24204384189109052,-3.6043068932376334,8.745912316217819,0.5544444444444444,0.3233333333333333,-0.7622222222222222,0.37362994090342105,0.6747259881806842,-12.811573420853527
1590503542.2846658,-0.2603782490830809,-3.6256619358953914,8.77037824908308,0.5544444444444444,0.3233333333333333,-0.7622222222222222,0.46934101419231383,0.9103870993461968,-15.093232738000319
1590503542.2946658,-0.25311613368598224,-3.675362209322296,8.786159447669425,0.5442029715629139,0.2951692829091242,-0.7430194605693524,0.5960138082643492,1.197010356198262,-17.74365189090784
1590503542.3046658,-0.19508262922465208,-3.6850826292246524,8.81729342693837,0.5277777777777778,0.25,-0.7122222222222222,0.936467134691849,1.4523503510188867,-21.302171346918488
1590503542.3146658,-0.0976809493861256,-3.596912854447513,8.6822895190178,0.5277777777777778,0.25,-0.7122222222222222,1.1730982199010145,1.7884970331683574,-23.379985165841788
1590503542.3246658,-0.11955907623165965,-3.626948845289575,8.743897690579148,0.5277777777777778,0.25,-0.7122222222222222,0.956569716940159,1.6277557735521273,-24.97795381158298
1590503542.3346658,4.79903733250934,-22.25817466782775,1.0288836765077667,0.5277777777777778,0.25,-0.7122222222222222,0.7268919070760415,1.6612387286159724,-27.524143936627432
1590503542.3446658,4.218628195111062,-12.098259850429736,2.9963779439669604,0.472924433530528,0.3048533442472498,-0.6801650729868165,-109.02809325817613,56.26479657327827,-224.2522533206831
1590503542.3546658,0.4963938638841303,0.09081256813580474,0.9723543840523288,0.44222222222222224,0.33555555555555555,-0.6622222222222223,-196.78691500545085,4.842667127394492,-120.5109649976639
1590503542.3646657,-0.24774351053759158,-0.2921164864730207,0.002562901698968667,0.44222222222222224,0.33555555555555555,-0.6622222222222223,-200.797179388172,-3.277508594489562,-35.714690972049226
1590503542.3746657,-0.1349626338527057,-0.34500747322945885,0.1150373661472943,0.44222222222222224,0.33555555555555555,-0.6622222222222223,-203.52164293319137,0.5115220818574562,-29.665389989967444
1590503542.3846657,-0.17420315652070725,-0.40617776195561883,0.3165586804319449,0.44222222222222224,0.33555555555555555,-0.6622222222222223,-200.65170730983743,7.870950516197936,-20.084883410466357
1590503542.3946657,0.69,-4.14,14.84,0.4511111111111111,0.4488888888888889,-0.6611111111111111,-149.6875,-25.3125,-9.5625
1590503542.4046657,0.5602851524090462,-3.7241494591937068,13.354955752212389,0.4511111111111111,0.4488888888888889,-0.6611111111111111,-129.89048672566372,-28.06655604719764,-10.450712881022616
1590503542.4146657,0.32587968536800715,-0.4451868127458063,2.9000194638414,0.4511111111111111,0.4488888888888889,-0.6611111111111111,79.80240814872782,-36.179942712095674,-17.66340973392728
1590503542.4246657,1.5260110505717135,-2.0175872918425295,9.5619806614995,0.4511111111111111,0.4488888888888889,-0.6611111111111111,136.09946473793264,13.459471644539942,-13.620553871537105
1590503542.4346657,0.8912026400644901,-2.11916364369206,7.774863966142684,0.4511111111111111,0.4488888888888889,-0.6611111111111111,208.0980199516324,23.16291628879484,-14.656942765014108
1590503542.4446657,3.305458478548251,-1.9856796058166086,11.831425309457998,0.4419749228858711,0.4771280161305399,-0.6511443603199402,285.56035933181107,4.272210371349598,-19.289140427833193
1590503542.4546657,0.6764714779602414,1.2879213483146068,2.716097666378566,0.4266666666666667,0.5244444444444445,-0.6344444444444445,273.5259831460674,-6.880361387208298,-9.123663029386343
1590503542.4646657,-0.9648022941341043,-0.2450599179334143,-0.5282246106500046,0.4266666666666667,0.5244444444444445,-0.6344444444444445,57.60256137508162,-37.77725595682179,13.972690128695326
1590503542.4746656,-0.4050123296560675,0.034841012329656085,-0.05349643088903311,0.4266666666666667,0.5244444444444445,-0.6344444444444445,21.165549967553538,-23.206756975989617,24.9335253082414
1590503542.4846656,2.3300585747846516,-2.7266267815191854,13.06271667971809,0.4266666666666667,0.5244444444444445,-0.6344444444444445,-26.924812059514487,10.561474158183241,39.6338782302271
1590503542.4946656,0.3472088650514764,-2.1655761050490105,9.612900869243573,0.43280212892752196,0.39764489105343553,-0.714205453835563,-84.99529352382714,43.911366823870296,52.50249483693977
1590503542.5046656,0.27975107367718804,-2.28821581953884,9.181556102239087,0.43333333333333335,0.38666666666666666,-0.7211111111111111,-20.390419776508367,-9.527433494558643,43.63751146645541
1590503542.5146656,-0.19460475026027163,-1.7869701958695494,6.539771929399802,0.43333333333333335,0.38666666666666666,-0.7211111111111111,27.780167300196112,12.536808766917659,50.94485418734717
1590503542.5246656,-0.21770161087971096,-1.7267237918402167,5.752127013599639,0.43333333333333335,0.38666666666666666,-0.7211111111111111,8.310588334922468,7.367397249962362,55.63839890600693
1590503542.5346656,0.01860695951961508,-3.7689458430414273,12.711759769657707,0.43333333333333335,0.38666666666666666,-0.7211111111111111,-13.857742086719327,-11.119538605065259,57.08722012274819
1590503542.5446656,-0.16705514051938813,-2.5032636072572036,8.020101743151903,0.4393136487608206,0.38068635123917943,-0.7211111111111111,-1.5296736036997487,-3.094868374244042,66.08444948416934
1590503542.5546656,-0.2063476762520929,-2.929201358973942,9.147604076921827,0.44,0.38,-0.7211111111111111,2.3597460864476485,-6.906389697156883,69.08582180535461
1590503542.5646656,-0.19584202682563337,-2.838628912071535,8.691833084947838,0.44,0.38,-0.7211111111111111,-1.6610469448584206,-4.771516393442623,73.2585692995529
1590503542.5746655,-0.3211207250755287,-3.2628234441087614,9.880275287009063,0.44,0.38,-0.7211111111111111,-2.0997099697885195,-5.994175226586103,76.80485649546827
1590503542.5846655,-0.3228516586278177,-3.176026183679496,9.482336844177576,0.44,0.38,-0.7211111111111111,-0.944033615513338,-6.495484299635791,80.15459198740034
1590503542.5946655,4.586146310235121,-9.099467486614417,7.39504752851711,0.4560167222782649,0.3700585861721114,-0.7073035919057103,-2.675050438426321,-6.685669182121518,83.33294817451696
1590503542.6046655,4.455859014578334,-12.516046503044842,7.0947418342867685,0.4722222222222222,0.36,-0.6933333333333334,-13.162905978962907,-8.40405056283447,25.404504982469092
1590503542.6146655,-1.582198581560284,-2.2685342789598106,7.223404255319149,0.4722222222222222,0.36,-0.6933333333333334,-17.35121158392435,10.00746158392435,-186.56264775413712
1590503542.6246655,-0.7649910680349679,-0.28611478525275563,4.513740402888636,0.4722222222222222,0.36,-0.6933333333333334,26.499580720258457,24.96567132269099,-218.38160989167616
1590503542.6346655,-8.011195419128798,-11.34452962401297,4.876070700203943,0.4722222222222222,0.36,-0.6933333333333334,40.48420749882341,27.516227187156826,-197.64122391884118
1590503542.6446655,-3.535898899830004,-8.744531224941463,10.307530230618726,0.4904460196797497,0.36,-0.7048431001486138,-18.441375052121757,15.37411393014081,-92.1758628155371
1590503542.6546655,-0.16042305885236852,-2.73805772884195,7.718785774109861,0.4933333333333334,0.36,-0.7066666666666667,-6.401123271301042,-12.804562539578779,21.93491205850509
1590503542.6646655,0.39,-2.062543758438689,8.05002970418559,0.4933333333333334,0.36,-0.7066666666666667,4.063676813551001,-16.232656192463484,55.076230514299745
1590503542.6746655,0.1299972811879117,-2.580003137090871,9.440010038690787,0.4933333333333334,0.36,-0.7066666666666667,-4.625105876816898,-0.7498536024260165,58.541690630555266
1590503542.6846654,0.01208579262908398,-2.742085792629084,9.533254635869312,0.4933333333333334,0.36,-0.7066666666666667,-6.854892352558442,-0.28388164009852623,58.743297450852815
1590503542.6946654,5.668049485054007,-12.591061291132881,8.771519090680734,0.476818568757152,0.3643459906779425,-0.7136202517513746,-0.20854527756844998,-2.362342219291635,58.66281634639538
1590503542.7046654,0.47938008353484296,-10.913693119366894,8.71879973620576,0.4722222222222222,0.3655555555555556,-0.7155555555555555,-6.459977467575292,-5.042990217630249,31.58058089690042
1590503542.7146654,-2.141893327086018,-4.287662332591465,9.865135293428605,0.4722222222222222,0.3655555555555556,-0.7155555555555555,-2.2534311428682994,2.382418687282808,-26.83667418296826
1590503542.7246654,-0.31027659872195534,-2.600543635430757,8.189785437753626,0.4722222222222222,0.3655555555555556,-0.7155555555555555,17.852288761136247,0.3535408601147445,-8.798551996361773
1590503542.7346654,1.0847550540276072,-5.550236097520352,9.589945660094523,0.4722222222222222,0.3655555555555556,-0.7155555555555555,1.7119998022110714,-1.5093012845870375,10.924569548833047
1590503542.7446654,0.28452564443263384,-6.315367171582957,9.516943041899195,0.4688851487682208,0.378236434680761,-0.7075465792659521,-9.677650810523518,0.4773562760209056,13.097096731331384
1590503542.7546654,-0.41302397425583265,-3.639311665325825,8.359071922767498,0.4666666666666667,0.38666666666666666,-0.7022222222222222,1.3499235720032186,0.5284432823813354,-0.40737127916331417
1590503542.7646654,-0.23122068625030856,-3.9802345099975316,8.407477783263392,0.4666666666666667,0.38666666666666666,-0.7022222222222222,1.100646445322142,-0.009145118489261916,-1.8806081831646506
1590503542.7746654,-0.16529657914007742,-4.331186316560309,8.872288942357986,0.4666666666666667,0.38666666666666666,-0.7022222222222222,0.23517104299612934,0.029396380374516168,-0.14353619625483838
1590503542.7846653,-0.17244553099941326,-4.4220097789947195,8.742421083512616,0.4666666666666667,0.38666666666666666,-0.7022222222222222,0.5388922843731665,0.14028456874633288,0.07082314688050068
1590503542.7946653,-0.16600105162228201,-4.315013145278526,8.78298475147691,0.4666666666666667,0.3773340344148547,-0.7053330996394929,0.43125985895889396,-0.031233568401843465,0.0
1590503542.8046653,-0.16649268007813287,-4.402317001953322,8.720668358202945,0.4666666666666667,0.37333333333333335,-0.7066666666666667,-0.15253025634829542,0.07789625244165208,-0.04057925048833041
1590503542.8146653,-0.14545497760764592,-4.379547399234406,8.68295378918662,0.4666666666666667,0.37333333333333335,-0.7066666666666667,-0.20739041507168055,0.07244520753584027,0.01420319497610649
1590503542.8246653,-0.14881656804733728,-4.447988165680473,8.622189349112427,0.4666666666666667,0.37333333333333335,-0.7066666666666667,0.32951183431952663,0.03920118343195266,-0.05510355029585799
1590503542.8346653,-0.1516076320469073,-4.475449608304897,8.653923679530926,0.4666666666666667,0.37333333333333335,-0.7066666666666667,0.746083048973903,0.08872614985341472,-0.07254770029317056
1590503542.8446653,-0.14205169628432956,-4.389741518578353,8.76794830371567,0.4666666666666667,0.37173756955663256,-0.7084903966971818,0.7435379644588045,0.11217689822294022,-0.025646203554119548
1590503542.8546653,-0.16174833887043188,-4.3813289036544845,8.76783222591362,0.4666666666666667,0.3655555555555556,-0.7155555555555555,-0.3723785299003322,-0.010927117940199335,-0.051572882059800665
1590503542.8646653,-0.17594102908602346,-4.450294854569883,8.698820581720469,0.4666666666666667,0.3655555555555556,-0.7155555555555555,-0.5878685682123533,-0.07426286357529321,0.011762863575293221
1590503542.8746653,-0.17,-4.4844856306219425,8.642798828707194,0.4666666666666667,0.3655555555555556,-0.7155555555555555,-0.31661289474145643,-0.028035191387140324,-0.0625
1590503542.8846653,-0.16709653321528375,-4.431930664305675,8.740324267493014,0.4666666666666667,0.3655555555555556,-0.7155555555555555,0.2076733392358133,-0.0625,-0.026206665191046676
1590503542.8946652,-0.1633422904145556,-4.336792065803778,8.79668458082911,0.46443847305696295,0.3655555555555556,-0.7203833083765803,0.5625,0.00016794527291748296,-0.021057260363889968
1590503542.9046652,-0.16258355810953443,-4.426291779054767,8.761793127711973,0.46,0.3655555555555556,-0.73,0.2612070481998358,0.055470857276885194,-0.1179708572768852
1590503542.9146652,-0.15,-4.426171183001074,8.636801718992478,0.46,0.3655555555555556,-0.73,-0.21143010624328518,0.13034946878357406,-0.03856989375671481
1590503542.9246652,-0.16293553702501623,-4.397661157437459,8.622935537025016,0.46,0.3655555555555556,-0.73,-0.025805787187297147,0.2095764467968243,-0.0625
1590503542.9346652,-0.15939000648929266,-4.395914990266061,8.698964957819598,0.46,0.3655555555555556,-0.73,0.4272185269305646,0.1543437702790396,-0.09565622972096041
1590503542.9446652,-0.16615900621118013,-4.39384099378882,8.770772670807453,0.4635908902691512,0.3655555555555556,-0.7252121463077985,0.6826708074534161,0.125,-0.05767080745341614
1590503542.9546652,-0.1739253195783808,-4.367850639156762,8.786074680421619,0.4666666666666667,0.3655555555555556,-0.7211111111111111,0.16939896837856022,0.049066494729760046,0.0
1590503542.9646652,-0.17,-4.406759458554552,8.678946285932941,0.4666666666666667,0.3655555555555556,-0.7211111111111111,-0.34418496197445836,0.03653082699574305,0.0
1590503542.9746652,-0.16423005565862708,-4.4515398886827455,8.646159554730984,0.4666666666666667,0.3655555555555556,-0.7211111111111111,-0.3557513914656772,0.026437847866419298,0.0
1590503542.9846652,-0.15526287659844015,-4.44578862979532,8.7036856170078,0.4666666666666667,0.3655555555555556,-0.7211111111111111,-0.101964893701255,0.059214042519498,0.059214042519498
1590503542.9946651,-0.15481469868940867,-4.3866677117953214,8.778146986894088,0.476296064045484,0.3655555555555556,-0.7184362785058841,0.27314306766162916,0.034724399573587514,0.06481626638239167
1590503543.0046651,-0.16,-4.369972359395278,8.821436468744206,0.4866666666666667,0.3655555555555556,-0.7155555555555555,0.4197168944769353,-0.035738964825645085,-0.026761035174354915
1590503543.0146651,-0.15353759322717195,-4.419693610159242,8.748607135658133,0.4866666666666667,0.3655555555555556,-0.7155555555555555,0.15093983067929853,0.020195021165087684,-0.04230497883491231
1590503543.024665,-0.15610951885357457,-4.444027379713394,8.628054759426787,0.4866666666666667,0.3655555555555556,-0.7155555555555555,-0.23784224641742055,0.037328876791289725,0.0
1590503543.034665,-0.17707044565080166,-4.439746559777806,8.650253440222194,0.4866666666666667,0.3655555555555556,-0.7155555555555555,-0.23926114127004167,0.03661942936497917,-0.009154857341244792
1590503543.044665,-0.15344031345616238,-4.389839529815757,8.729679059631513,0.48010698012282904,0.3702931069483272,-0.71264013931385,0.3104941226969557,0.16800391820202953,-0.021501959101014767
1590503543.054665,-0.15677480986148362,-4.397418892603888,8.76580629753463,0.4666666666666667,0.38,-0.7066666666666667,0.5625,0.05242128081713635,-0.016131921225704518
1590503543.064665,-0.17517587568744694,-4.3896482486251065,8.716582881187023,0.4666666666666667,0.38,-0.7066666666666667,0.3212937843723471,0.125,-0.09484922304654339
1590503543.074665,-0.1572305430487917,-4.404256485650403,8.67,0.4666666666666667,0.38,-0.7066666666666667,-0.07051517657508652,0.125,-0.08910303531501731
1590503543.084665,-0.14794334743367984,-4.41794334743368,8.68588669486736,0.4666666666666667,0.38,-0.7066666666666667,-0.22517703926975047,0.10017703926975047,-0.10017703926975047
1590503543.094665,-0.15270553872782347,-4.420274051637097,8.724588922544354,0.46990864945430066,0.38,-0.7142312931711461,-0.0811224397807587,0.016909617048896583,-0.0625
1590503543.104665,-0.14234767236299353,-4.3817682184246705,8.786463563150658,0.48,0.38,-0.7377777777777778,0.32717295226870946,-0.07355136515419367,-0.08822431742290317
1590503543.114665,-0.16,-4.3739282320170405,8.770717679829593,0.48,0.38,-0.7377777777777778,0.29019129936097,0.09820580042601998,-0.100448549893495
1590503543.124665,-0.1486359775777136,-4.41409206726686,8.675907932733141,0.48,0.38,-0.7377777777777778,-0.22160056055715982,0.10794971972142009,-0.026987429930355022
1590503543.134665,-0.1484437062937063,-4.418890734265735,8.679552972027972,0.48,0.38,-0.7377777777777778,-0.3055670891608392,0.052773164335664334,-0.0791597465034965
1590503543.144665,-0.16636347371810928,-4.393181736859055,8.72636347371811,0.4775253157762908,0.3778788420939636,-0.7278790408829411,-0.02557072315454252,0.06534243389272551,-0.14772828926181703
1590503543.154665,-0.16901867963152506,-4.392679119754351,8.74,0.4722222222222222,0.37333333333333335,-0.7066666666666667,0.30188875383828045,-0.0853777507676561,-0.0625
1590503543.164665,-0.1518452786346701,-4.380922639317335,8.733541524778655,0.4722222222222222,0.37333333333333335,-0.7066666666666667,0.505766495733344,-0.10770051279996795,-0.050967008533311965
1590503543.174665,-0.1668443702649191,-4.393155629735081,8.679466889205242,0.4722222222222222,0.37333333333333335,-0.7066666666666667,0.42444119909020994,0.042777314155744275,0.0625
1590503543.184665,-0.16007832720337828,-4.4,8.7,0.4722222222222222,0.37333333333333335,-0.7066666666666667,0.12377613744721427,0.0,0.0625
1590503543.194665,-0.17189779158333687,-4.4,8.713503680694439,0.46892132249691504,0.3769343148518503,-0.7105677299783933,-0.11998159652780732,0.06751840347219268,0.02874079826390366
1590503543.204665,-0.1550930558335001,-4.3949069441665,8.7550930558335,0.46,0.38666666666666666,-0.7211111111111111,0.11024739843906343,0.18633680208124875,-0.04658420052031219
1590503543.214665,-0.17,-4.3764538545059715,8.745176981541801,0.46,0.38666666666666666,-0.7211111111111111,0.16134636264929425,-0.022163409337676437,0.022163409337676437
1590503543.224665,-0.16760288615713523,-4.377191341528595,8.707191341528594,0.46,0.38666666666666666,-0.7211111111111111,-0.029963923035809727,-0.0625,0.017554115446285413
1590503543.234665,-0.15179085844187304,-4.416418283116254,8.73,0.46,0.38666666666666666,-0.7211111111111111,-0.15065356736914678,-0.03684643263085323,-0.07369286526170646
1590503543.244665,-0.14970854271356784,-4.4270552763819095,8.723527638190955,0.46215745393634844,0.3823517587939699,-0.7121217197096594,-0.126821608040201,0.08090452261306534,-0.020226130653266335
1590503543.254665,-0.1659052511186468,-4.391810502237294,8.738663242169473,0.4666666666666667,0.37333333333333335,-0.6933333333333334,0.15355308305074541,0.19881563898308485,-0.036907819491542426
1590503543.264665,-0.16,-4.369026571954748,8.747079715864245,0.4666666666666667,0.37333333333333335,-0.6933333333333334,0.375,0.10213869157239323,-0.02286130842760677
1590503543.2746649,-0.15497966774113564,-4.370081329035457,8.720121993553185,0.4666666666666667,0.37333333333333335,-0.6933333333333334,0.21811461691048847,0.09387707661790232,0.0002541532358046189
1590503543.2846649,-0.1459396708644452,-4.385939670864445,8.733758683457781,0.4666666666666667,0.37333333333333335,-0.6933333333333334,0.011745885805564842,0.125,0.037122942902782424
1590503543.2946649,-0.14197049692511518,-4.38788198770046,8.715911490775346,0.4666666666666667,0.37333333333333335,-0.6959606625668202,-0.050184394218030094,0.125,0.0
1590503543.3046649,-0.15031116903670258,-4.419066492889892,8.739377661926595,0.4666666666666667,0.37333333333333335,-0.7066666666666667,0.009724032396955804,0.12888961295878232,0.0019448064793911608
1590503543.3146648,-0.16,-4.389757955380273,8.719515910760547,0.4666666666666667,0.37333333333333335,-0.7066666666666667,0.3140127788732939,0.2469744422534122,0.06174361056335305
1590503543.3246648,-0.16410677155096826,-4.374106771550968,8.692320314652905,0.4666666666666667,0.37333333333333335,-0.7066666666666667,0.28349606683869033,0.0,0.05133464438710324
1590503543.3346648,-0.17,-4.38,8.720701669442615,0.4666666666666667,0.37333333333333335,-0.7066666666666667,-0.07127086803269164,0.022295144672115273,0.10270485532788473
1590503543.3446648,-0.16410330034118165,-4.385896699658819,8.74,0.4666666666666667,0.36940220022745446,-0.7158393105803841,-0.29407281356619264,0.0625,0.044072813566192616
1590503543.3546648,-0.15,-4.391697667087011,8.727546500630517,0.4666666666666667,0.36,-0.7377777777777778,-0.04244167717528374,0.03655520964691047,-0.025944790353089532
1590503543.3646648,-0.15934659957304056,-4.386231066382027,8.703768933617974,0.4666666666666667,0.36,-0.7377777777777778,0.2694720824438345,-0.05841624733150351,-0.0625
1590503543.3746648,-0.16830792642930234,-4.392205284286201,8.705589431427597,0.4666666666666667,0.36,-0.7377777777777778,0.26378302678875976,-0.09006605357751948,-0.0625
1590503543.3846648,-0.15353475349048393,-4.376465246509516,8.744139013961936,0.4666666666666667,0.36,-0.7377777777777778,0.14331558136895078,0.01831558136895077,-0.01831558136895077
1590503543.3946648,-0.1623119271515296,-4.376935781454589,8.763064218545411,0.46974923620203946,0.36308256953537277,-0.7339245658585618,0.033600910605880246,-0.033600910605880246,0.0625
1590503543.4046648,-0.16617314454053028,-4.40382685545947,8.72469257816212,0.48,0.37333333333333335,-0.7211111111111111,0.009253539865057489,0.08641784662168583,-0.009253539865057489
1590503543.4146647,-0.16410859099451638,-4.397674227016451,8.683565636021934,0.48,0.37333333333333335,-0.7211111111111111,0.2790721622943645,0.09932130628427258,-0.09932130628427258
1590503543.4246647,-0.16241794963599476,-4.38,8.686537176274019,0.48,0.37333333333333335,-0.7211111111111111,0.45261218522496716,0.0625,0.008581722162549224
1590503543.4346647,-0.15468318236385464,-4.377658408818073,8.741707955909638,0.48,0.37333333333333335,-0.7211111111111111,0.24328549601658844,0.0625,0.09573011022590855
1590503543.4446647,-0.16702236699239958,-4.3744664495114005,8.78,0.47801491132826635,0.37333333333333335,-0.7182989021594886,-0.17819489685124865,0.07180510314875135,-0.009305103148751359
1590503543.4546647,-0.1493873548617147,-4.400612645138286,8.776324129170288,0.4666666666666667,0.37333333333333335,-0.7022222222222222,-0.12117096788571684,0.11734193577143366,-0.05867096788571683
1590503543.4646647,-0.14003989213523213,-4.409960107864768,8.720239352811394,0.4666666666666667,0.37333333333333335,-0.7022222222222222,-0.06274932584520068,0.0004986516904013777,-0.00024932584520068884
1590503543.4746647,-0.146233056948513,-4.39,8.654281813216821,0.4666666666666667,0.37333333333333335,-0.7022222222222222,0.1834349088923092,-0.019478302964103075,0.02354339407179385
1590503543.4846647,-0.16283032016565785,-4.384339359668684,8.738490960496973,0.4666666666666667,0.37333333333333335,-0.7022222222222222,0.24174199585855366,-0.044810498964638415,-0.044810498964638415
1590503543.4946647,-0.16821437168993741,-4.371785628310063,8.763571256620125,0.4676586823944792,0.3709524955865832,-0.7030158348044723,0.029019469186326433,0.0,-0.03348053081367357
1590503543.5046647,-0.15704624755450677,-4.382953752445493,8.77113874266352,0.4722222222222222,0.36,-0.7066666666666667,-0.10653904721566729,-0.01846095278433271,-0.1321171416470019
1590503543.5146646,-0.15253060782260103,-4.3912653039113,8.736081656975694,0.4722222222222222,0.36,-0.7066666666666667,-0.02295925277185886,-0.05459185055437177,0.0
1590503543.5246646,-0.16767850048755825,-4.398839250243779,8.65276824731843,0.4722222222222222,0.36,-0.7066666666666667,0.21372657011809743,-0.007254685976380515,0.0
1590503543.5346646,-0.15265446450655454,-4.404691070986891,8.717963393519664,0.4722222222222222,0.36,-0.7066666666666667,0.4375,0.13329520158298294,-0.008295201582982935
1590503543.5446646,-0.16648676725204056,-4.377026465495919,8.759460301756121,0.4722222222222222,0.36,-0.7066666666666667,0.4375,0.17652114766262678,-0.05152114766262677
1590503543.5546646,-0.15150440781908778,-4.391504407819087,8.77398236872365,0.4866666666666667,0.37333333333333335,-0.7211111111111111,0.05309745113070142,0.1202987255653507,0.0625
1590503543.5646646,-0.16758068225373707,-4.407580682253737,8.70967727098505,0.4866666666666667,0.37333333333333335,-0.7211111111111111,-0.047379264085856646,0.07006036795707168,0.0625
1590503543.5746646,-0.16305635197831414,-4.403887296043372,8.662225407913256,0.4866666666666667,0.37333333333333335,-0.7211111111111111,-0.005193400406610024,0.16839780013553668,-0.019102199864463328
1590503543.5846646,-0.16722555613974655,-4.384451112279493,8.70664666316152,0.4866666666666667,0.37333333333333335,-0.7211111111111111,0.125,0.07297917762024766,-0.0625
1590503543.5946646,-0.15953215981367017,-4.37093568037266,8.75187136074532,0.485730986294007,0.3736452267908866,-0.7204353419530791,0.1162279965063155,-0.0625,-0.0625
1590503543.6046646,-0.15013885156319984,-4.3897222968736,8.7894445937472,0.4669443697930664,0.3799074322912001,-0.7068672300357332,-0.05989653319000268,-0.0625,-0.0625
1590503543.6146646,-0.16,-4.39,8.725680306303609,0.4666666666666667,0.38,-0.7066666666666667,-0.14188867617804968,0.09627735235609933,-0.10811132382195034
1590503543.6246645,-0.16,-4.387938022082268,8.670309889588658,0.4666666666666667,0.38,-0.7066666666666667,-0.11017582808506153,0.1230631900708846,-0.07538736198582308
1590503543.6346645,-0.1528098067446718,-4.38,8.71239673108511,0.4666666666666667,0.38,-0.7066666666666667,0.21745913856386753,-0.06508172287226491,-0.11002043071806623
1590503543.6446645,-0.13533469228693906,-4.38,8.726668365358675,0.4674075961509638,0.3780735833408276,-0.7097785705007145,0.3041645433016577,0.11666454330165772,-0.05416454330165772
1590503543.6546645,-0.1668433927533424,-4.383156607246657,8.751060356520055,0.4722222222222222,0.3655555555555556,-0.73,0.1710848188335594,0.023042409416779694,0.0
1590503543.6646645,-0.16234351458704288,-4.394687029174086,8.695938912477743,0.4722222222222222,0.3655555555555556,-0.73,0.029293932338035886,-0.003912135323928229,0.0
1590503543.6746645,-0.1695245514313108,-4.409049102862622,8.652852691412136,0.4722222222222222,0.3655555555555556,-0.73,0.11905689289138474,0.17561378578276948,0.0
1590503543.6846645,-0.16208126047974725,-4.382081260479747,8.708325041918988,0.4722222222222222,0.3655555555555556,-0.73,0.08851575599684049,0.1484763660047393,-0.07550787799842024
1590503543.6946645,-0.16789351883929438,-4.387893518839294,8.731574075357177,0.4722222222222222,0.3655555555555556,-0.73,0.1611689854911797,0.039496521763230485,-0.11183449274558985
1590503543.7046645,-0.15963380652935197,-4.370366193470648,8.798535226117409,0.4544444444444444,0.37333333333333335,-0.7211111111111111,0.1112677448506985,0.12271129080844975,-0.0022887091915502504
1590503543.7146645,-0.1517370184885341,-4.378262981511466,8.766948073954136,0.4544444444444444,0.37333333333333335,-0.7211111111111111,-0.18486180667997137,0.0733563655533381,-0.051643634446661896
1590503543.7246644,-0.15852742546532697,-4.408527425465327,8.667054850930654,0.4544444444444444,0.37333333333333335,-0.7211111111111111,-0.27568563663317414,0.11579640915829353,-0.05329640915829353
1590503543.7346644,-0.1508510404656015,-4.400851040465602,8.651702080931203,0.4544444444444444,0.37333333333333335,-0.7211111111111111,-0.08377601164003734,0.06781900291000934,-0.005319002910009335
1590503543.7446644,-0.1307406719018633,-4.399814832024535,8.730740671901863,0.4544444444444444,0.37333333333333335,-0.721502021281539,0.1261572998466614,0.1840281004600158,-0.1238427001533386
1590503543.7546644,-0.1697193438966591,-4.390070164025835,8.769719343896659,0.4544444444444444,0.37333333333333335,-0.7420740981676812,0.1870614748385298,0.0013155754844105527,-0.0629385251614702
1590503543.7646644,-0.15300141166250408,-4.376002823325008,8.737980236724942,0.4544444444444444,0.37333333333333335,-0.7422222222222222,0.10624117710934955,0.0,0.01875882289065045
1590503543.7746644,-0.15767311560195385,-4.3946537687960925,8.653961306388277,0.4544444444444444,0.37333333333333335,-0.7422222222222222,0.01887091753663442,0.0,0.047956972512211475
1590503543.7846644,-0.15392146762817974,-4.40607853237182,8.703921467628179,0.4544444444444444,0.37333333333333335,-0.7422222222222222,-0.07598165464775339,0.0,-0.012254586338061653
1590503543.7946644,-0.1691983543931825,-4.39,8.721202468410226,0.455468769386489,0.37333333333333335,-0.7406189310085872,0.125,-0.002505142521304731,-0.05748971495739054
1590503543.8046644,-0.15,-4.387697614970342,8.747697614970342,0.48,0.37333333333333335,-0.7022222222222222,0.08183028069391707,-0.07688990643536098,0.04811009356463902
1590503543.8146644,-0.15183665579722325,-4.378163344202776,8.721633442027768,0.48,0.37333333333333335,-0.7022222222222222,-0.08545819746529063,-0.09056270380206408,0.0
1590503543.8246644,-0.1588866104144956,-4.3711133895855045,8.651133895855045,0.48,0.37333333333333335,-0.7022222222222222,-0.17358263018119474,0.04162394527179211,0.0
1590503543.8346643,-0.16306008891438406,-4.406939911085616,8.666830489029113,0.48,0.37333333333333335,-0.7022222222222222,-0.11543722214254984,-0.10587444428509968,0.15881166642764952
1590503543.8446643,-0.17509020507672451,-4.394909794923275,8.732996127921984,0.48,0.37333333333333335,-0.7022222222222222,-0.07784310913523591,-0.030686218270471827,0.046029327405707726
1590503543.8546643,-0.160055225685358,-4.38,8.77,0.4666666666666667,0.36,-0.7022222222222222,0.0625,0.0625,0.12448225919976899
1590503543.8646643,-0.17519464346947247,-4.38,8.77,0.4666666666666667,0.36,-0.7022222222222222,0.0625,0.0625,-0.017449782526304386
1590503543.8746643,-0.1605112304597383,-4.381022460919477,8.691022460919475,0.4666666666666667,0.36,-0.7022222222222222,-0.12180480962663566,0.009585571120093018,-0.06569519037336434
1590503543.8846643,-0.16825221933078643,-4.396504438661573,8.706504438661574,0.4666666666666667,0.36,-0.7022222222222222,-0.07342362918258494,0.1547291124522452,-0.11407637081741506
1590503543.8946643,-0.17,-4.409629047562567,8.7388871426877,0.4666666666666667,0.36,-0.7022222222222222,-0.0625,0.127318452733958,-0.125
1590503543.9046643,-0.15353117348280956,-4.39353117348281,8.75646882651719,0.4831354931838571,0.37097921767812697,-0.7022222222222222,-0.11396508286622013,0.125,0.029395248598660384
1590503543.9146643,-0.16213571786152015,-4.3889321410692395,8.70359284641544,0.4866666666666667,0.37333333333333335,-0.7022222222222222,0.16747764504824872,0.013348236634500854,0.0
1590503543.9246643,-0.17661654784304925,-4.381691726078476,8.660150356470853,0.4866666666666667,0.37333333333333335,-0.7022222222222222,0.03171986397141327,0.1038534240190578,0.0
