time,acc_x,acc_y,acc_z,mag_x,mag_y,mag_z,gyr_x,gyr_y,gyr_z
1590505864.3288064,-0.75,-3.45,8.71,0.4722222222222222,0.27,-0.6355555555555555,-2.875,-9.6875,127.875
1590505864.3388064,-0.72,-3.3579737827715355,8.757365917602996,0.47316779026217226,0.26903191843528923,-0.6358932584269663,-2.479737827715356,-9.760131086142323,131.37581928838952
1590505864.3488064,-0.72,-3.279428838951311,8.655257490636705,0.5098220973782771,0.23150488972118186,-0.6489840823970038,-1.6942883895131087,-10.152855805243446,133.83034878277152
1590505864.3588064,-0.794820110701107,-3.2930765682656826,8.599589483394833,0.5188888888888888,0.2222222222222222,-0.6522222222222223,-2.777559963099631,-10.318265682656827,136.2147428505535
1590505864.3688064,-0.9213158174850979,-3.4046904271927336,8.681439646608004,0.5188888888888888,0.2222222222222222,-0.6522222222222223,-4.07972165058189,-11.434404271927335,136.44727172331818
1590505864.3788064,-1.007015421454227,-3.4455231321813407,8.69089204982041,0.5188888888888888,0.2222222222222222,-0.6522222222222223,-3.4001927681778383,-11.487885536355677,137.7649021193331
1590505864.3888063,-0.9920253390754276,-3.4230380086131413,8.795822626472008,0.5188888888888888,0.2222222222222222,-0.6522222222222223,-3.2128167384428443,-11.113133476885688,138.46756223083935
1590505864.3988063,-1.0617741819747417,-3.441129090126292,8.773548363949482,0.5311111111111111,0.17888888888888888,-0.6433333333333333,-3.2651204613949485,-11.011088637342135,138.7167340879736
1590505864.4088063,-1.0692983998277843,-3.403508000861079,8.788596799655567,0.5311111111111111,0.17888888888888888,-0.6433333333333333,-3.594304992465557,-11.058114998923651,138.57565500322906
1590505864.4188063,-1.0733952973918008,-3.408868234202733,8.622449423769936,0.5311111111111111,0.17888888888888888,-0.6433333333333333,-3.117926463767082,-11.095544028972062,137.5035880579441
1590505864.4288063,-1.0958431155671318,-3.4013856281442894,8.704758090412817,0.5311111111111111,0.17888888888888888,-0.6433333333333333,-3.071160175901809,-10.487582286723516,136.28766457344705
1590505864.4388063,-1.1585568953331478,-3.341443104666852,8.69804116425007,0.5311111111111111,0.17888888888888888,-0.6433333333333333,-2.925257276562935,-10.420747574479021,134.41558731875523
1590505864.4488063,-1.1981078669661263,-3.3562157339322525,8.789593268313695,0.5502249706864665,0.11148738407053023,-0.6624471929086887,-2.6486516629234225,-10.550674168538288,131.4924295449651
1590505864.4588063,-1.2781454151908698,-3.33,8.634436245572608,0.5522222222222222,0.10444444444444444,-0.6644444444444444,-2.623590613931523,-10.101817689885872,127.75391209169618
1590505864.4688063,-1.3194116489571035,-3.33,8.75823494687131,0.5522222222222222,0.10444444444444444,-0.6644444444444444,-2.9330873671782762,-10.617645611963793,124.60736176702086
1590505864.4788063,-1.37,-3.2668866147041906,8.694247238253903,0.5522222222222222,0.10444444444444444,-0.6644444444444444,-3.0179773804565557,-9.668041341901192,120.69542824418397
1590505864.4888062,-1.37,-3.2502494992165962,8.877255508617441,0.5522222222222222,0.10444444444444444,-0.6644444444444444,-2.4460765355704965,-9.564059370103726,117.73194204795621
1590505864.4988062,-1.453393365779263,-3.2314681409379413,8.824404422813824,0.5522222222222222,0.06943982177166738,-0.6778285648781534,-2.7270602978446634,-9.330851761724269,113.80739200888151
1590505864.5088062,-1.4639097864201467,-3.21,8.812571405801721,0.5522222222222222,0.06666666666666668,-0.6788888888888889,-2.367669150462225,-8.492669150462225,108.93928514504303
1590505864.5188062,-1.5307618744022953,-3.21,8.68555243863564,0.5522222222222222,0.06666666666666668,-0.6788888888888889,-2.2423214854956965,-8.367321485495697,105.76381096589098
1590505864.5288062,-1.6098377389039458,-3.21,8.713062898173243,0.5522222222222222,0.06666666666666668,-0.6788888888888889,-2.1355856886417235,-7.793356886417233,100.42951233677097
1590505864.5388062,-1.6018480616618054,-3.149493538872684,8.778405168901854,0.5522222222222222,0.06666666666666668,-0.6788888888888889,-2.125,-7.611866923590855,96.48622732902048
1590505864.5488062,-1.7462221536018352,-3.1646777537606425,8.841244430720367,0.5409395111287564,0.031082731679582004,-0.6910395008356983,-1.5391669239931183,-6.586111539988531,90.28784904495126
1590505864.5588062,-1.7109402628748327,-3.059059737125167,8.834358422751004,0.5377777777777778,0.021111111111111112,-0.6944444444444444,-2.5941476244195503,-7.159585945903403,82.4957138547105
1590505864.5688062,-1.7520847682119205,-3.0252119205298014,8.612508609271522,0.5377777777777778,0.021111111111111112,-0.6944444444444444,-1.3646192052980133,-5.954395695364238,76.47350993377484
1590505864.5788062,-1.7711200919049768,-3.0680398391662904,8.721400114881222,0.5377777777777778,0.021111111111111112,-0.6944444444444444,-1.819500574406105,-5.553749281992369,70.70348592705042
1590505864.5888062,-1.8055376851433964,-3.0078090509990565,8.764422106429246,0.5377777777777778,0.021111111111111112,-0.6944444444444444,-2.0346105321462273,-5.284861834817216,65.43329196241743
1590505864.5988061,-1.8255525732788003,-2.9688948534423996,8.839986579754601,0.5481461599636446,-0.004809844353556008,-0.7333258776414451,-1.430676710548739,-4.6667785020449895,60.27863518234492
1590505864.6088061,-1.8833864560785898,-2.945828120168407,8.819214576246997,0.5511111111111111,-0.012222222222222223,-0.7444444444444445,-1.3218554506315263,-4.054140600842035,52.718554506315265
1590505864.6188061,-1.8338130214647366,-2.818287812878842,8.633813021464736,0.5511111111111111,-0.012222222222222223,-0.7444444444444445,-0.8125,-3.3577337231690794,47.08974541824146
1590505864.628806,-1.9744498090507945,-2.902224904525397,8.772966539367197,0.5511111111111111,-0.012222222222222223,-0.7444444444444445,-0.8588521776124424,-3.131877386865069,41.34897822387558
1590505864.638806,-2.0242465916061496,-2.9271232958030753,8.806164394404101,0.5511111111111111,-0.012222222222222223,-0.7444444444444445,-1.377568662564062,-2.509417604923126,36.16181337435938
1590505864.648806,-2.0118422200198216,-2.881228146679881,8.77969296333003,0.5555555555555556,-0.048888888888888885,-0.7444444444444445,-0.5663379583746283,-2.297148166501487,29.63403493557978
1590505864.658806,-2.0617248761149654,-2.9144832507433103,8.771379187314173,0.5555555555555556,-0.048888888888888885,-0.7444444444444445,-0.6702601585728444,-1.8814593657086225,24.801652626362735
1590505864.668806,-2.079833600359783,-2.900332799280434,8.710998397841303,0.5555555555555556,-0.048888888888888885,-0.7444444444444445,-0.3187399865081373,-1.4437399865081373,18.407139795373414
1590505864.678806,-2.08,-2.919483132303053,8.778190963060686,0.5555555555555556,-0.048888888888888885,-0.7444444444444445,-0.5560391537881644,-0.8895369039766302,12.467560309084055
1590505864.688806,-2.1178489907491778,-2.938924495374589,8.82415715587404,0.5555555555555556,-0.048888888888888885,-0.7444444444444445,-0.44422190390881994,-0.6384438078176399,8.527600925082238
1590505864.698806,-2.1027867634923254,-2.942557352698465,8.857442647301534,0.5307467312171059,-0.054677614567860466,-0.7444444444444445,-0.28196690873081365,-0.08135108928866147,2.0794943472520213
1590505864.708806,-2.09,-2.9317887990443814,8.810732794266288,0.5222222222222223,-0.05666666666666665,-0.7444444444444445,-0.1473599880547643,0.3704200358357071,-3.8911605255903705
1590505864.718806,-2.097602169025261,-2.9491436317947364,8.741370189128423,0.5222222222222223,-0.05666666666666665,-0.7444444444444445,0.06678184102631927,1.193922761539479,-10.783841423092184
1590505864.728806,-2.0005247321782833,-2.914473118635101,8.796843010183839,0.5222222222222223,-0.05666666666666665,-0.7444444444444445,0.2401344068244941,1.4539516102367411,-14.684274153551117
1590505864.738806,-1.8427055397318144,-2.7983448011009058,8.72616443178545,0.5222222222222223,-0.05666666666666665,-0.7444444444444445,0.5079907671136429,2.442208452011393,-20.857660335392197
1590505864.748806,-1.8777583613007753,-2.810655016780465,8.605138294178914,0.5222222222222223,-0.043114994406511585,-0.7647719528346771,1.1553856613817846,3.110989758129846,-25.936407823168615
1590505864.758806,-2.0004212103746397,-2.989157579250721,9.007254639769451,0.5222222222222223,-0.03666666666666667,-0.7744444444444445,-0.625,0.5303213256484149,-34.77573775216138
1590505864.768806,-2.0108674328380056,-2.9710601956908964,8.49395163848425,0.5222222222222223,-0.03666666666666667,-0.7744444444444445,-0.6069284825415416,4.061295232169436,-39.66897402581558
1590505864.778806,-2.098417456640648,-3.0789449710937653,8.897362427734413,0.5222222222222223,-0.03666666666666667,-0.7744444444444445,1.215381864014171,3.9572817919919023,-44.31443316528137
1590505864.788806,-2.0494310240787965,-3.046287349385864,8.81571837346466,0.5222222222222223,-0.03666666666666667,-0.7744444444444445,0.14380365172366805,4.5696121990150464,-48.24355327701322
1590505864.798806,-1.9710464778081553,-3.04,8.63254144610552,0.4959542137681862,-0.04432816913242718,-0.8029014536029835,1.5382067651678204,4.995328224070735,-52.69393868884882
1590505864.808806,-2.047945485759977,-3.195890971519955,9.019727428799886,0.4955555555555556,-0.04444444444444445,-0.8033333333333333,0.28370687425037033,5.304474553749912,-57.07353866324875
1590505864.818806,-2.040020032736423,-3.190020032736423,8.660741211247649,0.4955555555555556,-0.04444444444444445,-0.8033333333333333,-0.4984975447682799,4.688752046026433,-61.30423649622554
1590505864.828806,-1.9610988596739232,-3.1604120723777216,8.492335076807088,0.4955555555555556,-0.04444444444444445,-0.8033333333333333,1.7807360875506548,6.4751039605126754,-64.14800973046839
1590505864.838806,-1.9433400467252073,-3.176659953274793,8.55663981309917,0.4955555555555556,-0.04444444444444445,-0.8033333333333333,1.0142105722495232,6.326458820054244,-66.16586945138161
1590505864.848806,-1.933893153343921,-3.2172520734074466,8.65282468678313,0.5033418622433975,-0.0552587592886693,-0.7998727525831814,0.7643153343920945,6.5281509175930825,-68.86928158637727
1590505864.858806,-1.9566502073869247,-3.309950622160774,8.781050760418724,0.5155555555555555,-0.07222222222222223,-0.7944444444444444,0.7853051550464152,6.750308611495161,-72.42877246691685
1590505864.868806,-1.900191892775417,-3.318269042170644,8.71576855181432,0.5155555555555555,-0.07222222222222223,-0.7944444444444444,0.39182739457339,6.97596436744034,-75.62020268061458
1590505864.8788059,-1.7954813741564037,-3.2941346703778547,8.667595988866434,0.5155555555555555,-0.07222222222222223,-0.7944444444444444,0.8040831013840699,7.469949860830442,-78.16464902581309
1590505864.8888059,-1.8079081956797967,-3.373645171537484,8.686434243964422,0.5155555555555555,-0.07222222222222223,-0.7944444444444444,0.7810018265565438,7.906498173443456,-81.09984513977129
1590505864.8988059,-1.84,-3.4686034690769567,8.781131504519294,0.5121803146474335,-0.08437308949146136,-0.778243288085459,0.625,8.859900664543819,-85.23865973774252
1590505864.9088058,-1.7950136383992183,-3.5,8.64206000895656,0.51,-0.09222222222222222,-0.7677777777777778,0.625,9.375,-87.25
1590505864.9188058,-1.7638271495812432,-3.5261728504187566,8.68979426778335,0.51,-0.09222222222222222,-0.7677777777777778,0.2978393697655404,8.393518109296622,-89.59465118334695
1590505864.9288058,-1.7320536726073967,-3.520684557535799,8.578899247965387,0.51,-0.09222222222222222,-0.7677777777777778,0.4246645462037705,8.832215154012568,-93.66367698568044
1590505864.9388058,-1.7093642316851099,-3.5681501260680766,8.686936020451045,0.51,-0.09222222222222222,-0.7677777777777778,0.050579344095811773,8.617052896063875,-95.31321788765933
1590505864.9488058,-1.709361801242236,-3.6180854037267083,8.711914596273292,0.5276834023464458,-0.04229261559696342,-0.7656973775017253,0.10904503105590063,8.207443711180124,-97.51730395962733
1590505864.9588058,-1.7010530171839615,-3.6468409484481152,8.790522845344347,0.5288888888888889,-0.03888888888888889,-0.7655555555555555,0.29275592780071935,8.523011855601439,-98.96704742240576
1590505864.9688058,-1.6242593912246768,-3.6121296956123383,8.610648478061691,0.5288888888888889,-0.03888888888888889,-0.7655555555555555,1.2592576096915402,8.029948844548509,-100.13092996029727
1590505864.9788058,-1.5736120035386694,-3.6285551985845323,8.79482958513759,0.5288888888888889,-0.03888888888888889,-0.7655555555555555,0.152800088466732,8.231939982306654,-101.34719991153327
1590505864.9888058,-1.5173885867987693,-3.6450318323432085,8.674713508911122,0.5288888888888889,-0.03888888888888889,-0.7655555555555555,0.8610660932329663,8.062102095709891,-101.9542192367978
1590505864.9988058,-1.4572885832879123,-3.6255934761645214,8.752032619177394,0.5485496997563577,-0.01922807802142002,-0.7886061614001743,1.239405580478806,8.305081547943482,-102.46821674143642
1590505865.0088058,-1.4239721677166166,-3.597944335433233,8.745610348032635,0.5611111111111111,-0.006666666666666667,-0.8033333333333333,1.5008697588557265,8.160934434059692,-103.17726137302489
1590505865.0188057,-1.3950238244514106,-3.6815793103448278,8.68167460815047,0.5611111111111111,-0.006666666666666667,-0.8033333333333333,1.208730407523511,8.353769592476489,-103.34389890282132
1590505865.0288057,-1.3528189760260056,-3.675212650684004,8.605637952052012,0.5611111111111111,-0.006666666666666667,-0.8033333333333333,1.667223266287417,8.282579066775023,-103.0413883668563
1590505865.0388057,-1.3420380669880114,-3.7442664689160794,8.668342602892103,0.5611111111111111,-0.006666666666666667,-0.8033333333333333,1.8495241626498578,8.149881040662464,-102.42357248794957
1590505865.0488057,-1.3118798373343827,-3.810891475047319,8.71821704990536,0.5477993082754987,-0.015137813925692717,-0.7791300554504017,1.818071719045745,8.056928280954255,-101.51235452858829
1590505865.0588057,-1.2497627781015392,-3.82,8.706047444379692,0.5366666666666666,-0.022222222222222227,-0.7588888888888888,1.799406945253848,7.773220835761544,-100.16847639779233
1590505865.0688057,-1.2361059246320947,-3.8566355477925676,8.64283482904696,0.5366666666666666,-0.022222222222222227,-0.7588888888888888,1.5973518841976349,7.892134202654139,-98.70911130518581
1590505865.0788057,-1.217355629205584,-3.910192494392555,8.622644370794417,0.5366666666666666,-0.022222222222222227,-0.7588888888888888,1.5471757724883666,7.590742275116334,-96.66255105286064
1590505865.0888057,-1.1618817759421785,-3.8993779039752194,8.684992256066083,0.5366666666666666,-0.022222222222222227,-0.7588888888888888,1.6913881001548787,7.480462700051627,-94.85565629839958
1590505865.0988057,-1.1078655750774231,-3.849831968846779,8.677865575077423,0.51345847088925,0.03401302139228733,-0.6946200390437351,2.001050194707632,7.198739766350842,-92.89432894857879
1590505865.1088057,-1.1168997336377475,-3.8906992009132417,8.712249334094368,0.5077777777777778,0.04777777777777778,-0.6788888888888889,1.5343833238203959,7.125,-90.71409163337138
1590505865.1188056,-1.12,-3.908048575453265,8.639514245467351,0.5077777777777778,0.04777777777777778,-0.6788888888888889,1.6890179829145273,6.772874823919662,-88.5640705230154
1590505865.1288056,-1.0611607667881924,-3.8446230742091028,8.58731153710455,0.5077777777777778,0.04777777777777778,-0.6788888888888889,1.7091394213806892,6.769221157238622,-86.40885569798894
1590505865.1388056,-1.017594082930942,-3.8472177512071744,8.706465087759637,0.5077777777777778,0.04777777777777778,-0.6788888888888889,1.6875,5.882056219820648,-83.6778809304821
1590505865.1488056,-0.9937044688703466,-3.8265452503209243,8.670499438382542,0.4999317813079447,0.08700776012694336,-0.6674216632791328,1.6875,5.821735347801669,-80.5595076319801
1590505865.1588056,-0.7500174520069808,-3.378819080860966,7.650069808027923,0.4933333333333334,0.12,-0.6577777777777778,7.872636707388017,-1.503199534613147,-76.61002036067481
1590505865.1688056,-0.7936160478620446,-3.436544078831603,7.587920112616576,0.4933333333333334,0.12,-0.6577777777777778,0.3720966039063871,5.737803536864332,-69.23619787084286
1590505865.1788056,-0.9364220119498756,-3.6213695859391346,9.828754795061958,0.4933333333333334,0.12,-0.6577777777777778,-6.95728181015042,13.248730035105666,-61.51376182781949
1590505865.1888056,-0.7393947485536271,-3.1867289719626166,8.505157988429016,0.4933333333333334,0.12,-0.6577777777777778,-0.9847481827622016,0.5412123572170291,-57.7056909212283
1590505865.1988056,-0.6152301191634241,-3.1364016901750973,7.529748905642023,0.4933333333333334,0.19362158182014702,-0.6428544841655858,5.256015169017509,11.791581803258754,-47.46678737536479
1590505865.2088056,-0.7028616794629577,-3.5369236644289908,8.403139848052417,0.4933333333333334,0.20222222222222225,-0.6411111111111111,-0.6967404630783456,1.6445009446476675,-44.97240171644491
1590505865.2188056,-0.7457087651951375,-3.6657087651951374,9.447583877159309,0.4933333333333334,0.20222222222222225,-0.6411111111111111,-0.353454894433781,2.1994609724888035,-39.21170185540627
1590505865.2288055,-0.7167409962141483,-3.709910804543022,8.921650115954094,0.4933333333333334,0.20222222222222225,-0.6411111111111111,1.455638887237121,2.6057461695506534,-34.133083338288635
1590505865.2388055,-0.7310083180670397,-3.8230249542011188,8.829074862603358,0.4933333333333334,0.20222222222222225,-0.6411111111111111,0.5120840966480169,1.9399168193296035,-29.52175137396643
1590505865.2488055,-0.7405023744063984,-3.8610047488127965,8.534616345913522,0.5007203754616901,0.2507656419228526,-0.6495534449720903,1.04650399900025,1.45319920019995,-23.47920832291927
1590505865.2588055,-0.7456727822326714,-3.8826911289306856,8.75392963600487,0.5011111111111111,0.2533333333333333,-0.65,0.5222668877786641,1.295680444183215,-20.839067551114656
1590505865.2688055,-0.7183924621056944,-3.9180614502253173,8.777446947972143,0.5011111111111111,0.2533333333333333,-0.65,0.598699303564113,1.1592789840229414,-17.278518025399425
1590505865.2788055,-0.6990235615464901,-3.9780471230929804,8.725847305189758,0.5011111111111111,0.2533333333333333,-0.65,1.051837900557394,0.7286758011147876,-12.809554806688725
1590505865.2888055,-0.6865243241997557,-3.970655405249695,8.704359458898901,0.5011111111111111,0.2533333333333333,-0.65,1.0108614868757633,0.35327702624847324,-9.383378367478626
1590505865.2988055,-0.6651991924360845,-3.959601615127831,8.67320726807524,0.49951084192313927,0.26613548683710797,-0.64413234631077,1.0925050472744717,0.12997981090211286,-6.497257730825354
1590505865.3088055,-0.66,-4.0085973837209306,8.707134205426357,0.4977777777777778,0.28,-0.6377777777777778,1.0043831758720931,-0.24123364825581395,-3.0880420300387597
1590505865.3188055,-0.6750782192872595,-4.082773767505408,8.752773767505408,0.4977777777777778,0.28,-0.6377777777777778,1.1730971763634293,0.049074917454172806,0.10499402254355017
1590505865.3288054,-0.663401805387732,-4.055738147700618,8.56528893311536,0.4977777777777778,0.28,-0.6377777777777778,0.9042042789110811,-0.26203443741559457,2.091944168029
1590505865.3388054,-0.6545762296421374,-4.02,8.528134429979847,0.4977777777777778,0.28,-0.6377777777777778,0.48199282368320717,-0.7966086115801514,4.183253104744267
1590505865.3488054,-0.6538227706113292,-4.02,8.61205047672462,0.4895414719262168,0.29372717641926843,-0.6467004424503022,0.5055384183959619,-1.0386076836791924,7.05902271452608
1590505865.3588054,-0.6332028716082588,-4.008801914405506,8.754768412309152,0.4844444444444445,0.3022222222222222,-0.6522222222222223,-0.004892314690293498,-1.1324880349655881,9.462260699311763
1590505865.3688054,-0.6261718333699026,-3.9444534996708773,8.721016832272827,0.4844444444444445,0.3022222222222222,-0.6522222222222223,0.07860937842836102,-1.3417958342475629,11.912588549666175
1590505865.3788054,-0.618549089088318,-3.85274544544159,8.707332742749296,0.4844444444444445,0.3022222222222222,-0.6522222222222223,0.11544313060894351,-1.4732840965990062,13.930875187767207
1590505865.3888054,-0.6285048611924564,-3.8377572917886846,8.668970832845261,0.4844444444444445,0.3022222222222222,-0.6522222222222223,0.19305230174534382,-1.5,15.708829214009604
1590505865.3988054,-0.65,-3.9072257769652654,8.71372029250457,0.5065041641275645,0.3098052508632948,-0.6563584196628073,-0.01915276508226693,-1.6938842550274222,17.796974977148082
1590505865.4088054,-0.644636994056043,-3.951452023775828,8.82,0.52,0.3144444444444445,-0.6588888888888889,-0.07333091565242006,-2.0136127228983867,19.241950891593547
1590505865.4188054,-0.6112160579667716,-3.8375938666471496,8.612755617360756,0.52,0.3144444444444445,-0.6588888888888889,0.5113193478738198,-2.2954397826246065,20.90895804362146
1590505865.4288054,-0.5671656446333848,-3.877006132199692,8.539920243783154,0.52,0.3144444444444445,-0.6588888888888889,0.0007477145329370938,-1.8754984763552913,22.766717768330764
1590505865.4388053,-0.5546802211783128,-3.919157124681934,8.702964865922882,0.52,0.3144444444444445,-0.6588888888888889,-0.3284889410843609,-2.1435304120180074,23.859011058915637
1590505865.4488053,-0.5963669097128454,-3.922733819425691,8.826061151618807,0.5361630709834868,0.3016486799158507,-0.6636031179257392,-0.47920417379302066,-2.647706814294716,24.844761754733398
1590505865.4588053,-0.605486779148829,-3.97,8.583275245530093,0.5466666666666666,0.2933333333333333,-0.6666666666666666,-0.2964618484009066,-2.5,26.21957630319819
1590505865.4688053,-0.6425963335791333,-4.0711662922504415,8.639087167526966,0.5466666666666666,0.2933333333333333,-0.6666666666666666,-0.8238460977826557,-2.3668864575652084,27.19478932656526
1590505865.4788053,-0.6073111205432937,-4.071734932088285,8.853073005093378,0.5466666666666666,0.2933333333333333,-0.6666666666666666,-0.8858433255517827,-2.347351177843803,28.39900785229202
1590505865.4888053,-0.4849354180829368,-3.7532222977566283,8.522522093813732,0.5466666666666666,0.2933333333333333,-0.6666666666666666,0.3821380013596193,-1.3706237253569,29.894799456152278
1590505865.4988053,-0.5300550634426622,-3.7851376586066556,8.563085262833885,0.6074180983541768,0.28833027425318547,-0.6752433393754916,-0.5277198262594478,-2.8317828927117894,29.82093693354766
1590505865.5088053,-0.6068753331485469,-3.883124666851453,8.931251998891282,0.6411111111111111,0.2855555555555556,-0.68,-1.4169927080446045,-3.033189590840281,29.584963540223022
1590505865.5188053,-0.633297278349483,-3.949783670096898,8.843784020631462,0.6411111111111111,0.2855555555555556,-0.68,-1.271284020631463,-3.0402019329477454,29.853715979368538
1590505865.5288053,-0.6127428475983678,-3.976371423799184,8.657785678493878,0.6411111111111111,0.2855555555555556,-0.68,-0.8467855949795986,-2.8440176930969483,30.0226786012551
1590505865.5388052,-0.6158071649712517,-4.017421494913755,8.678497714875423,0.6411111111111111,0.2855555555555556,-0.68,-0.6216368126197848,-2.592068406309892,29.864910437859354
1590505865.5488052,-0.579708427776633,-4.015296380245895,8.639416855553266,0.8168211720890477,0.29983587853256105,-0.7160112492463616,-0.6323494058657875,-2.527575297067106,29.30332826773817
1590505865.5588052,-0.54,-3.9890661514972114,8.677859969463746,0.9555555555555556,0.3111111111111111,-0.7444444444444445,-0.7724951702863553,-2.55666344685757,28.235043467422802
1590505865.5688052,-0.5456505606860159,-3.997174719656992,8.75219327176781,0.9555555555555556,0.3111111111111111,-0.7444444444444445,-0.7513939849934037,-2.5543679914248023,26.67681192282322
1590505865.5788052,-0.548490220908963,-3.943960883635852,8.63371230242484,0.9555555555555556,0.3111111111111111,-0.7444444444444445,-0.5334148257586417,-2.111234229163735,23.983458210215282
1590505865.5888052,-0.5248752711496747,-3.8571881778741868,8.708896420824296,0.9555555555555556,0.3111111111111111,-0.7444444444444445,-0.6661469631236443,-1.6714852223427332,21.940380965292842
1590505865.5988052,-0.4920364914348247,-3.801849825329349,8.681294035944275,1.1528346217339862,0.2453514223849676,-0.8581247574018734,-0.41782456121890654,-1.5,17.247719285323456
1590505865.6088052,-0.5438984670350214,-3.9449137966848076,8.817624527439659,1.5822222222222222,0.10222222222222224,-1.1055555555555556,-0.5211925138133023,-1.2076149723733953,12.422593577333721
1590505865.6188052,-0.5397149110394144,-3.89,8.61200656591385,1.5822222222222222,0.10222222222222224,-1.1055555555555556,-0.6535772909945096,-0.8142818060036603,6.9912277598535875
1590505865.6288052,-0.540113320638092,-3.8697733587238163,8.499886679361907,1.5822222222222222,0.10222222222222224,-1.1055555555555556,-0.1516463490775138,-0.40093809508943906,2.097378094465083
1590505865.6388052,-0.5583457468912828,-3.858345746891283,8.706989419173352,1.5822222222222222,0.10222222222222224,-1.1055555555555556,0.015275868682671112,-0.3287068855288815,-2.581499936067513
1590505865.6488051,-0.5475710488652626,-3.8363565732978944,8.866454712737681,1.4227274585974239,0.08801721983688864,-1.0392655444239989,-0.004101921897362526,-0.5946381108157841,-6.787338989981599
1590505865.6588051,-0.46408704828580255,-3.820520179141357,8.553301503140121,0.8711111111111111,0.03888888888888889,-0.81,0.17555724287037988,0.7815154303510758,-13.405387753526202
1590505865.6688051,-0.44769608421648927,-3.89,8.606176505298937,0.8711111111111111,0.03888888888888889,-0.81,0.4468439469398352,1.40854763141124,-18.729777893171573
1590505865.678805,-0.42184693082859365,-3.8657959077714583,8.644714322799896,0.8711111111111111,0.03888888888888889,-0.81,0.697448847143228,1.8140944705354825,-24.41843272838836
1590505865.688805,-0.41996048992493085,-3.884861714737258,8.685059265112603,0.8711111111111111,0.03888888888888889,-0.81,0.7490122481232715,1.7818673449229554,-29.831773508494667
1590505865.698805,-0.40616864864864866,-3.931915675675676,8.67,0.7762270270270271,0.10641105105105104,-0.7874926126126126,0.8758783783783783,2.171135135135135,-35.03471621621622
1590505865.708805,-0.38524103831891227,-3.9601606922126082,8.72080346106304,0.6322222222222222,0.2088888888888889,-0.7533333333333333,0.8462608158220024,2.809487021013597,-41.138442521631646
1590505865.718805,-0.38036548923454144,-3.960182744617271,8.681644701555436,0.6322222222222222,0.2088888888888889,-0.7533333333333333,0.9386421538579419,3.1158627691364646,-46.57474523025056
1590505865.728805,-0.3765222066888913,-3.9747833100333367,8.623044413377782,0.6322222222222222,0.2088888888888889,-0.7533333333333333,0.7201043122916443,3.779895687708356,-51.388643940208624
1590505865.738805,-0.3745548479608621,-3.9930365653072415,8.636073130614482,0.6322222222222222,0.2088888888888889,-0.7533333333333333,1.003601967441272,4.0,-56.26440786976509
1590505865.748805,-0.3345948541770562,-3.9889180103803032,8.641348885317965,0.6087999236561324,0.22870775690634948,-0.750330474542809,1.5185891930330064,4.253366210450491,-60.23304889085905
1590505865.758805,-0.31915167991077653,-4.04254496026767,8.775758399553881,0.5455555555555556,0.2822222222222222,-0.7422222222222222,1.083708002230587,4.9375,-63.92833803847763
1590505865.768805,-0.24281654468592287,-3.935633089371846,8.665737564482187,0.5455555555555556,0.2822222222222222,-0.7422222222222222,1.6593711008063765,5.174832858446468,-69.2259716557722
1590505865.778805,-0.08691858213946285,-3.6376743285578512,8.46156992502376,0.5455555555555556,0.2822222222222222,-0.7422222222222222,2.6383716427892567,5.905668098137914,-73.15726530324898
1590505865.788805,-0.14833672805157172,-3.8686775297650295,8.60008147323772,0.5455555555555556,0.2822222222222222,-0.7422222222222222,1.8267735652940806,5.59142903638998,-79.35872372593074
1590505865.798805,-0.19118227535819338,-3.9439080241642155,9.15871904355252,0.5434847638225568,0.29299033923381584,-0.7587885560862124,0.40517364076288076,4.8426736407628805,-84.11822753581934
1590505865.808805,-0.19838260534519597,-3.9193623244246734,8.843234789309609,0.54,0.3111111111111111,-0.7866666666666666,2.0521012119513817,6.876847700444849,-87.4521743318505
1590505865.818805,-0.15081992220273052,-3.9632636717260317,8.734099611013653,0.54,0.3111111111111111,-0.7866666666666666,1.413183586301579,6.48593261383571,-90.47950194493174
1590505865.828805,-0.07,-4.021419665627657,8.608455653159535,0.54,0.3111111111111111,-0.7866666666666666,2.2794214012468124,7.345968227543214,-94.10647492207424
1590505865.838805,-0.0008430367955286483,-4.057289240801118,8.837033069399162,0.54,0.3111111111111111,-0.7866666666666666,1.8157021425244526,7.429028877503494,-96.58057755006986
1590505865.848805,0.06673817381738173,-4.041230289695636,8.757968463513018,0.5219074685246303,0.3007725216966141,-0.7784819500468565,2.239806793179318,7.669617482581591,-98.77539420608727
1590505865.858805,0.019443654675565622,-3.9061055827289595,8.728616244608823,0.4933333333333334,0.28444444444444444,-0.7655555555555555,2.0920114208611427,7.871522841722285,-101.0886231115823
1590505865.868805,0.04436854753436509,-3.8571842737671824,8.716966836489473,0.4933333333333334,0.28444444444444444,-0.7655555555555555,2.2773034220897816,7.973602566567337,-102.35785470537346
1590505865.878805,0.09,-3.8583635455533685,8.652454681669948,0.4933333333333334,0.28444444444444444,-0.7655555555555555,2.4498101330904603,8.164962026618092,-103.15568352087435
1590505865.888805,0.12199809723901453,-3.8040009513804924,8.702000475690246,0.4933333333333334,0.28444444444444444,-0.7655555555555555,2.3499940538719204,8.14999851346798,-104.22497918855173
1590505865.898805,0.21418278877825314,-3.797673115511301,8.725346231022602,0.4614235414379283,0.3227361947189305,-0.7262819655304417,2.610456971945633,8.270342728959225,-105.0537566728505
1590505865.908805,5.210373730324882,-9.59343568271691,1.525524540590836,0.4211111111111111,0.3711111111111111,-0.6766666666666666,-29.379565015119795,1.3229723966813989,-7.13750775374119
1590505865.918805,6.023308928693046,-9.808258530273104,-2.889655383777157,0.4211111111111111,0.3711111111111111,-0.6766666666666666,-109.93457782810052,-41.76471089014506,225.33138025267314
1590505865.9288049,-2.388536104368932,1.7469159587378642,1.9281227245145631,0.4211111111111111,0.3711111111111111,-0.6766666666666666,-231.7936466550364,-124.37596708131068,552.3982905415655
1590505865.9388049,0.013071545131667361,-1.0430715451316674,-0.0746422743416632,0.4211111111111111,0.3711111111111111,-0.6766666666666666,-248.03839431414585,-1.4199836815665696,166.62301619044572
1590505865.9488049,0.04662272421847503,-1.0766227242184752,0.09311362109237514,0.4211111111111111,0.3711111111111111,-0.6766666666666666,-248.45778405273094,3.277181390586504,161.00319369340542
1590505865.9588048,0.5944101982013446,-1.2129567216740882,8.202834191914782,0.41,0.4455555555555555,-0.7,-151.5993280508746,-48.90603444512355,166.58308594545824
1590505865.9688048,-0.5301512113819175,-1.1286794367013695,5.539922703446943,0.41,0.4455555555555555,-0.7,-39.54301130462088,-50.03729860624653,173.2820690113288
1590505865.9788048,-1.4103322575913158,-0.12643171483057059,6.794438902743142,0.41,0.4455555555555555,-0.7,27.351066268153147,-39.676837318468536,178.1629657473962
1590505865.9888048,-3.361005420576177,2.1584794871089343,6.383207220097406,0.41,0.4455555555555555,-0.7,92.5891505929615,-36.50063113942162,175.10984405525136
1590505865.9988048,-3.334475844801149,3.2750162069835604,1.1190731934550961,0.42198799195150194,0.4498369812525205,-0.677736586375782,130.73838216455425,-3.70017808272355,88.34690708643078
1590505866.0088048,-0.5098828765518857,-1.3656816584680254,0.8949964862965565,0.4566666666666666,0.4622222222222222,-0.6133333333333333,110.0967293277114,-4.362497071913797,-94.05024595924104
1590505866.0188048,-1.1856309697333447,-1.710281745691503,6.786564863242734,0.4566666666666666,0.4622222222222222,-0.6133333333333333,149.11045721512477,33.021032324444825,-126.56131784275058
1590505866.0288048,0.383217431617988,-2.4659202596198426,6.209670839128419,0.4566666666666666,0.4622222222222222,-0.6133333333333333,205.47143022716736,1.9407162726008345,-121.60509388038943
1590505866.0388048,2.234275949904479,-4.413461260878794,12.865924856718319,0.4566666666666666,0.4622222222222222,-0.6133333333333333,237.4566148376141,2.5890707917639553,-103.33231797919763
1590505866.0488048,-0.6831265664160402,0.38235654926790663,-0.5518190212373039,0.45938156795497515,0.4409554954638057,-0.6210255536502074,112.10047734467749,-19.555199676823637,-86.51508293760718
1590505866.0588048,0.28475247524752473,-2.1481188118811883,6.032574257425743,0.4633333333333333,0.41,-0.6322222222222222,6.0389851485148505,9.29641089108911,-67.19492574257426
1590505866.0688047,0.61,-3.81,10.39,0.4633333333333333,0.41,-0.6322222222222222,-12.5625,27.0625,-61.375
1590505866.0788047,-1.168339670468948,-4.215424588086185,12.758048162230672,0.4633333333333333,0.41,-0.6322222222222222,-82.53279467680609,35.75839670468948,-50.26037705956907
1590505866.0888047,0.015075051171253127,-1.89120081874005,7.19,0.4633333333333333,0.41,-0.6322222222222222,-27.57322464180123,-5.200564914389681,-41.58014697521037
1590505866.0988047,0.06277007050261542,-2.654321128041847,7.19,0.4633333333333333,0.41,-0.6322222222222222,25.189390493518303,9.193110562396438,-32.935424721400956
1590505866.1088047,0.10572689075630254,-2.1864697478991597,5.322319327731092,0.4388888888888889,0.37666666666666665,-0.6733333333333333,34.12884453781513,8.46641281512605,-27.299705882352942
1590505866.1188047,-1.1764705882350013e-05,-3.0394282352941175,9.833835294117646,0.4388888888888889,0.37666666666666665,-0.6733333333333333,-13.101088235294114,-9.376985294117645,-29.76694117647059
1590505866.1288047,-0.2435374241402562,-3.1138160100183025,10.543842019073308,0.4388888888888889,0.37666666666666665,-0.6733333333333333,-9.121154031403526,8.434362055678644,-24.120647095655524
1590505866.1388047,0.5790768002837885,-5.120149875842497,7.091333806314296,0.4388888888888889,0.37666666666666665,-0.6733333333333333,16.197820592408654,1.4461965679318907,-23.671547978006384
1590505866.1488047,4.2598043632914395,-21.294132084420202,7.358685084183069,0.4341705530524596,0.3841166706189234,-0.6760650014491608,-10.889783910362818,3.0855614180697177,-61.61401766658762
1590505866.1588047,0.18053179103917077,-2.178113193375146,7.759776918165771,0.4177777777777778,0.41,-0.6855555555555556,-23.966227888984864,-0.5117901941638188,-184.17078059864048
1590505866.1688046,-3.9842037133638595,-7.717387700689736,5.108827450298499,0.4177777777777778,0.41,-0.6855555555555556,27.15434634556309,30.32493503545277,-241.88968947429433
1590505866.1788046,-10.6535055792487,-16.16770403692236,5.1603581235029505,0.4177777777777778,0.41,-0.6855555555555556,34.18219642752819,27.702676797920198,-209.60100886545538
1590505866.1888046,-1.0568092248399328,-4.979953378504382,12.10437744762852,0.4177777777777778,0.41,-0.6855555555555556,-10.01942562317399,12.536924224529121,-70.17090663268478
1590505866.1988046,0.8866944789632523,1.416825847683295,9.161105982602521,0.4102507051699312,0.4190952127344813,-0.6937098842140561,1.0066128173264692,-17.025874312089474,60.186567992188884
1590505866.2088046,0.7820660787034964,-1.7987769172225456,7.562562116667412,0.3911111111111111,0.44222222222222224,-0.7144444444444444,2.782178951963111,-21.467662958320275,68.8763948269687
1590505866.2188046,0.39348459313293926,-2.394130801157087,8.856884668595145,0.3911111111111111,0.44222222222222224,-0.7144444444444444,-8.7340397434285,3.5574534649729594,71.22879826436926
1590505866.2288046,0.5407297613644506,-4.56959176360987,9.273706136683945,0.3911111111111111,0.44222222222222224,-0.7144444444444444,-10.934599168717005,2.802373217399614,67.60053478011609
1590505866.2388046,0.7741414026667424,-5.715263053263849,9.260170114877242,0.3911111111111111,0.44222222222222224,-0.7144444444444444,-1.60669188333357,-8.92616936228221,38.156896539482844
1590505866.2488046,0.32149553412947474,-1.5878474362069213,8.96833264700453,0.3911111111111111,0.44222222222222224,-0.7144444444444444,-0.1921735441546084,0.08207900827854608,-16.56262868665067
1590505866.2588046,-0.7995871415064608,-3.5706082571698707,7.889733690513709,0.4044444444444445,0.44222222222222224,-0.6911111111111111,7.519530018909549,11.622587062716672,-70.69828435234794
1590505866.2688046,-4.3471420383382515,-8.095471161398518,9.021384507610334,0.4044444444444445,0.44222222222222224,-0.6911111111111111,-5.690109750143291,2.689147844269429,-41.709055978941564
1590505866.2788045,0.5287837406361293,-2.2868328625813583,8.144754758688444,0.4044444444444445,0.44222222222222224,-0.6911111111111111,-1.2347414957632323,-1.4054939825617094,15.658568709320889
1590505866.2888045,2.782307658009141,-5.588191283023074,7.610887080593022,0.4044444444444445,0.44222222222222224,-0.6911111111111111,7.030838256604615,-6.15267668041467,38.66813900345558
1590505866.2988045,0.7817130427966766,-6.075496551183571,9.410541229032765,0.401744613401613,0.44323465886328406,-0.692123547752173,-5.4559247139050004,-3.09918531509641,17.132914151904686
1590505866.3088045,-0.88673596958771,-4.752243886189058,8.54755036055808,0.3871331277978088,0.4487139659647106,-0.6976028548535995,0.1946107344411354,4.143773759601817,-22.061254457987147
1590505866.3188045,0.6361441791385811,-4.5900536958756994,8.901493202330629,0.38666666666666666,0.4488888888888889,-0.6977777777777778,-0.42246229864046614,1.5247058151490918,-2.010946247001028
1590505866.3288045,-0.05525028153612632,-4.617435654714302,8.388081474106837,0.38666666666666666,0.4488888888888889,-0.6977777777777778,-0.7219524734376785,-1.8124704183055602,8.342856938845458
1590505866.3388045,-0.007628870602479876,-4.43288661180744,8.55659790578264,0.38666666666666666,0.4488888888888889,-0.6977777777777778,-0.3782217650619969,-0.17590220632749615,-0.5509022063274961
1590505866.3488045,0.004397856329658734,-4.442983922472441,8.669371060450393,0.39253047510621164,0.44473535791087787,-0.6977777777777778,-0.20124330103018354,0.07624330103018355,-0.20255359175853166
1590505866.3588045,0.014902083486711331,-4.549804166973423,8.806080210557315,0.4133333333333333,0.43,-0.6977777777777778,-0.17034505447986453,0.029414065375837448,0.1715690108959729
1590505866.3688045,0.0004915328418004915,-4.519016934316398,8.594423795576205,0.4133333333333333,0.43,-0.6977777777777778,0.0409954381712285,-0.24385583947749387,0.13114416052250613
1590505866.3788044,0.01,-4.510911552705985,8.641809565529051,0.4133333333333333,0.43,-0.6977777777777778,-0.4090986022062045,-0.09090139779379555,0.21590139779379555
1590505866.3888044,0.009207826747720365,-4.533662613981763,8.551882598784193,0.4133333333333333,0.43,-0.6977777777777778,-0.4801956686930091,-0.0049510828267477205,0.12004891717325228
1590505866.3988044,0.00307867664250643,-4.484629413140051,8.643819850362403,0.4133333333333333,0.43,-0.6977777777777778,-0.3269669160626607,-0.043258270984334816,0.08174172901566518
1590505866.4088044,0.0,-4.560292268887377,8.623138487408415,0.41797649392997116,0.4457867460285685,-0.7042782026130707,0.3245911238339272,-0.010264443287824797,0.010264443287824797
1590505866.4188044,0.0020025939285859035,-4.517997406071414,8.649987030357071,0.4188888888888889,0.4488888888888889,-0.7055555555555556,0.07493515178535241,0.03746757589267621,0.04998378794633811
1590505866.4288044,0.01,-4.507475431539284,8.608106573654462,0.4188888888888889,0.4488888888888889,-0.7055555555555556,-0.14866782931921177,-0.05461072356026274,0.0
1590505866.4388044,0.01,-4.486196473551637,8.577840470193115,0.4188888888888889,0.4488888888888889,-0.7055555555555556,-0.5134970612930311,0.06924853064651554,0.006748530646515533
1590505866.4488044,0.01,-4.618258816120907,8.560232157850546,0.4188888888888889,0.4488888888888889,-0.7055555555555556,-0.623549013434089,0.1242745067170445,0.0617745067170445
1590505866.4588044,-0.0055607353659912016,-4.588878529268018,8.645584044512951,0.4041926388210083,0.4488888888888889,-0.7055555555555556,-0.18735431783149747,0.027745403962554996,0.0625
1590505866.4688044,0.009709375479515114,-4.443487494245819,8.696221881233695,0.4,0.4488888888888889,-0.7055555555555556,0.057050790240908394,-0.003632806506061071,0.12318359674696946
1590505866.4788043,0.006556455717678995,-4.553443544282321,8.578741940956906,0.4,0.4488888888888889,-0.7055555555555556,-0.19329641372582287,-0.09768143450967084,0.07615928274516458
1590505866.4888043,0.02819194607060493,-4.531808053929395,8.608191946070605,0.4,0.4488888888888889,-0.7055555555555556,-0.43184983147064043,0.028250842646797943,0.125
1590505866.4988043,0.013310626219620366,-4.54668937378038,8.59331062621962,0.4,0.4488888888888889,-0.7055555555555556,-0.38534570693631365,0.26077146531843176,0.125
1590505866.5088043,0.008144217371110079,-4.470413608917789,8.66742313051556,0.3922222222222223,0.44222222222222224,-0.6911111111111111,0.06959184858337204,0.023197282861124012,0.023197282861124012
1590505866.5188043,0.0,-4.554660970873786,8.67686420711974,0.3922222222222223,0.44222222222222224,-0.6911111111111111,0.3193851132686084,0.11387702265372168,0.125
1590505866.5288043,0.0,-4.5255732186678825,8.58770712532847,0.3922222222222223,0.44222222222222224,-0.6911111111111111,-0.02050214997719721,0.0486663083371338,0.0834989250114014
1590505866.5388043,0.0,-4.513634988556075,8.64757667429595,0.3922222222222223,0.44222222222222224,-0.6911111111111111,-0.35036446412578365,0.007572892825156732,-0.047354214349686535
1590505866.5488043,0.0,-4.538678077420639,8.630881281719574,0.3922222222222223,0.44222222222222224,-0.6911111111111111,-0.6112299731316548,0.05974599462633098,0.056991989252661954
1590505866.5588043,0.008360347894840877,-4.523441391579364,8.636558608420637,0.4066666666666667,0.4566666666666666,-0.7055555555555556,-0.3760130460565329,-0.17725217434275548,0.040991302628978064
1590505866.5688043,0.0019429598562013184,-4.49,8.650570401437987,0.4066666666666667,0.4566666666666666,-0.7055555555555556,-0.05035650089874176,-0.10071300179748352,0.20142600359496704
1590505866.5788043,0.008380255656944958,-4.491619744343056,8.574859233029166,0.4066666666666667,0.4566666666666666,-0.7055555555555556,-0.020246804288188026,-0.010123402144094013,0.010123402144094013
1590505866.5888042,0.0002196626262233204,-4.499780337373776,8.59934101212133,0.4066666666666667,0.4566666666666666,-0.7055555555555556,-0.1222542171722085,-0.06112710858610425,0.06112710858610425
1590505866.5988042,0.01971928976929581,-4.549298224423239,8.649298224423239,0.4066666666666667,0.4566666666666666,-0.7055555555555556,-0.125,0.06074556105809881,0.0625
1590505866.6088042,0.0019522298393934256,-4.51,8.663904459678786,0.4133333333333333,0.4566666666666666,-0.6977777777777778,-0.22708994452653763,0.10059712700758218,0.0625
1590505866.6188042,0.0086621360414813,-4.508662136041481,8.66929708833185,0.4133333333333333,0.4566666666666666,-0.6977777777777778,0.13336164974074188,0.008361649740741876,0.07922329948148375
1590505866.6288042,0.002227778970944681,-4.502227778970945,8.617822231767557,0.4133333333333333,0.4566666666666666,-0.6977777777777778,0.17357638143159573,0.04857638143159574,0.15965276286319147
1590505866.6388042,0.01,-4.51,8.659184651451424,0.4133333333333333,0.4566666666666666,-0.6977777777777778,-0.13773982107150246,0.11990407157139903,0.0625
1590505866.6488042,0.01,-4.51,8.644724539750397,0.4133333333333333,0.4566666666666666,-0.6977777777777778,-0.3636790664000552,0.02952837343997794,0.0625
1590505866.6588042,0.0,-4.529485092355574,8.657940369422294,0.4066666666666667,0.43,-0.6911111111111111,-0.49678182722233477,0.059281827222334764,0.24356365444466951
1590505866.6688042,0.0,-4.521760925213163,8.627043700852655,0.4066666666666667,0.43,-0.6911111111111111,-0.44850578258227286,0.011005782582272881,0.14701156516454578
1590505866.6788042,0.0,-4.4867085230670165,8.602683409226806,0.4066666666666667,0.43,-0.6911111111111111,-0.0625,-0.03734303849868911,0.054114346166229704
1590505866.6888041,0.0015791312020883505,-4.527631303196868,8.623158262404177,0.4066666666666667,0.43,-0.6911111111111111,-0.07236957001305219,0.125,0.00986957001305219
1590505866.6988041,0.01700020221703403,-4.504499696674449,8.654000404434068,0.4066666666666667,0.43,-0.6911111111111111,-0.16875126385646266,0.125,0.10625126385646268
1590505866.7088041,0.001834605871599098,-4.536330788256802,8.678165394128401,0.40061153529053306,0.44715620556571195,-0.710285693802201,-0.1875,0.125,-0.10206742660501131
1590505866.7188041,0.0,-4.508651358668405,8.644605434673618,0.4,0.4488888888888889,-0.7122222222222222,-0.12078549583876466,0.17485648751629398,-0.05407099167752933
1590505866.728804,0.0,-4.49110727047668,8.57885816381344,0.4,0.4488888888888889,-0.7122222222222222,-0.0555795595207511,-0.006920440479248897,0.08326132143774669
1590505866.738804,0.0,-4.5,8.651551485486168,0.4,0.4488888888888889,-0.7122222222222222,-0.009696784288551426,-0.06734839214427571,0.23060643142289716
1590505866.748804,0.0,-4.5,8.668379506108447,0.4,0.4488888888888889,-0.7122222222222222,-0.11487191317779695,-0.11993595658889847,0.0202561736444061
1590505866.758804,0.0,-4.513211571976298,8.656788428023702,0.4,0.4488888888888889,-0.6982766740250184,-0.37271697455559427,-0.04242767514813524,0.04128616242593238
1590505866.768804,0.015280035365729248,-4.504719964634271,8.665280035365729,0.4,0.4488888888888889,-0.6911111111111111,-0.5,0.0,0.0625
1590505866.778804,0.0004402675276752768,-4.509559732472325,8.573081872693727,0.4,0.4488888888888889,-0.6911111111111111,-0.05974832795202952,-0.0487416397601476,-0.0625
1590505866.788804,0.010075380349017145,-4.5,8.640301521396069,0.4,0.4488888888888889,-0.6911111111111111,-0.0004711271813571527,0.2490577456372857,-0.061557745637285693
1590505866.798804,0.01650155510272871,-4.5,8.666006220410916,0.4,0.4488888888888889,-0.6911111111111111,-0.04063471939205442,0.16873056121589114,0.018769438784108847
1590505866.808804,0.004517096094636202,-4.492258548047318,8.68,0.40516096796845463,0.4437279209204343,-0.7074541763445507,-0.2076522241127856,0.125,0.0625
1590505866.818804,0.007242457433037937,-4.504484914866076,8.643787712834811,0.4066666666666667,0.44222222222222224,-0.7122222222222222,-0.15946928208702577,0.125,0.15303071791297423
1590505866.828804,0.0,-4.510102704061478,8.560410816245916,0.4066666666666667,0.44222222222222224,-0.7122222222222222,-0.0605742988472726,0.0006419003842424677,0.125
1590505866.838804,0.0,-4.517633676877222,8.590534707508887,0.4066666666666667,0.44222222222222224,-0.7122222222222222,0.08063144144791182,0.04771048048263727,0.125
1590505866.848804,0.0,-4.511814223512337,8.69822931785196,0.4066666666666667,0.44222222222222224,-0.7122222222222222,-0.079644412191582,-0.09098330914368649,0.0738388969521045
1590505866.858804,0.00920139697322468,-4.51,8.664791618160653,0.41280093131548307,0.44222222222222224,-0.7122222222222222,-0.2400174621653085,-0.125,0.0625
1590505866.868804,0.0011178660634337152,-4.53,8.646087468777983,0.4133333333333333,0.44222222222222224,-0.7122222222222222,-0.3645200056553089,-0.11801333710353928,0.0034933314482303596
1590505866.878804,0.02,-4.53,8.582148137975235,0.4133333333333333,0.44222222222222224,-0.7122222222222222,-0.1821296550619149,0.0,0.06518517246904255
1590505866.888804,0.01997476498690091,-4.5299747649869015,8.630100940052397,0.4133333333333333,0.44222222222222224,-0.7122222222222222,-0.06265771883186931,0.00015771883186931732,0.12484228116813069
1590505866.898804,0.011895130220372939,-4.521895130220373,8.662419479118508,0.4133333333333333,0.44222222222222224,-0.7122222222222222,-0.11315543612266914,0.05065543612266914,0.07434456387733086
1590505866.908804,0.0005240969202094613,-4.511048193840419,8.695807224638324,0.4066666666666667,0.44222222222222224,-0.6977777777777778,-0.1348268172539274,-0.11189757699476346,0.1776731827460726
1590505866.918804,0.009830700275139789,-4.52966140055028,8.62135439779888,0.4066666666666667,0.44222222222222224,-0.6977777777777778,-0.30932563015887105,0.12076750687849472,0.0031743698411289545
1590505866.928804,0.0,-4.510408870716857,8.542453224301141,0.4066666666666667,0.44222222222222224,-0.6977777777777778,-0.19005544198035643,0.0625,0.2397782320785743
1590505866.938804,0.0,-4.519729123150082,8.598374738900493,0.4066666666666667,0.44222222222222224,-0.6977777777777778,-0.24830701968801386,0.0625,0.00677192124794454
1590505866.948804,0.01269016235081487,-4.507309837649185,8.638070487052445,0.4066666666666667,0.44222222222222224,-0.6977777777777778,-0.09137297061481411,-0.09612702938518589,-0.03965675734629647
1590505866.958804,0.0057698229407236335,-4.485769822940724,8.674230177059275,0.41141005901975874,0.43747882986913006,-0.7033117355230519,-0.0889386066204773,-0.0985613933795227,0.07090790993071594
1590505866.968804,0.0,-4.51576319136235,8.68,0.4133333333333333,0.4355555555555555,-0.7055555555555556,-0.23675997300734514,0.04925997300734512,0.013240026992654877
1590505866.9788039,0.018378719479636912,-4.538378719479637,8.56053832338236,0.4133333333333333,0.4355555555555555,-0.7055555555555556,-0.19256650162613465,-0.052366996747730696,0.1148669967477307
1590505866.9888039,0.02,-4.519590250608015,8.604425998378627,0.4133333333333333,0.4355555555555555,-0.7055555555555556,-0.1875,-0.0625,0.0824796887666984
1590505866.9988039,0.01330483208640378,-4.51,8.656780671654385,0.4133333333333333,0.4355555555555555,-0.7055555555555556,-0.061965601620070865,0.021189598919952743,0.0625
1590505867.0088038,-0.0022241340917832347,-4.503887932954108,8.688336201137675,0.40043008068089553,0.44845880820799333,-0.6824655244932983,0.0,-0.013900838073645214,0.0625
1590505867.0188038,-0.0018285714285714294,-4.508171428571428,8.70817142857143,0.3922222222222223,0.4566666666666666,-0.6677777777777778,-0.10214285714285715,0.039642857142857146,0.011428571428571427
1590505867.0288038,0.0,-4.536068658194422,8.562277603564944,0.3922222222222223,0.4566666666666666,-0.6677777777777778,-0.125,0.0625,0.10861940914342301
1590505867.0388038,0.0,-4.5104850877430165,8.589191520428304,0.3922222222222223,0.4566666666666666,-0.6677777777777778,-0.18648940053538113,-0.06047880107076224,0.18648940053538113
1590505867.0488038,0.0,-4.517776440273101,8.644435081911713,0.3922222222222223,0.4566666666666666,-0.6677777777777778,0.00691100682754342,-0.013897248293114145,0.041691744879342435
1590505867.0588038,0.0,-4.500708361353957,8.688937457969065,0.3922222222222223,0.43630327031806515,-0.6902846895314952,-0.058072741537771796,-0.1205727415377718,0.0602863707688859
1590505867.0688038,0.0,-4.5,8.637621368562817,0.3922222222222223,0.4355555555555555,-0.6911111111111111,-0.11706107441373265,-0.17956107441373265,0.0625
1590505867.0788038,0.00969280060309084,-4.529078401809273,8.562150395778364,0.3922222222222223,0.4355555555555555,-0.6911111111111111,-0.42790001884658874,0.05482001507727102,0.12308000376931776
1590505867.0888038,-0.00959044532469091,-4.5104095546753085,8.638361781298764,0.3922222222222223,0.4355555555555555,-0.6911111111111111,-0.3150597167206818,0.0625,0.125
1590505867.0988038,-0.004709669112913609,-4.504709669112914,8.645290330887088,0.3922222222222223,0.4355555555555555,-0.6911111111111111,-0.2794354319557101,0.0625,0.125
1590505867.1088037,0.0,-4.495318201658664,8.66170449585334,0.3922222222222223,0.4371161550026674,-0.692671710558223,-0.19147752073330424,0.09176123963334788,0.09573876036665212
1590505867.1188037,0.0,-4.4944809164836474,8.685519083516352,0.3922222222222223,0.44222222222222224,-0.6977777777777778,0.18101145604558674,0.1875,0.045252864011396686
1590505867.1288037,0.0,-4.508192792250163,8.606264869748532,0.3922222222222223,0.44222222222222224,-0.6977777777777778,-0.006024757817597759,0.03388514530944134,0.11370495156351955
1590505867.1388037,0.0,-4.516130472375641,8.620652361878209,0.3922222222222223,0.44222222222222224,-0.6977777777777778,-0.17744635704328493,-0.038315452347761646,0.04836909530447671
1590505867.1488037,0.00579931036481122,-4.514200689635189,8.63420068963519,0.3922222222222223,0.44222222222222224,-0.6977777777777778,-0.14126293065978962,-0.026254310219929876,0.036245689780070124
1590505867.1588037,0.004741339668914777,-4.515258660331085,8.656293301655426,0.3922222222222223,0.44222222222222224,-0.7053736204782343,0.003233254138565289,0.0,0.1282332541385653
1590505867.1688037,0.0,-4.52,8.645026844545677,0.3922222222222223,0.44222222222222224,-0.7122222222222222,0.1062164443179045,0.0,0.1437835556820955
1590505867.1788037,0.006377865554284027,-4.500866403337148,8.591732806674296,0.3922222222222223,0.44222222222222224,-0.7122222222222222,0.045276680571449665,0.0,0.08513834028572484
1590505867.1888037,0.0014296137009446284,-4.515711158897166,8.604281545196221,0.3922222222222223,0.44222222222222224,-0.7122222222222222,-0.05356491436909608,-0.10712982873819216,0.11606491436909608
1590505867.1988037,0.0,-4.5136862971834475,8.628941108449657,0.3922222222222223,0.44222222222222224,-0.7122222222222222,-0.02303935739654745,-0.08553935739654744,0.125
1590505867.2088037,0.007731211596029621,-4.525462423192059,8.65546242319206,0.41283878647830125,0.44222222222222224,-0.7070680811582025,0.0,-0.0625,0.125
1590505867.2188036,0.0034835932716205022,-4.503934373086482,8.653483593271622,0.4188888888888889,0.44222222222222224,-0.7055555555555556,0.08145508410474372,-0.10322754205237186,0.002817373842884413
1590505867.2288036,0.0,-4.474790362743119,8.589161450972474,0.4188888888888889,0.44222222222222224,-0.7055555555555556,0.125,0.01759034928326267,0.032560232855508436
1590505867.2388036,0.0,-4.50342290896876,8.61177863621095,0.4188888888888889,0.44222222222222224,-0.7055555555555556,-0.031669885791064833,0.010276704736311724,-0.04194659052737655
1590505867.2488036,0.0,-4.51659029016809,8.646361160672363,0.4188888888888889,0.44222222222222224,-0.7055555555555556,-0.10368931355056812,0.0,-0.021310686449431876
1590505867.2588036,-0.005860412406691138,-4.514139587593308,8.671720824813383,0.4156331042185049,0.446129163826683,-0.7094624971600163,-0.05174484491636078,-0.07325515508363922,0.0
1590505867.2688036,0.008038746711313082,-4.51,8.673987084429562,0.4133333333333333,0.4488888888888889,-0.7122222222222222,-0.037580722315235585,-0.08741927768476442,0.07516144463047117
1590505867.2788036,0.004355926957598268,-4.51,8.599601671309193,0.4133333333333333,0.4488888888888889,-0.7122222222222222,-0.11138772825750543,-0.013612271742494582,-0.021663184772516247
1590505867.2888036,0.012211513232696041,-4.503894243383652,8.616634539698088,0.4133333333333333,0.4488888888888889,-0.7122222222222222,-0.08683902114782488,-0.07632195770435025,-0.024339021147824873
1590505867.2988036,0.008773851287755626,-4.5056130743561225,8.64,0.4133333333333333,0.4488888888888889,-0.7122222222222222,-0.0625,-0.08991828527423633,0.0
1590505867.3088036,0.009605120416576265,-4.51,8.649605120416577,0.4101316265278079,0.442485475277838,-0.7122222222222222,-0.09251600130180082,-0.002467997396398358,0.0
1590505867.3188035,0.02,-4.51,8.65504338028169,0.4066666666666667,0.4355555555555555,-0.7122222222222222,0.02989436619718311,0.0005422535211267593,-0.03097887323943662
1590505867.3288035,0.003857911123690917,-4.526142088876309,8.623096518539485,0.4066666666666667,0.4355555555555555,-0.7122222222222222,0.15387064817435608,0.00475870365128786,-0.02887064817435607
1590505867.3388035,-0.0036831253391209984,-4.514732501356484,8.606316874660878,0.4066666666666667,0.4355555555555555,-0.7122222222222222,0.125,0.0625,0.0
1590505867.3488035,0.006612053710835849,-4.513224107421672,8.65628437597585,0.4066666666666667,0.4355555555555555,-0.7122222222222222,0.04234932861455189,0.0625,0.0
1590505867.3588035,0.01,-4.511881009615385,8.688118990384615,0.4066666666666667,0.4355555555555555,-0.7185369925213675,-0.1014873798076923,0.011756310096153848,-0.1014873798076923
1590505867.3688035,0.004093691032898515,-4.515906308967101,8.666374764131595,0.4066666666666667,0.4355555555555555,-0.72,-0.08808556895561571,0.0,-0.05117113791123143
1590505867.3788035,-0.006746863585834524,-4.52,8.57578450055582,0.4066666666666667,0.4355555555555555,-0.72,0.06400369223439734,-0.04216789741146578,0.0
1590505867.3888035,-0.0029535442112955416,-4.512953544211295,8.617511013675749,0.4066666666666667,0.4355555555555555,-0.72,0.08095965132059714,-0.01845965132059714,0.0
1590505867.3988035,0.006033906399235912,-4.516033906399236,8.656033906399236,0.4066666666666667,0.4355555555555555,-0.72,-0.012923829990448901,-0.03771191499522445,-0.03771191499522445
1590505867.4088035,0.01,-4.515114339965327,8.664885660034674,0.4066666666666667,0.4388126622453378,-0.7058858710109432,-0.0625,-0.0014292495665813587,-0.0625
1590505867.4188035,0.0030480395333765398,-4.516951960466623,8.642192158133506,0.4066666666666667,0.44222222222222224,-0.6911111111111111,0.0678492587491899,0.14939950583279327,-0.0625
1590505867.4288034,0.008122050217104021,-4.511877949782896,8.573145648480272,0.4066666666666667,0.44222222222222224,-0.6911111111111111,0.125,0.0352115584292996,0.03902562771380026
