time,acc_x,acc_y,acc_z,mag_x,mag_y,mag_z,gyr_x,gyr_y,gyr_z
1590503696.0597465,-3.87,-0.81,9.14,0.3211111111111111,-0.3922222222222223,-0.6555555555555556,0.0625,-0.3125,0.1875
1590503696.0697465,-3.8635428516801302,-0.813228574159935,9.10062855504039,0.3211111111111111,-0.4133333333333333,-0.6555555555555556,-0.10285717699918742,-0.18946423450121885,0.02017858849959371
1590503696.0797465,-3.853240553346508,-0.8232405533465083,9.02435391318841,0.3211111111111111,-0.4133333333333333,-0.6555555555555556,-0.22800691683135313,-0.08275345841567656,0.042246541584323435
1590503696.0897465,-3.86,-0.835031273780137,8.975156368900684,0.3211111111111111,-0.4133333333333333,-0.6555555555555556,-0.3125,-0.06210907774828782,0.0
1590503696.0997465,-3.86,-0.8491370206411009,9.0505753195726,0.3211111111111111,-0.4133333333333333,-0.6555555555555556,-0.3089042526712536,0.13039362099311963,-0.003595747328746422
1590503696.1097465,-3.86,-0.826766227532135,9.065489181645244,0.3211111111111111,-0.4133333333333333,-0.6555555555555556,-0.21569261471722936,0.270211077924156,-0.09680738528277064
1590503696.1197464,-3.8791002277904325,-0.8373006833712984,9.104601366742596,0.3288888888888889,-0.4,-0.6555555555555556,0.193123576309795,0.1875,-0.06812357630979499
1590503696.1297464,-3.875814097959659,-0.81,9.038371804080683,0.3288888888888889,-0.4,-0.6555555555555556,0.28633811224786937,0.12693647958688437,-0.10077459183475374
1590503696.1397464,-3.899748941318814,-0.8101255293405929,8.990376588021778,0.3288888888888889,-0.4,-0.6555555555555556,0.4414227918935269,-0.12813823351482154,-0.0007845583787053841
1590503696.1497464,-3.8748173609304746,-0.8182724536434914,9.025182639069525,0.3288888888888889,-0.4,-0.6555555555555556,0.7715943294563561,-0.42898582364089033,-0.08409432945635614
1590503696.1597464,-3.851438631043068,-0.8104795436810227,9.048561368956932,0.3288888888888889,-0.4,-0.6555555555555556,0.8690057039872171,-0.6725142599680428,-0.18150570398721713
1590503696.1697464,-3.8538751966439433,-0.8287082677853521,9.101291732214648,0.3088888888888889,-0.3922222222222223,-0.6622222222222223,0.5604133892676105,-0.6934867156091592,-0.054426673658451316
1590503696.1797464,-3.878851950498587,-0.82,9.096223405983045,0.3088888888888889,-0.3922222222222223,-0.6622222222222223,0.13935061876766167,-0.3483765469191542,0.007175309383830837
1590503696.1897464,-3.8720401468152144,-0.82,9.014481761782571,0.3088888888888889,-0.3922222222222223,-0.6622222222222223,0.22449816480982232,-0.5612454120245558,0.04974908240491116
1590503696.1997464,-3.840521807879826,-0.810173935959942,9.051043615759653,0.3088888888888889,-0.3922222222222223,-0.6622222222222223,-0.0010870997496376334,-0.8081516010014494,0.06467419949927526
1590503696.2097464,-3.8612473646066676,-0.8170824548688892,9.092494729213335,0.3088888888888889,-0.3922222222222223,-0.6622222222222223,-0.04426534293055739,-0.6354386282777704,0.1510306858611148
1590503696.2197464,-3.8518773373223634,-0.82,9.146245325355274,0.3270115515665254,-0.3922222222222223,-0.6622222222222223,0.05076664173522813,-0.5058666791323859,0.01760003739715782
1590503696.2297463,-3.8674811038457277,-0.82,9.158740551922865,0.3288888888888889,-0.3922222222222223,-0.6622222222222223,0.1171284495178987,-0.3361146514463039,-0.054628449517898706
1590503696.2397463,-3.87,-0.828183354253162,8.965449937240514,0.3288888888888889,-0.3922222222222223,-0.6622222222222223,0.30677017958868397,-0.5227080718354736,0.0
1590503696.2497463,-3.866813300043594,-0.82,8.996373399912812,0.3288888888888889,-0.3922222222222223,-0.6622222222222223,0.5525415626362303,-0.6449168747275393,0.019916874727539335
1590503696.2597463,-3.8501910196964295,-0.82,9.02961796060714,0.3288888888888889,-0.3922222222222223,-0.6622222222222223,0.5005969365513415,-0.748806126897317,0.12380612689731701
1590503696.2697463,-3.8763970713073004,-0.8024019524617997,9.100392190152801,0.32204520373514434,-0.3922222222222223,-0.6622222222222223,0.5,-0.9149816956706281,0.125
1590503696.2797463,-3.902142734529225,-0.8321427345292249,9.119286327353876,0.3211111111111111,-0.3922222222222223,-0.6622222222222223,0.616068363230624,-1.51338136211484,0.040176272422967986
1590503696.2897463,-3.91,-0.84,9.076186440677967,0.3211111111111111,-0.3922222222222223,-0.6622222222222223,0.868114406779661,-2.3532838983050848,0.2033898305084746
1590503696.2997463,-3.8987128255713897,-0.8332276953428337,9.055643587214306,0.3211111111111111,-0.3922222222222223,-0.6622222222222223,1.2852724200894075,-3.133044840178815,0.3759903561609335
1590503696.3097463,-3.8106841983755535,-0.7804105190253322,9.099657900812224,0.3211111111111111,-0.3922222222222223,-0.6622222222222223,1.5603618800763952,-3.6832237601527904,0.8711513841375113
1590503696.3197463,-3.769955670041335,-0.7998891751033368,9.109933505062001,0.3411111111111111,-0.4,-0.6622222222222223,1.6245844066375128,-3.8115302821541963,0.8116688132750255
1590503696.3297462,-3.754086389748122,-0.7513621299160407,9.054119531595228,0.3411111111111111,-0.4,-0.6622222222222223,1.3693935041979672,-3.2132470724701725,0.3864201281484755
1590503696.3397462,-3.773944511078846,-0.7579815036929487,8.928351429833976,0.3411111111111111,-0.4,-0.6622222222222223,1.0384248153525661,-2.427196436462345,0.13819361151442455
1590503696.3497462,-3.7928654705125293,-0.8017192823075177,8.983438564615035,0.3411111111111111,-0.4,-0.6622222222222223,0.20701794231205994,-0.22653588462411992,-0.0035818381406616698
1590503696.3597462,-3.8246188205011733,-0.820771292300704,9.021542584601407,0.3411111111111111,-0.4,-0.6622222222222223,-0.2692823075176016,0.7260646150352033,-0.0432735256264668
1590503696.3697462,-3.856493917553293,-0.8217530412233535,9.072987835106586,0.34660908362887544,-0.4,-0.6686365234929473,-0.5515434923540403,1.342130477062121,-0.010956507645959651
1590503696.3797462,-3.837363838664812,-0.8008787204450626,9.065606397774687,0.3477777777777778,-0.4,-0.67,-0.16553198887343532,0.42860396383866484,-0.005492002781641169
1590503696.3897462,-3.8131135076289784,-0.8053297385565328,9.026227015257955,0.3477777777777778,-0.4,-0.67,0.0722297113405569,-0.29304057731888616,-0.052770288659443096
1590503696.3997462,-3.827382503529572,-0.7839262447056422,9.054765007059144,0.3477777777777778,-0.4,-0.67,0.11682032352991206,-0.20385935294017588,-0.008179676470087938
1590503696.4097462,-3.82160954457483,-0.78,9.093561821700678,0.3477777777777778,-0.4,-0.67,-0.08476138562924129,0.07470173203655162,0.0
1590503696.4197462,-3.82,-0.8042131562735301,9.132284208364707,0.33253245716111074,-0.3838578958176467,-0.6753807013941178,-0.3267763022794168,0.629440755698542,0.050444075569854196
1590503696.4297462,-3.8416625259734394,-0.8116625259734394,9.12838716234529,0.3288888888888889,-0.38,-0.6766666666666666,-0.5832815746679917,0.8957815746679917,0.10421842533200831
1590503696.4397461,-3.8476200506472913,-0.8176200506472913,9.024759898705417,0.3288888888888889,-0.38,-0.6766666666666666,-0.6800626582727853,0.9628132913639268,0.0
1590503696.4497461,-3.8326788046255467,-0.8,9.060892934875183,0.3288888888888889,-0.38,-0.6766666666666666,-0.6026766281204459,0.6875,-0.005580842969888525
1590503696.4597461,-3.8564933663909757,-0.8,9.068831122130325,0.3288888888888889,-0.38,-0.6766666666666666,-0.4042219467418665,0.6875,-0.05519451331453338
1590503696.469746,-3.798765449275362,-0.76,9.041234550724637,0.3211111111111111,-0.38666666666666666,-0.6488888888888888,-0.2106478260869565,0.390431884057971,0.0
1590503696.479746,-3.7952627566578574,-0.7652627566578573,9.044737243342142,0.3211111111111111,-0.38666666666666666,-0.6488888888888888,-0.40789222911160805,0.6315689164464322,0.00657844582232161
1590503696.489746,-3.8429926439540414,-0.8144889659310621,9.014963219770207,0.3211111111111111,-0.38666666666666666,-0.6488888888888888,-0.715556037069138,1.8248160988510345,0.08120402471275863
1590503696.499746,-3.861978089925398,-0.84,9.101483567444049,0.3211111111111111,-0.38666666666666666,-0.6488888888888888,-0.8657277034746959,2.240727703474696,0.1844092344915653
1590503696.509746,-3.8845296054842393,-0.84,9.11839720411318,0.3211111111111111,-0.38666666666666666,-0.6488888888888888,-0.7600174742926272,2.1350174742926273,0.14917249143087574
1590503696.519746,-3.8794947647035927,-0.8297473823517963,9.145378926472306,0.3285157794125915,-0.3935017450988024,-0.6523064281049568,-0.3991451286442723,1.5498691175898176,0.060921139698727186
1590503696.529746,-3.8427229219883143,-0.8027229219883144,9.073614609941572,0.33555555555555555,-0.4,-0.6555555555555556,0.1989452127191051,0.14465523062920216,-0.10798173757303503
1590503696.539746,-3.842239564185689,-0.78,8.991119782092845,0.33555555555555555,-0.4,-0.6555555555555556,0.3540040857591658,-0.5345054476788877,0.0
1590503696.549746,-3.856257478025467,-0.78,8.998128739012733,0.33555555555555555,-0.4,-0.6555555555555556,0.22258614351124628,-0.3592815246816617,0.0
1590503696.559746,-3.8262634076756368,-0.8053024442432722,9.042170740405455,0.33555555555555555,-0.4,-0.6555555555555556,-0.18149397854771898,0.05649397854771898,0.052713425506817
1590503696.569746,-3.841314287955138,-0.8028952373482874,9.064209525303426,0.316609521817655,-0.3944740734931124,-0.6555555555555556,-0.38321429971961335,0.30261906629281776,0.01809523342679556
1590503696.579746,-3.868874882800292,-0.8,9.107749765600582,0.3088888888888889,-0.3922222222222223,-0.6555555555555556,-0.5554680175018231,0.7289040525054693,0.0
1590503696.589746,-3.8871048612878596,-0.834209722575719,9.041580554848561,0.3088888888888889,-0.3922222222222223,-0.6555555555555556,-0.6694053830491219,0.75,0.0
1590503696.599746,-3.8690366702039856,-0.8295183351019927,9.08192665959203,0.3088888888888889,-0.3922222222222223,-0.6555555555555556,-0.47892716071218017,0.3448959438745431,0.05647918877490862
1590503696.609746,-3.8525515858978894,-0.8212757929489447,9.11489682820422,0.3088888888888889,-0.3922222222222223,-0.6555555555555556,-0.11831594151633062,-0.17026294069095627,-0.046552588138191256
1590503696.619746,-3.82,-0.81,9.095762626853693,0.33555555555555555,-0.38,-0.6766666666666666,0.260593432865765,-0.54131313426847,-0.0625
1590503696.629746,-3.82,-0.81,9.060700850985572,0.33555555555555555,-0.38,-0.6766666666666666,0.34824787253607076,-0.3660042549278585,-0.0625
1590503696.639746,-3.7719673300520724,-0.7908431414508881,8.941686282901776,0.33555555555555555,-0.38,-0.6766666666666666,0.11270418717454883,0.3458743490976532,-0.057230365931949495
1590503696.649746,-3.840733254606871,-0.82,9.001466509213742,0.33555555555555555,-0.38,-0.6766666666666666,-0.3207491143273007,1.5128319556202454,0.12408343174141104
1590503696.659746,-3.8695299755581796,-0.82,9.059059951116359,0.33555555555555555,-0.38,-0.6766666666666666,-0.6447122250295224,2.016774572268146,0.08808753055227528
1590503696.669746,-3.9052662274996854,-0.8250887424998951,9.135621197499265,0.3219855755558353,-0.3862195741665385,-0.6659237658335547,-0.8431953593756556,1.9933443125078671,-0.06471856249737759
1590503696.679746,-3.8886760355029586,-0.8113239644970415,9.104042159763313,0.3088888888888889,-0.3922222222222223,-0.6555555555555556,0.1580991124260355,-0.4200721153846154,-0.11672522189349113
1590503696.689746,-3.87,-0.83,9.02,0.3088888888888889,-0.3922222222222223,-0.6555555555555556,0.625,-1.9375,0.0
1590503696.699746,-3.8488311329965614,-0.8215324531986246,9.024233773400686,0.3088888888888889,-0.3922222222222223,-0.6555555555555556,0.7837665025257885,-2.307955172560173,-0.07938325126289425
1590503696.709746,-3.779486359274322,-0.7964954530914409,9.01649545309144,0.3088888888888889,-0.3922222222222223,-0.6555555555555556,1.1266051272677422,-2.939105127267742,-0.22970170908924736
1590503696.7197459,-3.747878070846962,-0.7718171062704433,8.997878070846962,0.31629673448241197,-0.3922222222222223,-0.6595961986065682,1.0738569141902707,-2.50754662815784,-0.25
1590503696.7297459,-3.763703082149728,-0.7520989726167574,9.02160410953297,0.3211111111111111,-0.3922222222222223,-0.6622222222222223,0.5555672096926036,-0.4591502599156807,-0.0030928942736687115
1590503696.7397459,-3.8270068132548776,-0.8006727228932246,9.023665909638346,0.3211111111111111,-0.3922222222222223,-0.6622222222222223,-0.3146732304463026,1.7418748494545957,0.10208806476033172
1590503696.7497458,-3.897644569302054,-0.8224710861395892,9.087760224743697,0.3211111111111111,-0.3922222222222223,-0.6622222222222223,-1.2676128279032435,3.738169944178919,0.2661671348827027
1590503696.7597458,-3.9560133821770336,-0.8397200209330143,9.156013382177033,0.3211111111111111,-0.3922222222222223,-0.6622222222222223,-1.2731664922248804,3.487332722787081,0.18924986916866027
1590503696.7697458,-3.861963431183487,-0.7909817155917435,9.104119348617957,0.32766869826758405,-0.3987798093786952,-0.6509806442396971,-0.39707654810370685,0.8689245411042066,-0.24386427755160345
1590503696.7797458,-3.8258560747311523,-0.8082878505376951,9.040496261559033,0.3288888888888889,-0.4,-0.6488888888888888,0.19199766465148688,-0.8000934610241635,-0.3125
1590503696.7897458,-3.830408584703887,-0.7908171694077735,8.942860092927207,0.3288888888888889,-0.4,-0.6488888888888888,-0.017875580795043883,-0.7844098016077882,-0.25
1590503696.7997458,-3.8381420089977136,-0.8062840179954275,8.996994062983996,0.3288888888888889,-0.4,-0.6488888888888888,-0.3562128936499742,-0.2527368814071834,-0.25
1590503696.8097458,-3.84,-0.8029816756232931,9.052109946260241,0.3288888888888889,-0.4,-0.6488888888888888,-0.6568226367720905,0.4891033829618536,-0.25
1590503696.8197458,-3.84,-0.7941641156287881,9.07,0.3243498677112796,-0.4,-0.6488888888888888,-0.7135257226799252,0.932371386600374,-0.25
1590503696.8297458,-3.8995537151155943,-0.8410460415276524,9.11253836793971,0.3211111111111111,-0.4,-0.6488888888888888,-0.8470188797739138,1.3815377595478275,-0.1968270400753621
1590503696.8397458,-3.8720911914523546,-0.8310455957261771,9.025227978630886,0.3211111111111111,-0.4,-0.6488888888888888,-0.9342325133556963,1.4967325133556963,-0.1875
1590503696.8497458,-3.8624454347207737,-0.8148908694415474,9.050218261116905,0.3211111111111111,-0.4,-0.6488888888888888,-0.46533967004835497,1.027839670048355,-0.1875
1590503696.8597457,-3.8528935264471302,-0.8171064735528698,9.06,0.3211111111111111,-0.4,-0.6488888888888888,-0.09042270147281889,0.8305845402945637,-0.09866908058912756
1590503696.8697457,-3.8405772660429895,-0.82942273395701,9.11653640374206,0.3211111111111111,-0.39267120692232554,-0.6551707115268957,-0.1766762616939395,0.8713920872313131,-0.12139208723131317
1590503696.8797457,-3.8803676559416904,-0.83,9.103852937623323,0.3211111111111111,-0.3922222222222223,-0.6555555555555556,-0.43979784963556556,1.329136129344018,-0.22591913985422624
1590503696.8897457,-3.8705748057480576,-0.8202874028740287,9.02229922299223,0.3211111111111111,-0.3922222222222223,-0.6555555555555556,-0.19648133981339816,0.7697589475894759,-0.12859253592535924
1590503696.8997457,-3.8617947947947946,-0.8282052052052051,9.03641041041041,0.3211111111111111,-0.3922222222222223,-0.6555555555555556,-0.08493493493493494,0.49358733733733734,-0.17628253253253254
1590503696.9097457,-3.8362684177385984,-0.8181342088692993,9.0637315822614,0.3211111111111111,-0.3922222222222223,-0.6555555555555556,-0.13666119456687956,0.6229029864171989,-0.07625820814968066
1590503696.9197457,-3.701992025388559,-0.8414687932297176,9.08,0.3158663122394916,-0.3922222222222223,-0.6441918246670464,-0.3350099682643014,0.6516600211571324,0.0
1590503696.9297457,-3.6404934375816533,-0.8573766406045866,9.043116796977067,0.3144444444444445,-0.3922222222222223,-0.6411111111111111,-0.2827919924426668,0.6711040037786666,0.046104003778666615
1590503696.9397457,-3.675160533966924,-0.86,8.948711038859535,0.3144444444444445,-0.3922222222222223,-0.6411111111111111,-0.25,0.23589466033075934,0.6270066745865508
1590503696.9497457,-3.7468128579536657,-0.8132309994324338,8.9800877147722,0.3144444444444445,-0.3922222222222223,-0.6411111111111111,-0.0829678551158351,0.2710160724420825,1.1468383984314534
1590503696.9597456,-3.78,-0.79,9.01854639259684,0.3144444444444445,-0.3922222222222223,-0.6411111111111111,0.03863831791008107,0.23522336417983786,1.838659814920973
1590503696.9697456,-3.78,-0.7787163239359878,9.046925514096019,0.3294893458631275,-0.3890878677599966,-0.6574097543146844,-0.14906892620023007,0.08171553689988496,2.54813785240046
1590503696.9797456,-3.7934699281718576,-0.763265035914071,9.073469928171859,0.3411111111111111,-0.38666666666666666,-0.67,-0.18621942338883188,-0.04209352553705604,3.001280576611168
1590503696.9897456,-3.854741153132399,-0.76,9.0389441351507,0.3411111111111111,-0.38666666666666666,-0.67,0.046066103538747044,-0.10526652588468677,3.1052665258846868
1590503696.9997456,-3.9203968088589884,-0.7842380853153931,9.06039680885899,0.3411111111111111,-0.38666666666666666,-0.67,0.07450398892626439,-0.2764880332212068,3.024007977852529
1590503697.0097456,-3.966510369516912,-0.7753958521932351,9.09920829561353,0.3411111111111111,-0.38666666666666666,-0.67,0.10813796189614024,-0.2668620381038598,2.9087240762077196
1590503697.0197456,-3.98,-0.7963793576722482,9.153965596120413,0.3303639653927878,-0.39155173290226825,-0.663160907270158,-0.14978497575258487,-0.19504300484948303,2.655172019397932
1590503697.0297456,-3.958039389501272,-0.8146404069991521,9.130719186001695,0.3288888888888889,-0.3922222222222223,-0.6622222222222223,-0.1875,-0.1875,2.625
1590503697.0397456,-3.9740351478782685,-0.8280117159594227,9.047894556365195,0.3288888888888889,-0.3922222222222223,-0.6622222222222223,-0.13742677525360766,-0.13742677525360766,2.625
1590503697.0497456,-3.96676565159826,-0.8167656515982599,9.01676565159826,0.3288888888888889,-0.3922222222222223,-0.6622222222222223,-0.125,-0.08364266124456213,2.625
1590503697.0597456,-3.9418389069223223,-0.7797315115372034,9.028161093077678,0.3288888888888889,-0.3922222222222223,-0.6622222222222223,-0.16283561057849577,-0.0625,2.5493287788430083
1590503697.0697455,-3.9118946497517926,-0.8052633756205185,9.049052675124104,0.32184791934791934,-0.3871929582643868,-0.6622222222222223,-0.1309207804743519,-0.2888168781025924,2.7263168781025926
1590503697.0797455,-3.904205951483436,-0.7984119029668721,9.038411902966873,0.3211111111111111,-0.38666666666666666,-0.6622222222222223,-0.08878719677147545,-0.34871280322852455,2.568935983857377
1590503697.0897455,-3.927944405319193,-0.79,8.974111189361613,0.3211111111111111,-0.38666666666666666,-0.6622222222222223,-0.0625,-0.4797915199469738,2.262847466755044
1590503697.0997455,-3.968224788896438,-0.777850140735708,8.984674366689314,0.3211111111111111,-0.38666666666666666,-0.6622222222222223,-0.10046831020091235,-0.5245316897990876,2.0490633795981754
1590503697.1097455,-3.98,-0.7903199102006455,9.040319910200646,0.3211111111111111,-0.38666666666666666,-0.6622222222222223,-0.1567498596885085,-0.40475042093447455,1.746001122491932
1590503697.1197455,-3.956495457407574,-0.81,9.08820545111091,0.32476737329215516,-0.38666666666666666,-0.6559543441975753,-0.06997728703786993,-0.3125,1.1474318611136098
1590503697.1297455,-3.877247416762342,-0.8034059270952928,9.106811854190585,0.3288888888888889,-0.38666666666666666,-0.6488888888888888,0.0625,-0.14764817738231917,0.3790833991102181
1590503697.1397455,-3.875035682598465,-0.7937410793503838,9.037410793503838,0.3288888888888889,-0.38666666666666666,-0.6488888888888888,0.0625,0.015736508120202136,0.031026983759595728
1590503697.1497455,-3.8819804374888847,-0.798019562511115,9.06415650008892,0.3288888888888889,-0.38666666666666666,-0.6488888888888888,-0.08786679708340744,0.11262226569446915,-0.1627445313889383
1590503697.1597455,-3.898139128989362,-0.8060463763297873,9.092092752659575,0.3288888888888889,-0.38666666666666666,-0.6488888888888888,-0.011630443816489366,0.04942029587765957,-0.11192029587765957
1590503697.1697454,-3.88138782745716,-0.7956939137285799,9.07854087059287,0.3288888888888889,-0.3962040575142801,-0.6584262797365024,-0.07161955879456372,0.0,-0.0625
1590503697.1797454,-3.891328691378251,-0.7971095637927504,9.0557808724145,0.3288888888888889,-0.4,-0.6622222222222223,-0.21386954740937947,-0.1333043211140692,0.026369547409379482
1590503697.1897454,-3.8924144792433286,-0.7848289584866575,8.98173031318996,0.3288888888888889,-0.4,-0.6622222222222223,-0.20259049527080436,-0.1875,0.15731900945839125
1590503697.1997454,-3.8710223513890747,-0.7863258828703085,8.99795529722185,0.3288888888888889,-0.4,-0.6622222222222223,-0.1875,-0.10842646412114491,0.1875
1590503697.2097454,-3.8651325654923214,-0.7848674345076785,9.05079539295393,0.3288888888888889,-0.4,-0.6622222222222223,-0.1875,-0.03042146567299006,0.12334293134598012
1590503697.2197454,-3.8770666112150827,-0.8082664448603313,9.10826644486033,0.33359996303227746,-0.4,-0.6575111480788337,-0.09916735981146461,0.04416632009426769,0.018333679905732307
1590503697.2297454,-3.8736879713423833,-0.8073759426847662,9.126312028657617,0.33555555555555555,-0.4,-0.6555555555555556,0.05585053733031675,0.10195017911010558,-0.03945017911010558
1590503697.2397454,-3.8626601954482847,-0.8,9.034582540827705,0.33555555555555555,-0.4,-0.6555555555555556,0.07912622155178067,0.125,-0.10837377844821933
1590503697.2497454,-3.8441659646166806,-0.7920829823083404,9.031668070766639,0.33555555555555555,-0.4,-0.6555555555555556,0.16146272114574556,0.22396272114574556,-0.22396272114574556
1590503697.2597454,-3.8339974930513923,-0.79,9.058007520845823,0.33555555555555555,-0.4,-0.6555555555555556,0.14998433157120278,0.2875156684287972,-0.32503133685759444
1590503697.2697453,-3.7852457912457913,-0.7772130832130832,9.10836075036075,0.33555555555555555,-0.3914753888087221,-0.6598178611511946,0.045081770081770084,0.43237734487734486,-0.6946729196729197
1590503697.2797453,-3.7295385531408156,-0.762384638285204,9.09192319142602,0.33555555555555555,-0.38666666666666666,-0.6622222222222223,-0.14278803215242633,0.5,-1.3509601071747543
1590503697.2897453,-3.697700708111091,-0.76,9.00566902703697,0.33555555555555555,-0.38666666666666666,-0.6622222222222223,-0.28041371620378885,0.4535431418981056,-2.3826803039359943
1590503697.2997453,-3.7045388412574694,-0.7527305793712653,8.99453884125747,0.33555555555555555,-0.38666666666666666,-0.6622222222222223,-0.3125,0.4829338789295921,-3.3690081839438815
1590503697.3097453,-3.71,-0.7400106856926795,9.044951914382942,0.33555555555555555,-0.38666666666666666,-0.6622222222222223,-0.3125,0.5624332144207532,-4.280548751417909
1590503697.3197453,-3.700626605242774,-0.734686697378613,9.085313302621387,0.3324310906364802,-0.38927038743256287,-0.6559732923840714,-0.42966743446532674,0.5664162827673366,-5.5819208895592975
1590503697.3297453,-3.645168365086398,-0.74,9.08,0.3288888888888889,-0.3922222222222223,-0.6488888888888888,-0.32233052724856004,0.7001412272928667,-7.433290872840053
1590503697.3397453,-3.599034327181801,-0.7469885576060664,9.00312586633327,0.3288888888888889,-0.3922222222222223,-0.6488888888888888,-0.01278605984834072,0.9435354551137445,-9.32917606609953
1590503697.3497453,-3.51970664601649,-0.7218826584065959,8.984058670796703,0.3288888888888889,-0.3922222222222223,-0.6488888888888888,0.23823338495877555,1.0878666924793878,-10.929400309752653
1590503697.3597453,-3.4553200000000004,-0.6522,9.03624,0.3288888888888889,-0.3922222222222223,-0.6488888888888888,0.276375,1.19725,-11.880749999999999
1590503697.3697453,-3.3350131764053184,-0.5480520715686857,9.082389585686263,0.33393649787218116,-0.38992785450254397,-0.6543953714161168,0.22418836315361906,1.198376726307238,-12.611362915849334
1590503697.3797452,-3.0890836192109776,-0.48376779588336194,9.113204331046312,0.3411111111111111,-0.38666666666666666,-0.6622222222222223,0.20400541380789022,1.2240324828473415,-13.389086620926243
1590503697.3897452,-2.763470715835141,-0.5141865509761389,9.070108459869848,0.3411111111111111,-0.38666666666666666,-0.6622222222222223,0.40496203904555317,1.6033080260303687,-14.58988611713666
1590503697.3997452,-2.713996875513896,-0.43800937345831276,9.040093734583127,0.3411111111111111,-0.38666666666666666,-0.6622222222222223,0.28722660746587736,1.7249218878473935,-17.575917817793126
1590503697.4097452,-2.68180311649765,-0.45563937670046994,9.114884986396241,0.3411111111111111,-0.38666666666666666,-0.6622222222222223,0.43094546129112044,2.047953252535246,-20.265582488251297
1590503697.4197452,-2.878329991406474,-0.5989372672586651,9.060151818963048,0.3411111111111111,-0.3903422557475838,-0.6673680469355061,0.8125,2.540401508641268,-23.050164709252364
1590503697.4297452,-2.8648297845480557,-0.8544613701397071,9.129054872917017,0.3411111111111111,-0.3922222222222223,-0.67,0.606627935111934,2.419127935111934,-25.56315093208214
1590503697.4397452,-2.526665079045229,-1.2657489604132701,9.056895894777336,0.3411111111111111,-0.3922222222222223,-0.67,1.8843471212148968,3.225580016120464,-27.232763239846854
1590503697.4497452,-2.300734511225986,-1.4131178149834118,8.909816372193504,0.3411111111111111,-0.3922222222222223,-0.67,2.5860032019134325,4.092315407761747,-28.97649679808657
1590503697.4597452,-2.4108226660614314,-1.1747740959297925,8.947242094114086,0.3411111111111111,-0.3922222222222223,-0.67,0.9794333484642155,2.8642107353608717,-30.638107126645483
1590503697.4697452,-2.451839242621125,-1.1336784852422497,9.047588639316874,0.34376779489718046,-0.3912004207660418,-0.6646866324278613,0.045981065528123255,1.626447930202339,-31.95189112678671
1590503697.4797451,-2.506888172364459,-1.1414748777519164,9.152949755503833,0.3555555555555556,-0.38666666666666666,-0.6411111111111111,0.8094611475304819,2.746961147530482,-33.791025175631525
1590503697.4897451,-2.584768778576094,-1.0856936642717179,9.031541476159374,0.3555555555555556,-0.38666666666666666,-0.6411111111111111,1.5932682887001959,3.623073154800784,-35.579780372305684
1590503697.4997451,-2.637558870260144,-1.0587794351300719,9.017637363940336,0.3555555555555556,-0.38666666666666666,-0.6411111111111111,1.2337617681235031,3.4370094144988026,-37.63459087244184
1590503697.5097451,-2.6694330305651675,-1.0605669694348328,9.074716515282583,0.3555555555555556,-0.38666666666666666,-0.6411111111111111,0.8231306769031141,3.0731306769031144,-39.13789017445213
1590503697.519745,-2.6878419113080203,-1.0552279408720135,9.098297793052048,0.35177982048132356,-0.3849240197093288,-0.6448868461853431,0.6413373152250424,3.103722413150594,-40.51994482630119
1590503697.529745,-2.713296599247784,-1.0617585018805398,9.113737408274375,0.3411111111111111,-0.38,-0.6555555555555556,0.8317262170905553,3.9766411982851584,-42.07004681623314
1590503697.539745,-2.737509950370989,-1.0350199007419782,8.93,0.3411111111111111,-0.38,-0.6555555555555556,1.5468542700604393,5.031125620362635,-43.84437189818682
1590503697.549745,-2.757746095598675,-1.0687304779933744,8.907460955986748,0.3411111111111111,-0.38,-0.6555555555555556,1.4436523899668718,4.679565487458589,-45.70078088026503
1590503697.559745,-2.7524641170478747,-1.0349282340957497,8.841499212890083,0.3411111111111111,-0.38,-0.6555555555555556,1.16786276507084,4.31429414760626,-47.41427446985832
1590503697.569745,-2.7895318783430287,-1.1185956350290869,9.060552844258774,0.3564680262193244,-0.38317729278100965,-0.6555555555555556,-0.1074454378635849,2.7587772810682076,-50.35212343341272
1590503697.579745,-2.8177204421261797,-1.1618136280841198,9.1304659297897,0.37333333333333335,-0.38666666666666666,-0.6555555555555556,0.12759899196886904,3.3377693430203674,-52.37468693078324
1590503697.589745,-2.8355400609786576,-1.19216024391463,8.99919878042685,0.37333333333333335,-0.38666666666666666,-0.6555555555555556,0.9087538111660919,4.463631478982356,-53.699258384565404
1590503697.599745,-2.811921463528315,-1.198768585411326,8.92684712188301,0.37333333333333335,-0.38666666666666666,-0.6555555555555556,1.5735798764856677,4.516321952924726,-55.260150605919364
1590503697.609745,-2.8154166514047105,-1.2154166514047104,9.003541628511776,0.37333333333333335,-0.38666666666666666,-0.6555555555555556,1.5572918574411194,4.319878392732867,-56.71484332075748
1590503697.619745,-2.8645228848821085,-1.2645228848821082,9.075477115117891,0.38543573740175685,-0.384246185852982,-0.6555555555555556,1.147692007628294,4.454615984743412,-58.27749219833564
1590503697.629745,-2.8352841964101505,-1.2839204662677945,9.025681865071178,0.4066666666666667,-0.38,-0.6555555555555556,0.9975145708685785,4.526988343305137,-60.22443005983082
1590503697.639745,-2.8155612670455645,-1.3111225340911297,8.994438732954436,0.4066666666666667,-0.38,-0.6555555555555556,1.0695158380695595,4.916773757104339,-61.49330543324346
1590503697.649745,-2.802107676860872,-1.344648720523188,8.905620471628993,0.4066666666666667,-0.38,-0.6555555555555556,1.3662180130796993,4.984118477110526,-62.67703556212857
1590503697.659745,-2.806201017212981,-1.3781563467212077,8.936647722130717,0.4066666666666667,-0.38,-0.6555555555555556,1.1983248565584899,4.925977167007548,-63.79015231044906
1590503697.669745,-2.8510898311294675,-1.425940112580355,9.086239549678579,0.4109567479747009,-0.3677897685848257,-0.666115755698409,0.9170656663224861,5.317439962695267,-64.83413133264497
1590503697.679745,-2.790541322872988,-1.4738217232517246,9.176560800757473,0.4211111111111111,-0.3388888888888889,-0.6911111111111111,1.1011142296767211,5.378383267956175,-66.1534644258082
1590503697.689745,-2.703974548683042,-1.4286948801420538,8.989499852027226,0.4211111111111111,-0.3388888888888889,-0.6911111111111111,2.4336342113051197,6.5881362829239425,-66.5625
1590503697.699745,-2.6914549722117305,-1.4567282684940377,9.017821453623267,0.4211111111111111,-0.3388888888888889,-0.6911111111111111,2.1764976663249342,5.951115914854584,-67.51250977985215
1590503697.709745,-2.6774153539097587,-1.5504422980967996,9.323503813529118,0.4211111111111111,-0.3388888888888889,-0.6911111111111111,-0.20365403806401028,3.1849517071779885,-69.26062531185401
1590503697.719745,-2.677550780933884,-1.538880796309784,9.113008820911226,0.427055065504932,-0.3287492019817827,-0.6890132448544685,0.6035597232337946,4.466749615602493,-70.21066500768795
1590503697.729745,-2.8956931448216197,-1.5743068551783803,8.845841131070282,0.44,-0.30666666666666664,-0.6844444444444444,2.7623639664868067,7.148803018919473,-71.08571818864831
1590503697.739745,-2.8861686322407545,-1.6391568387962276,8.898377750635724,0.44,-0.30666666666666664,-0.6844444444444444,1.2844855635424384,5.332377660533008,-72.50406838796228
1590503697.749745,-2.8875378599982495,-1.7243844649995623,8.928617490006127,0.44,-0.30666666666666664,-0.6844444444444444,1.0600726561816112,5.008640687461702,-73.50432034373085
1590503697.759745,-2.9466359397417503,-1.7584946197991391,8.927342539454806,0.44,-0.30666666666666664,-0.6844444444444444,1.5049923780487804,5.6780913737446195,-74.33515737087518
1590503697.7697449,-2.9861666666666666,-1.7972333333333335,9.031699999999999,0.4470703703703704,-0.30144074074074073,-0.6881333333333334,1.0306250000000001,5.954791666666667,-75.395
1590503697.7797449,-2.9044246048994213,-1.7769784585426918,8.970935375628075,0.4655555555555556,-0.2877777777777778,-0.6977777777777778,1.4781923170540883,6.020346158527044,-76.10026926821635
1590503697.7897449,-2.8241990738843583,-1.7641990738843585,8.910653198377249,0.4655555555555556,-0.2877777777777778,-0.6977777777777778,1.4253498545260828,5.965688132606647,-76.55044717862557
1590503697.7997448,-2.8327740303541313,-1.8508183189846454,9.063772521523033,0.4655555555555556,-0.2877777777777778,-0.6977777777777778,1.0164695571136948,5.542042025383864,-77.39857825951896
1590503697.8097448,-2.814385378590078,-1.8766892950391645,8.999283550913837,0.4655555555555556,-0.2877777777777778,-0.6977777777777778,2.0377545691906005,6.775593994778068,-77.45413838120105
1590503697.8197448,-2.9159925601336654,-1.9473345733110556,8.933345733110558,0.47329760516167,-0.2832955385321326,-0.7075572088591855,1.8790194193121277,7.0164264209829454,-77.87925191513509
1590503697.8297448,-2.7668941294530858,-1.9495563042075836,9.075665543688624,0.4866666666666667,-0.27555555555555555,-0.7244444444444444,0.5381827467565049,4.823592394810408,-79.07636549351301
1590503697.8397448,-2.7329229871645278,-1.96926487747958,8.994889148191366,0.4866666666666667,-0.27555555555555555,-0.7244444444444444,1.304806009334889,5.81698512252042,-79.42072637106185
1590503697.8497448,-2.7835115520340903,-2.027786137559092,8.865037619015913,0.4866666666666667,-0.27555555555555555,-0.7244444444444444,2.3101155203409016,7.068226080298289,-79.65410063919036
1590503697.8597448,-2.7133631115418653,-2.0666815557709324,8.996782057224726,0.4866666666666667,-0.27555555555555555,-0.7244444444444444,1.9582402764316718,6.895600691079179,-80.85398055286335
1590503697.8697448,-2.6348726406450433,-2.04,8.79,0.4905055687903407,-0.2626428847759249,-0.7244444444444444,1.909061755543339,6.919885010078798,-81.67826873740151
1590503697.8797448,-2.6279855193813724,-2.0927840713195094,8.842784071319508,0.4988888888888889,-0.2344444444444445,-0.7244444444444444,0.7477081588927745,5.942536201546569,-83.37980994188051
1590503697.8897448,-2.6836004288283304,-2.157200857656661,8.806388850463412,0.4988888888888889,-0.2344444444444445,-0.7244444444444444,1.012620607967907,6.330061644072486,-84.10750536035412
1590503697.8997447,-2.6887693650991644,-2.17861444430585,8.681841586628416,0.4988888888888889,-0.2344444444444445,-0.7244444444444444,2.5509900835724086,7.126936509916428,-84.3182549582138
1590503697.9097447,-2.683530482098915,-2.252945101029356,8.998829237860882,0.4988888888888889,-0.2344444444444445,-0.7244444444444444,0.7022103420788133,6.264710342078813,-85.30148619727585
1590503697.9197447,-2.705335667001698,-2.3328974456728937,9.115123557342391,0.4988888888888889,-0.2344444444444445,-0.7244444444444444,0.7930652791737427,6.355565279173743,-85.6194784771081
1590503697.9297447,-2.6509958193008942,-2.377842294739287,8.888464754383927,0.54,-0.1955555555555556,-0.7244444444444444,2.1221475438392754,7.302904714899547,-85.99325717106028
1590503697.9397447,-2.74,-2.4911005716705485,8.893863857717552,0.54,-0.1955555555555556,-0.7244444444444444,1.0730401757357613,6.583432140588609,-86.29859464323523
1590503697.9497447,-2.7231483391028948,-2.5351852397436843,8.973889298077632,0.54,-0.1955555555555556,-0.7244444444444444,0.8159686418207261,6.395830264417765,-86.11921586138322
1590503697.9597447,-2.6685498904309712,-2.5195856829802774,8.864971804236669,0.54,-0.1955555555555556,-0.7244444444444444,1.7995525931336742,7.229284149013878,-85.28789992695398
1590503697.9697447,-2.6017012213586352,-2.510207328151812,9.0421584738064,0.5409451229770197,-0.19120798986126536,-0.728224936352523,1.3257242353891188,6.377591601897648,-83.80602099525588
1590503697.9797447,-2.615326316628792,-2.564660527050193,8.768322369732488,0.5455555555555556,-0.17,-0.7466666666666667,1.9667105210700475,7.0,-82.21046874377068
1590503697.9897447,-2.7095907568224975,-2.7,9.013775577698594,0.5455555555555556,-0.17,-0.7466666666666667,0.9528052787675764,6.646039590756822,-80.63774750890819
1590503697.9997447,-2.555789403868092,-2.6898355132252676,8.95562491709336,0.5455555555555556,-0.17,-0.7466666666666667,1.3832243387366354,6.507196296394556,-79.36574761892129
1590503698.0097446,-2.4796796805524073,-2.6967117124971662,8.767672670839945,0.5455555555555556,-0.17,-0.7466666666666667,2.5048486024167813,7.4306494010357635,-77.95320319447593
1590503698.0197446,-2.5494094200248663,-2.7647246398010674,8.641851459079938,0.5447024955914739,-0.16698148012709557,-0.747060386650089,2.5984147590141156,7.407472756527463,-77.23892662546625
1590503698.0297446,-2.4586819716407833,-2.7805752869682645,8.9555962187711,0.5311111111111111,-0.11888888888888888,-0.7533333333333333,-0.36290513166779204,5.152523632680621,-76.43697670492911
1590503698.0397446,-2.283823929813946,-2.6786794736045985,8.872352140372108,0.5311111111111111,-0.11888888888888888,-0.7533333333333333,0.9954432007260626,5.80424671002874,-74.51281008924519
1590503698.0497446,-2.3074960567823344,-2.8074960567823344,8.667590694006309,0.5311111111111111,-0.11888888888888888,-0.7533333333333333,2.7733265970031544,7.241830145899054,-71.15679219242902
1590503698.0597446,-2.245911854103343,-2.7903647416413375,8.584977203647417,0.5311111111111111,-0.11888888888888888,-0.7533333333333333,2.013677811550152,7.3099829027355625,-69.03618920972644
1590503698.0697446,-2.0584319685320938,-2.7153727874128375,9.103671553727875,0.5311111111111111,-0.11888888888888888,-0.7533333333333333,-0.7985204720185948,4.614959547648846,-68.02067316288218
1590503698.0797446,-2.08276186226387,-2.7431423471664433,8.745904209430314,0.5311111111111111,-0.09777777777777777,-0.7744444444444445,1.7047616391491893,5.617838018741633,-62.20299903316972
1590503698.0897446,-2.0131428452682765,-2.8080408129337933,8.810721083911725,0.5311111111111111,-0.09777777777777777,-0.7744444444444445,0.7664114126594904,8.280272016956902,-57.10016988071984
1590503698.0997446,-1.8893105133146935,-2.835173593202856,8.818966584326393,0.5311111111111111,-0.09777777777777777,-0.7744444444444445,-0.7435309726105486,5.872819905534895,-54.34050530687586
1590503698.1097445,-1.9167924915797256,-3.0411324242175306,8.95,0.5311111111111111,-0.09777777777777777,-0.7744444444444445,-0.24882039144007229,3.6615614474657026,-52.08961816109422
1590503698.1197445,-1.9281274153434091,-3.1562548306868186,8.908803137555003,0.5333998256913887,-0.10277133686201985,-0.77173959994048,0.2144059690070786,5.3476109623110775,-50.386945188444614
1590503698.1297445,-1.92010311842357,-3.14020623684714,8.732268605318538,0.5432072997045256,-0.12416946198159132,-0.7601489488340455,1.668809785727951,5.498066529558064,-49.63466735220968
1590503698.1397445,-1.8928247508594047,-3.0512990034376193,8.76369075315115,0.5433333333333333,-0.12444444444444445,-0.76,0.12087659293725478,5.175257821452134,-51.08840150699677
1590503698.1497445,-1.8709786798152714,-2.9639147192610853,8.683588492655995,0.5433333333333333,-0.12444444444444445,-0.76,-0.6528384232091393,4.947694581409077,-52.49929359526372
1590503698.1597445,-2.0122028778931647,-2.890174098961515,8.765420145252156,0.5433333333333333,-0.12444444444444445,-0.76,-1.1313399341614063,5.543480197515781,-56.25723927577547
1590503698.1697445,-2.0193200638023483,-2.8261194257788635,8.81524044661644,0.5433333333333333,-0.12444444444444445,-0.76,-1.3537519938233897,4.876244018529831,-58.703771932057286
1590503698.1797445,-2.0926580355682267,-2.9881035731812764,8.89860624897759,0.5555555555555556,-0.14,-0.7822222222222223,-1.405083720875885,6.567260054684397,-61.72700889205674
1590503698.1897445,-2.0946638953665215,-2.8786555814660852,8.853950116597384,0.5555555555555556,-0.14,-0.7822222222222223,-0.2914934604075839,6.47938317449052,-64.01273382844977
1590503698.1997445,-2.042536694871352,-2.8924290565820523,8.674916824958268,0.5555555555555556,-0.14,-0.7822222222222223,0.29719608012433085,7.48451260576757,-65.62463305128648
1590503698.2097445,-1.9312129621723166,-3.117884254120058,8.931819443258474,0.5555555555555556,-0.14,-0.7822222222222223,-0.7481481086158313,7.020804425326616,-66.83718165613526
1590503698.2197444,-1.9491204850140893,-3.2342831525915807,8.958680727521134,0.5555555555555556,-0.14,-0.7822222222222223,-1.6435242507044658,6.40523332764068,-68.12428486038768
1590503698.2297444,-1.8812837961550197,-3.3002703692401587,8.742297223069881,0.5722222222222222,-0.10666666666666667,-0.7322222222222222,0.8285474519377479,6.368666081782118,-68.98733216356423
1590503698.2397444,-1.8952864480442513,-3.4043619122876336,8.73229158435401,0.5722222222222222,-0.10666666666666667,-0.7322222222222222,0.5575365468194389,6.4195969972342946,-70.0804030027657
1590503698.2497444,-1.8988952510256485,-3.483342876538473,8.823626221185915,0.5722222222222222,-0.10666666666666667,-0.7322222222222222,-0.39589297836545556,5.604107021634545,-71.06072909595349
1590503698.2597444,-1.8206659598193884,-3.382333510045153,8.68333510045153,0.5722222222222222,-0.10666666666666667,-0.7322222222222222,0.2937533133466172,6.060402308831326,-71.46666887556441
1590503698.2697444,-1.7900058632112807,-3.390005863211281,8.760023452845124,0.5722217336212821,-0.10666552659780651,-0.7322308541721634,0.43735341971797953,5.4375,-71.562573290141
1590503698.2797444,-1.819512211441954,-3.421260176201628,8.885040704806514,0.5688888888888889,-0.09888888888888887,-0.7911111111111111,-0.34400440504070484,5.350101762016282,-72.0952743392439
1590503698.2897444,-1.7681728832973083,-3.38,8.721827116702693,0.5688888888888889,-0.09888888888888887,-0.7911111111111111,0.6989194793918232,4.994597396959116,-72.25
1590503698.2997444,-1.7526754604740526,-3.38,8.737324539525947,0.5688888888888889,-0.09888888888888887,-0.7911111111111111,0.7957783720371705,5.478891860185852,-72.25
1590503698.3097444,-1.6583631825895977,-3.3034527303583907,8.848542278127184,0.5688888888888889,-0.09888888888888887,-0.7911111111111111,1.0613806528900869,5.184141958670261,-72.47953978236997
1590503698.3197443,-1.6499066604440296,-3.27,8.790018667911193,0.568764436147595,-0.09891585364950255,-0.7909617678215585,1.374299953330222,6.123716581105407,-72.37535002333489
1590503698.3297443,-1.6043342121420059,-3.2830026364260174,8.823838166781032,0.5022222222222222,-0.11333333333333333,-0.7111111111111111,1.0541776517750732,5.545855303550146,-72.53541117411247
1590503698.3397443,-1.6194821048069632,-3.3284463144208893,8.907151576438297,0.5022222222222222,-0.11333333333333333,-0.7111111111111111,1.2435263100870382,5.924552620174076,-72.44073684495648
1590503698.3497443,-1.5777644472937082,-3.2668266324755018,8.676946606832129,0.5022222222222222,-0.11333333333333333,-0.7111111111111111,0.9441111823427054,5.588944729370821,-72.01983354702811
1590503698.3597443,-1.5645078730061035,-3.350388777760681,8.850984253987793,0.5022222222222222,-0.11333333333333333,-0.7111111111111111,0.8358144842796328,4.881151587423706,-71.29161537672462
1590503698.3697443,-1.535824485818331,-3.3001928501820794,8.908351028363338,0.5022222222222222,-0.11333333333333333,-0.7111111111111111,1.2839924090885777,5.239693927270862,-70.52971290454941
1590503698.3797443,-1.396012712592338,-3.2134358357670503,8.766871671534101,0.5245534367901659,-0.033578995590677424,-0.6696388554849301,1.6142630132279676,4.654526713623088,-69.35813219378113
1590503698.3897443,-1.4886158746556473,-3.4440728305785124,9.127516356749311,0.5255555555555556,-0.03,-0.6677777777777778,1.085182076446281,5.579635847107438,-66.9774836432507
1590503698.3997443,-1.611382920110193,-3.552396694214876,10.391294765840222,0.5255555555555556,-0.03,-0.6677777777777778,1.3559917355371902,5.03801652892562,-65.71370523415978
1590503698.4097443,-1.1056502213654755,-2.8559192492638803,7.519058190522592,0.5255555555555556,-0.03,-0.6677777777777778,7.661154595716737,-1.8660315207490414,-62.898823267735715
1590503698.4197443,-1.1587443657437217,-3.189404378622022,8.631989697359948,0.5260545896830507,-0.02331294269156471,-0.6637855047578164,7.03620009658725,0.44581052801030263,-59.12385302640052
1590503698.4297442,-1.3916465299241358,-3.5842343354874964,10.42380069307858,0.5311111111111111,0.04444444444444445,-0.6233333333333333,-8.371072164465673,11.749502435140958,-55.038968109019386
1590503698.4397442,-0.9731570127114867,-2.8207892531778715,7.8973551906723,0.5311111111111111,0.04444444444444445,-0.6233333333333333,-2.644940810468703,5.485306243425861,-52.875052370255474
1590503698.4497442,-1.0030676935693783,-2.8282669233923445,8.346015403540674,0.5311111111111111,0.04444444444444445,-0.6233333333333333,4.271904137918739,1.7932065750298616,-51.09910569431816
1590503698.4597442,-1.1431672624256537,-3.239501787276961,8.912289494371189,0.5311111111111111,0.04444444444444445,-0.6233333333333333,-0.4048784874149004,7.961298223105561,-47.91147695080168
1590503698.4697442,-1.1618304385873837,-3.2954913157621513,9.279331958885214,0.5311111111111111,0.04444444444444445,-0.6233333333333333,-0.9492211254653594,2.945569629640617,-48.49470120585574
1590503698.4797442,-1.0519896839755187,-3.047668501481966,8.3688294391624,0.5442233684471646,0.09689347378865837,-0.6122383463566727,-0.6201427114207629,2.7357505100273296,-47.898964067131146
1590503698.4897442,-1.0759501840825418,-3.23570110449525,8.77229012317622,0.5455555555555556,0.10222222222222224,-0.6111111111111112,2.695485432480342,3.1621886505158856,-47.25077837371028
1590503698.4997442,-1.1038115239998645,-3.3324795907997697,8.723237695200028,0.5455555555555556,0.10222222222222224,-0.6111111111111112,0.567238152501609,3.7416754174994074,-47.145235595000166
1590503698.5097442,-1.0327722638122014,-3.2117128484807425,8.73744554723756,0.5455555555555556,0.10222222222222224,-0.6111111111111112,1.4108293672301073,3.4308786541783816,-47.23403467023475
1590503698.5197442,-1.0398522707599978,-3.249556812279993,8.859113624559985,0.5455555555555556,0.10222222222222224,-0.6111111111111112,1.6245383461249927,2.506463154250101,-47.87038346124993
1590503698.5297441,-1.1269896042796979,-3.4793362294646584,9.105152521151876,0.5569784328852129,0.13912690282573045,-0.6163832083401837,1.4767222654323329,2.5,-47.52901861934211
1590503698.5397441,-0.9132889420301806,-3.1342520821307827,8.376875154613673,0.56,0.14888888888888888,-0.6177777777777778,3.9391646738682278,4.922770470850169,-47.02657551331739
1590503698.5497441,-0.9392287870042054,-3.246658077018224,8.904318669085512,0.56,0.14888888888888888,-0.6177777777777778,2.966420487342294,1.356041786921745,-47.7291129813639
1590503698.5597441,-0.9617763924493125,-3.311725316554028,9.061827468344598,0.56,0.14888888888888888,-0.6177777777777778,0.2566685116134545,2.0634576730365883,-47.4314699370776
1590503698.569744,-0.8884665579119086,-3.1488145731375745,9.078118542686243,0.56,0.14888888888888888,-0.6177777777777778,1.987595160413268,3.74347471451876,-46.82055464926591
1590503698.579744,-0.8066461119734633,-3.118307639966829,8.788307639966828,0.5422222222222223,0.18222222222222226,-0.6322222222222222,1.1615386251036595,2.7811536498756086,-46.515769525186585
1590503698.589744,-0.8779944289693593,-3.207493036211699,8.8774930362117,0.5422222222222223,0.18222222222222226,-0.6322222222222222,0.8828342618384402,3.115598885793872,-46.01410167130919
1590503698.599744,-0.8545745355686452,-3.2140163117353873,8.668883552333485,0.5422222222222223,0.18222222222222226,-0.6322222222222222,1.4428183053919348,3.5535228817399185,-45.423204576347985
1590503698.609744,-0.8869134045810971,-3.3982362311891983,8.964267751364895,0.5422222222222223,0.18222222222222226,-0.6322222222222222,1.005511777533755,3.0082676663006325,-45.306988222466245
1590503698.619744,-0.8415044001422893,-3.3722882286527365,8.879936743121394,0.5422222222222223,0.18222222222222226,-0.6322222222222222,1.0865992854601976,3.1298989281902965,-45.225900714539804
1590503698.629744,-0.8276626756897448,-3.31402394586153,8.85532535137949,0.5320053213025623,0.20010179883162704,-0.6432905315518538,1.6518089536699636,3.0917165538781886,-45.1875
1590503698.639744,-0.7824627349319507,-3.252462734931951,8.86950745301361,0.5288888888888889,0.20555555555555555,-0.6466666666666666,1.2182841866493843,2.8248136746597536,-45.12807841866494
1590503698.649744,-0.7614637032029071,-3.3036592580072677,8.599759993239246,0.5288888888888889,0.20555555555555555,-0.6466666666666666,1.9702685286909492,2.4649444350545084,-44.660055564945495
1590503698.659744,-0.7898203329671258,-3.3745508324178144,8.982574495056198,0.5288888888888889,0.20555555555555555,-0.6466666666666666,1.3942744866052563,2.9966312431336095,-44.128368756866394
1590503698.669744,-0.7043684974953316,-3.3362456649968877,8.833105492485995,0.5288888888888889,0.20555555555555555,-0.6466666666666666,0.8388434804517295,2.7392273320093663,-43.28999503512464
1590503698.679744,-0.7535573395937704,-3.3714901377156394,8.914470413146917,0.5779271152847357,0.2308919725267431,-0.6360417176142332,2.405040140859832,2.8548666862305323,-42.29747992957009
1590503698.689744,-0.7650778202889937,-3.46933527729282,8.983437093718658,0.5955555555555555,0.24,-0.6322222222222222,-0.26732731882173766,2.891354565209316,-41.16796367148323
1590503698.699744,-0.718337728910516,-3.3680650793061178,8.921116971880688,0.5955555555555555,0.24,-0.6322222222222222,0.7551121800824634,2.453166208536087,-40.3889621485086
1590503698.709744,-0.7439328953268477,-3.5224053964478585,8.858201314019457,0.5955555555555555,0.24,-0.6322222222222222,2.723322383171193,2.5758388084144035,-38.89761760864056
1590503698.719744,-0.6621615035189987,-3.2852683602050963,9.103515489443005,0.5955555555555555,0.24,-0.6322222222222222,0.6790375879749675,3.5979812060125163,-37.5177253718831
1590503698.729744,-0.6430267401935282,-3.250459889709708,8.745301217355115,0.7288888888888889,0.3033333333333333,-0.6888888888888889,0.5275400582665696,2.023306627822287,-35.92161325564457
1590503698.739744,-0.5906579960461971,-3.3290130059307046,9.46100738736864,0.7288888888888889,0.3033333333333333,-0.6888888888888889,1.6731063364894392,1.2595957756737073,-34.39419155134741
1590503698.749744,-0.6896788804366761,-3.445504326113466,8.524038673712328,0.7288888888888889,0.3033333333333333,-0.6888888888888889,3.3050381801289124,6.144195313860983,-31.554472010916903
1590503698.759744,-0.6815603042796586,-3.33184425991522,9.384607746356194,0.7288888888888889,0.3033333333333333,-0.6888888888888889,-0.04387448464084587,0.30896870100458695,-31.351507606991465
1590503698.769744,-0.68,-3.2580111500396387,8.718178400634223,0.7288888888888889,0.3033333333333333,-0.6888888888888889,-2.5829268214714984,-1.2457404163363424,-28.983832762192158
1590503698.779744,-0.6877457866649792,-3.2654915733299585,8.59,1.2108489480431517,0.4849289984789574,-1.0056054991902614,1.0947156658018522,1.5437588327110885,-24.364817334261428
1590503698.789744,-0.69,-3.4251551253412758,8.803338297344254,1.3511111111111112,0.5377777777777778,-1.0977777777777775,-1.871308016877637,0.9810281707619757,-19.670374162323156
1590503698.799744,-0.6141509870628804,-3.2308963410400615,8.55400958133722,1.3511111111111112,0.5377777777777778,-1.0977777777777775,0.2517675715707379,1.115271124071374,-16.00707751857252
1590503698.809744,-0.6374576388408604,-3.3641526039145173,8.601779687391936,1.3511111111111112,0.5377777777777778,-1.0977777777777775,0.9756358496438204,0.6530718324227125,-13.238346358669341
1590503698.8197439,-0.6758951490102241,-3.4213682836632584,8.794002610398087,1.3511111111111112,0.5377777777777778,-1.0977777777777775,-1.5553078094409396,1.5164645420926692,-8.825606373721993
1590503698.8297439,-0.6993218365590672,-3.4328812243727116,8.749153265950088,1.13785528538511,0.1277254685797959,-0.9732592755082334,-0.3898469534110658,0.6811543458819163,-5.534985994634089
1590503698.8397439,-0.6608258972443886,-3.44,8.906696411022445,1.02,-0.09888888888888887,-0.9044444444444444,0.5,0.125,-4.0
1590503698.8497438,-0.6991525646761586,-3.489152564676159,8.78288128010106,1.02,-0.09888888888888887,-0.9044444444444444,-0.23728847014237964,-0.7966105876779745,-2.586863765560439
1590503698.8597438,-0.6523073192138024,-3.327844885326928,8.76092292768552,1.02,-0.09888888888888887,-0.9044444444444444,0.4057743608102178,-0.8125,2.981774141395478
1590503698.8697438,-0.65,-3.280123587429621,8.935456215309667,1.02,-0.09888888888888887,-0.9044444444444444,-0.360028251407579,-1.0617275785648683,4.745365471389211
1590503698.8797438,-0.6018399612320925,-3.347056062028652,8.931839961232093,0.6347196898567404,0.17615844363004923,-0.7449812049684843,0.6415009691976858,-1.125,7.352401793015719
1590503698.8897438,-0.5553461854728187,-3.4541922338967566,8.766269346733669,0.62,0.18666666666666668,-0.7388888888888889,0.22235609867519418,-0.9854568296025582,8.786417313841937
1590503698.8997438,-0.5662535228909625,-3.45499530281205,8.92877935742469,0.62,0.18666666666666668,-0.7388888888888889,-0.6485329116302373,-1.6485329116302374,10.234507108411098
1590503698.9097438,-0.5312050902028926,-3.3239165431594007,8.59144835692748,0.62,0.18666666666666668,-0.7388888888888889,0.8260432105074871,-1.325680674094138,10.859936372463842
1590503698.9197438,-0.5461518345352248,-3.3469197242253745,8.676911007211348,0.62,0.18666666666666668,-0.7388888888888889,-0.2690882795784135,-1.6489965528171804,10.269306204929075
1590503698.9297438,-0.5270723955267805,-3.37,8.779207769276045,0.5986580341377281,0.20739886207573083,-0.7370595775292657,-0.49540906415538555,-1.6802530900529724,9.527052678045909
1590503698.9397438,-0.4485506453730037,-3.404202581492015,8.564929993436884,0.5422222222222223,0.26222222222222225,-0.7322222222222222,0.7518185298621746,-0.7327923320936338,7.441137059724349
1590503698.9497437,-0.4134105090707591,-3.4831789818584817,8.9682212638832,0.5422222222222223,0.26222222222222225,-0.7322222222222222,-0.7471059098465318,-1.6022372732310215,5.529538692268774
1590503698.9597437,-0.4290543289506326,-3.4423641776234186,8.75276655916646,0.5422222222222223,0.26222222222222225,-0.7322222222222222,0.9708881170925328,-0.8538731084098238,4.065014884644009
1590503698.9697437,-0.41416978036099084,-3.5428964276535595,8.914132416029101,0.5422222222222223,0.26222222222222225,-0.7322222222222222,0.4688667635371567,-0.4167445090247712,2.416978036099085
1590503698.9797437,-0.4003485905751437,-3.608605637699425,8.824880268052013,0.567959314021839,0.26436697987219027,-0.7676107234466952,1.6998901048230919,0.2907130890535182,-0.23188842949801725
1590503698.9897437,-0.32857095626130417,-3.4909515937688402,8.708888154184251,0.5688888888888889,0.2644444444444444,-0.7688888888888888,0.7579299480736692,0.0644824870184173,-3.1398996479900423
1590503698.9997437,-0.3351736397051439,-3.422239540442284,8.849922068009722,0.5688888888888889,0.2644444444444444,-0.7688888888888888,-0.5226791130214714,-0.6293409926285979,-6.589033030710828
1590503699.0097437,-0.35,-3.3558128597765156,8.773251439106062,0.5688888888888889,0.2644444444444444,-0.7688888888888888,0.5320177583806764,0.2703802814251852,-12.053874769554913
1590503699.0197437,-0.30459279417657276,-3.343513256310939,8.834327667957794,0.5688888888888889,0.2644444444444444,-0.7688888888888888,0.8716264441698944,0.8023793325096834,-15.846413992587152
1590503699.0297437,-0.2336551112425161,-3.363172444378742,8.802758518737527,0.4942221236684981,0.2138083622834898,-0.6796320660966976,0.9375,1.4827592578904576,-21.680177766279844
1590503699.0397437,5.386355413407961,-14.3234057120012,-5.714261762574649,0.4722222222222222,0.1988888888888889,-0.6533333333333333,-42.373160340821066,58.3479938657205,-169.1812048674446
1590503699.0497437,-4.5414982369449985,-13.910526757657896,-12.296119599894457,0.4722222222222222,0.1988888888888889,-0.6533333333333333,-179.04577496461897,100.56346548250139,-933.9423019261675
1590503699.0597436,0.16879979368354192,-3.345097008411363,-6.408863275670529,0.4722222222222222,0.1988888888888889,-0.6533333333333333,-223.4841009859546,30.1346214886526,-449.33963235002375
1590503699.0697436,0.16129422291006712,-0.1967784683094334,-1.364180349672333,0.4722222222222222,0.1988888888888889,-0.6533333333333333,-211.34394118927284,-30.38613129639929,-127.48024478272436
1590503699.0797436,-0.4401351140876879,-0.32342963943618097,-0.12728331126859277,0.4526975226920714,0.28089262691552236,-0.6578890965570352,-203.49915553695195,-43.94906208628611,-65.19967292266958
1590503699.0897436,-0.18568085797855052,-0.08815160870978223,-0.20752924926876828,0.4388888888888889,0.3388888888888889,-0.6611111111111111,-205.5092419564511,-41.30866865047124,-50.10353276324342
1590503699.0997436,4.556796968488234,-2.7583147187873958,14.498151176705226,0.4388888888888889,0.3388888888888889,-0.6611111111111111,-144.77734842441166,23.40936627443159,-41.261480355005986
1590503699.1097436,0.2595118367346938,-3.7366465306122447,11.335377959183672,0.4388888888888889,0.3388888888888889,-0.6611111111111111,-57.839581632653065,120.28798979591836,-35.59235714285714
1590503699.1197436,0.8592115136356303,-1.8152850169436823,6.574197192189769,0.4388888888888889,0.3388888888888889,-0.6611111111111111,55.446854324673225,30.653226863805074,-47.73905720509924
1590503699.1297436,1.0132644191966227,-0.9789029614453344,4.399083007388092,0.3623411491208101,0.5458912274166511,-0.5845633713430324,175.23451760104302,0.4237870180666792,-56.03911730924443
1590503699.1397436,0.9597277075922973,-2.7798025266772965,11.852192853346416,0.36,0.5522222222222222,-0.5822222222222222,214.23794411055235,35.764939541682,-52.46944504068032
1590503699.1497436,0.6120932889573295,-2.2514425512890566,5.409878297153645,0.36,0.5522222222222222,-0.5822222222222222,296.64543490139584,16.70121951219512,-56.290621429635884
1590503699.1597435,0.41889243320573794,-2.6558326566910258,8.010533774117466,0.36,0.5522222222222222,-0.5822222222222222,353.15308669721225,15.172061680779493,-53.84731083014345
1590503699.1697435,3.834916056906624,0.3687919958076975,12.263949886458475,0.36,0.5522222222222222,-0.5822222222222222,295.0257906663044,-8.644830949284785,-41.374451701182
1590503699.1797435,2.620913762380341,1.5730641084082717,4.234933073639716,0.35774425704142665,0.5462069076660266,-0.5980124229322356,82.05386225187516,-43.05682524553479,-10.156018192366663
1590503699.1897435,-0.08765577575432959,0.28911944295661485,-0.0855690055347259,0.3566666666666667,0.5433333333333333,-0.6055555555555555,-11.189608998393144,-29.427800839135866,10.953834136761293
1590503699.1997435,3.1413058138709453,-2.254244693689217,12.738133030453607,0.3566666666666667,0.5433333333333333,-0.6055555555555555,-36.74023257258465,23.202875434798045,29.96231676368283
1590503699.2097435,2.2019330422680214,-3.1677375073878475,15.675200472822251,0.3566666666666667,0.5433333333333333,-0.6055555555555555,-15.65595865665097,79.1102409868258,37.22817129320699
1590503699.2197435,0.8390757984509617,-3.711856525396687,14.864929074928204,0.3566666666666667,0.5433333333333333,-0.6055555555555555,-8.171260841818235,7.459816378034986,27.117095262959417
1590503699.2297435,0.6250722758488211,-2.7076972578398886,10.404204005186571,0.35420096367798426,0.4923754715672307,-0.6639105262877053,-7.886192551505546,-25.96683655092926,28.467325793593623
1590503699.2397435,0.3207144183578724,-2.7055662554715476,9.852659503912985,0.3533333333333333,0.4744444444444445,-0.6844444444444444,4.429796723703408,13.005214551001458,43.0455597559358
1590503699.2497435,0.30919701068878347,-3.3565975517807245,11.491092384796204,0.3533333333333333,0.4744444444444445,-0.6844444444444444,-0.9779058743957068,3.82776672062802,49.05473843526855
1590503699.2597435,0.28840736834359443,-2.546424734479629,9.0524594667517,0.3533333333333333,0.4744444444444445,-0.6844444444444444,-0.11382729524884105,-22.025662881110648,51.43154112193088
1590503699.2697434,0.12159392461867058,-2.4484060753813295,8.27839917153891,0.3533333333333333,0.4744444444444445,-0.6844444444444444,1.9925500528575435,-0.6414626976764275,61.937888341136116
1590503699.2797434,0.06,-2.8286578657865786,9.294872595367645,0.3762996660026363,0.45434890335880435,-0.6844444444444444,-9.288187940415664,1.370279933398745,70.12736003330063
1590503699.2897434,0.10542898927526811,-3.0768589535261617,9.899146896327592,0.38,0.4511111111111111,-0.6844444444444444,-2.1963458726031853,-7.997394987000326,73.32055878290542
1590503699.2997434,0.048978157894736835,-2.658629736842105,8.051388421052632,0.38,0.4511111111111111,-0.6844444444444444,-1.285328947368421,-4.644013157894737,79.35299671052631
1590503699.3097434,0.10670107753748775,-2.734536206766634,8.664124406600859,0.38,0.4511111111111111,-0.6844444444444444,-2.8112119471027053,-6.897553876874388,82.90721780574184
1590503699.3197434,-2.2956819198092115,-16.352202265613357,8.777837730411884,0.38,0.4511111111111111,-0.6844444444444444,-5.002623962835992,-8.99173374074626,95.48298461022507
1590503699.3297434,0.0701388280908013,-7.198422862860358,9.90838971921706,0.40551226731703244,0.4468590665582723,-0.689546897907851,-23.375109436558063,-25.584254424363706,227.02906713151145
1590503699.3397434,7.683598741660791,-9.389074505975303,7.14848348429788,0.4133333333333333,0.4455555555555555,-0.6911111111111111,-4.147352018585817,-29.870281227965503,284.7677326842762
1590503699.3497434,5.001784037558685,-10.189617706237424,7.064366197183099,0.4133333333333333,0.4455555555555555,-0.6911111111111111,4.086309523809525,-16.591004359490277,97.60014252179747
1590503699.3597434,0.3683076196473549,-3.3759619017632243,8.791176007556675,0.4133333333333333,0.4455555555555555,-0.6911111111111111,11.948525070843829,9.415543332808564,-23.517282942380348
1590503699.3697433,-1.6901806987016463,0.6920746887966807,7.834597778075224,0.4133333333333333,0.4455555555555555,-0.6911111111111111,16.235435350020076,27.34758566456967,-65.31565386159818
1590503699.3797433,-1.8672642163661581,-0.5178473525332462,7.877732112262381,0.44356211416605473,0.41076393988015913,-0.6836965044917643,0.2540499816431421,6.491001315574774,-58.251799991841395
1590503699.3897433,-1.6705524968608132,-1.915193341704498,10.321367397533725,0.4722222222222222,0.37777777777777777,-0.6766666666666666,-8.01929392446634,-5.754402910589524,-45.89053897421037
1590503699.3997433,-1.0455514071219238,-2.310455257135975,8.900822192781725,0.4722222222222222,0.37777777777777777,-0.6766666666666666,-0.5097379461238907,1.9144059376129108,-33.92687883897386
1590503699.4097433,-0.7197907949790795,-2.4457740585774057,8.695941422594142,0.4722222222222222,0.37777777777777777,-0.6766666666666666,-0.9463912133891217,1.4994769874476988,-25.038441422594143
1590503699.4197433,-4.261107833291488,-8.912168591513934,8.585718051719809,0.4722222222222222,0.37777777777777777,-0.6766666666666666,-3.0635905724328394,0.9148490459452674,-7.214721158674367
1590503699.4297433,-0.9004881436650463,-3.18855739656712,8.677925389423555,0.43894731620200417,0.3901370285852874,-0.6833216478707103,0.271151651949598,-8.340522373251314,76.20679134834805
1590503699.4397433,-0.03,-1.68,8.74,0.43333333333333335,0.3922222222222223,-0.6844444444444444,0.8125,-9.9375,88.9375
1590503699.4497433,3.986779853214477,-7.716849466091284,7.913205342237062,0.43333333333333335,0.3922222222222223,-0.6844444444444444,-0.028183765395155547,-5.986851119790846,47.948353387721674
1590503699.4597433,-1.1237477502982751,-0.9754739034599906,9.580796343855534,0.43333333333333335,0.3922222222222223,-0.6844444444444444,1.8882441709975524,6.003627328062121,-21.899145113344524
1590503699.4697433,-1.9482404529307282,-3.2371673327412673,9.232168997927767,0.43333333333333335,0.3922222222222223,-0.6844444444444444,6.8365307226909415,12.609930062166963,-29.91635444419775
1590503699.4797432,-3.0738187877848397,-7.703327391102155,9.604424895365058,0.43833772541724797,0.3912213438054394,-0.6844444444444444,-4.669227639125717,-2.0445570454193147,-19.404244496977213
1590503699.4897432,1.0638121590483882,-5.510069716603974,9.108175945802232,0.4666666666666667,0.3855555555555555,-0.6844444444444444,-3.217445890856096,-4.934456052937353,13.909201016208126
1590503699.4997432,0.11351443606883804,-4.271339069833594,8.855481083771867,0.4666666666666667,0.3855555555555555,-0.6844444444444444,2.706589567629071,-0.3315895676290712,5.082894058455411
1590503699.5097432,-0.39629462041226743,-4.736646556058321,8.677687280040221,0.4666666666666667,0.3855555555555555,-0.6844444444444444,-0.2293237807943691,0.3561463046757164,-5.264171694318753
1590503699.5197432,-0.04068544873656695,-4.471151450608319,8.775524252105722,0.4666666666666667,0.3855555555555555,-0.6844444444444444,-1.3462984477361473,-0.5323421918869203,-0.25145625584922704
1590503699.5297432,-0.17854015527555045,-4.412162402952781,8.826651393661702,0.46237834627296254,0.38984387594925973,-0.6887327648381486,0.6699360442917144,0.00439098892707139,0.1827669593992618
1590503699.5397432,-0.17435054773082942,-4.40564945226917,8.871721439749608,0.46,0.3922222222222223,-0.6911111111111111,0.4048317683881064,-0.02445226917057903,-0.0625
1590503699.5497432,-0.1991900285726117,-4.3164797714191065,8.737834899995859,0.46,0.3922222222222223,-0.6911111111111111,0.1773753571576463,0.02871883928941157,-0.0625
1590503699.5597432,-0.19817486094000822,-4.436939933549857,8.658612013290028,0.46,0.3922222222222223,-0.6911111111111111,-0.4265711912494867,0.025546440437525665,-0.0625
1590503699.5697432,-0.1948951291932529,-4.575104870806747,8.639790258386506,0.46,0.3922222222222223,-0.6911111111111111,-0.5397707530482027,0.0,-0.03190544254216944
1590503699.5797431,-0.203377685718298,-4.492313228479146,8.693909914337874,0.46,0.3873433428513474,-0.6933629015899765,-0.14611053573936245,0.0422210714787249,-0.0422210714787249
1590503699.5897431,-0.19165584845674924,-4.395032454629752,8.749426414094582,0.46,0.37777777777777777,-0.6977777777777778,0.15645284143595178,0.08678301761822758,-0.08678301761822758
1590503699.5997431,-0.18612259556034386,-4.423877404439656,8.717754808879313,0.46,0.37777777777777777,-0.6977777777777778,0.2602013332435526,-0.014032444504298261,0.014032444504298261
1590503699.609743,-0.19,-4.487168671716422,8.71,0.46,0.37777777777777777,-0.6977777777777778,0.11117196395861181,0.013828036041388186,-0.05199205406208228
1590503699.619743,-0.19517031894120201,-4.395571707528748,8.715170318941203,0.46,0.37777777777777777,-0.6977777777777778,-0.06675797353004992,0.03018550661748752,-0.125
1590503699.629743,-0.2,-4.375332615019933,8.723761879107855,0.4579100671623029,0.3832116031557902,-0.7007036837505537,-0.11696476672772331,-0.02351174442409223,-0.07797651115181553
1590503699.639743,-0.20259733770386953,-4.490261232811001,8.750778701630956,0.4544444444444444,0.3922222222222223,-0.7055555555555556,0.1298668851934762,-0.04626663935081547,0.0
1590503699.649743,-0.20809837590604285,-4.3333113686577,8.792885383154387,0.4544444444444444,0.3922222222222223,-0.7055555555555556,0.45245939765107174,0.011885150587232062,0.0
1590503699.659743,-0.2,-4.366795458303478,8.71419886457587,0.4544444444444444,0.3922222222222223,-0.7055555555555556,0.14122871079755278,0.0625,-0.036257096400815744
1590503699.669743,-0.2,-4.40634064016263,8.720243752756842,0.4544444444444444,0.3922222222222223,-0.7055555555555556,-0.22560554628617457,-0.0015234547302610119,-0.0625
1590503699.679743,-0.1910121964499619,-4.482469508875095,8.716518294674943,0.4599369910583566,0.38922628770554285,-0.6960684295860708,-0.5,-0.11867377218773822,-0.03441311390613089
1590503699.689743,-0.18508035275678963,-4.423634003134576,8.735562469297527,0.4666666666666667,0.3855555555555555,-0.6844444444444444,-0.2459823621605184,-0.06049118108025919,-0.0952566141898056
1590503699.699743,-0.19538427868894667,-4.399227065578414,8.70538865573264,0.4666666666666667,0.3855555555555555,-0.6844444444444444,0.0,-0.00480348361183347,-0.12019651638816653
1590503699.709743,-0.2,-4.392801343272918,8.690039059708958,0.4666666666666667,0.3855555555555555,-0.6844444444444444,0.1072474813632791,-0.026750839545573626,0.008998320908852747
1590503699.719743,-0.2,-4.401305938205308,8.724664176200482,0.4666666666666667,0.3855555555555555,-0.6844444444444444,-0.01655770877111057,0.0583022025060316,0.004197797493968397
1590503699.729743,-0.2,-4.40210037117703,8.738907635203534,0.4636974549321554,0.3855555555555555,-0.6874136561789557,-0.13865455995582687,0.041490919966870154,-0.03466363998895672
1590503699.739743,-0.19405298310322486,-4.4192052534516275,8.7262119324129,0.46,0.3855555555555555,-0.6911111111111111,0.03716885560484474,-0.0625,-0.11150656681453422
1590503699.749743,-0.20174640929466653,-4.444760772116,8.704126795352666,0.46,0.3855555555555555,-0.6911111111111111,0.31945270332083064,0.12103764522916477,-0.15079247095416703
1590503699.759743,-0.2046865134065543,-4.404059540219663,8.715940459780336,0.46,0.3855555555555555,-0.6911111111111111,0.46679070879096446,0.1503721263728934,-0.025372126372893405
1590503699.769743,-0.2,-4.381268283496202,8.751829291259495,0.46,0.3855555555555555,-0.6911111111111111,0.3556401577768943,0.03521338592563142,0.007926771851262844
1590503699.779743,-0.2,-4.396965525496768,8.771011491501078,0.45750319208363255,0.3855555555555555,-0.6911111111111111,0.08146546564519991,0.0,-0.0625
1590503699.789743,-0.2,-4.447220488565995,8.73129918572334,0.4544444444444444,0.3855555555555555,-0.6911111111111111,-0.19675203569164756,-0.07175203569164756,-0.0625
1590503699.799743,-0.2,-4.412750356013613,8.67456276701021,0.4544444444444444,0.3855555555555555,-0.6911111111111111,-0.1023448625425406,-0.08808621563563515,-0.02558621563563515
1590503699.809743,-0.2,-4.391046813277519,8.67209362655504,0.4544444444444444,0.3855555555555555,-0.6911111111111111,0.023014194328164612,0.029556777312658447,0.0
1590503699.819743,-0.2,-4.409593626555038,8.709187253110077,0.4544444444444444,0.3855555555555555,-0.6911111111111111,0.061653388656329224,0.1841135546253169,0.0
1590503699.829743,-0.19,-4.413811320754717,8.751433962264151,0.4544444444444444,0.3825911949685534,-0.6991572327044026,-0.0714622641509434,-0.09528301886792452,0.0
1590503699.839743,-0.19,-4.404166086216237,8.750207607770296,0.4544444444444444,0.37777777777777777,-0.7122222222222222,-0.2122404902871295,-0.1262975485643526,-0.02474049028712948
1590503699.849743,-0.19322365255052937,-4.4025655678537055,8.690987127045236,0.4544444444444444,0.37777777777777777,-0.7122222222222222,-0.14926085779595766,0.08264782844080847,-0.0625
1590503699.8597429,-0.19106133161432914,-4.427653329035823,8.674693341928355,0.4544444444444444,0.37777777777777777,-0.7122222222222222,0.14630001611566443,0.04119998388433557,-0.03456666129477852
1590503699.8697429,-0.17626152626528144,-4.385046105061126,8.748692368673593,0.4544444444444444,0.37777777777777777,-0.7122222222222222,0.2733654608419911,-0.03913453915800893,-0.02336546084199107
1590503699.8797429,-0.18091865999511839,-4.3781977666585306,8.776360446668294,0.45889278740541856,0.38060854148021583,-0.7045387207441759,0.2670055833536734,0.02274720832316329,-0.08524720832316329
1590503699.8897429,-0.2,-4.416838360427236,8.776838360427234,0.4666666666666667,0.3855555555555555,-0.6911111111111111,0.12339037099466765,-0.001609629005332347,-0.125
1590503699.8997428,-0.19943824935021381,-4.431123501299572,8.780450238953634,0.4666666666666667,0.3855555555555555,-0.6911111111111111,-0.003510941561163746,-0.1320218831223275,-0.11446717531650877
1590503699.9097428,-0.19,-4.417408037575787,8.657247957056244,0.4666666666666667,0.3855555555555555,-0.6911111111111111,0.05389986580076207,-0.13360013419923794,0.033400033549809485
1590503699.9197428,-0.19398842639593908,-4.3839884263959386,8.723930558375635,0.4666666666666667,0.3855555555555555,-0.6911111111111111,0.2124276649746193,-0.04985532994923858,-0.04985532994923858
1590503699.9297428,-0.2,-4.400073493385595,8.763357831128532,0.4666666666666667,0.382943909122253,-0.6911111111111111,0.14506777723338232,-0.0620406663400294,-0.08302711089335293
1590503699.9397428,-0.2,-4.42,8.752364207615935,0.4666666666666667,0.37777777777777777,-0.6911111111111111,-0.14516777680030163,0.09005592560010053,0.027555925600100537
1590503699.9497428,-0.2,-4.42,8.679632978476128,0.4666666666666667,0.37777777777777777,-0.6911111111111111,-0.25,-0.04670575519501652,0.033882374134163916
1590503699.9597428,-0.1855112310006744,-4.429659179332884,8.64414794833221,0.4666666666666667,0.37777777777777777,-0.6911111111111111,-0.09907532292369145,-0.2198150645847383,-0.03018493541526171
1590503699.9697428,-0.18217379279827425,-4.4318841381344845,8.706521378394823,0.4666666666666667,0.37777777777777777,-0.6911111111111111,0.113224136659476,-0.162137931670262,-0.0625
1590503699.9797428,-0.2,-4.407259434116914,8.763185141470771,0.46065028833298727,0.37777777777777777,-0.6889876834639301,0.20740713419232157,-0.125,-0.04259286580767844
1590503699.9897428,-0.2,-4.404572019233003,8.77,0.4477777777777778,0.37777777777777777,-0.6844444444444444,0.1885699519174932,-0.0635699519174932,-0.06143004808250679
1590503699.9997427,-0.1959869092655978,-4.417960727796793,8.71782982045277,0.4477777777777778,0.37777777777777777,-0.6844444444444444,0.07483636581997238,0.02508181709001381,-0.09991818290998619
1590503700.0097427,-0.19272888082549042,-4.405457761650981,8.653644404127453,0.4477777777777778,0.37777777777777777,-0.6844444444444444,0.0,0.011333484522054647,-0.045444494840684885
1590503700.0197427,-0.2,-4.411277365819209,8.698722634180792,0.4477777777777778,0.37777777777777777,-0.6844444444444444,0.08177469544491525,-0.09774176818502825,-0.02725823181497175
1590503700.0297427,-0.19802708516375314,-4.38,8.743810403853729,0.4490930543352757,0.38062754365235657,-0.6857597210019423,0.3503385645469143,0.0,-0.1003385645469143
1590503700.0397427,-0.18706646410938094,-4.3888006076718575,8.773598176984429,0.4544444444444444,0.3922222222222223,-0.6911111111111111,0.1583270034181542,0.0,0.03666919863273832
1590503700.0497427,-0.18347344076942843,-4.413473440769429,8.697842957307001,0.4544444444444444,0.3922222222222223,-0.6911111111111111,-0.09506350721339157,-0.021709004808927717,0.10329099519107228
1590503700.0597427,-0.2,-4.425661598910544,8.66169200544728,0.4544444444444444,0.3922222222222223,-0.6911111111111111,-0.3042300136181993,-0.125,-0.027115006809099635
1590503700.0697427,-0.2,-4.416635694142947,8.710185835142317,0.4544444444444444,0.3922222222222223,-0.6911111111111111,-0.24883853036051207,-0.08294617678683736,-0.0625
1590503700.0797427,-0.2,-4.41,8.753727322261014,0.45320200369077324,0.3895302672559348,-0.6911111111111111,0.011647882065667064,0.011647882065667064,-0.0625
1590503700.0897427,-0.19767025089605736,-4.407670250896057,8.77,0.4477777777777778,0.37777777777777777,-0.6911111111111111,0.06978046594982079,0.058859767025089604,-0.058859767025089604
1590503700.0997427,-0.16834365847164284,-4.381124877962191,8.739406585603977,0.4477777777777778,0.37777777777777777,-0.6911111111111111,0.11796951273630957,-0.034765243631845216,0.034765243631845216
1590503700.1097426,-0.1905141429607543,-4.409485857039246,8.662570714803772,0.4477777777777778,0.37777777777777777,-0.6911111111111111,-0.06571339350471432,-0.12178660649528568,0.11535981948585704
1590503700.1197426,-0.19002042808590644,-4.403326523971365,8.726632619856822,0.4477777777777778,0.37777777777777777,-0.6911111111111111,-0.06262767553691517,-0.04170922517897173,-0.08329077482102827
1590503700.1297426,-0.17791860904623913,-4.406832556381504,8.761583721809247,0.44971343776685846,0.37777777777777777,-0.6944545238195232,0.09219478392339675,0.0,-0.10520347738440217
1590503700.1397426,-0.20484519661523146,-4.397577401692384,8.781366102538577,0.46,0.37777777777777777,-0.7122222222222222,0.22632061971129916,0.09471752115480338,-0.04735876057740169
1590503700.1497426,-0.1866209315922822,-4.406689534203859,8.747032547261743,0.46,0.37777777777777777,-0.7122222222222222,0.1668095887741181,0.14654794387059053,-0.08361917754823621
1590503700.1597426,-0.19147023426348345,-4.404264882868259,8.648529765736518,0.46,0.37777777777777777,-0.7122222222222222,0.031705687256850176,-0.0625,-0.03998327688992135
1590503700.1697426,-0.1656966951508288,-4.417151652424586,8.688545042726243,0.46,0.37777777777777777,-0.7122222222222222,-0.2768956553073201,-0.026895655307320084,-0.15189565530732008
1590503700.1797426,-0.184550962448722,-4.403173556326917,8.723652887346166,0.4544377125626731,0.3795475965078363,-0.707418428526349,-0.1448347270432313,0.04827824234774377,-0.0625
1590503700.1897426,-0.19608263610058096,-4.387834727798838,8.766082636100581,0.4355555555555555,0.3855555555555555,-0.6911111111111111,0.04896704874273794,0.0,-0.08698352437136897
1590503700.1997426,-0.19,-4.393904158871781,8.729520794358901,0.4355555555555555,0.3855555555555555,-0.6911111111111111,0.125,0.0380990070513743,-0.10595049647431284
1590503700.2097425,-0.1879169977698598,-4.38833200892056,8.66208300223014,0.4355555555555555,0.3855555555555555,-0.6911111111111111,0.07292494424649458,0.125,-0.0625
1590503700.2197425,-0.18,-4.42,8.681372565152108,0.4355555555555555,0.3855555555555555,-0.6911111111111111,-0.09656858711973178,0.06813717423946355,-0.0625
1590503700.2297425,-0.18,-4.4172380772380775,8.723682563682564,0.43729454396121054,0.3855555555555555,-0.6924409257742591,0.0,-0.10773798273798274,-0.05674599424599425
1590503700.2397425,-0.18,-4.3908139608139605,8.758914718914719,0.4539319505986172,0.3855555555555555,-0.7051636484969819,0.0,0.057412744912744895,-0.0016957516957516947
1590503700.2497425,-0.1897203528258739,-4.394860176412937,8.751730970271153,0.4544444444444444,0.3855555555555555,-0.7055555555555556,0.20356194870957203,0.12325220516171186,-0.016061948709572036
1590503700.2597425,-0.16231558314276381,-4.381157791571382,8.676367853642601,0.4544444444444444,0.3855555555555555,-0.7055555555555556,0.24638190133943155,-0.04802760535772624,-0.05888190133943156
1590503700.2697425,-0.19771441972661485,-4.4,8.71914232109354,0.4544444444444444,0.3855555555555555,-0.7055555555555556,0.1642907397480568,0.11071512329134281,-0.0482151232913428
1590503700.2797425,-0.19068832082551596,-4.4,8.747246716697937,0.4544444444444444,0.3855555555555555,-0.7055555555555556,-0.09918796904315197,0.06680200515947468,-0.004302005159474674
1590503700.2897425,-0.2,-4.395075801189791,8.755227403569373,0.4544444444444444,0.3922222222222223,-0.6977777777777778,0.015388121281903665,-0.03077624256380733,0.03172375743619267
1590503700.2997425,-0.2,-4.387821011673152,8.699571984435797,0.4544444444444444,0.3922222222222223,-0.6977777777777778,0.0625,-0.125,-0.046206225680933855
1590503700.3097425,-0.19459699362148178,-4.404596993621482,8.680806012757037,0.4544444444444444,0.3922222222222223,-0.6977777777777778,-0.005037579731477768,-0.125,0.033768789865738884
1590503700.3197424,-0.18135036549814687,-4.392700730996293,8.711350365498149,0.4544444444444444,0.3922222222222223,-0.6977777777777778,-0.1875,-0.125,0.09968064690974612
1590503700.3297424,-0.1874946896561827,-4.404989379312365,8.717494689656183,0.4544444444444444,0.3922222222222223,-0.6977777777777778,-0.1875,-0.125,-0.015525431053425715
1590503700.3397424,-0.19,-4.43,8.759950952873393,0.4544444444444444,0.4,-0.6977777777777778,0.0003065445412911804,0.0003065445412911804,0.0
1590503700.3497424,-0.19,-4.424785023138409,8.73783172065629,0.4544444444444444,0.4,-0.6977777777777778,0.0625,0.095093605384939,0.0
1590503700.3597424,-0.19,-4.400798240100566,8.683192960402263,0.4544444444444444,0.4,-0.6977777777777778,0.0625,0.23503299811439346,0.0
1590503700.3697424,-0.19218299838209782,-4.4121829983820975,8.726548995146294,0.4544444444444444,0.4,-0.6977777777777778,0.0625,0.04885626011188866,-0.027287479776222687
1590503700.3797424,-0.2,-4.419074385982554,8.75,0.4541359064386289,0.3996400389932153,-0.6977777777777778,0.0625,0.0,-0.12210745619548002
1590503700.3897424,-0.2,-4.4,8.75,0.4477777777777778,0.3922222222222223,-0.6977777777777778,0.08456433272609744,0.007354777575365811,-0.04779044484926838
1590503700.3997424,-0.20199852383668265,-4.396002952326635,8.730014761633173,0.4477777777777778,0.3922222222222223,-0.6977777777777778,0.21252767806220016,0.050009226020733384,0.050009226020733384
1590503700.4097424,-0.2090342872479619,-4.381931425504076,8.659657127520381,0.4477777777777778,0.3922222222222223,-0.6977777777777778,0.08060711410071461,0.006035704700238197,0.006035704700238197
1590503700.4197423,-0.19159545484749818,-4.381595454847498,8.706381819389993,0.4477777777777778,0.3922222222222223,-0.6977777777777778,0.00997159279686358,0.04255681440627284,0.052528407203136424
1590503700.4297423,-0.19856319356767893,-4.388563193567679,8.734252774270717,0.4477777777777778,0.3922222222222223,-0.6977777777777778,0.053519959797993226,-0.04453991959598645,0.008980040202006774
1590503700.4397423,-0.1917228796330084,-4.41,8.754831361100974,0.46,0.3922222222222223,-0.6911111111111111,-0.0625,0.0,0.0
1590503700.4497423,-0.1950129730258971,-4.414987026974103,8.715038919077692,0.46,0.3922222222222223,-0.6911111111111111,-0.015746622117785283,0.0,0.015584459294071571
1590503700.4597423,-0.1851378320499385,-4.424862167950061,8.675137832049938,0.46,0.3922222222222223,-0.6911111111111111,0.10894427484394223,0.016055725156057774,0.04644427484394223
1590503700.4697423,-0.19533827695384104,-4.406892184635894,8.703985169138477,0.46,0.3922222222222223,-0.6911111111111111,0.08192384602566238,0.07221192301283119,-0.01942384602566239
1590503700.4797423,-0.17437027162139646,-4.392913514414264,8.76688918513581,0.46,0.3922222222222223,-0.6911111111111111,0.1692905349108482,0.1158952674554241,-0.1067905349108482
1590503700.4897423,-0.19749921342422655,-4.414998426848453,8.758749606712113,0.4477777777777778,0.3855555555555555,-0.6977777777777778,0.07812991609858416,-0.11718504195070792,0.0625
1590503700.4997423,-0.18538679067429145,-4.385386790674292,8.737430821759986,0.4477777777777778,0.3855555555555555,-0.6977777777777778,0.16505503885711892,-0.05127751942855946,0.0625
1590503700.5097423,-0.20921930367287248,-4.407657911018617,8.685464874289892,0.4477777777777778,0.3855555555555555,-0.6977777777777778,0.08201740817818776,0.004879352044546937,0.0625
1590503700.5197423,-0.2,-4.385266960521273,8.751755653507091,0.4477777777777778,0.3855555555555555,-0.6977777777777778,0.27958149674204674,0.0625,0.040554331161364504
1590503700.5297422,-0.2,-4.409381372173247,8.759793790724416,0.4477777777777778,0.3855555555555555,-0.6977777777777778,0.12886642391720965,0.0625,-0.05992238405519355
1590503700.5397422,-0.19305927342256216,-4.391529636711281,8.76776290630975,0.44222222222222224,0.3855555555555555,-0.6911111111111111,-0.019120458891013385,0.0,0.03381931166347993
1590503700.5497422,-0.20657049448304046,-4.40342950551696,8.686281977932161,0.44222222222222224,0.3855555555555555,-0.6911111111111111,-0.10356559051900285,-0.02143440948099714,-0.10356559051900285
1590503700.5597422,-0.19285803024111156,-4.417141969758888,8.631432120964446,0.44222222222222224,0.3855555555555555,-0.6911111111111111,-0.01786268900694729,-0.10713731099305271,-0.01786268900694729
1590503700.5697422,-0.2,-4.406438356164384,8.703561643835616,0.44222222222222224,0.3855555555555555,-0.6911111111111111,0.0625,-0.11015981735159817,0.11757990867579908
1590503700.5797422,-0.2,-4.387963705237193,8.722036294762807,0.44222222222222224,0.3855555555555555,-0.6911111111111111,0.0625,-0.03318210515497218,0.07909105257748608
1590503700.5897422,-0.18093095732779285,-4.3895345213361034,8.758603564008311,0.44222222222222224,0.391911903112958,-0.6974674586685136,0.0625,0.11918151670129455,0.0029092416493527243
1590503700.5997422,-0.18868208141713508,-4.40736416283427,8.76,0.44222222222222224,0.3922222222222223,-0.6977777777777778,-0.10028902657128258,0.125,0.05426300885709419
1590503700.6097422,-0.19602254636203262,-4.41,8.65590981455187,0.44222222222222224,0.3922222222222223,-0.6977777777777778,0.03728862785594423,-0.012429542618648079,0.0
1590503700.6197422,-0.18,-4.409054727367702,8.723781090529192,0.44222222222222224,0.3922222222222223,-0.6977777777777778,0.1875,-0.06840795395186242,0.011815907903724835
1590503700.6297421,-0.18,-4.400628038735083,8.75748784505967,0.44222222222222224,0.3922222222222223,-0.6977777777777778,0.1875,-0.12107475790573391,0.11714951581146782
1590503700.6397421,-0.19776277856587196,-4.417762778565872,8.77776277856587,0.4363012960335982,0.39912996944228357,-0.6918568515891538,0.13199131698165012,-0.06949131698165012,0.01398263396330024
1590503700.6497421,-0.18433245508982035,-4.40433245508982,8.734005269461077,0.4355555555555555,0.4,-0.6911111111111111,-0.0625,0.03542215568862275,0.0625
1590503700.659742,-0.1959157233816767,-4.413873585072515,8.65225282985497,0.4355555555555555,0.4,-0.6911111111111111,-0.08802672886452069,-0.07526336443226035,0.07526336443226035
1590503700.669742,-0.18239727545694537,-4.392397275456945,8.702397275456946,0.4355555555555555,0.4,-0.6911111111111111,-0.16502554259113716,-0.11001702839409144,0.11750851419704572
1590503700.679742,-0.19930193660197892,-4.409301936601979,8.71930193660198,0.4355555555555555,0.4,-0.6911111111111111,-0.006544344356447629,-0.004362896237631739,0.06468144811881588
1590503700.689742,-0.2,-4.400222724730712,8.788440926885015,0.4475055586624629,0.3858772690554731,-0.705233842055638,-0.06110797043304885,-0.1222159408660977,0.18471594086609772
1590503700.699742,-0.19819709272054375,-4.4,8.73008400996299,0.4477777777777778,0.3855555555555555,-0.7055555555555556,-0.06813408524830081,-0.10809774425509759,0.17623182950339839
1590503700.709742,-0.18639263751882132,-4.4,8.665159506353518,0.4477777777777778,0.3855555555555555,-0.7055555555555556,-0.10502300775368334,0.002569023261050074,0.10245398449263331
1590503700.719742,-0.18681010058081882,-4.386379798838362,8.657240402323275,0.4477777777777778,0.3855555555555555,-0.7055555555555556,-0.039873742739764836,0.019936871369882418,-0.022626257260235164
1590503700.729742,-0.19624059722985393,-4.392481194459708,8.713684180608977,0.4477777777777778,0.3855555555555555,-0.7055555555555556,0.0,0.11701119805976089,0.05451119805976089
1590503700.739742,-0.2,-4.4,8.766092397292617,0.4477777777777778,0.3981185616594085,-0.6804295433478497,0.16307748307886039,0.1331408389737132,-0.038077483078860386
1590503700.749742,-0.21,-4.399864534754609,8.768780812791473,0.4477777777777778,0.4,-0.6766666666666666,0.12161336886520098,-0.06080668443260049,-0.06165334221630024
1590503700.759742,-0.20782621971907445,-4.393260670421388,8.683260670421388,0.4477777777777778,0.4,-0.6766666666666666,-0.11141387324421524,0.05570693662210762,0.0
1590503700.769742,-0.19359571147451993,-4.41460643278822,8.704606432788221,0.4477777777777778,0.4,-0.6766666666666666,-0.022473196715749474,0.011236598357874737,0.0
1590503700.779742,-0.19840258417327902,-4.411597415826721,8.743610336693116,0.4477777777777778,0.4,-0.6766666666666666,0.0,-0.05251615108299378,0.0
1590503700.789742,-0.18476577549162804,-4.41,8.765234224508372,0.4528558526139017,0.3889975045217313,-0.6927472369810593,-0.04760695158866239,-0.014893048411337609,-0.09521390317732478
1590503700.799742,-0.19858732540690294,-4.4,8.718698603255223,0.4544444444444444,0.3855555555555555,-0.6977777777777778,-0.13382921620685675,0.0,0.0
1590503700.809742,-0.19116553722254961,-4.40116553722255,8.6523310744451,0.4544444444444444,0.3855555555555555,-0.6977777777777778,-0.17293078471813003,0.0,0.007284607640934983
1590503700.819742,-0.19894166932935706,-4.412116661341286,8.674233322682571,0.4544444444444444,0.3855555555555555,-0.6977777777777778,-0.042656299925444674,0.03307283345759222,0.06911456669151844
1590503700.829742,-0.19149625448219548,-4.427007491035609,8.704014982071218,0.4544444444444444,0.3855555555555555,-0.6977777777777778,0.0969452284588348,0.26574204743139135,0.11564840948627828
1590503700.839742,-0.19127648234510328,-4.398723517654897,8.75,0.4477777777777778,0.3922222222222223,-0.6911111111111111,0.0585109926715523,0.0585109926715523,0.054521985343104595
1590503700.849742,-0.2099053964023984,-4.380094603597602,8.75,0.4477777777777778,0.3922222222222223,-0.6911111111111111,0.00029563624250499715,0.00029563624250499715,-0.061908727514990006
1590503700.859742,-0.2,-4.39006569704983,8.670197091149491,0.4477777777777778,0.3922222222222223,-0.6911111111111111,0.0004106065614412032,0.1868840901578382,-0.1875
1590503700.869742,-0.2,-4.40739608296835,8.72218824890505,0.4477777777777778,0.3922222222222223,-0.6911111111111111,0.10872551855218576,0.024411722171721356,-0.1875
1590503700.879742,-0.2,-4.41,8.752215573527808,0.4477777777777778,0.3922222222222223,-0.6911111111111111,0.09028816636280056,-0.034711833637199443,-0.15278816636280057
1590503700.889742,-0.18949968681490761,-4.41,8.775250156592545,0.4477777777777778,0.3846386626996555,-0.6759439920659777,-0.0031269574068274325,-0.029686521296586284,-0.09218652129658628
1590503700.899742,-0.18894121175764847,-4.3831763647270545,8.797882423515297,0.4477777777777778,0.37777777777777777,-0.6622222222222223,-0.0625,0.05588257348530294,-0.17426514697060588
1590503700.9097419,-0.19,-4.414454983742572,8.68802130283664,0.4477777777777778,0.37777777777777777,-0.6622222222222223,-0.008664087902231193,-0.04517182419553761,-0.07982817580446239
1590503700.9197419,-0.20406086580427005,-4.40593913419573,8.712182597412811,0.4477777777777778,0.37777777777777777,-0.6622222222222223,-0.08788041127668778,0.025380411276687775,-0.0625
1590503700.9297419,-0.19517442342217925,-4.4,8.72258721171109,0.4477777777777778,0.37777777777777777,-0.6622222222222223,-0.17132992680568981,0.10882992680568981,-0.01617007319431018
1590503700.9397418,-0.19,-4.4138650776761015,8.747730155352203,0.45239947033647815,0.3831697524295949,-0.677627864084557,-0.01418652904873377,0.125,-0.04332836773781656
1590503700.9497418,-0.18100945009450095,-4.398990549905499,8.727476374763748,0.4544444444444444,0.3855555555555555,-0.6844444444444444,0.0625,-0.0031545315453154533,-0.059345468454684545
1590503700.9597418,-0.1961090810908109,-4.383890918909189,8.689727297272972,0.4544444444444444,0.3855555555555555,-0.6844444444444444,0.0625,-0.05034087840878409,-0.012159121591215911
1590503700.9697418,-0.2,-4.409547323801088,8.689849107933696,0.4544444444444444,0.3855555555555555,-0.6844444444444444,0.0625,0.060613849171200815,-0.12311384917120081
1590503700.9797418,-0.18440453579555072,-4.41,8.728988660511122,0.4544444444444444,0.3855555555555555,-0.6844444444444444,0.11123582563890402,0.0625,-0.02752834872219194
1590503700.9897418,-0.1996284042313752,-4.390371595768625,8.76074319153725,0.4544444444444444,0.3855555555555555,-0.6911111111111111,0.18517752644609498,0.12035505289218996,0.057855052892189965
1590503700.9997418,-0.19018816115237452,-4.399811838847626,8.77962367769525,0.4544444444444444,0.3855555555555555,-0.6911111111111111,0.12617600720234076,0.002352014404681524,-0.060147985595318476
1590503701.0097418,-0.1949607791079359,-4.395039220892064,8.730392208920641,0.4544444444444444,0.3855555555555555,-0.6911111111111111,0.09399513057540065,0.0,-0.031495130575400654
1590503701.0197418,-0.20003502495056963,-4.390070049901139,8.680210149703418,0.4544444444444444,0.3855555555555555,-0.6911111111111111,0.06184328217681951,0.00021890594106016383,-0.00021890594106016383
1590503701.0297418,-0.20793315130402035,-4.4058663026080405,8.727598907824122,0.4544444444444444,0.3855555555555555,-0.6911111111111111,-0.08624658695038132,0.04958219565012711,-0.04958219565012711
1590503701.0397418,-0.20577467287041712,-4.418450654259166,8.748450654259166,0.4628950987036102,0.39353672902254544,-0.6911111111111111,-0.04577511632032093,0.009683410880213947,-0.08890829455989302
1590503701.0497417,-0.20005171308108993,-4.42989657383782,8.75989657383782,0.47434101828226466,0.4043467641801635,-0.6911111111111111,0.061530379729563794,-0.06185358648637586,-0.12467679324318792
