time,acc_x,acc_y,acc_z,mag_x,mag_y,mag_z,gyr_x,gyr_y,gyr_z
1590503708.8842347,-3.85,-0.77,9.03,0.3033333333333333,-0.3688888888888889,-0.67,-0.125,0.125,0.0
1590503708.8942347,-3.853740454931114,-0.7537404549311139,8.986183184517797,0.3033333333333333,-0.3688888888888889,-0.67,0.10162215668053816,0.09351137327784736,0.04675568663892368
1590503708.9042346,-3.85,-0.7433657417744128,9.00643980757911,0.3033333333333333,-0.3688888888888889,-0.67,0.08353588609008059,-0.04146411390991942,0.0
1590503708.9142346,-3.8554341118491537,-0.7454341118491536,9.04630233554746,0.3033333333333333,-0.3688888888888889,-0.67,0.09646319905721021,-0.09646319905721021,-0.0339631990572102
1590503708.9242346,-3.852520661157025,-0.7574793388429752,9.097396694214876,0.32327823691460056,-0.379692378328742,-0.6591965105601469,0.03150826446280991,-0.07825413223140495,-0.015754132231404955
1590503708.9342346,-3.8415058749271704,-0.7684941250728297,9.093011749854341,0.33,-0.38333333333333336,-0.6555555555555556,-0.053088281705185474,-0.0625,0.0
1590503708.9442346,-3.84,-0.7627363628973254,9.01009999187058,0.33,-0.38333333333333336,-0.6555555555555556,0.11909092756686449,-0.19869319567514834,0.0
1590503708.9542346,-3.84,-0.7674679428346664,9.009871771338664,0.33,-0.38333333333333336,-0.6555555555555556,0.2341746427166645,-0.25,-0.09334928543332896
1590503708.9642346,-3.833998364221053,-0.77,9.032003271557892,0.33,-0.38333333333333336,-0.6555555555555556,0.32502044723683476,-0.2875102236184174,-0.012469329144747854
1590503708.9742346,-3.8434039622146416,-0.77,9.04893597480976,0.32354624041517244,-0.3803546750634129,-0.649101795970728,0.34707507871949617,-0.34042492128050383,0.0904249212805038
1590503708.9842346,-3.85395840139388,-0.76395840139388,9.06604159860612,0.31555555555555553,-0.37666666666666665,-0.6411111111111111,0.5012999564412501,-0.41275999128825,-0.02603996515300011
1590503708.9942346,-3.85,-0.76,9.01092807585169,0.31555555555555553,-0.37666666666666665,-0.6411111111111111,0.7256907797982595,-0.4039364067339135,-0.125
1590503709.0042346,-3.8560070419749177,-0.76,9.014063377774262,0.31555555555555553,-0.37666666666666665,-0.6411111111111111,0.8125,-0.4876320370297108,-0.08745598765676307
1590503709.0142345,-3.854133357892798,-0.7482667157855959,9.055866642107203,0.31555555555555553,-0.37666666666666665,-0.6411111111111111,0.9224995395100387,-0.6358330263400258,-0.0625
1590503709.0242345,-3.8440579489366886,-0.74,9.071884102126623,0.3201771508270198,-0.37666666666666665,-0.6411111111111111,1.1114134574370849,-0.8360512765827799,-0.0625
1590503709.0342345,-3.826221569712869,-0.74,9.052443139425737,0.3233333333333333,-0.37666666666666665,-0.6411111111111111,1.230557594647284,-1.023615189294568,-0.10555759464728393
1590503709.0442345,-3.82,-0.7176710185446431,8.958127067997024,0.3233333333333333,-0.37666666666666665,-0.6411111111111111,1.0639251545386923,-1.015981288634673,-0.1715187113653269
1590503709.0542345,-3.8132317266780973,-0.7167682733219025,8.943536546643804,0.3233333333333333,-0.37666666666666665,-0.6411111111111111,0.6192846256429796,-0.7038880421667619,-0.22980170826189117
1590503709.0642345,-3.818744652603629,-0.7331169789054433,8.993723263018143,0.3233333333333333,-0.37666666666666665,-0.6411111111111111,0.16422960613659832,-0.26190256675025814,-0.14069184245463934
1590503709.0742345,-3.827055955421407,-0.75,9.055888089157186,0.3190808244975879,-0.37666666666666665,-0.646999200268297,-0.3531025075458556,0.2170013930810309,-0.03680055723241235
1590503709.0842345,-3.8270367732169888,-0.7288896803490339,9.077036773216989,0.3088888888888889,-0.37666666666666665,-0.6611111111111111,-0.75,0.4814798326061793,-0.16897983260617933
1590503709.0942345,-3.837166337788142,-0.7343326755762849,9.008336622118575,0.3088888888888889,-0.37666666666666665,-0.6611111111111111,-0.7052103888241098,0.4552103888241098,-0.05313116647232935
1590503709.1042345,-3.8466274678305705,-0.7466274678305705,9.026392274813995,0.3088888888888889,-0.37666666666666665,-0.6611111111111111,-0.6875,0.6446083697053303,0.04142167394106606
1590503709.1142344,-3.83978091151396,-0.75510954424302,9.065328632729061,0.3088888888888889,-0.37666666666666665,-0.6611111111111111,-0.6236306969622503,0.75,0.030565348481125125
1590503709.1242344,-3.8266062756028547,-0.76,9.08,0.3047410035146004,-0.37892914959809676,-0.6592257086682527,-0.5625,0.7287892225178428,-0.021210777482157186
1590503709.1342344,-3.836810474012146,-0.751594762993927,9.058986907484817,0.2966666666666667,-0.38333333333333336,-0.6555555555555556,-0.5887663656439782,0.6349672687120436,-0.03623363435602177
1590503709.1442344,-3.8410806305993472,-0.7258104729495104,8.996891103548858,0.2966666666666667,-0.38333333333333336,-0.6555555555555556,-0.625,0.4442539412459199,0.0
1590503709.1542344,-3.824574846044529,-0.7328742302226433,8.978299384178115,0.2966666666666667,-0.38333333333333336,-0.6555555555555556,-0.5678144244433918,0.36968557555660825,-0.028592787778304124
1590503709.1642344,-3.840363646386505,-0.7651818231932526,9.02072729277301,0.2966666666666667,-0.38333333333333336,-0.6555555555555556,-0.5971591848734863,0.4375,0.002272789915657561
1590503709.1742344,-3.85,-0.7591418902586415,9.056287164612037,0.30028603658045283,-0.37971396341954716,-0.6585716971503773,-0.7892947788252357,0.36963681411650956,0.028568407058254773
1590503709.1842344,-3.855973696258376,-0.767921088775128,9.058052607483248,0.3033333333333333,-0.37666666666666665,-0.6611111111111111,-0.8003287967703001,0.3125,0.07467120322969992
1590503709.1942344,-3.84734847000196,-0.7736742350009799,8.99306811500882,0.3033333333333333,-0.37666666666666665,-0.6611111111111111,-0.5127838125367451,0.19389190626837255,0.1645360312438758
1590503709.2042344,-3.84,-0.7507681014347681,9.004874429985541,0.3033333333333333,-0.37666666666666665,-0.6611111111111111,-0.2147341786230675,0.16506645534423312,0.3076993660326994
1590503709.2142344,-3.843847082674935,-0.7438470826749352,9.033847082674935,0.3033333333333333,-0.37666666666666665,-0.6611111111111111,-0.052867199844965865,0.13941146656331058,0.3269114665633106
1590503709.2242343,-3.8497537962553445,-0.7502462037446558,9.040984814978621,0.3033333333333333,-0.37617425917735514,-0.660974331252969,0.06403877340409848,0.06403877340409848,0.25461632021229547
1590503709.2342343,-3.84,-0.76,9.084745975778016,0.3033333333333333,-0.3566666666666667,-0.6555555555555556,0.2733117430630078,0.125,0.3485129541621953
1590503709.2442343,-3.8586757509598737,-0.7662252503199578,9.00284649552059,0.3033333333333333,-0.3566666666666667,-0.6555555555555556,0.4764078144997365,-0.1473547014981555,0.25
1590503709.2542343,-3.857142857142857,-0.7764285714285715,8.982142857142858,0.3033333333333333,-0.3566666666666667,-0.6555555555555556,0.45982142857142855,-0.23214285714285715,0.08928571428571427
1590503709.2642343,-3.845114722061378,-0.7751147220613781,9.029311667631731,0.3033333333333333,-0.3566666666666667,-0.6555555555555556,0.4680329871163868,-0.1264340257672264,-0.030532987116386797
1590503709.2742343,-3.8432008706031033,-0.7635982587937935,9.066401741206207,0.3011994195979311,-0.3591562326913026,-0.6555555555555556,0.5200054412693955,-0.14252176507758196,-0.04249455873060451
1590503709.2842343,-3.8591662815088705,-0.7408337184911296,9.075416859245564,0.2966666666666667,-0.3644444444444445,-0.6555555555555556,0.5052107405695595,-0.34114462971522025,-0.028644629715220252
1590503709.2942343,-3.85758506879881,-0.73,9.02034027519524,0.2966666666666667,-0.3644444444444445,-0.6555555555555556,0.38577111999504154,-0.4525933200074377,-0.03663555999752076
1590503709.3042343,-3.84,-0.73,8.95487883938807,0.2966666666666667,-0.3644444444444445,-0.6555555555555556,0.30233575127485474,-0.5015145076491283,0.0
1590503709.3142343,-3.8359807945481297,-0.7380384109037404,8.996076821807481,0.2966666666666667,-0.3644444444444445,-0.6555555555555556,0.1495198637032448,-0.1875,-0.0251200340741888
1590503709.3242342,-3.8371188842722326,-0.75,9.03067832640835,0.3061585123629766,-0.3644444444444445,-0.6472501905712844,-0.06673954005217896,-0.09851394659709474,-0.04025348664927368
1590503709.3342342,-3.85,-0.7540405397941713,9.062121619382514,0.3233333333333333,-0.3644444444444445,-0.6322222222222222,-0.28851349485428135,0.11300674742714067,-0.025253373713570334
1590503709.3442342,-3.846456019546868,-0.756456019546868,9.04456019546868,0.3233333333333333,-0.3644444444444445,-0.6322222222222222,-0.3489004886717014,0.16535012216792536,-0.04035012216792536
1590503709.3542342,-3.8442982686944167,-0.7414034626111666,9.0057896121665,0.3233333333333333,-0.3644444444444445,-0.6322222222222222,-0.16063582065989582,0.125,-0.026864179340104193
1590503709.3642342,-3.845330265696898,-0.7346697343031022,9.049339468606204,0.3233333333333333,-0.3644444444444445,-0.6322222222222222,-0.09581416060561081,0.1104070803028054,-0.047907080302805403
1590503709.3742342,-3.83,-0.7426360704206424,9.08368196478968,0.3159694037539757,-0.3660808732398573,-0.6383588302050203,0.04602455987098508,0.13153683980647762,-0.02301227993549254
1590503709.3842342,-3.83,-0.7353730580777001,9.0470155353784,0.3033333333333333,-0.3688888888888889,-0.6488888888888888,-0.00932645194250284,0.28358161298562573,0.00466322597125142
1590503709.3942342,-3.83,-0.74,8.981626288659793,0.3033333333333333,-0.3688888888888889,-0.6488888888888888,-0.15455594931271477,0.3125,0.03294405068728522
1590503709.4042342,-3.834648696302629,-0.7353513036973712,8.963946088907885,0.3033333333333333,-0.3688888888888889,-0.6488888888888888,-0.3908804632400086,0.3706087037828596,-0.02905435189142979
1590503709.4142342,-3.8440629693497246,-0.7462518773988986,8.9962518773989,0.3033333333333333,-0.3688888888888889,-0.6488888888888888,-0.6757871168715581,0.3359257662568838,0.013680675307337159
1590503709.4242342,-3.848236140980751,-0.7682361409807511,9.025291577057747,0.30548916102352636,-0.3702607792371936,-0.6488888888888888,-0.75,0.19852411887030552,0.14704823774061104
1590503709.4342341,-3.8407813305369425,-0.7607813305369426,9.047656008389174,0.3146005960104035,-0.3760589651379335,-0.6488888888888888,-0.75,0.24511668414410892,0.24023336828821784
1590503709.4442341,-3.84,-0.75,8.999700252735016,0.31555555555555553,-0.37666666666666665,-0.6488888888888888,-0.6875,0.35479114013538116,0.32659704671179374
1590503709.4542341,-3.84,-0.75,8.932984040578992,0.31555555555555553,-0.37666666666666665,-0.6488888888888888,-0.6875,0.4937832487937647,0.3729277495979216
1590503709.464234,-3.8451199618490075,-0.74,9.02172024798145,0.31555555555555553,-0.37666666666666665,-0.6488888888888888,-0.5639995231125947,0.2652501192218513,0.46800023844370264
1590503709.474234,-3.8313254180986993,-0.74,9.111384782358455,0.31555555555555553,-0.37666666666666665,-0.6488888888888888,-0.3915677262337406,0.3083580684415649,0.5542161368831298
1590503709.484234,-3.85,-0.74,9.12,0.2966666666666667,-0.37666666666666665,-0.6322222222222222,-0.08934154507960443,0.14302463523881326,1.0176338196815824
1590503709.494234,-3.85,-0.7433036200326619,9.073749319542733,0.2966666666666667,-0.37666666666666665,-0.6322222222222222,0.020647625204137182,-0.10435237479586282,1.5608286268372347
1590503709.504234,-3.859911177400325,-0.7549555887001625,8.99982235480065,0.2966666666666667,-0.37666666666666665,-0.6322222222222222,0.09347242937601567,-0.0625,2.0923621468800784
1590503709.514234,-3.8622528675599126,-0.76,9.027747132440087,0.2966666666666667,-0.37666666666666665,-0.6322222222222222,0.1492097888752737,-0.0382902111247263,2.274209788875274
1590503709.524234,-3.8524395182777362,-0.7575604817222636,9.035120963444527,0.3012746456357242,-0.37829301218515754,-0.6449619287837342,0.15700602152829585,-0.015246989235852071,2.160030107641479
1590503709.534234,-3.86,-0.7525791927321991,9.02,0.31555555555555553,-0.38333333333333336,-0.6844444444444444,0.030260090847511655,-0.0625,1.5746603179662908
1590503709.544234,-3.8545395152792414,-0.7545395152792413,8.965395152792413,0.31555555555555553,-0.38333333333333336,-0.6844444444444444,-0.028371970495258164,-0.0625,0.9428477344573235
1590503709.554234,-3.85,-0.7396105750408769,8.961557699836492,0.31555555555555553,-0.38333333333333336,-0.6844444444444444,0.09740085899177855,-0.2897686709808166,0.4602313290191834
1590503709.564234,-3.84213882102829,-0.7378611789717099,9.011791768457565,0.31555555555555553,-0.38333333333333336,-0.6844444444444444,0.16293381571340657,-0.47543381571340654,0.15173526285362623
1590503709.574234,-3.833035500856026,-0.7439289982879478,9.04517750428013,0.3135318883182048,-0.3789487209857401,-0.6776988869866086,0.14397188035016312,-0.4375,0.01897188035016313
1590503709.584234,-3.84,-0.7347092391932167,9.070581521613567,0.3088888888888889,-0.3688888888888889,-0.6622222222222223,0.2757982348728138,-0.4080672550423954,0.003634510084790793
1590503709.594234,-3.844537937279573,-0.735462062720427,9.005544752645125,0.3088888888888889,-0.3688888888888889,-0.6622222222222223,0.403362107997331,-0.346637892002669,0.022586323991993146
1590503709.604234,-3.842872184958969,-0.7264360924794844,8.954255630082063,0.3088888888888889,-0.3688888888888889,-0.6622222222222223,0.30385346798066476,-0.20112788998388728,0.08045115599355492
1590503709.614234,-3.836054515363602,-0.72,8.987568144204502,0.3088888888888889,-0.3688888888888889,-0.6622222222222223,0.005738918466231979,0.02838054076688401,0.009460180255628003
1590503709.624234,-3.869507886183725,-0.72,9.029384857729656,0.3088888888888889,-0.3688888888888889,-0.6622222222222223,-0.3078864329724233,0.18519321648621165,0.06173107216207054
1590503709.634234,-3.84,-0.7402323730701894,9.04976762692981,0.3033333333333333,-0.3911111111111111,-0.6555555555555556,-0.6875,0.2911825561037721,0.021317443896227917
1590503709.644234,-3.8371790772772325,-0.7628209227227676,9.021537231831697,0.3033333333333333,-0.3911111111111111,-0.6555555555555556,-0.705130767017297,0.23236923298270296,-0.008023068069188219
1590503709.654234,-3.83,-0.7667603643738157,9.016198178130923,0.3033333333333333,-0.3911111111111111,-0.6555555555555556,-0.6487613866817381,0.06601366401808571,-0.16725227733634762
1590503709.664234,-3.829685035476773,-0.7596850354767732,9.050944893569682,0.3033333333333333,-0.3911111111111111,-0.6555555555555556,-0.43553147172983264,-0.18356294345966526,-0.11712588691933051
1590503709.674234,-3.8211950092820444,-0.7488049907179554,9.081792513923068,0.30366528035612345,-0.3902480488518566,-0.6555555555555556,-0.382468808012779,-0.036359171955273495,0.117531191987221
1590503709.684234,-3.8393027673444715,-0.7306972326555282,9.108954151016707,0.30869521315124215,-0.37717022358454816,-0.6555555555555556,-0.49564229590294867,0.3597480356603203,0.004357704097051343
1590503709.694234,-3.85,-0.74,9.027630741617036,0.3088888888888889,-0.37666666666666665,-0.6555555555555556,-0.354769213510647,0.270230786489353,0.04226921351064698
1590503709.704234,-3.85,-0.7425365980423295,8.957463401957671,0.3088888888888889,-0.37666666666666665,-0.6555555555555556,-0.32835373776455984,0.29664626223544016,0.03170747552911963
1590503709.7142339,-3.85,-0.756325532040323,8.97213936214113,0.3088888888888889,-0.37666666666666665,-0.6555555555555556,-0.35523271237399046,0.2104654247479809,0.10523271237399046
1590503709.7242339,-3.847656603402498,-0.7676566034024978,9.02,0.3088888888888889,-0.37666666666666665,-0.6485253657630489,-0.2978537712656112,0.08106131379683351,0.07714622873438882
1590503709.7342339,-3.84,-0.7522285642601769,9.04331430721947,0.3088888888888889,-0.37666666666666665,-0.6255555555555555,-0.25,-0.0625,0.125
1590503709.7442338,-3.84,-0.7365389332533864,9.052311466027092,0.3088888888888889,-0.37666666666666665,-0.6255555555555555,-0.2716316671663351,-0.040868332833664936,0.23315833583167533
1590503709.7542338,-3.84370184772746,-0.73,9.01480739090984,0.3088888888888889,-0.37666666666666665,-0.6255555555555555,-0.3125,0.0,0.530046193186505
1590503709.7642338,-3.8483738376404815,-0.73,9.043252324719036,0.3088888888888889,-0.37666666666666665,-0.6255555555555555,-0.2820094557590279,-0.05081757373495351,0.7586446032289349
1590503709.7742338,-3.842391893433738,-0.73,9.055216213132523,0.3088888888888889,-0.37666666666666665,-0.6255555555555555,-0.16984800188259455,-0.23775333019567577,1.0203546622739461
1590503709.7842338,-3.85,-0.76,9.039748313867412,0.3033333333333333,-0.3688888888888889,-0.6555555555555556,-0.18723782694522126,-0.0002621730547787465,0.936451307780885
1590503709.7942338,-3.842539398657605,-0.76,8.957618195972815,0.3033333333333333,-0.3688888888888889,-0.6555555555555556,-0.125,-0.0858143791949839,0.6408712416100322
1590503709.8042338,-3.8364309164077945,-0.7578563611974019,8.922143638802599,0.3033333333333333,-0.3688888888888889,-0.6555555555555556,-0.08480677245128494,-0.08480677245128494,0.5089090299350466
1590503709.8142338,-3.858640214628636,-0.7504532617904547,8.929546738209545,0.3033333333333333,-0.3688888888888889,-0.6555555555555556,0.054001341428974864,0.054001341428974864,0.32383154476136683
1590503709.8242338,-3.846808817924699,-0.7121274547168676,9.055318636792169,0.3026241817610441,-0.36971623238989293,-0.6555555555555556,-0.25,0.13164829599021122,0.33909318396084487
1590503709.8342338,-3.821568812308186,-0.7289541251278759,9.09738531281969,0.2970152916240414,-0.37625993754972953,-0.6555555555555556,-0.25,0.18423164102461237,0.5494265640984495
1590503709.8442338,-3.8296173170639567,-0.71,9.121830304861925,0.2966666666666667,-0.37666666666666665,-0.6555555555555556,-0.016222942087567527,0.0,1.433235899663783
1590503709.8542337,-3.7991568042789954,-0.7108431957210045,9.075059174326027,0.2966666666666667,-0.37666666666666665,-0.6555555555555556,-0.05723002674372137,-0.010539946512557253,2.4495193046632444
1590503709.8642337,-3.7923183292008393,-0.72,9.118408353995804,0.2966666666666667,-0.37666666666666665,-0.6555555555555556,0.0,-0.16846867251573527,4.430144955178333
1590503709.8742337,-3.8012426432243163,-0.7212426432243164,9.078136035163526,0.29832352429908865,-0.37618341652387693,-0.6542438765965548,-0.007766520151977948,-0.32026652015197793,6.112982380987857
1590503709.8842337,-3.8024054153329483,-0.7458648615556838,9.011878399888056,0.3233333333333333,-0.3688888888888889,-0.6344444444444445,-0.125,-0.47415538472302393,6.78336153819244
1590503709.8942337,-3.757967536116896,-0.7594918840292241,8.91745942014612,0.3233333333333333,-0.3688888888888889,-0.6344444444444445,-0.12182427518265067,-0.552972825547952,6.4735797051142185
1590503709.9042337,-3.717056376257008,-0.75,8.884718118714959,0.3233333333333333,-0.3688888888888889,-0.6344444444444445,-0.04410235160630062,-0.2830117580315031,4.039798767464625
1590503709.9142337,-3.7078884116626747,-0.745776823325349,8.930557941686628,0.3233333333333333,-0.3688888888888889,-0.6344444444444445,0.0,0.01668456264970679,1.646405488560337
1590503709.9242337,-3.705793039371298,-0.7314482598428245,8.980861948821184,0.32140232020956727,-0.3699348543309288,-0.6359731631674259,0.013577436026479811,0.29439675196469356,-0.4971969242383183
1590503709.9342337,-3.7707429058108475,-0.7476857264527118,9.102642948395339,0.29975236472971756,-0.38166191354918083,-0.6531127112556403,0.16580368549417368,0.09142841934110177,-1.867233169447563
1590503709.9442337,-3.7935981559738763,-0.7414642079651684,9.145062363939045,0.2966666666666667,-0.38333333333333336,-0.6555555555555556,0.5400115251632731,0.11166282494557561,-1.715733448584966
1590503709.9542336,-3.755301596798923,-0.7016009124565274,9.10049885942934,0.2966666666666667,-0.38333333333333336,-0.6555555555555556,0.6612528514266482,0.0625,0.12681369432706335
1590503709.9642336,-3.7004044351370555,-0.6702311057926031,9.139711117759246,0.2966666666666667,-0.38333333333333336,-0.6555555555555556,0.5632222056018847,0.0625,2.234472579559478
1590503709.9742336,-3.512677070259774,-0.6108453906083497,9.130140898434727,0.2966666666666667,-0.38333333333333336,-0.6555555555555556,0.3776418456510928,-0.1839775391318762,5.022872315233608
1590503709.9842336,-3.4017476631962915,-0.65,9.043236758112318,0.2888888888888889,-0.37666666666666665,-0.67,0.2437305266357626,-0.3187694733642374,8.562694733642374
1590503709.9942336,-3.358120525251228,-0.6536465791247954,8.92,0.2888888888888889,-0.37666666666666665,-0.67,-0.02866447811988314,-0.41643256172344045,10.640896394516325
1590503710.0042336,-3.1793133777840827,-0.6593133777840828,8.92,0.2888888888888889,-0.37666666666666665,-0.67,-0.4843278175222423,0.11361920637172446,13.04272515858379
1590503710.0142336,-3.0403565420307155,-0.6242909860530743,8.931692624952515,0.2888888888888889,-0.37666666666666665,-0.67,0.016239756878493515,-0.021900607803766216,14.21185963531774
1590503710.0242336,-2.516837249687958,-0.7077505833830792,8.999977750040701,0.2888888888888889,-0.37666666666666665,-0.67,0.11108020838986271,0.21520052097465675,14.354120312584794
1590503710.0342336,-2.355134774795664,-0.7791913512260159,9.073513033060886,0.3088888888888889,-0.37666666666666665,-0.67,0.9915487991034336,0.8716028539408343,10.702662164512201
1590503710.0442336,-2.3308214016578748,-0.9250715900527506,9.0410952022105,0.3088888888888889,-0.37666666666666665,-0.67,0.6369787741773424,-0.39471866365234876,7.967407686510927
1590503710.0542336,-2.3845029507296767,-0.8717544260945148,9.052748524635163,0.3088888888888889,-0.37666666666666665,-0.67,0.5248524635161718,-0.23282172103023926,5.365864746786221
1590503710.0642335,-2.3737931034482758,-0.8367241379310345,9.058103448275862,0.3088888888888889,-0.37666666666666665,-0.67,1.261853448275862,-0.12823275862068967,3.7607758620689653
1590503710.0742335,-2.389328123263825,-0.782351568576614,9.050335938368088,0.3088888888888889,-0.37666666666666665,-0.67,1.310400385199452,0.11450192599725911,2.013086132819734
1590503710.0842335,-2.4160043201209636,-0.7713318932930122,8.997991359758073,0.3040732740516734,-0.3824454044713252,-0.67,1.0957973323253052,0.3417026676746949,-0.012824009072254006
1590503710.0942335,-2.4660633553352533,-0.7584841611661867,8.96635745049568,0.3033333333333333,-0.38333333333333336,-0.67,0.14960402915466756,0.48486996355666556,-3.469881686587324
1590503710.1042335,-2.506869501699114,-0.7513739003398228,8.907860704417697,0.3033333333333333,-0.38333333333333336,-0.67,-0.12260813986724681,0.7414131228761076,-6.144996347699051
1590503710.1142335,-2.5401713405532442,-0.7580342681106489,8.994445485438435,0.3033333333333333,-0.38333333333333336,-0.67,-0.4139992298408867,0.6997858243084447,-8.059852081811542
1590503710.1242335,-2.540948779965098,-0.76,9.038102440069803,0.3033333333333333,-0.38333333333333336,-0.67,-0.6697103756544102,0.8572103756544102,-11.22722576003429
1590503710.1342335,-2.5771052480751964,-0.76,9.069684198460157,0.2926140394449433,-0.37838596692330717,-0.6642280725216362,-0.6875,1.1996709206579677,-13.633551764323787
1590503710.1442335,-2.610428176457635,-0.78,9.017002764796555,0.2888888888888889,-0.37666666666666665,-0.6622222222222223,-0.041091177118250104,1.510704411440875,-17.457009554451812
1590503710.1542335,-2.619418072338846,-0.7782542170165382,8.948254217016537,0.2888888888888889,-0.37666666666666665,-0.6622222222222223,0.4702334309399101,1.7572740957644244,-20.891174681403886
1590503710.1642334,-2.6107689611085907,-0.7523068833257722,8.922306883325772,0.2888888888888889,-0.37666666666666665,-0.6622222222222223,0.9567459376417702,1.8653879861426157,-23.918363611993236
1590503710.1742334,-2.6270248596631918,-0.75,8.996611868484361,0.2888888888888889,-0.37666666666666665,-0.6622222222222223,1.2660134322373697,2.2474188051323174,-27.27325581395349
1590503710.1842334,-2.6034317102690623,-0.7629848245042361,8.98253793873941,0.31555555555555553,-0.38333333333333336,-0.67,1.4375,2.6651033423331163,-32.050327017968534
1590503710.1942334,-2.677434689507495,-0.7825653104925053,8.92589079229122,0.31555555555555553,-0.38333333333333336,-0.67,1.397417023554604,3.2419834047109206,-35.6524625267666
1590503710.2042334,-2.662676579925651,-0.8008921933085502,8.839814126394051,0.31555555555555553,-0.38333333333333336,-0.67,1.0636617100371748,3.1930762081784385,-39.14707249070632
1590503710.2142334,-2.683842453195176,-0.8079474843983919,8.91742232838231,0.31555555555555553,-0.38333333333333336,-0.67,0.5786104476105569,3.2371717774899493,-41.792806649396965
1590503710.2242334,-2.7426762309599715,-0.8476258792571226,9.10555386873134,0.31555555555555553,-0.38333333333333336,-0.67,0.20233825464298363,3.3910970472142097,-45.33740859521279
1590503710.2342334,-2.7287952070245227,-0.86,9.144397603512262,0.3311579520432942,-0.3781325345040871,-0.6587316025366332,0.22251497804836637,3.973832379266015,-49.02917687437844
1590503710.2442334,-2.7649129232560394,-0.8829477539536238,9.155435383719801,0.33555555555555555,-0.37666666666666665,-0.6555555555555556,0.4682057703502474,4.486629232560396,-53.575481165712624
1590503710.2542334,-2.7973934798421762,-0.9089494566535147,8.93,0.33555555555555555,-0.37666666666666665,-0.6555555555555556,0.8287907509863998,4.950631791831067,-56.923624275354335
1590503710.2642334,-2.689485675960525,-0.9007714860592124,8.929228513940787,0.33555555555555555,-0.37666666666666665,-0.6555555555555556,1.5064290504934368,5.064107262623359,-60.09000670690811
1590503710.2742333,-2.6734109418415253,-0.924883587237712,8.905116412762288,0.33555555555555555,-0.37666666666666665,-0.6555555555555556,1.7073632269809331,5.114340806745234,-62.90308517773307
1590503710.2842333,-2.688415699786214,-0.9561205089354282,8.879234936383073,0.35,-0.3688888888888889,-0.6844444444444444,1.2882531808464268,5.4661898856348206,-67.31592732310757
1590503710.2942333,-2.7841779613524564,-1.0257657900745139,8.870529276240685,0.35,-0.3688888888888889,-0.6844444444444444,1.7235361879657112,5.792652140974283,-70.19967724527284
1590503710.3042333,-2.705791151543426,-1.07,8.814136536816733,0.35,-0.3688888888888889,-0.6844444444444444,1.9013053028535885,6.068122618769925,-73.67535086696213
1590503710.3142333,-2.762863113288236,-1.07,8.85490222377731,0.35,-0.3688888888888889,-0.6844444444444444,1.5446055419485265,5.5075944230619704,-76.0193778671954
1590503710.3242333,-2.8859372367312552,-1.1859372367312553,9.060957877000842,0.35,-0.3688888888888889,-0.6844444444444444,1.1135425442291491,6.0171861836562766,-78.6312447346251
1590503710.3342333,-2.973036397800821,-1.2468318950518478,9.11455459670123,0.3422222222222222,-0.3422222222222222,-0.6766666666666666,1.8900562843621687,6.567244371563783,-81.98721857818916
1590503710.3442333,-3.0022263205511863,-1.3125092212401699,9.158339480826779,0.3422222222222222,-0.3422222222222222,-0.6766666666666666,1.4339637413877098,6.612853625861229,-84.26768129306146
1590503710.3542333,-2.9941103037372128,-1.35,8.975696451933231,0.3422222222222222,-0.3422222222222222,-0.6766666666666666,1.4118106016424192,6.849914490172281,-87.50181166558959
1590503710.3642333,-2.9478323849754897,-1.35,8.863307220654761,0.3422222222222222,-0.3422222222222222,-0.6766666666666666,1.7010475939031886,7.634986326308655,-88.9893161972164
1590503710.3742332,-2.9440925986662294,-1.3781851973324586,8.876370394664917,0.3422222222222222,-0.3422222222222222,-0.6766666666666666,1.636342516672133,7.8053818875041,-91.32407483327867
1590503710.3842332,-2.8909744075829384,-1.3973781990521326,8.907378199052133,0.385671616640337,-0.3332044233807267,-0.6914230647709321,1.7469549763033174,7.01218009478673,-93.72259478672986
1590503710.3942332,-2.879832197669235,-1.4393287906769408,8.94932879067694,0.4011111111111111,-0.33,-0.6966666666666667,1.5666950582691206,8.101927179519837,-96.40184200471248
1590503710.4042332,-2.9500300591934887,-1.5900060118386978,8.869987976322603,0.4011111111111111,-0.33,-0.6966666666666667,1.8129508879023308,7.937838165926748,-98.18840177580466
1590503710.4142332,-2.9985213189049205,-1.5997042637809842,8.850591472438031,0.4011111111111111,-0.33,-0.6966666666666667,2.540319783573807,8.483364837680355,-99.64313956714761
1590503710.4242332,-2.982669621547903,-1.660656324582339,8.91065632458234,0.4011111111111111,-0.33,-0.6966666666666667,2.2375554040231846,7.795953375383567,-101.31222297988408
1590503710.4342332,-2.9314120482763406,-1.7712268502462372,9.116689845321496,0.4666666666666667,-0.2911111111111111,-0.6966666666666667,1.8496815825067627,7.8420137684677815,-103.97236660713047
1590503710.4442332,-2.8804997572310467,-1.7785000346812792,8.978499341055697,0.4666666666666667,-0.2911111111111111,-0.6966666666666667,2.4406278178539225,8.387502601095928,-105.29063128598183
1590503710.4542332,-2.8711690344567953,-1.8523380689135907,8.885611365392618,0.4666666666666667,-0.2911111111111111,-0.6966666666666667,2.1918838792129822,8.494154827716024,-107.67176137827181
1590503710.4642332,-2.912722265152866,-1.9354445303057322,9.085066872733757,0.4666666666666667,-0.2911111111111111,-0.6966666666666667,2.347708494323248,8.286388674235669,-109.33389060611465
1590503710.4742332,-2.5315672365399338,-1.8352357744322532,8.802191375350855,0.4666666666666667,-0.2911111111111111,-0.6966666666666667,3.644027494258739,8.305175108446033,-111.28025325338096
1590503710.4842331,-2.748630225975593,-2.053968261333581,9.045961208296598,0.47340649312483574,-0.2622261405761011,-0.6966666666666667,1.2670119716022459,10.587191429632036,-113.77469142963204
1590503710.4942331,-2.733995082446397,-2.0775544627658658,8.872203098402656,0.4744444444444445,-0.2577777777777778,-0.6966666666666667,1.769522988703382,9.226238630306574,-115.52512293884007
1590503710.5042331,-2.70828666251815,-2.186013275254097,8.731713337481851,0.4744444444444445,-0.2577777777777778,-0.6966666666666667,1.2766671852312799,9.793040862891516,-118.23949906658369
1590503710.514233,-2.721647805104213,-2.242589408020906,8.863531010937598,0.4744444444444445,-0.2577777777777778,-0.6966666666666667,2.178672472656003,8.830155054687994,-120.61105140039199
1590503710.524233,-2.7835223704453016,-2.339820867842617,8.996119365239931,0.4744444444444445,-0.2577777777777778,-0.6966666666666667,1.8472015869001708,9.49309682619966,-122.43414127204906
1590503710.534233,-2.7214103061713737,-2.3671474234571566,8.924262882714217,0.5030234835397054,-0.22538820013648206,-0.7395352253095581,2.509114077946985,10.044771284732528,-124.01822815589396
1590503710.544233,-2.6036333647502357,-2.4160556079170594,8.807266729500473,0.5077777777777778,-0.22,-0.7466666666666667,3.0170829406220547,9.721562794533458,-126.30861215834119
1590503710.554233,-2.645988622593241,-2.486647704322068,8.891977245186482,0.5077777777777778,-0.22,-0.7466666666666667,2.4876422175844892,10.118643336811633,-127.72045408644136
1590503710.564233,-2.6695378551039823,-2.6053785510398257,8.80554573875221,0.5077777777777778,-0.22,-0.7466666666666667,2.729781160799239,11.024950727198586,-129.73740145439717
1590503710.574233,-2.6295085107656697,-2.6747863827749288,8.832393191387464,0.5077777777777778,-0.22,-0.7466666666666667,2.952457446171652,10.70819946919961,-131.12847340011575
1590503710.584233,-2.6379039459832287,-2.773144081025157,8.906855918974843,0.4922222222222222,-0.16666666666666666,-0.7533333333333333,2.315775084401205,11.105349493592769,-133.20687711003012
1590503710.594233,-2.6074519911424114,-2.8188220132863835,8.861177986713617,0.4922222222222222,-0.16666666666666666,-0.7533333333333333,2.3633562638399828,10.819862416960104,-134.39640659599957
1590503710.604233,-2.504876437558178,-2.7824382187790886,8.80243821877909,0.4922222222222222,-0.16666666666666666,-0.7533333333333333,2.137191093895445,10.631095546947723,-136.41161456925803
1590503710.614233,-2.3252246877902776,-2.7716773660852514,8.725096294767262,0.4922222222222222,-0.16666666666666666,-0.7533333333333333,2.1770164619671792,10.833065847868717,-137.4883127773764
1590503710.624233,-2.332027490554782,-2.938109962219129,8.903326456551998,0.4922222222222222,-0.16666666666666666,-0.7533333333333333,2.0824312736130444,10.664862547226088,-138.73818726386955
1590503710.634233,-2.34,-3.018523587096069,8.910885847742358,0.5105533551251817,-0.10412515440951074,-0.7598031449461425,1.4559551612991342,10.564345516129913,-139.4833903548308
1590503710.644233,-2.3038056264172337,-3.0634332482993196,8.91,0.5111111111111111,-0.10222222222222224,-0.76,2.297116372590703,11.603088240504535,-139.2737851651077
1590503710.654233,-2.2804062170130672,-3.2430943107778547,8.718124340261348,0.5111111111111111,-0.10222222222222224,-0.76,2.984766862009973,11.580271994321699,-139.12753885633168
1590503710.664233,-2.2675272660617725,-3.25,8.784836403629365,0.5111111111111111,-0.10222222222222224,-0.76,2.688181651544313,11.5625,-139.16397729355697
1590503710.674233,-2.2045784290175354,-3.25,8.774578429017536,0.5111111111111111,-0.10222222222222224,-0.76,3.0195772279606055,11.995481023300504,-138.62462466970933
1590503710.684233,-2.014753189344294,-3.2226406607468303,8.686900228779713,0.5455555555555556,-0.04777777777777778,-0.7677777777777778,2.3450768738609487,12.193670266392648,-137.9375
1590503710.694233,-2.087940788708364,-3.2633004381713135,8.947122804296406,0.5455555555555556,-0.04777777777777778,-0.7677777777777778,0.9219846640040328,10.3639802822909,-137.9375
1590503710.704233,-2.0808040329503736,-3.301993278416044,8.983601344316792,0.5455555555555556,-0.04777777777777778,-0.7677777777777778,0.32757561781950356,11.2222563425816,-137.217651235639
1590503710.714233,-1.9942524992426538,-3.303167222053923,8.76959027567404,0.5455555555555556,-0.04777777777777778,-0.7677777777777778,2.4395069675855803,12.138012155407452,-135.44483679188124
1590503710.724233,-1.9726507853097448,-3.4249366497343376,8.979873299468675,0.5455555555555556,-0.04777777777777778,-0.7677777777777778,1.7266852046476324,11.085117796461727,-134.72817408185907
1590503710.734233,-1.8560852661214642,-3.37507105510122,8.861156321222683,0.5571579821542954,-0.027737222743590893,-0.8025850575739971,0.60053291325915,11.87411181123475,-133.01990464539483
1590503710.744233,-1.6320401247641418,-3.1364715622472947,8.764372906157341,0.5577777777777778,-0.02666666666666667,-0.8044444444444444,1.535535157302938,11.013116600562208,-131.52659902191073
1590503710.754233,-1.6572063037249283,-3.331618911174785,8.591749283667623,0.5577777777777778,-0.02666666666666667,-0.8044444444444444,1.1039487822349572,11.894582736389685,-128.9448424068768
1590503710.7642329,-1.573843770352681,-3.236860605103712,8.740122560145258,0.5577777777777778,-0.02666666666666667,-0.8044444444444444,1.138686869683633,11.646439390949102,-126.9145286072352
1590503710.7742329,-1.480714469818032,-3.15294654363627,8.666607557090572,0.5577777777777778,-0.02666666666666667,-0.8044444444444444,1.0948663590906749,10.944198154544049,-124.08929261817619
1590503710.7842329,-1.478230503243506,-3.2311525162175294,8.820535535678564,0.573982669549783,-0.01451299783766277,-0.7710218551646837,1.518262581087646,12.800931614894408,-119.66639935129884
1590503710.7942328,-1.445852543676519,-3.3339055048895725,8.814389407757389,0.5755555555555556,-0.013333333333333334,-0.7677777777777778,1.0823013954510494,11.185916382815074,-117.23163938028787
1590503710.8042328,-1.5214791533033996,-3.4676921103271328,8.665148171905068,0.5755555555555556,-0.013333333333333334,-0.7677777777777778,0.6039207825529185,10.026258819756254,-114.5551074406671
1590503710.8142328,-1.4752597988008185,-3.485474020119918,8.671896080479673,0.5755555555555556,-0.013333333333333334,-0.7677777777777778,0.25458636825460423,9.321672736509209,-112.67029396402455
1590503710.8242328,-1.384870336488744,-3.4941026966828415,8.722821573462731,0.5755555555555556,-0.013333333333333334,-0.7677777777777778,-0.2820603969453504,9.068918542677592,-110.00476543234429
1590503710.8342328,-1.3459632324779778,-3.569235286607941,8.80461764330397,0.5784403591642198,0.01936110756486091,-0.7495073549229045,0.015670879611898392,8.57205891740074,-105.42049661687732
1590503710.8442328,-1.365864011942056,-3.6355240417971952,8.802067994028972,0.5788888888888889,0.024444444444444446,-0.7466666666666667,-0.22202526123247063,8.834100298551395,-102.52124813405378
1590503710.8542328,-1.3502101824457595,-3.65,8.793403394148585,0.5788888888888889,0.024444444444444446,-0.7466666666666667,0.058559079142011805,8.071695482001973,-100.22584853714662
1590503710.8642328,-1.2304771886559802,-3.501361898890259,8.758707768187422,0.5788888888888889,0.024444444444444446,-0.7466666666666667,0.7878352342786683,7.527211775585696,-96.5391414919852
1590503710.8742328,-1.2517186544342507,-3.634550458715596,8.769394495412843,0.5788888888888889,0.024444444444444446,-0.7466666666666667,0.41223241590214066,7.338379204892966,-93.85095565749235
1590503710.8842328,-1.2318361472849169,-3.73,8.563262662782126,0.6074304312385678,0.07974368274694717,-0.810885136953444,0.7772188388500825,7.14965864017691,-90.10328328477658
1590503710.8942327,-1.273434511842299,-3.860617695614508,8.830607071053793,0.6144444444444445,0.09333333333333334,-0.8266666666666667,0.3437832017522353,6.939463500547573,-87.61924230536621
1590503710.9042327,-1.2315278906277598,-3.877564206733317,8.826656304094394,0.6144444444444445,0.09333333333333334,-0.8266666666666667,0.8806743914932702,6.586138146041615,-84.18683541173561
1590503710.9142327,-1.1985517893804596,-3.9845982448371644,8.778942876695785,0.6144444444444445,0.09333333333333334,-0.8266666666666667,1.036205265488507,6.128303510325671,-80.66292369469828
1590503710.9242327,-1.1533209118807541,-3.9477487943884264,8.732939500219201,0.6144444444444445,0.09333333333333334,-0.8266666666666667,1.2223257343270495,6.055581433581763,-77.13145276194652
1590503710.9342327,-1.0635467217346413,-3.87,8.630482705214249,0.5824542534274079,0.04754345207365342,-0.7815040440543797,1.6058498967475479,6.442549690242643,-73.94248515745998
1590503710.9442327,-1.0599202074606024,-4.02968082984241,8.833818357983528,0.5577777777777778,0.012222222222222223,-0.7466666666666667,0.9746391524892423,5.832066982987091,-70.82477700834971
1590503710.9542327,-0.9734855295323713,-3.9434516205346584,8.814043845122624,0.5577777777777778,0.012222222222222223,-0.7466666666666667,0.5699028073495781,5.253701403674789,-68.20537122466682
1590503710.9642327,-0.9246552708466266,-3.869310541693253,8.512471034691204,0.5577777777777778,0.012222222222222223,-0.7466666666666667,1.1809156395876013,5.084769704805723,-65.55770813043624
1590503710.9742327,-0.8730186702815946,-3.7908891490541623,8.417574095754514,0.5577777777777778,0.012222222222222223,-0.7466666666666667,0.9175357384928214,4.549190492328548,-63.032931018547046
1590503710.9842327,-0.8633059018608364,-3.8299177055825093,8.821406067677946,0.5208875650815097,0.07076538584890855,-0.6849156584576962,1.013603144383713,4.492941257753485,-59.62654302032795
1590503710.9942327,-0.9081668665410314,-3.9081668665410314,8.75466506767175,0.5066666666666667,0.09333333333333334,-0.6611111111111111,0.7914034392667466,3.8143176075038547,-56.663006467363374
1590503711.0042326,-0.8531464561107003,-3.734295711418612,8.734281715432555,0.5066666666666667,0.09333333333333334,-0.6611111111111111,1.182112865744164,3.267869639273265,-53.11978781556987
1590503711.0142326,-0.7766745517339263,-3.67,8.683820788191323,0.5066666666666667,0.09333333333333334,-0.6611111111111111,1.5178360221412688,2.9970519704783083,-49.187943535033355
1590503711.0242326,-0.7508683818473527,-3.61977610016044,8.737618754297502,0.5066666666666667,0.09333333333333334,-0.6611111111111111,1.3627458529108412,3.194326760543204,-46.33806744928948
1590503711.0342326,-0.74,-3.5663397658968683,8.815735526732047,0.502087946852262,0.10724559738479385,-0.6551235544307357,1.1349058842138564,3.3315999683644417,-43.45824106295476
1590503711.0442326,-0.5897797382795614,-3.409179667544308,9.040440523440877,0.4777777777777778,0.1811111111111111,-0.6233333333333333,1.2128750442095335,2.539000176838134,-38.625997170589855
1590503711.0542326,-0.463272036199095,-3.151198190045249,8.73382371040724,0.4777777777777778,0.1811111111111111,-0.6233333333333333,3.846778280542986,6.185201357466063,-33.81220814479638
1590503711.0642326,-0.5800143857293565,-3.3347770211949745,7.235697707873789,0.4777777777777778,0.1811111111111111,-0.6233333333333333,8.810432051405005,9.720503260765321,-29.25179821616956
1590503711.0742326,-0.5944662773812833,-3.4214944233324065,8.262015942163314,0.4777777777777778,0.1811111111111111,-0.6233333333333333,-1.52439598974264,-1.8064193468656349,-30.110216424135693
1590503711.0842326,-0.5799637666889843,-3.4150588791304006,8.9491938088299,0.4838944245336274,0.21725493285022252,-0.6205530393534017,-8.96436237249419,-6.7134565397187975,-29.52873065259344
1590503711.0942326,-0.54,-3.3583635029354206,8.276242661448142,0.49,0.2533333333333333,-0.6177777777777778,4.828797700587083,1.1522749510763206,-23.793557363013697
1590503711.1042325,-0.5456554799420975,-3.4470424784945344,8.900304154672968,0.49,0.2533333333333333,-0.6177777777777778,2.338424069483037,0.35766251809454075,-21.385291010132942
1590503711.1142325,-0.5726373547810545,-3.6165933869526365,8.84725290437891,0.49,0.2533333333333333,-0.6177777777777778,-1.5309070598748882,0.6978016085790884,-18.82108579088472
1590503711.1242325,-0.59,-3.7097236416727504,8.860496402127438,0.49,0.2533333333333333,-0.6177777777777778,0.005005735738867423,1.1453749087496088,-16.31094874335176
1590503711.1342325,-0.5382764616387742,-3.629163846368802,8.902662154190082,0.49164201709083255,0.2730375384233241,-0.6235248375956918,0.9128624988356568,0.2093644238830068,-14.101002887571024
1590503711.1442325,-0.44979459861825116,-3.5275951987717784,8.637184396008282,0.4922222222222222,0.28,-0.6255555555555555,1.1737537509595477,1.0863287701505036,-11.709857463537183
1590503711.1542325,-0.524606872451951,-3.604606872451951,8.532696563774024,0.4922222222222222,0.28,-0.6255555555555555,0.6806774690074049,-0.3144084366419835,-10.342795781679008
1590503711.1642325,-0.57,-3.697249327698809,8.840745293891663,0.4922222222222222,0.28,-0.6255555555555555,0.9859296965040338,0.43591529004994234,-7.828155013446024
1590503711.1742325,-0.5659555641582215,-3.7604443584177853,8.842267002170637,0.4922222222222222,0.28,-0.6255555555555555,1.1741668279666524,0.6313900717554508,-5.9783351076331765
1590503711.1842325,-0.5601566453289829,-3.8184335467101715,8.61610916783033,0.4922222222222222,0.28,-0.6255555555555555,1.0654370999184284,-0.16596126726485916,-4.782308099102711
1590503711.1942325,-0.5966050034257356,-3.842840027405885,8.865495065088977,0.4888888888888889,0.29444444444444445,-0.6344444444444445,0.7511561857674574,-0.12731237153491473,-1.9236257707905118
1590503711.2042325,-0.5857146272326764,-3.781429254465353,8.832135514497455,0.4888888888888889,0.29444444444444445,-0.6344444444444445,0.80804105051057,-0.455350739387316,0.044604436323896046
1590503711.2142324,-0.5396033067801032,-3.57901860063808,8.839435961233622,0.4888888888888889,0.29444444444444445,-0.6344444444444445,1.6073863294339548,-1.1062112486706663,2.762396663121777
1590503711.2242324,-0.5228288984688568,-3.464144492344284,8.638137654229226,0.4888888888888889,0.29444444444444445,-0.6344444444444445,2.0814163074178684,-1.6054277538278579,5.358921138694812
1590503711.2342324,-0.5742801145480025,-3.7607002863700063,8.992022462782055,0.49150886979755515,0.3023043871704432,-0.6313878000510005,-0.9287464203749214,-1.1918767898125393,8.900052298068525
1590503711.2442324,-0.5735597592433362,-3.7329836629406707,8.587798796216681,0.4955555555555556,0.3144444444444445,-0.6266666666666667,-0.45061263972484955,-0.8713993981083406,12.26993766122098
1590503711.2542324,-0.5905848631453376,-3.704094042017364,8.592895652462058,0.4955555555555556,0.3144444444444445,-0.6266666666666667,0.3784762492544237,-1.6436352640996752,14.478246777453775
1590503711.2642324,-0.58,-3.611789707542703,8.602966456641292,0.4955555555555556,0.3144444444444445,-0.6266666666666667,0.02315438685945298,-2.0732941508540628,16.348014622864845
1590503711.2742324,-0.6000919012062033,-3.6051148765077543,8.859954049396897,0.4955555555555556,0.3144444444444445,-0.6266666666666667,0.029096065479609412,-2.0339783170591614,18.75373348650201
1590503711.2842324,-0.6312535404003436,-3.6525070808006874,8.703703974795532,0.49930673568900347,0.3213216080224323,-0.6391706004448263,0.12517702001718478,-2.2733268624892595,20.898857922540813
1590503711.2942324,-0.6594547795893025,-3.7932136040655826,8.69375882447628,0.5022222222222222,0.32666666666666666,-0.6488888888888888,-0.12652344378779867,-1.7568152551337182,23.112892933520364
1590503711.3042324,-0.682641138114997,-3.8283971547125075,8.58566520450504,0.5022222222222222,0.32666666666666666,-0.6488888888888888,-0.26297866034380557,-2.0595391227030233,24.935106698280972
1590503711.3142323,-0.702350439334455,-3.8655769770050474,8.71230790802019,0.5022222222222222,0.32666666666666666,-0.6488888888888888,-0.202190245840344,-2.582665860441204,26.898639056365674
1590503711.3242323,-0.7182475290627368,-3.9123712935941053,8.817009883749053,0.5022222222222222,0.32666666666666666,-0.6488888888888888,-0.3530941132842102,-2.5953588300736845,28.641120547878945
1590503711.3342323,-0.7215826539595055,-3.8984349523481456,8.759478317449382,0.5181216536320452,0.3304077093513309,-0.6516946709023871,-0.539456309564818,-2.5196731350709993,30.328802579706817
1590503711.3442323,-0.7131428648986129,-3.814714297347919,8.731571432449307,0.5777777777777777,0.34444444444444444,-0.6622222222222223,-0.39821418876733894,-3.0625,32.647321792122476
1590503711.3542323,-0.7412221231043711,-3.8568331846565567,8.751222123104371,0.5777777777777777,0.34444444444444444,-0.6622222222222223,-0.46805307760927745,-3.2027765388046388,34.45450490633363
1590503711.3642323,-0.7600320588373957,-3.834887794069115,8.694791617556929,0.5777777777777777,0.34444444444444444,-0.6622222222222223,-0.4993988967988308,-3.437900735467446,36.221855699872705
1590503711.3742323,-0.7744691777142735,-3.7776541114286326,8.70597602114265,0.5777777777777777,0.34444444444444444,-0.6622222222222223,-0.6476883285705077,-3.618364721428418,38.02547082142627
1590503711.3842323,-0.7690684598776538,-3.706273839510615,8.796356153292551,0.6352695813841909,0.3780488085242493,-0.6751781216264844,-0.9941778742353364,-3.733048083843109,39.60907700611731
1590503711.3942323,-0.7720839386602099,-3.523997094430993,8.803250363196126,0.7355555555555555,0.43666666666666665,-0.6977777777777778,-0.5989507667473769,-3.8677098466505244,41.11459846650525
1590503711.4042323,-0.8133156264630677,-3.434385421543559,8.757860409839017,0.7355555555555555,0.43666666666666665,-0.6977777777777778,-0.7215951039003132,-4.103945330788346,42.228613326970866
1590503711.4142323,-0.8256373535329624,-3.4769120605988877,8.706175878802226,0.7355555555555555,0.43666666666666665,-0.6977777777777778,-1.1761672979050775,-4.039834595810155,42.913599242513904
1590503711.4242322,-0.82,-3.5207195095174555,8.782036583512085,0.7355555555555555,0.43666666666666665,-0.6977777777777778,-0.824847568699647,-3.7458841437667845,42.92065549681625
1590503711.4342322,-0.8090589350275544,-3.5352946751377723,8.742471480220436,0.9636970214624748,0.5533713597060854,-0.9664417065456063,-0.7617633121555688,-3.903675541437046,42.66470611464074
1590503711.4442322,-0.8605235137533275,-3.5430728277933246,8.736471913179987,1.3611111111111112,0.7566666666666667,-1.4344444444444444,-0.8304723227083476,-3.6895391099583645,42.65890553545833
1590503711.4542322,-0.9250491409014177,-3.614852577295747,8.83980343639433,1.3611111111111112,0.7566666666666667,-1.4344444444444444,-1.4133140045787758,-3.9430283514094766,42.15102877922438
1590503711.4642322,-0.9539045401629802,-3.595219091967404,8.724381839348078,1.3611111111111112,0.7566666666666667,-1.4344444444444444,-1.3182217694994178,-4.260954598370198,41.65488067520373
1590503711.4742322,-0.9923237614389397,-3.6228633638371726,8.640539602398233,1.3611111111111112,0.7566666666666667,-1.4344444444444444,-0.8226175449668665,-3.794603976017671,41.6875
1590503711.4842322,-1.0420400068977411,-3.67,8.734080013795483,1.1888960740357533,0.34059157709183574,-1.2769144105305512,-0.9995311691670978,-3.725281298499741,42.1881251077772
1590503711.4942322,-1.0753318491721164,-3.6406636983442326,8.859336301655768,0.9311111111111112,-0.2822222222222222,-1.0411111111111109,-0.651410532906637,-4.093058647558091,44.282080492556005
1590503711.5042322,-1.0173020670826833,-3.5556571762870517,8.808485764430577,0.9311111111111112,-0.2822222222222222,-1.0411111111111109,-0.8022194325273011,-4.100739810842434,46.92476964703588
1590503711.5142322,-0.9533582255553084,-3.5002240299977756,8.70014935333185,0.9311111111111112,-0.2822222222222222,-1.0411111111111109,-0.5405776319552575,-4.209422368044742,49.86147875687184
1590503711.5242321,-0.9726090604026846,-3.5726090604026846,8.773624161073826,0.9311111111111112,-0.2822222222222222,-1.0411111111111109,-0.3550755033557047,-4.605075503355705,52.78444840604027
1590503711.5342321,-0.9746562166013537,-3.528624866405415,8.804656216601353,0.8339338162530183,-0.1574261172465661,-0.9500713296124765,-0.5767189169932312,-4.788359458496616,54.508594584966154
1590503711.5442321,-0.9754778014644545,-3.39788395588099,8.77788395588099,0.6144444444444445,0.12444444444444445,-0.7444444444444445,-0.7007252757438132,-4.850362637871907,55.325725275743814
1590503711.5542321,-1.0112013937986062,-3.402480557519443,8.741123623876376,0.6144444444444445,0.12444444444444445,-0.7444444444444445,-0.7659895465104535,-4.835998257751743,54.874027875972125
1590503711.564232,-0.993709944071195,-3.407137430088994,8.656572513982201,0.6144444444444445,0.12444444444444445,-0.7444444444444445,-0.957156424777516,-4.853578212388758,54.00364944247072
1590503711.574232,-1.0459653140362126,-3.459123690879668,8.735435864553754,0.6144444444444445,0.12444444444444445,-0.7444444444444445,-0.9429769320020762,-4.837716787273671,52.0932223443559
1590503711.584232,-1.0139487343897897,-3.388687215657537,8.953148606149432,0.6144444444444445,0.12444444444444445,-0.7444444444444445,-1.3832049021403927,-5.037820410063815,50.45237263747672
1590503711.594232,-0.99,-3.4474808752890946,8.945706280021348,0.5755555555555556,0.21666666666666667,-0.7233333333333334,-1.5,-4.5,44.9375
1590503711.604232,-0.9802529559297742,-3.539241132210677,8.709241132210677,0.5755555555555556,0.21666666666666667,-0.7233333333333334,-1.2410941418846293,-4.317242923683268,44.25216096381225
1590503711.614232,-0.9121913209173604,-3.6536304244266495,8.79054783022934,0.5755555555555556,0.21666666666666667,-0.7233333333333334,-0.40796196946668783,-3.4546196946668783,39.200734977202096
1590503711.624232,-0.858461680897027,-3.645385042691081,8.760769468161712,0.5755555555555556,0.21666666666666667,-0.7233333333333334,-0.3269236704042794,-3.028847340808559,34.4230956177348
1590503711.634232,-0.8327587867116032,-3.5682763601348095,8.748103033220993,0.5799807414540202,0.21344834964960147,-0.7366088910287274,-0.3405151661049591,-2.784484833895041,29.98603755416466
1590503711.644232,-0.8425305758912085,-3.498457193752308,8.802530575891208,0.5877777777777777,0.20777777777777776,-0.76,-0.6126528794560424,-2.5123471205439576,23.029750396454716
1590503711.654232,-0.876682584269663,-3.433269662921348,8.773198033707866,0.5877777777777777,0.20777777777777776,-0.76,-0.5411692415730337,-1.9991046348314607,16.055784761235955
1590503711.664232,-0.89,-3.3743279134546866,8.694032519271879,0.5877777777777777,0.20777777777777776,-0.76,-0.14272527045410377,-1.1081978363671698,7.920511595517263
1590503711.674232,-0.8938214657465593,-3.3638214657465593,8.802928794479355,0.5877777777777777,0.20777777777777776,-0.76,0.02745744824395699,-0.320085103512086,-1.6379775627433593
1590503711.684232,-0.8911029147175243,-3.378897085282476,8.846672813961856,0.5818463875894606,0.18948932469713325,-0.7585171524529207,0.4167050872616049,0.514016957538683,-8.647523839510615
1590503711.694232,-0.8531673620769588,-3.3986122701282646,8.835836810384793,0.5611111111111111,0.12555555555555556,-0.7533333333333333,0.5909693246793386,1.1281119610570236,-16.813363467779322
1590503711.704232,-0.8326473389224548,-3.3573526610775453,8.730589355689819,0.5611111111111111,0.12555555555555556,-0.7533333333333333,0.6544082634693145,1.6617752095920566,-24.78514179663716
1590503711.714232,-0.8391955099683075,-3.3508044900316927,8.75678203987323,0.5611111111111111,0.12555555555555556,-0.7533333333333333,0.5725561253961563,1.907331623811531,-29.819048288136386
1590503711.724232,-1.5937964694323834,-4.390927645548759,6.265442430196812,0.5611111111111111,0.12555555555555556,-0.7533333333333333,-10.721808346274523,20.03756477197097,-69.7674824897791
1590503711.734232,-4.8904288023325835,-8.697818274015148,-4.362208981713309,0.5611111111111111,0.12555555555555556,-0.7533333333333333,-61.19318289861503,93.68838541501601,-203.77625146578774
1590503711.744232,-5.826612903225807,-6.7810610862675285,-1.5528986671297704,0.49,0.20555555555555555,-0.64,-124.22627724352017,-73.05409493986889,-842.2553564451005
1590503711.754232,0.270228166797797,-7.882501966955154,4.494681353265145,0.49,0.20555555555555555,-0.64,-103.3206628638867,58.46036585365854,-844.003294649882
1590503711.764232,-0.6669726047200839,-6.432067295529293,1.1958442661462287,0.49,0.20555555555555555,-0.64,-59.25937533882684,122.21557067476238,-797.0471296848459
1590503711.774232,-1.5962804538391628,-6.229355302119675,3.4306930722096807,0.49,0.20555555555555555,-0.64,-25.75435368964203,170.47085446656308,-761.0543514908089
1590503711.784232,-4.314117220105244,-7.902050444565415,4.863629105425512,0.46606282384725495,0.26284340410088913,-0.6432274844250893,48.59398248956632,185.1177871529668,-696.3692841589548
1590503711.794232,-6.466968296145306,-10.325029665489755,-0.9464874604156809,0.3911111111111111,0.44222222222222224,-0.6533333333333333,142.12138053725477,94.54244167000327,-558.4319650202017
1590503711.804232,1.8862677444794953,3.1754505126182964,11.82738268927445,0.3911111111111111,0.44222222222222224,-0.6533333333333333,157.0554083694795,25.362732896293377,-235.03809517941642
1590503711.8142319,2.166568425254474,3.4762191470960015,11.560512939924156,0.3911111111111111,0.44222222222222224,-0.6533333333333333,136.75506037522453,3.241272204111503,-188.0403249950103
1590503711.8242319,0.1747814569536424,0.7959147710912756,-2.381840483731644,0.3911111111111111,0.44222222222222224,-0.6533333333333333,72.47892672041462,0.8980348401957965,-167.636942124964
1590503711.8342319,0.3417621387581183,0.870152915707364,1.5609460156008386,0.33669545529172346,0.4774478158444345,-0.6504416801255398,0.6676424349678705,13.573577798013813,-148.17948266382598
1590503711.8442318,1.0418156998031702,1.1399263476475694,15.513077737094967,0.16111111111111112,0.5911111111111111,-0.6411111111111111,-78.07568943258059,12.504895606256216,-125.55339927829161
1590503711.8542318,0.7230079575596816,-0.4461629405077681,17.899655172413794,0.16111111111111112,0.5911111111111111,-0.6411111111111111,-71.42681887078439,14.478571428571428,-111.0426155740811
1590503711.8642318,1.0935161657251924,-0.6347679731631611,7.116075883475679,0.16111111111111112,0.5911111111111111,-0.6411111111111111,8.28041315622048,6.839134405907189,-99.96545383562436
1590503711.8742318,1.2355739223483941,0.37014948972258155,8.142701355948445,0.16111111111111112,0.5911111111111111,-0.6411111111111111,50.029897944516314,20.114788462459874,-92.55973000814528
1590503711.8842318,0.7800576557583888,0.3098605720856691,4.364595850701931,0.16111111111111112,0.5911111111111111,-0.6411111111111111,37.972114417133824,7.428995376359543,-85.27481912701835
1590503711.8942318,1.3631731269736616,-0.5247596904604921,7.596188361036888,0.10666666666666667,0.5722222222222222,-0.6488888888888888,-23.45739494048652,-3.6522473713433046,-64.69405429086997
1590503711.9042318,1.916261234687858,-1.354391852031787,11.518747440746782,0.10666666666666667,0.5722222222222222,-0.6488888888888888,-22.911584307873824,12.813040045806293,-54.36913649061318
1590503711.9142318,8.454124346085122,-7.566750554347592,7.007552044089471,0.10666666666666667,0.5722222222222222,-0.6488888888888888,10.639398236851736,-6.176231405136596,-44.145470495791265
1590503711.9242318,16.029887408236632,-14.952893802071,8.18138899054918,0.10666666666666667,0.5722222222222222,-0.6488888888888888,4.657344567393597,-23.106571979074722,-36.865424048997866
1590503711.9342318,-1.1877172982128923,1.728848942770683,9.08538987115315,0.1028751054691713,0.5722222222222222,-0.6514165963538858,8.086756323392269,16.357597586738482,-22.5310495689245
1590503711.9442317,0.1693255048246196,-0.6340020554593377,6.834295339055631,0.08690989602167115,0.5722222222222222,-0.662060069318886,2.399150457720344,29.179656424262035,-13.450836695658795
1590503711.9542317,3.0260076115197423,-4.05638452812237,10.556958685549091,0.08666666666666667,0.5722222222222222,-0.6622222222222223,-14.07125736451129,-7.6476836096168626,-1.4089819592344566
1590503711.9642317,6.31274108665036,-6.361173745459936,8.280318731005856,0.08666666666666667,0.5722222222222222,-0.6622222222222223,-4.172056834185754,-8.416011137054333,4.9040587243347415
1590503711.9742317,2.5743021415549814,-3.2829314662339484,7.784054530520664,0.08666666666666667,0.5722222222222222,-0.6622222222222223,1.0080508644349622,3.055637358014304,9.148636736983391
1590503711.9842317,2.8478982974766742,-3.4249905415370803,8.10607521882715,0.07633396389752797,0.5770441501811536,-0.6601556816683946,1.4531545576966238,-1.2456214530764051,11.424364359229216
1590503711.9942317,2.817460860502526,-3.7029091238643317,8.852683462854294,0.05333333333333334,0.5877777777777777,-0.6555555555555556,0.375,-1.2882445567211183,10.381035185898453
1590503712.0042317,2.6274026327117834,-3.565116908716043,8.529584475610033,0.05333333333333334,0.5877777777777777,-0.6555555555555556,0.375,-1.1100649681672974,7.441071974760406
1590503712.0142317,2.516569965171071,-3.4635750870723214,8.303720139315715,0.05333333333333334,0.5877777777777777,-0.6555555555555556,0.04650174144642494,-0.9384065765212046,5.337564023765622
1590503712.0242317,2.462901161692482,-3.438657914620325,8.384197676615036,0.05333333333333334,0.5877777777777777,-0.6555555555555556,-0.625,-0.6907480756516812,4.655304058840197
1590503712.0342317,2.23879619151676,-3.4682912553166583,8.846077574433215,0.05997845154632918,0.5875879172574064,-0.6530873687907285,-0.48616449447847976,-0.33543723416708937,4.291140691458228
1590503712.0442317,2.3288131658016935,-3.460107894018028,8.73151051625239,0.09180263437433608,0.586678654890892,-0.6412669580260402,0.17873361103523633,-0.744605299098607,4.188848675225349
1590503712.0542316,2.2377975326560233,-3.428022496371553,8.880374939525883,0.09222222222222222,0.5866666666666667,-0.6411111111111111,0.23740626511852927,0.3882967464925012,3.425374939525883
1590503712.0642316,2.4,-3.41,8.58,0.09222222222222222,0.5866666666666667,-0.6411111111111111,0.3125,-0.25,3.125
1590503712.0742316,2.2677648846221596,-3.41,8.735570723973929,0.09222222222222222,0.5866666666666667,-0.6411111111111111,-0.17365851241853086,0.09031095869297162,2.9791524462744405
1590503712.0842316,2.317569548770113,-3.478177161577585,8.836961935962641,0.09046689633397084,0.5874768170766288,-0.6428664369993624,-0.43370241995330233,-0.5283217795797209,2.628797580046698
1590503712.0942316,2.2872030262991183,-3.455402269724339,8.799003782873898,0.06853551899380783,0.5975989912336271,-0.6647978143395256,-0.3862547285923727,-0.1012925573313544,2.6762452714076272
1590503712.1042316,2.3464831597808304,-3.391398374405983,8.806652730530525,0.06333333333333334,0.6,-0.67,0.28945993144459736,-0.11731997714819913,3.357520319925212
1590503712.1142316,2.244127996164909,-3.339786673058485,8.63412799616491,0.06333333333333334,0.6,-0.67,0.11276665867689357,-0.22153343720038352,4.29626677852349
1590503712.1242316,2.22511513993618,-3.3919353265177534,8.635575699680901,0.06333333333333334,0.6,-0.67,-0.10800466453933863,-0.9176261661348346,5.202474289140465
1590503712.1342316,2.2506982127974813,-3.45,8.761396425594961,0.06321696453375313,0.5995733144015392,-0.6697284728009796,-0.9265904250393555,-1.1293638299842579,6.242047874803222
1590503712.1442316,2.311612923076923,-3.439049230769231,8.734295384615384,0.06,0.5877777777777777,-0.6622222222222223,-0.5702461538461538,-1.1678692307692309,7.859507692307693
1590503712.1542315,2.4374656869541105,-3.4032191875779843,8.51609593788992,0.06,0.5877777777777777,-0.6622222222222223,-0.31464023291279636,-0.8079335921253292,8.209760155275198
1590503712.1642315,2.2477221638041827,-3.434555672391635,8.681889706741442,0.06,0.5877777777777777,-0.6622222222222223,0.08784466643299452,-0.23576352377614207,7.803817618880711
1590503712.1742315,2.2416894560923732,-3.448310543907627,8.796757824369491,0.06,0.5877777777777777,-0.6622222222222223,-0.2605591005773321,-0.2825319051959891,7.594177301731996
1590503712.1842315,2.249654930112428,-3.440345069887572,8.828619720449712,0.06,0.5877777777777777,-0.6622222222222223,-0.31034331320267394,-0.7305898188240657,7.743529939608022
1590503712.1942315,2.2235316622691297,-3.4488227792436237,8.821177220756377,0.08352741131632953,0.606403645069872,-0.674966236685234,-0.4779271108179419,-0.4742881486367634,8.080854221635883
1590503712.2042315,2.2380839271575614,-3.4679790182106096,8.628188836104512,0.08666666666666667,0.6088888888888889,-0.6766666666666666,-0.07513113618368963,-0.5871065914489311,9.139598178939034
1590503712.2142315,2.237983835925958,-3.46337012253411,8.723590857738767,0.08666666666666667,0.6088888888888889,-0.6766666666666666,-0.06181020248544364,-0.4796265316763709,10.074411227948206
1590503712.2242315,2.0994738854610238,-3.4779501173198923,8.825650821239245,0.08666666666666667,0.6088888888888889,-0.6766666666666666,0.21156469974797948,-0.661876466498653,10.666723516120623
1590503712.2342315,2.2595616317042118,-3.4301217689710524,8.820048707588422,0.08666666666666667,0.6088888888888889,-0.6766666666666666,-0.4358256766480323,-1.0615867327171085,12.371042508440803
1590503712.2442315,2.2923099308839574,-3.4676900691160424,8.717690069116044,0.08666666666666667,0.5955555555555555,-0.6755555555555556,-0.6610471989814478,-1.600968534012368,13.721125863950528
1590503712.2542315,2.257320774179538,-3.498928309671815,8.746249083851353,0.08666666666666667,0.5955555555555555,-0.6755555555555556,-0.7790096772442249,-1.493301935448845,14.181933548684817
1590503712.2642314,2.204806535244338,-3.48,8.70596732377831,0.08666666666666667,0.5955555555555555,-0.6755555555555556,-0.1442211270361493,-1.2992619723132612,15.284877464168664
1590503712.2742314,2.1773840761463763,-3.48,8.831307961926813,0.08666666666666667,0.5955555555555555,-0.6755555555555556,0.021626189787124578,-0.9620242861277253,15.815398096340601
1590503712.2842314,2.163896713615024,-3.48,8.838051643192488,0.08666666666666667,0.5955555555555555,-0.6755555555555556,-0.1891138497652582,-1.088468309859155,16.152582159624412
1590503712.2942314,2.17,-3.504461780929866,8.722152876280536,0.08,0.5822222222222222,-0.6588888888888889,-0.38894306540583135,-1.5069715327029156,17.027886130811662
1590503712.3042314,2.17,-3.537513790386131,8.589944838455477,0.08,0.5822222222222222,-0.6588888888888889,-0.4922305949566588,-1.5586152974783294,17.23446118991332
1590503712.3142314,2.195216150081566,-3.5371296900489395,8.7,0.08,0.5822222222222222,-0.6588888888888889,-0.2646615008156607,-1.238040375203915,17.616318311582383
1590503712.3242314,2.152452079934747,-3.511471247960848,8.7,0.08,0.5822222222222222,-0.6588888888888889,0.16297920065252858,-1.131130199836868,18.097414100734095
1590503712.3342314,2.24119804400978,-3.519119804400978,8.754718826405867,0.08,0.5822222222222222,-0.6588888888888889,-0.09749388753056232,-1.0680012224938875,18.181998777506113
1590503712.3442314,2.124339734575497,-3.5283773510283,8.7432452979434,0.10792450342766743,0.6045618249643562,-0.6802976748501005,-0.5438675514150114,-1.3766506635612585,18.1875
1590503712.3542314,2.1155689447409194,-3.568733984211691,8.714935936846766,0.11333333333333333,0.6088888888888889,-0.6844444444444444,-0.7420874013230702,-1.925631101984605,18.8291259867693
1590503712.3642313,2.0506786167065783,-3.5527144668263135,8.64882201718552,0.11333333333333333,0.6088888888888889,-0.6844444444444444,-0.6037932279194252,-1.75,20.09330979715453
1590503712.3742313,2.0580639878856175,-3.5822559515424706,8.74483184251303,0.11333333333333333,0.6088888888888889,-0.6844444444444444,-0.37300037857444707,-1.75,21.108798334272432
1590503712.3842313,2.133868186293523,-3.534598860279858,8.77923352328669,0.11333333333333333,0.6088888888888889,-0.6844444444444444,-0.0816619178327416,-1.9231285616254439,22.298352328669033
1590503712.3942313,2.0632782881730436,-3.58,8.795082567740435,0.11333333333333333,0.5955555555555555,-0.6533333333333333,-0.4262232527038028,-1.8432339516222818,23.081957204326084
1590503712.4042313,2.079537155483196,-3.58,8.770694266775205,0.11333333333333333,0.5955555555555555,-0.6533333333333333,-0.6802680544249331,-1.9956608326549599,23.488428887079895
1590503712.4142313,1.9841987789406914,-3.589400174437044,8.607797732318426,0.11333333333333333,0.5955555555555555,-0.6533333333333333,-0.5037489097684744,-1.9887532706945765,24.086224924674912
1590503712.4242313,2.0423975182366,-3.581086068823343,8.715881105296543,0.11333333333333333,0.5955555555555555,-0.6533333333333333,-0.5557120698541071,-1.8328637904376783,25.281377606644465
1590503712.4342313,2.0670181784239143,-3.58,8.738509089211957,0.11333333333333333,0.5955555555555555,-0.6533333333333333,-0.08386373182740997,-1.7593181924252679,26.66068157421884
1590503712.4442313,1.915076480436938,-3.6194923519563065,8.795431167606756,0.11333333333333333,0.5955555555555555,-0.6488888888888888,-0.3378824021846909,-2.019036801638518,27.813456005461727
1590503712.4542313,1.9832554170256342,-3.6126744582974366,8.73407012467693,0.11333333333333333,0.5955555555555555,-0.6488888888888888,-0.6787770851281718,-2.274707813846129,28.66569271282043
1590503712.4642313,1.9414521705724164,-3.6687552823665,8.661037264694583,0.11333333333333333,0.5955555555555555,-0.6488888888888888,-0.690093161736458,-2.6810170956588553,30.407678640030735
1590503712.4742312,1.8870714246580347,-3.639755099804591,8.652438774951149,0.11333333333333333,0.5955555555555555,-0.6488888888888888,-0.5457270303340213,-2.498469373778695,31.3353954745512
1590503712.4842312,1.8872114024261761,-3.6816342072785284,8.736057012130882,0.11333333333333333,0.5955555555555555,-0.6488888888888888,-0.5,-2.4375,33.61506840552663
1590503712.4942312,1.8420083920062584,-3.6320083920062585,8.801004196003129,0.12555555555555556,0.59,-0.67,-0.41265735011734583,-2.8438811250977882,35.794458075528055
1590503712.5042312,1.8540211606284067,-3.6534164796409105,8.798042321256814,0.12555555555555556,0.59,-0.67,-0.7873677460724591,-3.1516912471946137,37.467309233728756
1590503712.5142312,1.7912657903174094,-3.6892766912471946,8.67253158063482,0.12555555555555556,0.59,-0.67,-1.1795888105161911,-3.431849150368708,39.092225072138504
1590503712.5242312,1.9671634534786253,-3.7982665549036043,8.65031517183571,0.12555555555555556,0.59,-0.67,-1.0029547359597653,-3.4990150880134117,41.40105825649623
1590503712.5342312,1.8119612096465485,-3.764880268810344,8.772919059163796,0.12555555555555556,0.59,-0.67,-1.0,-3.6097491599676745,43.632483199353494
1590503712.5442312,1.586556926235064,-3.638014020953967,8.796357263202744,0.14555555555555555,0.59,-0.67,-0.5761602629897167,-3.5898205259794334,46.57535052384918
1590503712.5542312,1.6596609020663478,-3.7273633247477584,8.755743943296473,0.14555555555555555,0.59,-0.67,-0.7284602126382245,-3.894420425276449,48.80908311869396
1590503712.5642312,1.596288155975744,-3.675502136478776,8.621004272957551,0.14555555555555555,0.59,-0.67,-1.1531116470076503,-3.99508737814395,52.0043689071975
1590503712.5742311,1.6060335760100646,-3.7100839400251617,8.658100728030194,0.14555555555555555,0.59,-0.67,-1.1373950749685482,-4.601259100377421,54.80535117660404
1590503712.5842311,1.5650379007394701,-3.7274936832100884,8.722455782470618,0.14555555555555555,0.59,-0.67,-1.125,-4.703164479936948,58.060289123530914
1590503712.5942311,1.41,-3.719512146222475,8.827560731112374,0.1511111111111111,0.5822222222222222,-0.6844444444444444,-0.9496963444381328,-4.896343602766732,62.74544516657199
1590503712.604231,1.41,-3.712504594513316,8.792522972566578,0.1511111111111111,0.5822222222222222,-0.6844444444444444,-1.1248851371671067,-5.202923990042437,65.3732770575066
1590503712.614231,1.2427207660315311,-3.686801915078828,8.657959425476351,0.1511111111111111,0.5822222222222222,-0.6844444444444444,-1.4545047876970694,-5.721509575394139,70.48933498162297
1590503712.624231,1.2827839757630346,-3.78,8.636959939407587,0.1511111111111111,0.5822222222222222,-0.6844444444444444,-1.6875,-6.213599772778449,74.94254723547112
1590503712.634231,1.317127592065669,-3.78,8.722818980164174,0.1511111111111111,0.5822222222222222,-0.6844444444444444,-1.6875,-6.535571175615647,78.85986596999038
1590503712.644231,1.218074812247256,-3.8738445984979784,8.791153957250144,0.18444444444444444,0.5688888888888889,-0.6766666666666666,-1.7548021374927787,-6.90384893125361,84.39669085788562
1590503712.654231,1.0363150959842695,-3.754210739697148,8.782104356287123,0.18444444444444444,0.5688888888888889,-0.6766666666666666,-1.3453964038839674,-7.190792807767935,89.43423886602744
1590503712.664231,0.9257843952078815,-3.7882201860898825,8.637564209118,0.18444444444444444,0.5688888888888889,-0.6766666666666666,-1.611095203827208,-7.722190407654416,93.95111846506254
1590503712.674231,0.8831861498748133,-3.7647792248122194,8.693186149874812,0.18444444444444444,0.5688888888888889,-0.6766666666666666,-2.0099567183587914,-8.159848514255769,100.10292248122198
1590503712.684231,0.9157486947576811,-3.8136230421365216,8.725748694757682,0.18444444444444444,0.5688888888888889,-0.6766666666666666,-2.1117146711177535,-8.516001348912136,104.98730421365215
1590503712.694231,0.79,-3.85,8.75,0.20444444444444448,0.5633333333333334,-0.6677777777777778,-2.125,-9.0625,112.125
1590503712.704231,0.771747999522274,-3.840222142601218,8.748044428520243,0.20444444444444448,0.5633333333333334,-0.6677777777777778,-2.1290741072494925,-9.13175982324137,113.01315538038935
1590503712.714231,0.5073228421554602,-3.70401573676681,8.717992131616596,0.20444444444444448,0.5633333333333334,-0.6677777777777778,-2.204232236528374,-10.16264753218884,126.17667203147353
1590503712.724231,0.46321187720181173,-3.765091092098641,8.693394061399093,0.20444444444444448,0.5633333333333334,-0.6677777777777778,-2.4728548062405635,-10.72639028686462,132.5139028686462
1590503712.734231,0.36189008555611474,-3.841082435832914,8.744054957221943,0.20444444444444448,0.5633333333333334,-0.6677777777777778,-3.0005724710619024,-11.306879718168092,138.31879718168094
1590503712.744231,0.24600842696629213,-3.7220103716508213,8.789996758859118,0.25244055507538654,0.5517787141073658,-0.663333693460098,-2.912512154278306,-11.724971640017285,144.74953408599828
1590503712.754231,0.18286225605772236,-3.7642754878845555,8.762862256057723,0.2644444444444444,0.5488888888888889,-0.6622222222222223,-2.758944550180382,-12.160666349458854,152.7446329148084
1590503712.764231,0.13891450248030346,-3.7864341990078785,8.694263203968486,0.2644444444444444,0.5488888888888889,-0.6622222222222223,-2.8013568718996207,-12.803782462795448,159.36146775605485
1590503712.774231,0.00918025942214551,-3.678474085620442,8.726469130991482,0.2644444444444444,0.5488888888888889,-0.6622222222222223,-3.0448456549574123,-13.518364137393531,168.18064737237654
1590503712.784231,-0.058431198102016614,-3.6866946280291475,8.746694628029148,0.2644444444444444,0.5488888888888889,-0.6622222222222223,-3.219012137773259,-14.136377838501948,175.01048551093035
1590503712.794231,-0.07789862113640571,-3.737391726818434,8.742101378863595,0.30657042383860816,0.5181720289139778,-0.6797747136364571,-3.496831910512678,-14.990495731538035,182.37143138071443
1590503712.804231,-0.3097552819577443,-3.9098297613619093,8.700042559659522,0.31777777777777777,0.51,-0.6844444444444444,-3.4376329989360084,-15.62453450372397,191.42958656330748
1590503712.814231,-0.3459299713643924,-3.9171859942728786,8.671256022908485,0.31777777777777777,0.51,-0.6844444444444444,-3.3027626073835283,-15.894474785232942,197.41085773933023
1590503712.824231,0.6670031285453982,-5.895006016433458,8.308887819300718,0.31777777777777777,0.51,-0.6844444444444444,-3.688890225874102,-16.658335338811153,207.15627256162546
1590503712.834231,8.762043236849888,-18.567872326444785,8.461796497683741,0.31777777777777777,0.51,-0.6844444444444444,-10.095553931070736,-20.100137168577717,179.17925345796235
1590503712.844231,0.22096166263115613,-6.569297417271994,14.57884907183212,0.3736134875795893,0.46812321764864134,-0.6896790422383643,-15.628251109765941,-8.223532082324455,-21.645031275221953
1590503712.8542309,-4.938364014831198,-3.030991565298467,5.818169951646826,0.3888888888888889,0.4566666666666666,-0.6911111111111111,28.2415842711247,26.67866145189618,-84.09612768056549
1590503712.8642309,-1.9533611691022963,-1.124077335027685,7.547171341260476,0.3888888888888889,0.4566666666666666,-0.6911111111111111,21.467058485371094,8.613982935463376,-37.73881274394118
1590503712.8742309,-0.8731734717595101,-3.7701867203842876,10.400251801348105,0.3888888888888889,0.4566666666666666,-0.6911111111111111,-12.15204927558689,1.069264740063531,-0.5330101882699267
1590503712.8842309,-0.6758218694885361,-4.5356946334089185,9.511038548752834,0.3888888888888889,0.4566666666666666,-0.6911111111111111,-15.702609284454523,-13.546466364323507,17.272008062484254
1590503712.8942308,-0.61,-2.94,8.38,0.4155555555555556,0.4444444444444444,-0.6755555555555556,2.25,1.1875,42.8125
1590503712.9042308,-0.5360821256038647,-3.104893719806763,8.479504830917875,0.4155555555555556,0.4444444444444444,-0.6755555555555556,1.3437952898550725,-0.9980525362318842,46.65054347826087
1590503712.9142308,-0.40899401630456605,-3.8149700815228305,8.8915923055299,0.4155555555555556,0.4444444444444444,-0.6755555555555556,-1.7230181518814507,-6.227473294245211,55.57507479619292
1590503712.9242308,-2.017361963190184,-2.495338376935058,8.198194475348867,0.4155555555555556,0.4444444444444444,-0.6755555555555556,1.352870005403859,-0.2708167773927963,4.610016211576969
1590503712.9342308,-1.3221263777321128,-3.3179931813936108,8.338502708761443,0.4155555555555556,0.4444444444444444,-0.6755555555555556,5.464257776013451,4.6181682584532044,-12.86742101391743
1590503712.9442308,1.1565184852986514,-5.063242144799171,9.313276340499483,0.4155555555555556,0.4485593893357999,-0.703331433572205,-6.089446632284105,-3.531793942876364,10.720595551756034
1590503712.9542308,-0.10761482806275913,-4.251523859848792,8.717099829282173,0.4155555555555556,0.4488888888888889,-0.7055555555555556,-1.4717756686448258,-1.2549691082025851,5.636594585806032
1590503712.9642308,-0.2578468340377461,-4.2695919599555925,8.606158190990008,0.4155555555555556,0.4488888888888889,-0.7055555555555556,0.9904660810626571,-0.22700879379857042,-0.4928592992228733
1590503712.9742308,-0.18310940799249237,-4.437703135997498,8.648851567998749,0.4155555555555556,0.4488888888888889,-0.7055555555555556,0.07597560021897243,0.04814459998435912,-0.3035627003988428
1590503712.9842308,-0.1781298215182362,-4.451870178481764,8.673740356963528,0.4155555555555556,0.4488888888888889,-0.7055555555555556,0.09756584653307163,-0.011688615511023875,-0.04878292326653581
1590503712.9942307,-0.16359576078728236,-4.37674489023467,8.792467827403481,0.4141323912860627,0.44106148540667844,-0.6778038523004458,-0.15026495079485236,0.09760598031794096,-0.04494700984102952
1590503713.0042307,-0.1875444047291724,-4.495266428375034,8.675552103381909,0.4133333333333333,0.43666666666666665,-0.6622222222222223,-0.375,-0.042036706076436614,-0.1721525295573275
1590503713.0142307,-0.15439591566347627,-4.420989789158691,8.588791831326953,0.4133333333333333,0.43666666666666665,-0.6622222222222223,-0.31936861822418167,-0.006868618224181645,-0.13186861822418164
1590503713.0242307,-0.15,-4.436257159693577,8.623761932822628,0.4133333333333333,0.43666666666666665,-0.6622222222222223,0.0704169121979965,0.05470241602828521,-0.015595167943429578
1590503713.0342307,-0.1434792278267058,-4.368271506093764,8.721290810426119,0.4133333333333333,0.43666666666666665,-0.6622222222222223,0.125,-0.019009652166177393,0.0
1590503713.0442307,-0.15603227269472228,-4.388784999880649,8.743279545508797,0.42402151512981484,0.4408231818097428,-0.6616284343446399,0.09159943188599529,0.03770170434201418,0.03340056811400472
1590503713.0542307,-0.1500415097696208,-4.446652830076793,8.686735849616035,0.43333333333333335,0.4444444444444444,-0.6611111111111111,-0.10382075191982684,0.08341981202004328,0.0625
1590503713.0642307,-0.14614148618596356,-4.437717027628072,8.62086811051229,0.43333333333333335,0.4444444444444444,-0.6611111111111111,-0.22588428866227234,-0.014268577324544701,-0.014268577324544701
1590503713.0742307,-0.1639778784237607,-4.381077425516838,8.659889392118803,0.43333333333333335,0.4444444444444444,-0.6611111111111111,0.012085220445512523,-0.0625,-0.10618087007425209
1590503713.0842307,-0.16380893730033486,-4.403337438897656,8.696191062699665,0.43333333333333335,0.4444444444444444,-0.6611111111111111,0.08630585812709288,-0.0625,-0.16369414187290712
1590503713.0942307,-0.16756239117817762,-4.4451247823563556,8.737811955890887,0.4484581156896885,0.4385625846391952,-0.6837982846456439,0.10976494486360998,-0.15702988972721996,-0.14023505513639
1590503713.1042306,-0.1559330665696617,-4.393732266278647,8.728899599854493,0.4533333333333333,0.43666666666666665,-0.6911111111111111,-0.2266733357584576,-0.011663332120771197,-0.0370816660603856
1590503713.1142306,-0.15977712431191837,-4.399331372935755,8.676002940596367,0.4533333333333333,0.43666666666666665,-0.6911111111111111,-0.34444648652525506,0.03194648652525506,-0.030553513474744942
1590503713.1242306,-0.16475484072454716,-4.4352451592754525,8.635245159275453,0.4533333333333333,0.43666666666666665,-0.6911111111111111,-0.24693550905683948,0.03278224547158026,-0.029717754528419738
1590503713.1342306,-0.1647345062356834,-4.4257964812929504,8.692079568592517,0.4533333333333333,0.43666666666666665,-0.6911111111111111,-0.12831867205395775,0.0625,-0.029590663973021125
1590503713.1442306,-0.1635815911730546,-4.393953977932637,8.753209204413473,0.4451320331655697,0.43452719705768483,-0.6889716415021293,0.01773011033681765,0.04244247241579559,-0.022384944831591175
1590503713.1542306,-0.15938972638726104,-4.397558905549045,8.755305136806369,0.42777777777777776,0.43,-0.6844444444444444,0.09947131511942772,0.029342894960190765,0.03315710503980923
1590503713.1642306,-0.17,-4.415065554231228,8.656495828367104,0.42777777777777776,0.43,-0.6844444444444444,-0.03896007151370679,0.02353992848629321,-0.07792014302741358
1590503713.1742306,-0.16392635970738462,-4.4060736402926155,8.642515482048308,0.42777777777777776,0.43,-0.6844444444444444,-0.10046025182884619,0.07592050365769237,-0.08703974817115381
1590503713.1842306,-0.15472793137279564,-4.415272068627204,8.696360343136021,0.42777777777777776,0.43,-0.6844444444444444,0.07270257352016302,-0.03975214460013582,-0.0625
1590503713.1942306,-0.15685266865989758,-4.399441994020307,8.733705337319796,0.4232093320045127,0.43989829917540757,-0.6890128902177095,0.1643416417512803,-0.10184164175128031,-0.0625
1590503713.2042305,-0.16,-4.413551549493531,8.692896901012938,0.4211111111111111,0.4444444444444444,-0.6911111111111111,0.125,-0.013434271888476582,-0.013434271888476582
1590503713.2142305,-0.15411982378854625,-4.396479295154185,8.650599118942731,0.4211111111111111,0.4444444444444444,-0.6911111111111111,-0.09550660792951543,0.0,-0.036751101321585905
1590503713.2242305,-0.14295628747059272,-4.408174850117629,8.637043712529408,0.4211111111111111,0.4444444444444444,-0.6911111111111111,-0.2940232033087956,0.04402320330879563,-0.018476796691204368
1590503713.2342305,-0.15250966099521987,-4.40123550850717,8.68378381348327,0.4211111111111111,0.4444444444444444,-0.6911111111111111,-0.3125,0.023407309389937916,-0.039092690610062084
1590503713.2442305,-0.14770225426250144,-4.408446618606248,8.734595491474998,0.4211111111111111,0.4444444444444444,-0.6911111111111111,-0.1587781782812679,0.0,-0.024069544570316972
1590503713.2542305,-0.15721807996130904,-4.391303200064485,8.767218079961308,0.4211111111111111,0.4444444444444444,-0.6911111111111111,-0.02662900008060616,0.07174199983878768,-0.07174199983878768
1590503713.2642305,-0.1749148177027953,-4.3896592708111815,8.701362916755274,0.4211111111111111,0.4444444444444444,-0.6911111111111111,-0.030717610642470642,0.09428238935752936,-0.09428238935752936
1590503713.2742305,-0.1532914827529835,-4.41,8.653385646558771,0.4211111111111111,0.4444444444444444,-0.6911111111111111,-0.1876961745953899,-0.14616029099231648,-0.020767941801536703
1590503713.2842305,-0.15133158617246975,-4.41,8.681331586172469,0.4211111111111111,0.4444444444444444,-0.6911111111111111,-0.14376637963309621,-0.1083551728441283,0.035411206788967926
1590503713.2942305,-0.16542974163150925,-4.404570258368491,8.700859483263018,0.4277474619940669,0.45108079532740014,-0.7104168591342551,0.00537177039386566,0.0,0.02856411480306717
1590503713.3042305,-0.15632294312580955,-4.390881962083873,8.705440981041937,0.43333333333333335,0.4566666666666666,-0.7266666666666667,0.034006131512103216,0.05698773697579357,0.0
1590503713.3142304,-0.1477312819686657,-4.395462563937331,8.665209231141004,0.43333333333333335,0.4566666666666666,-0.7266666666666667,0.02416025615208023,0.028358975391679087,0.0
1590503713.3242304,-0.1504443013522215,-4.410444301352221,8.629111397295556,0.43333333333333335,0.4566666666666666,-0.7266666666666667,-0.11666934964584674,-0.06527688345138441,0.0
1590503713.3342304,-0.14734337644381715,-4.411015064665726,8.664686752887635,0.43333333333333335,0.4566666666666666,-0.7266666666666667,-0.2207077944522856,-0.022948051386928594,-0.04589610277385719
1590503713.3442304,-0.15150428550160575,-4.413008571003211,8.715487143495183,0.42483761883493903,0.4453390473354743,-0.7115631742250769,-0.08904910780748208,-0.035950892192517916,-0.09845089219251792
1590503713.3542304,-0.14,-4.395711382893072,8.744288617106928,0.4133333333333333,0.43,-0.6911111111111111,-0.017911570754897826,0.03569614308170072,-0.13389228616340143
1590503713.3642304,-0.15042680859719304,-4.389573191402807,8.677439148416841,0.4133333333333333,0.43,-0.6911111111111111,0.0625,0.029916223133771777,-0.05716489253508711
1590503713.3742304,-0.15536180870507005,-4.39855276517972,8.62927638258986,0.4133333333333333,0.43,-0.6911111111111111,-0.024466086779936363,-0.02898869559331212,0.0625
1590503713.3842304,-0.16021665525002446,-4.42,8.665541638125061,0.4133333333333333,0.43,-0.6911111111111111,-0.125,0.0013540953126529032,-0.03328114296897934
1590503713.3942304,-0.17534786861452056,-4.403956394156438,8.722087211687123,0.42402907056237443,0.43,-0.6988358102209742,-0.09157582115924652,0.09592417884075348,-0.1584241788407535
1590503713.4042304,-0.1672946397290669,-4.383647319864533,8.743647319864534,0.43333333333333335,0.43,-0.7055555555555556,0.09631700338666355,0.125,-0.1477957491533341
1590503713.4142303,-0.16,-4.38,8.671389751000971,0.43333333333333335,0.43,-0.7055555555555556,0.22648309602217537,0.125,-0.008050711933473897
1590503713.4242303,-0.16617881359950687,-4.4047152543980275,8.667072881597042,0.43333333333333335,0.43,-0.7055555555555556,0.09552966001232871,0.1636175849969178,-0.014735169993835645
1590503713.4342303,-0.162547469267617,-4.412547469267617,8.701178796098574,0.43333333333333335,0.43,-0.7055555555555556,-0.0698674756160905,0.1875,-0.03921084146130317
1590503713.4442303,-0.15044410457667223,-4.400444104576673,8.719333843134992,0.43333333333333335,0.43,-0.7055555555555556,-0.1833365195936977,0.1875,-0.0013878268021007695
1590503713.4542303,-0.154294750755287,-4.407115747734139,8.695705249244712,0.4066666666666667,0.43,-0.6977777777777778,-0.035657807779456194,-0.125,0.0981578077794562
1590503713.4642303,-0.1656377840909091,-4.384362215909091,8.673086647727272,0.4066666666666667,0.43,-0.6977777777777778,0.035236150568181815,-0.125,0.027263849431818185
1590503713.4742303,-0.16477910487523312,-4.385220895124767,8.6756626853743,0.4066666666666667,0.43,-0.6977777777777778,-0.10065297264896544,-0.09236940547020692,-0.09789178358937926
1590503713.4842303,-0.16461243024648126,-4.3992248604929625,8.69,0.4066666666666667,0.43,-0.6977777777777778,-0.19234462191898427,-0.03367231095949213,-0.07218924383796851
1590503713.4942303,-0.16608540463365568,-4.41,8.705658381465378,0.41232108219583075,0.43260973024422955,-0.7008224630627123,-0.10053377896034785,-0.048932442079304306,-0.010898663118956445
1590503713.5042303,-0.16503371114107657,-4.41,8.73,0.4211111111111111,0.43666666666666665,-0.7055555555555556,0.06334277852691425,-0.062078610736542875,-0.09353930536827143
1590503713.5142303,-0.16547335102471467,-4.41,8.693786808197718,0.4211111111111111,0.43666666666666665,-0.7055555555555556,0.15920844390446653,0.0,-0.00591688780893309
1590503713.5242302,-0.15386251393978015,-4.4007937709096705,8.65920622909033,0.4211111111111111,0.43666666666666665,-0.7055555555555556,0.08664071212362594,0.01917964393818703,0.024140712123625938
1590503713.5342302,-0.13568883735638243,-4.388622325287235,8.692933487930853,0.4211111111111111,0.43666666666666665,-0.7055555555555556,-0.026944766522609888,-0.018334299567829657,-0.0625
1590503713.5442302,-0.1412240266092741,-4.403741342203092,8.71,0.43025661427422335,0.4341724385312724,-0.702645622730929,-0.0625,-0.10161661123067893,-0.08588338876932107
1590503713.5542302,-0.16,-4.4040180732612555,8.727945780216235,0.4455555555555555,0.43,-0.6977777777777778,0.049661126351460375,-0.025112957882846537,-0.050225915765693074
1590503713.5642302,-0.1481313094632871,-4.3940656547316435,8.674722202048079,0.4455555555555555,0.43,-0.6977777777777778,0.013731026218316497,0.037089657927227834,0.0
1590503713.5742302,-0.16224787685774947,-4.39,8.657809846072187,0.4455555555555555,0.43,-0.6977777777777778,-0.09726230759023355,0.16678692277070062,0.0
1590503713.5842302,-0.17097003219681334,-4.394514983901593,8.70708990340956,0.4455555555555555,0.43,-0.6977777777777778,-0.18143729876991663,0.13712540246016675,-0.05643729876991662
1590503713.5942302,-0.16,-4.404304722953667,8.731390554092666,0.43503289944659207,0.426651882147148,-0.6886900293200366,-0.22309548153958206,-0.0538090369208359,-0.09809548153958206
1590503713.6042302,-0.16,-4.41,8.709760500319806,0.4211111111111111,0.4222222222222222,-0.6766666666666666,-0.15550156349939592,-0.061003126998791846,-0.030501563499395923
1590503713.6142302,-0.16,-4.41,8.671679936305733,0.4211111111111111,0.4222222222222222,-0.6766666666666666,-0.06599986730360935,0.0,-0.02950006634819533
1590503713.6242301,-0.16,-4.405127285475433,8.644872714524567,0.4211111111111111,0.4222222222222222,-0.6766666666666666,0.0,0.06090893155708969,-0.0625
1590503713.6342301,-0.1554194966040751,-4.404580503395925,8.67748302037555,0.4211111111111111,0.4222222222222222,-0.6766666666666666,-0.02862814622453056,0.06774370755093888,-0.03387185377546944
1590503713.6442301,-0.15,-4.412743910345466,8.712743910345466,0.4211111111111111,0.42435637471314047,-0.6806300927212291,-0.0625,0.034298879318329166,-0.034298879318329166
1590503713.65423,-0.15212190826250097,-4.416817137606248,8.72,0.4211111111111111,0.43,-0.6911111111111111,-0.0625,0.11173807335936901,-0.11836903667968451
1590503713.66423,-0.1667512796771545,-4.393248720322846,8.694010237417237,0.4211111111111111,0.43,-0.6911111111111111,-0.042195497982215543,0.0,-0.042195497982215543
1590503713.67423,-0.15759454432734035,-4.39879727216367,8.644810911345319,0.4211111111111111,0.43,-0.6911111111111111,-0.007517048977061376,-0.007517048977061376,0.015034097954122753
1590503713.68423,-0.15301489921121825,-4.393253724802804,8.689761174408414,0.4211111111111111,0.43,-0.6911111111111111,-0.021828439964943033,-0.04216421998247152,0.04365687992988607
1590503713.69423,-0.1742469382270511,-4.40191768725765,8.71191768725765,0.4234549510926829,0.4336222981533382,-0.6883411184056172,0.014557818558759164,-0.011985545360310209,-0.11301445463968979
1590503713.70423,-0.1550142812567506,-4.41,8.704957156229748,0.43333333333333335,0.4488888888888889,-0.6766666666666666,-0.1875,0.03151777356407365,-0.12517851570938243
1590503713.71423,-0.16,-4.415333954800836,8.652662316394144,0.43333333333333335,0.4488888888888889,-0.6766666666666666,-0.12082556498954422,0.1583372175052279,-0.12082556498954422
1590503713.72423,-0.16,-4.404223394701392,8.635776605298608,0.43333333333333335,0.4488888888888889,-0.6766666666666666,-0.029632072294566686,0.08889621688370004,-0.0625
1590503713.73423,-0.1520076753333973,-4.386003837666698,8.681969298666411,0.43333333333333335,0.4488888888888889,-0.6766666666666666,0.0,0.0,-0.08747601458313345
1590503713.74423,-0.14752294873605423,-4.38,8.733761474368027,0.4258103845972791,0.4417838817492821,-0.6846075569991683,-0.04701842960033894,-0.02350921480016947,-0.125
1590503713.75423,-0.15510526315789475,-4.3897894736842105,8.73021052631579,0.4133333333333333,0.43,-0.6977777777777778,-0.125,-0.03190789473684211,-0.03322368421052632
1590503713.76423,-0.15327909591148453,-4.4032790959114845,8.69048813679664,0.4133333333333333,0.43,-0.6977777777777778,-0.04302260221288681,0.020494349446778297,0.0420056505532217
1590503713.77423,-0.15724154860429232,-4.404483097208585,8.646550708374246,0.4133333333333333,0.43,-0.6977777777777778,0.125,0.045259678776827045,0.017240321223172955
1590503713.78423,-0.1583033068164093,-4.39,8.702454960224614,0.4133333333333333,0.43,-0.6977777777777778,0.09905216619872095,-0.02594783380127905,0.0106043323974419
1590503713.79423,-0.1643334123784681,-4.387166706189234,8.728499881432299,0.4189999209548652,0.4318888625405106,-0.6977777777777778,0.08020808631728717,-0.0625,-0.009375741048138486
1590503713.80423,-0.153627108154108,-4.383627108154108,8.753627108154108,0.43333333333333335,0.43666666666666665,-0.6977777777777778,0.07966114807365,-0.017161148073650004,0.07966114807365
1590503713.81423,-0.1504878809481376,-4.386829293649379,8.712439404740687,0.43333333333333335,0.43666666666666665,-0.6977777777777778,0.0,0.0030492559258599172,0.039633829382760055
1590503713.82423,-0.13180003564427017,-4.380600011881423,8.61900017822135,0.43333333333333335,0.43666666666666665,-0.6977777777777778,0.0,-0.11374977722331134,0.11749985148220757
1590503713.83423,-0.15,-4.41,8.674100034582551,0.43333333333333335,0.43666666666666665,-0.6977777777777778,0.0128126080704756,0.0625,0.0128126080704756
1590503713.84423,-0.15,-4.41,8.689368413388907,0.43333333333333335,0.43666666666666665,-0.6977777777777778,0.060526291840337816,0.0625,0.060526291840337816
1590503713.85423,-0.15,-4.380305733841115,8.749694266158885,0.44,0.43,-0.6844444444444444,-0.021470278835654742,0.019559442328690516,0.0
1590503713.86423,-0.15,-4.4,8.680675984027381,0.44,0.43,-0.6844444444444444,0.021575027226054033,-0.0064499818492973066,0.0
1590503713.87423,-0.1535313412946543,-4.396468658705346,8.61293731741069,0.44,0.43,-0.6844444444444444,0.08085823381682128,0.08457088309158936,0.0
1590503713.88423,-0.16078333493328215,-4.391566669866564,8.610183354132667,0.44,0.43,-0.6844444444444444,0.009791686666026686,0.125,0.004895843333013343
1590503713.89423,-0.1688361332437362,-4.407672266487473,8.714869732168571,0.44,0.43,-0.6844444444444444,0.1104516655467025,0.125,0.05522583277335125
1590503713.9042299,-0.13485323470705649,-4.397573382646472,8.742426617353528,0.4211111111111111,0.43,-0.6911111111111111,0.07950092462134555,-0.12683456616179406,0.12683456616179406
1590503713.9142299,-0.15344193782250842,-4.400325813467525,8.708696746129899,0.4211111111111111,0.43,-0.6911111111111111,-0.08401211139067764,0.01947577721864472,0.0020363341720329164
1590503713.9242299,-0.16297044688138923,-4.4110886593558325,8.641881787525557,0.4211111111111111,0.43,-0.6911111111111111,-0.10643470699131728,-0.09963058601736544,0.06930412097395183
1590503713.9342299,-0.17,-4.3995028156035625,8.68583802600594,0.4211111111111111,0.43,-0.6911111111111111,-0.022904934985154092,-0.10830986997030818,-0.022904934985154092
1590503713.9442298,-0.17,-4.417674696018761,8.716512044028141,0.4225321302107573,0.43,-0.6911111111111111,0.047966850117254746,0.047966850117254746,0.0625
1590503713.9542298,-0.17,-4.4063035610199135,8.69945534152987,0.42948115715449764,0.43,-0.6911111111111111,-0.023102743625543917,-0.023102743625543917,0.0625
1590503713.9642298,-0.16699393705472734,-4.4030060629452725,8.674969685273636,0.43333333333333335,0.43,-0.6911111111111111,-0.0812878934079542,-0.0625,0.024924213184091604
1590503713.9742298,-0.1602486290024284,-4.409751370997572,8.641243145012142,0.43333333333333335,0.43,-0.6911111111111111,-0.12344606873482253,-0.0625,-0.05939213746964507
1590503713.9842298,-0.16,-4.426164134015454,8.683835865984546,0.43333333333333335,0.43,-0.6911111111111111,-0.03852583759658737,0.03852583759658737,0.0
1590503713.9942298,-0.16,-4.41342962974208,8.69657037025792,0.43333333333333335,0.43,-0.6911111111111111,0.0410648141120034,-0.0410648141120034,0.0
1590503714.0042298,-0.13210982431261326,-4.4078901756873865,8.748945087843694,0.4133333333333333,0.4444444444444444,-0.6844444444444444,0.01977960293074923,-0.006593200976916411,0.125
1590503714.0142298,-0.14863192310722445,-4.391368076892776,8.740684038446387,0.4133333333333333,0.4444444444444444,-0.6844444444444444,0.17467427913022926,-0.05822475971007642,0.125
1590503714.0242298,-0.1423813931103419,-4.3971441793310255,8.65190696555171,0.4133333333333333,0.4444444444444444,-0.6844444444444444,0.01488370693963682,-0.0625,0.09523258612072635
1590503714.0342298,-0.15021186440677967,-4.419788135593221,8.690635593220339,0.4133333333333333,0.4444444444444444,-0.6844444444444444,0.0625,-0.06117584745762712,-0.0013241525423728813
1590503714.0442297,-0.16,-4.408805731478949,8.724777074084205,0.41505838786374055,0.44271938991403714,-0.6877618570029199,0.0774283565131399,0.0,-0.04010746523029015
1590503714.0542297,-0.15993352120817977,-4.39996676060409,8.76,0.42777777777777776,0.43,-0.7122222222222222,0.18666901510224726,0.0,0.12479225377556181
1590503714.0642297,-0.15054731119600354,-4.393515770398667,8.71077921441865,0.42777777777777776,0.43,-0.7122222222222222,-0.01855287001665197,-0.021973564991674015,0.10644712998334803
1590503714.0742297,-0.16647937346325473,-4.4,8.634082506146981,0.42777777777777776,0.43,-0.7122222222222222,0.01849216829068391,0.003511747563974141,0.12148825243602586
1590503714.0842297,-0.1625041788938004,-4.402504178893801,8.667512536681402,0.42777777777777776,0.43,-0.7122222222222222,-0.0625,0.062395527654990526,-0.01565111808625237
1590503714.0942297,-0.1694798542015565,-4.41,8.693641020589103,0.42777777777777776,0.430346763865629,-0.7114709005133594,-0.04949635503891242,-0.1217490887597281,-0.05599817751945621
1590503714.1042297,-0.15388207767898923,-4.406941038839495,8.747764155357979,0.42777777777777776,0.43666666666666665,-0.6977777777777778,0.11102597098736547,-0.04338149274684137,0.08161850725315864
1590503714.1142297,-0.14285624549240397,-4.4,8.69143754507596,0.42777777777777776,0.43666666666666665,-0.6977777777777778,0.008906137310099344,0.017851534327524836,0.08929693134495033
1590503714.1242297,-0.14766968748055825,-4.402330312519442,8.629321250077766,0.42777777777777776,0.43666666666666665,-0.6977777777777778,0.1438066402604674,0.04793554675348914,0.0
1590503714.1342297,-0.14186253521126763,-4.407206197183099,8.66465633802817,0.42777777777777776,0.43666666666666665,-0.6977777777777778,0.0,0.011640845070422534,0.011640845070422534
1590503714.1442297,-0.15761577464788734,-4.383576338028169,8.70403943661972,0.42777777777777776,0.43666666666666665,-0.6977777777777778,0.0,0.11009859154929577,0.11009859154929577
1590503714.1542296,-0.1580369176025798,-4.3780369176025795,8.73196308239742,0.4066666666666667,0.43,-0.6766666666666666,0.09930779495162904,-0.08819220504837096,0.0
1590503714.1642296,-0.15171269251194902,-4.375138077535847,8.721160382368561,0.4066666666666667,0.43,-0.6766666666666666,0.21788701540095592,0.05179567180031864,0.0
1590503714.1742296,-0.16,-4.4,8.646276665379903,0.4066666666666667,0.43,-0.6766666666666666,0.0625,0.014532736946341954,-0.04359821083902587
1590503714.1842296,-0.16,-4.4,8.695554287440627,0.4066666666666667,0.43,-0.6766666666666666,0.0625,0.058530613786274145,-0.17559184135882244
1590503714.1942296,-0.15064268919271967,-4.41,8.72,0.4070951261284798,0.4309283288339284,-0.6766666666666666,-0.008033614908995906,0.17544957763650615,0.0705336149089959
1590503714.2042296,-0.1597742314726117,-4.41,8.72,0.4131828209817411,0.44411833434932796,-0.6766666666666666,-0.12217789340764608,0.004233159888530874,0.18467789340764607
1590503714.2142296,-0.15507796938647334,-4.392538984693236,8.672227107147343,0.4133333333333333,0.4444444444444444,-0.6766666666666666,0.0783686543327292,-0.0932626913345416,0.0
1590503714.2242296,-0.16988501039632034,-4.3998850103963205,8.620574948018398,0.4133333333333333,0.4444444444444444,-0.6766666666666666,0.12428131497700208,0.0014373700459958413,0.0007186850229979207
1590503714.2342296,-0.16191291753417217,-4.391912917534172,8.675738752602516,0.4133333333333333,0.4444444444444444,-0.6766666666666666,0.038588530822847834,0.08913279623427176,0.050544265411423914
1590503714.2442296,-0.16950647234543317,-4.399506472345434,8.698519417036298,0.4133333333333333,0.4444444444444444,-0.6766666666666666,-0.05633090431791436,-0.05324635647687154,0.0030845478410428187
1590503714.2542295,-0.1395087421490409,-4.4,8.72524562892548,0.43333333333333335,0.43666666666666665,-0.6911111111111111,-0.014857409607876421,0.0625,0.0030703615684943147
1590503714.2642295,-0.16798811746732306,-4.4,8.71100594126634,0.43333333333333335,0.43666666666666665,-0.6911111111111111,-0.05935643354269224,0.0625,-0.17492573417076895
1590503714.2742295,-0.15235839361637818,-4.407641606383622,8.664150361698269,0.43333333333333335,0.43666666666666665,-0.6911111111111111,0.07723996010236363,0.125,-0.09552007979527273
1590503714.2842295,-0.16091388560516504,-4.399086114394835,8.71,0.43333333333333335,0.43666666666666665,-0.6911111111111111,0.10215285987087387,0.11357642993543694,-0.005711785032281531
1590503714.2942295,-0.1687565843319133,-4.389585528110637,8.71165788755745,0.43333333333333335,0.4363903520737585,-0.6917097927290788,-0.12240955069148601,0.0025904493085139872,-0.0625
1590503714.3042295,-0.14235021300707226,-4.38078340433569,8.746866382657236,0.43333333333333335,0.43052226955712714,-0.7044239715151134,-0.0673962770980672,0.0576037229019328,-0.0625
1590503714.3142295,-0.16,-4.397963828183873,8.717602110022607,0.43333333333333335,0.43,-0.7055555555555556,-0.125,0.125,-0.11227392614920874
1590503714.3242295,-0.16,-4.390832535242032,8.63416267621016,0.43333333333333335,0.43,-0.7055555555555556,-0.11979665473730194,0.10938996421190585,-0.07290669052539611
1590503714.3342295,-0.16,-4.397879765445167,8.669398827225834,0.43333333333333335,0.43,-0.7055555555555556,-0.07575146596770671,-0.02274560209687987,-0.16099706806458658
1590503714.3442295,-0.16,-4.390161052207757,8.70951684337673,0.43333333333333335,0.43,-0.7055555555555556,-0.0010065762984834206,-0.0010065762984834206,-0.06451315259696684
1590503714.3542295,-0.14506295368986077,-4.38253147684493,8.739874092620278,0.424205138366026,0.42419114865716806,-0.7105345709922686,0.0,-0.09335653943837023,-0.0625
1590503714.3642294,-0.15965952347384746,-4.4291488086846185,8.681191667841533,0.4211111111111111,0.4222222222222222,-0.7122222222222222,-0.1228720217115466,-0.1864360108557733,-0.1239360108557733
1590503714.3742294,-0.1518603738024187,-4.413720747604837,8.631162242814511,0.4211111111111111,0.4222222222222222,-0.7122222222222222,-0.074127336265117,0.11773598240929795,-0.125
1590503714.3842294,-0.15,-4.417910473225139,8.668358107099444,0.4211111111111111,0.4222222222222222,-0.7122222222222222,0.0,0.06902977117144014,0.0494404576571197
1590503714.3942294,-0.15,-4.40002089953296,8.739916401868163,0.4211111111111111,0.4222222222222222,-0.7122222222222222,0.0,0.12493468895950183,-0.062369377919003655
1590503714.4042294,-0.16857558244536755,-4.401424417554633,8.745726747336104,0.42777777777777776,0.43,-0.6977777777777778,0.1518895611341882,0.05359739028354705,-0.0446947805670941
1590503714.4142294,-0.1610005418096442,-4.4089994581903555,8.723001625428934,0.42777777777777776,0.43,-0.6977777777777778,-0.0374864547588947,0.006253386310276325,0.04999322737944735
1590503714.4242294,-0.1481643886069733,-4.41,8.629178056965133,0.42777777777777776,0.43,-0.6977777777777778,0.0625,-0.011472571206416761,-0.10205485758716648
1590503714.4342294,-0.14087341474368573,-4.409563292628158,8.671310122115528,0.42777777777777776,0.43,-0.6977777777777778,0.051582315703928655,-0.0625,0.0027294210740178362
1590503714.4442294,-0.15881349045103615,-4.400593254774482,8.698220235676553,0.42777777777777776,0.43,-0.6977777777777778,-0.17266863063795207,-0.0625,0.05879215765948802
1590503714.4542294,-0.16,-4.4,8.716877733491328,0.40527413312267346,0.43,-0.6977777777777778,-0.08201416567919853,-0.11524291716040073,-0.04298583432080147
1590503714.4642293,-0.15,-4.3879804264402,8.683843411521606,0.4011111111111111,0.43,-0.6977777777777778,-0.2746329957537637,0.0006116737437271563,-0.0625
1590503714.4742293,-0.15467312848009898,-4.381557709493366,8.627788547466832,0.4011111111111111,0.43,-0.6977777777777778,-0.125,0.2013215783323022,-0.052764315666460435
1590503714.4842293,-0.17480683461295643,-4.39,8.673115899232226,0.4011111111111111,0.43,-0.6977777777777778,-0.10552562979858665,-0.0625,0.0
1590503714.4942293,-0.13209763150927642,-4.39,8.698741421094434,0.4011111111111111,0.43,-0.6977777777777778,0.05463388184021342,-0.0625,0.0
