time,acc_x,acc_y,acc_z,mag_x,mag_y,mag_z,gyr_x,gyr_y,gyr_z
1590503747.13244,-0.36,-4.37,8.6,0.4888888888888889,0.3288888888888889,-0.6377777777777778,0.125,-0.5,0.4375
1590503747.14244,-0.35,-4.34,8.663301160962964,0.4888888888888889,0.3288888888888889,-0.6377777777777778,0.125,-0.4699297493312743,0.1851405013374514
1590503747.15244,-0.35993107890499193,-4.34,8.73482769726248,0.4910957953122205,0.3250268026480587,-0.6377777777777778,0.125,-0.49956924315619966,0.1879307568438003
1590503747.16244,-0.36622373767278515,-4.34,8.74489495069114,0.4933333333333334,0.3211111111111111,-0.6377777777777778,0.07779672090981482,-0.46809344181962964,0.1486016395450926
1590503747.17244,-0.3557042728635682,-4.331408545727136,8.668451274362818,0.4933333333333334,0.3211111111111111,-0.6377777777777778,0.0,-0.2051068215892054,0.2411965892053973
1590503747.18244,-0.35991650896137145,-4.32,8.604958254480685,0.4933333333333334,0.3211111111111111,-0.6377777777777778,0.0,0.06145636201714348,0.2505218189914283
1590503747.19244,-0.35692816049564835,-4.333071839504352,8.636143679008702,0.4933333333333334,0.3211111111111111,-0.6377777777777778,0.02723299896739932,0.26919899690219795,0.2964319958695973
1590503747.20244,-0.3442447073706143,-4.341510585258772,8.691223536853071,0.48814535765813816,0.32441255017714443,-0.6316465337980016,0.0625,0.34847057893366074,0.4375
1590503747.21244,-0.357810936446542,-4.337810936446542,8.708283595330187,0.4811111111111111,0.3288888888888889,-0.6233333333333333,0.08690917639544374,0.2880908236045563,0.4130908236045563
1590503747.22244,-0.37,-4.345012685755709,8.665063428778543,0.4811111111111111,0.3288888888888889,-0.6233333333333333,0.1561707140268213,0.2188292859731787,0.3126585719463574
1590503747.23244,-0.37,-4.34,8.651534402273189,0.4811111111111111,0.3288888888888889,-0.6233333333333333,0.15145499289628578,0.043319971585143086,0.21395499289628578
1590503747.24244,-0.3638180061336806,-4.34,8.703273957064235,0.4811111111111111,0.3288888888888889,-0.6233333333333333,0.04772507667100785,-0.17841238499348822,0.14886253833550392
1590503747.25244,-0.34517296235066597,-4.34,8.744827037649333,0.47040269503103654,0.31241440261185105,-0.6340417494134079,0.0,-0.2963344926541689,0.03233101469166226
1590503747.26244,-0.3513078396451494,-4.334346080177426,8.738692160354852,0.4666666666666667,0.30666666666666664,-0.6377777777777778,-0.03533699889109177,-0.34783699889109176,0.0
1590503747.27244,-0.36,-4.341540974191464,8.660754154851215,0.4666666666666667,0.30666666666666664,-0.6377777777777778,-0.134631088696651,-0.44713108869665097,0.0
1590503747.28244,-0.35247523764377137,-4.342475237643771,8.6626733364936,0.4666666666666667,0.30666666666666664,-0.6377777777777778,-0.23452976472642897,-0.3118809410942841,0.0
1590503747.29244,-0.3541532535245976,-4.3358467464754025,8.66338698590161,0.4666666666666667,0.30666666666666664,-0.6377777777777778,-0.1721264964137949,-0.1721264964137949,0.051915669057470075
1590503747.30244,-0.3595932607877978,-4.3304067392122025,8.641626956848809,0.4666666666666667,0.30666666666666664,-0.6377777777777778,-0.07012636022879082,-0.07012636022879082,0.1199157598474728
1590503747.31244,-0.37267678300455237,-4.344646433990895,8.676060698027314,0.4811111111111111,0.3333333333333333,-0.6311111111111111,0.016729893778452198,0.0792298937784522,0.1417298937784522
1590503747.32244,-0.37547062763484496,-4.336794058547732,8.701882510539381,0.4811111111111111,0.3333333333333333,-0.6311111111111111,0.07665428864110949,0.15330857728221897,0.20165428864110949
1590503747.33244,-0.364073026015518,-4.355926973984482,8.66036513007759,0.4811111111111111,0.3333333333333333,-0.6311111111111111,0.125,0.19908717480602464,0.27545641259698767
1590503747.34244,-0.36704744400485967,-4.35,8.7047627799757,0.4811111111111111,0.3333333333333333,-0.6311111111111111,0.16190694993925422,0.10654652503037289,0.2571395750911187
1590503747.3524399,-0.36,-4.339250941191743,8.754332078411009,0.4838979041354739,0.32895408715219177,-0.6334997908462792,0.2276061274827989,0.10728774503440218,0.1473938725172011
1590503747.3624399,-0.36250665756230793,-4.322506657562308,8.762453397063844,0.4888888888888889,0.3211111111111111,-0.6377777777777778,0.15616678047115057,0.07783373164902696,0.14050017070672585
1590503747.3724399,-0.3646802000744958,-4.33,8.672761400521471,0.4888888888888889,0.3211111111111111,-0.6377777777777778,0.0625,-0.2832487495344011,0.03324874953440111
1590503747.3824399,-0.36,-4.3431593310097,8.63342033449515,0.4888888888888889,0.3211111111111111,-0.6377777777777778,-0.019745818810623872,-0.39474581881062387,0.021377090594688064
1590503747.3924398,-0.36,-4.338332370460386,8.647501444309421,0.4888888888888889,0.3211111111111111,-0.6377777777777778,-0.0625,-0.364577315377413,0.0
1590503747.4024398,-0.3539366855034021,-4.342126628993196,8.678189943489793,0.4962996066069529,0.3258270223862428,-0.6337355681133792,0.05118714681120977,-0.3125,0.03789571560373659
1590503747.4124398,-0.3452547177723727,-4.35,8.699490564455255,0.5011111111111111,0.3288888888888889,-0.6311111111111111,0.06568397215465907,-0.19386794430931814,0.0625
1590503747.4224398,-0.34385106460154524,-4.346148935398454,8.68689361239073,0.5011111111111111,0.3288888888888889,-0.6311111111111111,0.0,0.009707461278972762,0.0625
1590503747.4324398,-0.35,-4.327021707519735,8.682445731200664,0.5011111111111111,0.3288888888888889,-0.6311111111111111,0.16222865600332365,0.20611432800166182,0.0625
1590503747.4424398,-0.36134158020750196,-4.342683160415004,8.705670790103751,0.5011111111111111,0.3288888888888889,-0.6311111111111111,0.25,0.2854424381484437,0.0625
1590503747.4524398,-0.37,-4.34729021052191,8.718473192985394,0.4959330487311486,0.3307718206634207,-0.6249915828438827,0.22352127192064622,0.39193618423806137,0.0625
1590503747.4624398,-0.37,-4.324877285338266,8.709509141353063,0.4888888888888889,0.3333333333333333,-0.6166666666666667,0.1234660667283204,0.3719321334566408,0.0625
1590503747.4724398,-0.3633207940000473,-4.340037617999858,8.649924764000284,0.4888888888888889,0.3333333333333333,-0.6166666666666667,0.020754962500295737,0.08301985000118295,-0.020990074999408526
1590503747.4824398,-0.36,-4.345759072396815,8.651204638015926,0.4888888888888889,0.3333333333333333,-0.6166666666666667,-0.026505797519907604,-0.07951739255972282,0.017017392559722816
1590503747.4924397,-0.35862240381341504,-4.338622403813415,8.68275519237317,0.4888888888888889,0.3333333333333333,-0.6166666666666667,-0.0625,-0.17889002383384406,0.09917007150153218
1590503747.5024397,-0.3550772943908102,-4.33,8.72030917756324,0.4911454641736935,0.32712775130012084,-0.6200515295938734,-0.0625,-0.22019926982769156,0.03269926982769156
1590503747.5124397,-0.36,-4.346747352496218,8.723252647503783,0.4933333333333334,0.3211111111111111,-0.6233333333333333,0.007280635400907717,-0.2078290468986384,0.05521936459909228
1590503747.5224397,-0.3503935847033596,-4.335983961758399,8.67157433881344,0.4933333333333334,0.3211111111111111,-0.6233333333333333,0.12254009560400286,-0.09497995219799857,0.0
1590503747.5324397,-0.3510776347784829,-4.31,8.652155269556966,0.4933333333333334,0.3211111111111111,-0.6233333333333333,0.11826478263448194,-0.02788239131724097,0.1038528260482771
1590503747.5424397,-0.3702081554429707,-4.3202081554429705,8.690416310885942,0.4933333333333334,0.3211111111111111,-0.6233333333333333,0.0625,0.09570145727785051,0.09179854272214949
1590503747.5524397,-0.3696829658037712,-4.324841482901886,8.704841482901886,0.4835894677035617,0.33142814530733994,-0.6198943219345904,0.0625,0.3164629274528603,-0.032240731863215084
1590503747.5624397,-0.35548770629841697,-4.3290245874031665,8.709024587403166,0.4744444444444445,0.3411111111111111,-0.6166666666666667,0.006096328730212194,0.3528944930953183,-0.0625
1590503747.5724397,-0.35719271273733566,-4.332807287262664,8.676843723575987,0.4744444444444445,0.3411111111111111,-0.6166666666666667,-0.01754554539165193,0.22752277269582596,-0.040022772695825964
1590503747.5824397,-0.3650328107194782,-4.329934378561044,8.634770324963652,0.4744444444444445,0.3411111111111111,-0.6166666666666667,0.0625,0.12541013399347714,-0.031044933003261426
1590503747.5924397,-0.36362122119457935,-4.332757557610841,8.684484884778318,0.4744444444444445,0.3411111111111111,-0.6166666666666667,0.08513263246612106,0.0625,-0.01723473506775789
1590503747.6024396,-0.36724360716749954,-4.325512785665001,8.729294749827504,0.47965096423916764,0.337742186538055,-0.6166666666666667,0.125,0.010817634390616185,0.0625
1590503747.6124396,-0.35479535082715347,-4.34780697375927,8.759181403308613,0.4933333333333334,0.3288888888888889,-0.6166666666666667,0.09247094266970907,-0.14126452866514547,0.029970942669709073
1590503747.6224396,-0.3528334409817536,-4.357166559018246,8.674333118036493,0.4933333333333334,0.3288888888888889,-0.6166666666666667,0.02673633537865332,-0.3479180122719199,0.01770900613595995
1590503747.6324396,-0.3655829596412556,-4.344417040358744,8.64,0.4933333333333334,0.3288888888888889,-0.6166666666666667,0.0625,-0.5625,0.06978699551569506
1590503747.6424396,-0.35060515233144895,-4.340605152331449,8.67288196683993,0.4933333333333334,0.3288888888888889,-0.6166666666666667,0.0625,-0.4157055051788898,0.0
1590503747.6524396,-0.34,-4.334184286867841,8.714184286867841,0.4882192049393055,0.33074857194126267,-0.6194561912452273,0.0625,-0.19769641415198733,0.05230358584801268
1590503747.6624396,-0.35387704328158737,-4.349251362187725,8.710748637812275,0.4811111111111111,0.3333333333333333,-0.6233333333333333,0.03358949316335972,-0.06717898632671944,0.09608949316335971
1590503747.6724396,-0.3747155174985828,-4.350568965002834,8.66699137750992,0.4811111111111111,0.3333333333333333,-0.6233333333333333,-0.029471984366142553,0.11788793746457021,0.0625
1590503747.6824396,-0.37437808867543676,-4.334378088675437,8.652487645298253,0.4811111111111111,0.3333333333333333,-0.6233333333333333,0.0077738915570404465,0.25,0.0625
1590503747.6924396,-0.3611956957243432,-4.334402152137828,8.69641291282697,0.4811111111111111,0.3333333333333333,-0.6233333333333333,0.14504035258428252,0.2224865491385725,0.11752690172285502
1590503747.7024395,-0.3585618206521739,-4.331438179347826,8.738561820652174,0.47825717089371983,0.3314307065217391,-0.6266629302536232,0.30351137907608694,0.13398862092391306,0.13398862092391306
1590503747.7124395,-0.36612926103513665,-4.32,8.722904827245957,0.4744444444444445,0.3288888888888889,-0.6311111111111111,0.3024236444088127,0.11088423706079154,0.0625
1590503747.7224395,-0.3615682901480127,-4.32235243522202,8.676079274629968,0.4744444444444445,0.3288888888888889,-0.6311111111111111,0.17769818657492026,0.17769818657492026,0.04779727986238039
1590503747.7324395,-0.3707627504553734,-4.35,8.643855874316941,0.4744444444444445,0.3288888888888889,-0.6311111111111111,0.033633595173041896,0.004767190346083791,-0.06726719034608379
1590503747.7424395,-0.36438336092557705,-4.345616639074422,8.66,0.4744444444444445,0.3288888888888889,-0.6311111111111111,-0.027396005784856618,0.019688017354569848,0.027396005784856618
1590503747.7524395,-0.36327197422917623,-4.343364012885412,8.666728025770825,0.48079869100577804,0.33300046019328117,-0.6284946566446796,-0.020449838932351583,0.01987459733087897,0.0625
1590503747.7624395,-0.35947975306627505,-4.335780370400587,8.675260123466863,0.4933333333333334,0.3411111111111111,-0.6233333333333333,0.0625,-0.1875,0.032875771667890456
1590503747.7724395,-0.37,-4.330107781753131,8.634622763864042,0.4933333333333334,0.3411111111111111,-0.6233333333333333,0.0625,-0.15591318202146692,0.06317363595706618
1590503747.7824395,-0.37,-4.329891645208169,8.630325064375494,0.4933333333333334,0.3411111111111111,-0.6233333333333333,0.0625,-0.28294304362236444,0.030234173826581348
1590503747.7924395,-0.37,-4.328783947009546,8.695135788038185,0.4933333333333334,0.3411111111111111,-0.6233333333333333,0.0625,-0.27280099357101106,-0.00760033119033704
1590503747.8024395,-0.3781341576506955,-4.335932921174652,8.752201236476044,0.4915257427442899,0.33297695346041556,-0.6197181521552464,0.08791924265842349,-0.08791924265842349,0.0625
1590503747.8124394,-0.3846466809421842,-4.340706638115631,8.77,0.4888888888888889,0.3211111111111111,-0.6144444444444445,0.25883297644539616,-0.125,0.02904175588865096
1590503747.8224394,-0.3747322954243402,-4.34473229542434,8.701519840516424,0.4888888888888889,0.3211111111111111,-0.6144444444444445,0.47376946079362064,-0.3225389215872413,0.0658463071957471
1590503747.8324394,-0.36119615884765427,-4.335598079423827,8.653205761728518,0.4888888888888889,0.3211111111111111,-0.6144444444444445,0.39742797839351807,-0.5,0.014951985595678702
1590503747.8424394,-0.34484358264081255,-4.335156417359188,8.675156417359187,0.4888888888888889,0.3211111111111111,-0.6144444444444445,0.20361380424746076,-0.5966828254847645,-0.125
1590503747.8524394,-0.3293850361124746,-4.35,8.692459855550101,0.4891622061722335,0.32158941635696425,-0.6149910790111337,0.2384694271088984,-0.875,-0.13268704859406774
1590503747.8624394,-0.32807997444225545,-4.347306675185915,8.716533375929574,0.4933333333333334,0.3288888888888889,-0.6233333333333333,0.045666719911967774,-0.8918332800880322,-0.1826668796478711
1590503747.8724394,-0.34939377346683353,-4.34,8.67909066020025,0.4933333333333334,0.3288888888888889,-0.6233333333333333,0.0018944579161451816,-0.9185554208385482,-0.0037889158322903633
1590503747.8824394,-0.3458502772643253,-4.353208564386938,8.697550831792976,0.4933333333333334,0.3288888888888889,-0.6233333333333333,0.17807493838570548,-0.24645717806531114,-0.1415107054836722
1590503747.8924394,-0.3846146025878004,-4.385512168823166,8.813843807763401,0.4933333333333334,0.3288888888888889,-0.6233333333333333,0.460731477202711,-0.08493915588416515,-0.18189021102895872
1590503747.9024394,-0.35717084115375486,-4.292731214808104,8.609706167885573,0.4933333333333334,0.3277886604486825,-0.6233333333333333,1.357929907449356,-0.518906543265808,-0.125
1590503747.9124393,-0.3382532644510434,-4.3682532644510434,8.789126632225521,0.4933333333333334,0.3211111111111111,-0.6233333333333333,0.7931217711426596,0.15775129154293618,-0.10862435422853191
1590503747.9224393,-0.32651112334985566,-4.340233314975216,8.714888766501444,0.4933333333333334,0.3211111111111111,-0.6233333333333333,0.07993082327809209,0.662778083746391,0.0625
1590503747.9324393,-0.3406187608616579,-4.320618760861658,8.587425130339895,0.4933333333333334,0.3211111111111111,-0.6233333333333333,0.375,0.9961327446146385,0.0625
1590503747.9424393,-0.353312934434638,-4.33,8.703312934434638,0.4933333333333334,0.3211111111111111,-0.6233333333333333,0.2714707989175613,0.9167941597835123,0.0625
1590503747.9524393,-0.3614799570508232,-4.332959914101647,8.71443987115247,0.4905378589040007,0.32291994750656167,-0.6244844110395291,0.08099946313528991,0.865750268432355,0.08099946313528991
1590503747.9624393,-0.42145010637220137,-4.305899908823827,8.666499848039711,0.4744444444444445,0.3333333333333333,-0.6311111111111111,0.14156240502482018,0.6746872150744605,0.1645312025124101
1590503747.9724393,-0.40962567845779524,-4.303607835797617,8.62699107866991,0.4744444444444445,0.3333333333333333,-0.6311111111111111,-0.021145267951837285,0.33294341506020336,0.10408868301204068
1590503747.9824393,-0.26731858800845415,-4.415608847194928,8.773251325596055,0.4744444444444445,0.3333333333333333,-0.6311111111111111,-0.5935066650598835,0.17276549000704514,0.34909294004227076
1590503747.9924393,-0.356944572502571,-4.350833717507713,8.719306003759,0.4744444444444445,0.3333333333333333,-0.6311111111111111,-1.0399393595517572,0.27864463278839674,0.7170178907053442
1590503748.0024393,-0.34207064080286537,-4.306211922408596,8.66724724281003,0.4744444444444445,0.3333333333333333,-0.6311111111111111,-0.01735655519699275,0.41808774247313735,0.25220752508954214
1590503748.0124393,-0.34410192965273123,-4.34,8.733847105520903,0.4933333333333334,0.3211111111111111,-0.6377777777777778,-0.0625,0.125,0.012818530164785128
1590503748.0224392,-0.3585160747117549,-4.34,8.712225887932368,0.4933333333333334,0.3211111111111111,-0.6377777777777778,-0.0625,0.125,0.057862733474234075
1590503748.0324392,-0.3839385755890919,-4.330907863383637,8.632122848821815,0.4933333333333334,0.3211111111111111,-0.6377777777777778,-0.09279024357956049,0.3314419512840879,0.1685580487159121
1590503748.0424392,-0.3640444190258317,-4.318933371461252,8.680844533409589,0.4933333333333334,0.3211111111111111,-0.6377777777777778,0.16222238108855208,0.39361119054427607,0.125
1590503748.0524392,-0.352629127312968,-4.336056309030548,8.735258254625936,0.4927490828193405,0.32023473534012176,-0.6369014020067885,0.2335679542939496,0.4128519314409244,0.10035193144092441
1590503748.0624392,-0.36082598594900217,-4.312293503512749,8.77,0.4888888888888889,0.3144444444444445,-0.6311111111111111,0.1680031908640524,0.25,-0.0625
1590503748.0724392,-0.3351539754640724,-4.3303079509281455,8.739076147215565,0.4888888888888889,0.3144444444444445,-0.6311111111111111,0.3769246933009049,0.1211506133981902,-0.09471234665045244
1590503748.0824392,-0.3501626168224299,-4.35934953271028,8.65048785046729,0.4888888888888889,0.3144444444444445,-0.6311111111111111,0.5543691588785047,-0.24796728971962617,-0.1875
1590503748.0924392,-0.36,-4.322842333084772,8.694211665423857,0.4888888888888889,0.3144444444444445,-0.6311111111111111,0.08026458177982285,-0.10723541822017715,-0.13420625466053143
1590503748.1024392,-0.3591178976788575,-4.330882102321143,8.734410511605713,0.48928093436495224,0.3157185922416504,-0.6311111111111111,0.10846058147857801,-0.05147372098571867,0.005513139507140666
1590503748.1124392,-0.3538895004992447,-4.328331498502266,8.752773496505286,0.4933333333333334,0.3288888888888889,-0.6311111111111111,-0.0625,0.0625,0.0625
1590503748.1224391,-0.3558408688249235,-4.314159131175076,8.668408688249235,0.4933333333333334,0.3288888888888889,-0.6311111111111111,-0.08849456984422815,0.16647827937691262,0.0625
1590503748.1324391,-0.3461958369710058,-4.316195836971006,8.613804163028993,0.4933333333333334,0.3288888888888889,-0.6311111111111111,-0.22010407572485413,0.3362760189312135,0.014947962137572941
1590503748.1424391,-0.34293052837573385,-4.3158610567514675,8.637583170254402,0.4933333333333334,0.3288888888888889,-0.6311111111111111,-0.5032106164383562,0.466579011741683,-0.044184197651663405
1590503748.152439,-0.35133080195800354,-4.328669198041997,8.682661603916006,0.49170679760688457,0.32785382069933056,-0.6319983124164468,-0.8208175122375223,0.7124525367125669,0.016635024475044603
1590503748.162439,-0.36,-4.324155047788702,8.706925079647837,0.4811111111111111,0.3211111111111111,-0.6377777777777778,-0.875,0.8663436504402042,0.10768730088040834
1590503748.172439,-0.3640120876233248,-4.34197582475335,8.705867036143427,0.4811111111111111,0.3211111111111111,-0.6377777777777778,-0.7746978094168797,0.7623489047084399,0.050151095291560165
1590503748.182439,-0.36214109429569263,-4.33,8.667506169965076,0.4811111111111111,0.3211111111111111,-0.6377777777777778,-0.625,0.6629409196740396,0.125
1590503748.192439,-0.35298678812060075,-4.33,8.718960364361802,0.4811111111111111,0.3211111111111111,-0.6377777777777778,-0.625,0.5503302969849814,0.10633257424624534
1590503748.202439,-0.3591649116544708,-4.3308350883455295,8.744175441727647,0.4799048723897912,0.3217606242687449,-0.6365715390564578,-0.6093420935213278,0.375,0.06771930215955738
1590503748.212439,-0.35167910048188467,-4.3383208995181155,8.781604497590576,0.46909203402938904,0.327582921847423,-0.6257587006960557,-0.4689831340353382,0.375,0.11450562198822059
1590503748.222439,-0.36149510698897247,-4.327009786022055,8.669534251077192,0.4666666666666667,0.3288888888888889,-0.6233333333333333,-0.2938111626378442,0.25934441868107794,0.0
1590503748.232439,-0.3691528518220989,-4.311694296355802,8.615930037245308,0.4666666666666667,0.3288888888888889,-0.6233333333333333,-0.19808935222376398,0.307205323888118,0.0
1590503748.242439,-0.3686386077128485,-4.3313613922871514,8.67,0.4666666666666667,0.3288888888888889,-0.6233333333333333,-0.05399129820530336,0.2670174035893933,-0.01701740358939328
1590503748.252439,-0.3621269328696516,-4.3378730671303485,8.67,0.4666666666666667,0.3288888888888889,-0.6233333333333333,-0.01329333043532261,0.3484133391293548,-0.09841333912935478
1590503748.262439,-0.36911529617869265,-4.339115296178693,8.71,0.5011111111111111,0.3211111111111111,-0.6233333333333333,-0.18473530055841453,0.12776469944158547,-0.056970601116829084
1590503748.272439,-0.35074542866527975,-4.32074542866528,8.71,0.5011111111111111,0.3211111111111111,-0.6233333333333333,-0.12732946457899924,0.18517053542100076,0.05784107084200153
1590503748.282439,-0.35225308641975306,-4.332253086419753,8.630277777777778,0.5011111111111111,0.3211111111111111,-0.6233333333333333,-0.04841820987654321,0.125,0.0625
1590503748.292439,-0.3598234784492094,-4.339823478449209,8.698411306042884,0.5011111111111111,0.3211111111111111,-0.6233333333333333,-0.0011032596924409818,0.125,0.0625
1590503748.302439,-0.36,-4.33,8.723366261839736,0.5006747438355899,0.32073708201780726,-0.6233333333333333,0.18048695450055205,0.128506522749724,-0.055486954500552035
1590503748.312439,-0.36,-4.332411998775635,8.78,0.4933333333333334,0.3144444444444445,-0.6233333333333333,0.0625,0.1875,0.03235001530456076
1590503748.322439,-0.3541873212583413,-4.34,8.742217588179217,0.4933333333333334,0.3144444444444445,-0.6233333333333333,0.11699386320305052,0.1875,-0.0625
1590503748.332439,-0.34,-4.334486599058312,8.655513400941688,0.4933333333333334,0.3144444444444445,-0.6233333333333333,0.2155412441144513,0.13581186617167693,-0.045270622057225644
1590503748.342439,-0.3419802867383513,-4.321980286738351,8.673960573476702,0.4933333333333334,0.3144444444444445,-0.6233333333333333,0.11262320788530467,0.0,0.024753584229390682
1590503748.352439,-0.35,-4.328471407624633,8.693057184750733,0.4919745845552298,0.31478413163897045,-0.624409009449332,0.05931543255131965,0.003184567448680352,0.1186308651026393
1590503748.362439,-0.35269703883735926,-4.308091116512077,8.736514805813204,0.4666666666666667,0.3211111111111111,-0.6444444444444445,-0.05056947820048609,0.09621298546699072,0.0
1590503748.372439,-0.35800111973126447,-4.326002239462529,8.688006718387587,0.4666666666666667,0.3211111111111111,-0.6444444444444445,-0.2249790050387907,0.2249790050387907,0.012493001679596898
1590503748.382439,-0.35129184995601054,-4.312583699912021,8.647751099736064,0.4666666666666667,0.3211111111111111,-0.6444444444444445,-0.35077781332480207,0.35077781332480207,0.05442593777493402
1590503748.392439,-0.3624426778987334,-4.294885355797467,8.623434728443033,0.4666666666666667,0.3211111111111111,-0.6444444444444445,-0.882633368433542,0.6083002106012517,0.13263336843354195
1590503748.4024389,-0.37488387269006024,-4.319767745380121,8.691861299795331,0.4666666666666667,0.3211111111111111,-0.6444444444444445,-0.9215121021564382,0.8415726129386291,0.17151210215643817
1590503748.4124389,-0.37064886267221525,-4.330324431336107,8.729675568663893,0.4744444444444445,0.3288888888888889,-0.6233333333333333,-0.7520276958506728,0.6209446082986546,0.1875
1590503748.4224389,-0.3875948446527413,-4.338797422326371,8.72120257767363,0.4744444444444445,0.3288888888888889,-0.6233333333333333,-0.8049838895398166,0.5150322209203668,0.1875
1590503748.4324389,-0.35,-4.330502970656266,8.6428772279922,0.4744444444444445,0.3288888888888889,-0.6233333333333333,-0.517982674951245,0.2859653499024899,0.04766089165041498
1590503748.4424388,-0.35,-4.3016019651286,8.628009825643002,0.4744444444444445,0.3288888888888889,-0.6233333333333333,-0.41504912821500817,0.020024564107504094,-0.010012282053752047
1590503748.4524388,-0.35,-4.309682689528946,8.668413447644735,0.4744444444444445,0.3288888888888889,-0.6233333333333333,-0.6170672382236779,0.12103361911183894,-0.06051680955591947
1590503748.4624388,-0.36744982137057486,-4.3012750893147125,8.661275089314712,0.4744444444444445,0.32210284724477645,-0.6301193749774457,-0.9521841506982787,0.28859207534913933,-0.0625
1590503748.4724388,-0.4173903338951396,-4.27478066779028,8.636951669475698,0.4744444444444445,0.3211111111111111,-0.6311111111111111,-2.0272770236414157,-0.3071561973306609,0.11143123946613219
1590503748.4824388,-0.42085291697147037,-4.236123582662765,8.613023500365765,0.4744444444444445,0.3211111111111111,-0.6311111111111111,-3.0431244856437454,-1.2170583394294074,0.3449630235003658
1590503748.4924388,-0.47529926426725,-4.142350367866375,8.676829190693976,0.4744444444444445,0.3211111111111111,-0.6311111111111111,-3.9514963213362497,-2.0286861205010935,1.0317334460131238
1590503748.5024388,-0.5587015311195069,-4.1006492344402465,8.768571684231457,0.4744444444444445,0.3211111111111111,-0.6311111111111111,-4.368507655597535,-2.1850653708490753,2.9082844501889045
1590503748.5124388,-0.5263292154660677,-4.011835392266966,8.798987646398203,0.4933333333333334,0.3211111111111111,-0.6166666666666667,-3.5154319749719236,-1.7883743783090005,7.944599310123536
1590503748.5224388,-0.5150071304072255,-4.016661913061849,8.718288174087572,0.4933333333333334,0.3211111111111111,-0.6166666666666667,-2.708273913273121,-1.125,11.74019238895051
1590503748.5324388,-0.5137861949923392,-3.8366678303368826,8.610411163476272,0.4933333333333334,0.3211111111111111,-0.6166666666666667,-2.752055817381354,-1.377055817381354,14.164864189988558
1590503748.5424387,-0.40988445736491597,-3.1917331395262605,8.810462170540337,0.4933333333333334,0.3211111111111111,-0.6166666666666667,-3.7622764049776776,-2.348280765636819,15.311777858530725
1590503748.5524387,-0.4036633986443393,-3.2850490203349105,8.835346405422642,0.4933333333333334,0.3211111111111111,-0.6166666666666667,-4.423263894038949,-0.9096609365034634,15.272896241527121
1590503748.5624387,-0.46522210548434545,-3.4776911115780624,8.828259298171885,0.490112488618057,0.3211111111111111,-0.6214979337395812,-3.6801717797856695,0.8886557049800379,14.842361840722841
1590503748.5724387,-0.4756466636442319,-3.748681325475003,8.916043976425009,0.4888888888888889,0.3211111111111111,-0.6233333333333333,-1.3857249206610889,-1.0,14.722950068004781
1590503748.5824387,-0.4324296253554795,-3.6363170259242468,8.578951077772741,0.4888888888888889,0.3211111111111111,-0.6233333333333333,-0.2512776655813378,-1.0,15.69533342950171
1590503748.5924387,-0.31598790322580644,-2.9540711405529954,8.698443260368665,0.4888888888888889,0.3211111111111111,-0.6233333333333333,-1.918040754608295,-0.23652613767281105,19.21108150921659
1590503748.6024387,-0.4100600244544073,-2.83,9.039639853273554,0.48890222765653496,0.3211111111111111,-0.6232899823384835,-3.1150584497387825,0.11580875541887435,29.2152613101634
1590503748.6124387,-0.42560080032605874,-2.83,8.946395198043648,0.49235573340579086,0.3211111111111111,-0.6120660886534021,-0.5411174459965169,-2.2638725499277483,36.40287015080218
1590503748.6224387,-0.5485486392055904,-2.8214513607944096,8.710159525560867,0.4933333333333334,0.3211111111111111,-0.6088888888888889,-1.2368431638470025,-3.4747810546156677,48.81429868517837
1590503748.6324387,-0.5460370887844532,-2.8324148355137813,8.768792582243108,0.4933333333333334,0.3211111111111111,-0.6088888888888889,-2.894350946272069,-4.266251746475295,57.16098056649308
1590503748.6424387,-0.5981294472064612,-2.874388341619384,8.774903986545178,0.4933333333333334,0.3211111111111111,-0.6088888888888889,-2.074190954959617,-5.682254606612823,65.28311724915446
1590503748.6524386,-0.6446406195131869,-3.01392185853956,8.860174469107509,0.4933333333333334,0.3211111111111111,-0.6088888888888889,-1.7834961280425823,-5.294661504056776,71.19391206313416
1590503748.6624386,-0.6913912612475217,-3.050695630623761,8.782782522495044,0.4933333333333334,0.3288888888888889,-0.6311111111111111,-1.2978246053835596,-6.69619538279701,79.61628912803111
1590503748.6724386,-0.7073829495195973,-3.0586914747597986,8.814765899039195,0.4933333333333334,0.3288888888888889,-0.6311111111111111,-1.8475388897361598,-6.796143434497484,85.26335404910782
1590503748.6824386,-0.7308981869452111,-3.1157284985205633,8.792135750739718,0.4933333333333334,0.3288888888888889,-0.6311111111111111,-2.06811366840757,-7.11726522628433,90.71544050479577
1590503748.6924386,-0.7886623111175999,-3.1886623111175996,8.7313376888824,0.4933333333333334,0.3288888888888889,-0.6311111111111111,-2.0033442222060005,-7.554139444484999,98.70946100080297
1590503748.7024386,-0.8349949775079705,-3.207997991003188,8.801991964012753,0.4933333333333334,0.3288888888888889,-0.6311111111111111,-2.6749246626195573,-7.8437186094248155,103.99317869153164
1590503748.7124386,-0.8236646261477918,-3.177329252295584,8.801832313073897,0.4933333333333334,0.2953106204149055,-0.6311111111111111,-2.2395195671184958,-8.385480432881504,108.79948759291648
1590503748.7224386,-0.7934418467002072,-3.0003255401006217,8.76590115418763,0.4933333333333334,0.2877777777777778,-0.6311111111111111,-1.7663879846108317,-9.270494229061853,115.06151968037881
1590503748.7324386,-0.7272400118378218,-2.8017200355134655,8.72452500739864,0.4933333333333334,0.2877777777777778,-0.6311111111111111,-1.3009063332346849,-9.477374963006806,118.83709307487422
1590503748.7424386,-0.8272498026174127,-2.8872498026174127,8.425063042802115,0.4933333333333334,0.2877777777777778,-0.6311111111111111,-1.3058592721965692,-9.5,122.76913414838386
1590503748.7524385,-0.9112001328998268,-3.0958003654745236,8.950701046586136,0.4933333333333334,0.2877777777777778,-0.6311111111111111,-4.59438112585139,-9.61125020765598,126.46938112585138
1590503748.7624385,-0.9703063127851316,-3.052924916286491,8.7265465087534,0.5054441123371614,0.25517183430593326,-0.6367007014205701,-1.5938434051733825,-10.096621682360608,130.3335590039778
1590503748.7724385,-1.002109338902545,-3.0188367494039587,8.562964311456927,0.5077777777777778,0.2488888888888889,-0.6377777777777778,-2.114094525662114,-8.677733472563624,134.6928435784649
1590503748.7824385,-1.1416428558227216,-3.235888886835345,8.942805551961852,0.5077777777777778,0.2488888888888889,-0.6377777777777778,-4.148958314081357,-12.166071395568041,136.19476685086957
1590503748.7924385,-1.0077933349405634,-2.991002355210207,8.692377649611483,0.5077777777777778,0.2488888888888889,-0.6377777777777778,-3.4403651966693247,-9.32162991673312,141.0125294401276
1590503748.8024385,-1.1400246647998071,-3.177681879717375,8.902392114682046,0.5077777777777778,0.2488888888888889,-0.6377777777777778,-3.4889796561763995,-10.536991404409992,143.34602349646718
1590503748.8124385,-1.27488951033613,-3.281695454296211,8.693194056039918,0.5522222222222222,0.18777777777777774,-0.6588888888888889,-1.6583216811975654,-12.214066869550914,147.63313593244504
1590503748.8224385,-1.2135592476832813,-3.1820337774853322,8.73152547019795,0.5522222222222222,0.18777777777777774,-0.6588888888888889,-2.808264105938477,-11.782838460273071,149.98093504962438
1590503748.8324385,-1.468251963653165,-3.365105498228862,8.732097643616202,0.5522222222222222,0.18777777777777774,-0.6588888888888889,-3.4090944093639304,-12.622814954566456,153.4020868627753
1590503748.8424385,-1.4221110646630437,-3.2359109810565223,8.787466722404346,0.5522222222222222,0.18777777777777774,-0.6588888888888889,-2.6593048007744606,-12.565138830828804,155.766807936019
1590503748.8524384,-1.4112366438956034,-3.1949465755824136,8.632259590120862,0.5522222222222222,0.18777777777777774,-0.6588888888888889,-2.8440839026099143,-12.672041951304957,157.68244219653178
1590503748.8624384,-1.4882936957342394,-3.3661608154020386,9.148269158172896,0.5522222222222222,0.13558198062161822,-0.6447525271590957,-3.4255025481313703,-12.259331351453378,159.0996720460551
1590503748.8724384,-1.4511746114111848,-3.117634974172701,8.635857254050993,0.5522222222222222,0.13444444444444445,-0.6444444444444445,-1.0109132131990468,-12.917311366370262,158.76101198197986
1590503748.8824384,-1.4890575815738964,-3.1197643953934744,8.854345489443377,0.5522222222222222,0.13444444444444445,-0.6444444444444445,-5.026340571017275,-11.289758277351247,157.04123080614204
1590503748.8924384,-1.5724632588444152,-3.134993319789894,8.762543421365692,0.5522222222222222,0.13444444444444445,-0.6444444444444445,-3.6256680210106333,-12.88989435201962,154.70414790717254
1590503748.9024384,-1.592201467829158,-2.9996264209248427,8.761194128683368,0.5522222222222222,0.13444444444444445,-0.6444444444444445,-3.173740826067763,-12.316461000441452,150.86682795773095
1590503748.9124384,-1.654315157839812,-2.905869473599711,8.844315157839812,0.5522222222222222,0.09,-0.68,-2.477377631499729,-10.994632894499187,144.52927762949287
1590503748.9224384,-1.5448891207931124,-2.737521724297096,8.734889120793113,0.5522222222222222,0.09,-0.68,-2.3195516165285275,-10.521154849585583,140.37319256858456
1590503748.9324384,-1.571143629959719,-2.7177127400805623,8.559618790013428,0.5522222222222222,0.09,-0.68,-3.827348751678375,-9.787567621475413,134.33853913288837
1590503748.9424384,-1.5956292202611455,-2.6687415594777093,8.551456926579618,0.5522222222222222,0.09,-0.68,-2.8071158224522756,-11.930056772850222,129.5434443655257
1590503748.9524384,-1.7395961362134038,-2.7775546410218137,8.763067786852037,0.5522222222222222,0.09,-0.68,-2.028042838561102,-9.235874629507219,125.70271419280552
1590503748.9624383,-1.7602291080738803,-2.6898036216509595,8.80022910807388,0.5577777777777778,0.0033333333333333327,-0.6877777777777778,-2.1272501685827536,-9.498363513757997,119.67113513757998
1590503748.9724383,-1.8085179520073684,-2.6484131839936844,8.848517952007368,0.5577777777777778,0.0033333333333333327,-0.6877777777777778,-2.6015156000723674,-9.15344319994737,116.2219319994737
1590503748.9824383,-1.8770193861066236,-2.752250403877221,9.029865912762519,0.5577777777777778,0.0033333333333333327,-0.6877777777777778,-1.6957895799676899,-8.588580371567044,109.98556138933765
1590503748.9924383,-1.8025013057557715,-2.590911939830774,8.462282461088478,0.5577777777777778,0.0033333333333333327,-0.6877777777777778,0.0482672620912985,-6.625032643894286,106.07676538180299
1590503749.0024383,-1.8344938016528924,-2.579887101534829,8.431908205430933,0.5577777777777778,0.0033333333333333327,-0.6877777777777778,-1.2078475501770956,-7.280885662632821,100.7043886511216
1590503749.0124383,-1.9657726431952847,-2.6460162397717655,8.719837602282347,0.5480396972198709,-0.012601707579605189,-0.6988437784117628,-3.6991880114117315,-8.975101498573533,92.95069481455937
1590503749.0224383,-2.103375298119404,-2.613312350940298,8.735520584900497,0.5333333333333333,-0.03666666666666667,-0.7155555555555555,-1.442433631778551,-5.823940943034758,81.39058773507448
1590503749.0324383,-2.0821975314491485,-2.4987901257965937,8.804139916135606,0.5333333333333333,-0.03666666666666667,-0.7155555555555555,-2.28343618961882,-5.958796285328469,71.99007219682073
1590503749.0424383,-2.1537893212411863,-2.3977633484485175,8.745434343913962,0.5333333333333333,-0.03666666666666667,-0.7155555555555555,-1.913816742242587,-5.13528139170485,63.472384618123975
1590503749.0524383,-2.2498379696846507,-2.442405482316046,8.889729949474418,0.5333333333333333,-0.03666666666666667,-0.7155555555555555,-1.126350252627911,-4.501012689470933,57.3379987223416
1590503749.0624382,-2.2208255287266288,-2.3712382930899434,8.851238293089942,0.5168959802018414,-0.07502049064014804,-0.7385678499396444,-1.2448404454585704,-3.141338589381194,48.71959183325954
1590503749.0724382,-2.228463184059329,-2.336147263762683,8.866926368118659,0.5166666666666667,-0.07555555555555556,-0.7388888888888889,-0.6681560959211116,-3.4952643025956562,43.22972016217758
1590503749.0824382,-2.2465911063952926,-2.2968177872094144,8.68749782965178,0.5166666666666667,-0.07555555555555556,-0.7388888888888889,-0.5625,-2.3181670203530436,37.739292948779784
1590503749.0924382,-2.3062409288824384,-2.332180696661829,8.748421625544266,0.5166666666666667,-0.07555555555555556,-0.7388888888888889,-0.07917951741654572,-1.6670559687953557,33.16562726777939
1590503749.1024382,-2.310187854958497,-2.330187854958497,8.79,0.5166666666666667,-0.07555555555555556,-0.7388888888888889,-0.5354048347167614,-1.706376510848988,27.745121596039027
1590503749.1124382,-2.3682981062919977,-2.371223579718998,8.900984422724497,0.5062322337609448,-0.0945272517477771,-0.7616549243195547,-0.875,-1.278921044593769,20.680999923640805
1590503749.1224382,-2.2920496432315445,-2.304613979912752,8.781792296506712,0.5044444444444445,-0.09777777777777777,-0.7655555555555555,-0.20751961381082817,-0.6770738223259274,16.239516756281493
1590503749.1324382,-2.2478110932790543,-2.338110932790543,8.824977492464868,0.5044444444444445,-0.09777777777777777,-0.7655555555555555,0.43159666497044663,0.35728999491133995,8.99897003562062
1590503749.1424382,-2.2319845373597875,-2.3539948457865956,8.992113392694893,0.5044444444444445,-0.09777777777777777,-0.7655555555555555,0.34987114466489355,1.1254832075066492,3.321359836783242
1590503749.1524382,-2.2308381388253244,-2.312066514111365,8.727760488176964,0.5044444444444445,-0.09777777777777777,-0.7655555555555555,1.1983371472158657,2.9225057208237986,-3.293348588863463
1590503749.1624382,-2.328923500275179,-2.4044929003852507,8.981325701706108,0.5004922888766588,-0.09316692961536109,-0.7701664037179722,-0.8159108420473311,1.309089157952669,-11.983615850302698
1590503749.1724381,-2.398814330288335,-2.47237133942333,9.245413706251645,0.4977777777777778,-0.09,-0.7733333333333333,-2.75,0.42170172173978426,-21.864941637532425
1590503749.1824381,-2.294753506428452,-2.316178201703122,8.541849849724496,0.4977777777777778,-0.09,-0.7733333333333333,1.7533355422441144,4.155048578644181,-26.53304495742194
1590503749.1924381,-2.548325810422651,-2.5313910545752973,9.205999179318836,0.4977777777777778,-0.09,-0.7733333333333333,-1.1715993024210092,3.2043496101764464,-33.890618588428396
1590503749.202438,-2.463578451287885,-2.4513398878686927,8.888643861217194,0.4977777777777778,-0.09,-0.7733333333333333,-1.4309640854798082,3.630616722190623,-38.69975420492403
1590503749.212438,-2.374986657178438,-2.3833244381189584,8.696648876237917,0.4712898719748035,-0.14093828039033518,-0.7988024735285009,1.4329727065172273,5.359750266856431,-43.19872279546937
1590503749.222438,-2.37,-2.4164177715747845,8.872088857873925,0.4688888888888889,-0.14555555555555555,-0.8011111111111111,-0.2471941149104444,5.443097231914399,-47.6539020702489
1590503749.232438,-2.37,-2.4538604444444445,8.695302444444444,0.4688888888888889,-0.14555555555555555,-0.8011111111111111,0.9909874999999999,5.0142444444444445,-51.236916666666666
1590503749.242438,-2.3160963883226278,-2.433048194161314,8.646524097080658,0.4688888888888889,-0.14555555555555555,-0.8011111111111111,0.7867658371475825,6.285090291934305,-54.339231797376826
1590503749.252438,-2.394881712971414,-2.515761564017378,8.808722755649667,0.4688888888888889,-0.14555555555555555,-0.8011111111111111,0.07799208681683761,6.5954944142236505,-57.643033980139464
1590503749.262438,-2.4780587219343695,-2.5796704663212435,8.808681865284974,0.4726170024947227,-0.16186605258107847,-0.7950529265016312,0.07669257340241797,7.314671848013817,-61.67158462867012
1590503749.272438,-2.360773943405522,-2.5853786174838804,8.799209348156715,0.4777777777777778,-0.18444444444444444,-0.7866666666666666,0.168325461088619,7.663557933294776,-66.30268647044963
1590503749.282438,-2.3241244502926004,-2.6641244502926003,8.853444371342498,0.4777777777777778,-0.18444444444444444,-0.7866666666666666,-1.0113057931368814,7.375361421794383,-71.70377913016378
1590503749.292438,-2.2413257801629896,-2.631205028821308,8.735662890081494,0.4777777777777778,-0.18444444444444444,-0.7866666666666666,0.10089631782945752,7.8606918356191615,-75.00224855893461
1590503749.302438,-2.139557438476859,-2.6050737602538567,8.847139047361846,0.4777777777777778,-0.18444444444444444,-0.7866666666666666,0.2361699524018499,8.06342200317321,-78.78227011106235
1590503749.312438,-2.0321307974831306,-2.578852318993252,8.803113913959514,0.5002733251715401,-0.1593532569667866,-0.7589798391051131,-0.15214923269652358,6.956961962246961,-84.39294586168607
1590503749.322438,-2.074002247664536,-2.6580030905387373,8.838003090538736,0.5066666666666667,-0.15222222222222226,-0.7511111111111111,0.6000210718550256,7.725038631734214,-88.02509306735969
1590503749.332438,-1.982301243666513,-2.672307231690465,8.813843390142791,0.5066666666666667,-0.15222222222222226,-0.7511111111111111,-0.06735663288807003,7.615361584523261,-91.57228811607554
1590503749.342438,-1.9852178709321566,-2.7333921676778816,8.652084942084942,0.5066666666666667,-0.15222222222222226,-0.7511111111111111,0.611969111969112,8.512513789299504,-94.5945945945946
1590503749.352438,-2.010519468553633,-2.8125973427681648,8.779350433965392,0.5066666666666667,-0.15222222222222226,-0.7511111111111111,0.835633303849485,8.214286536937735,-97.37378033611587
1590503749.362438,-1.98907957448431,-2.89092042551569,8.875790978762344,0.5142249929038353,-0.14809949882013024,-0.7724118486885864,0.8034515956838373,8.335510637892249,-101.03367712662524
1590503749.372438,-1.999987323348514,-3.0374461242311845,8.927458800882672,0.5188888888888888,-0.14555555555555555,-0.7855555555555556,1.0624207709282125,8.8125,-104.87389079299497
1590503749.382438,-1.9154413542926239,-3.0484804514308745,8.755122934300685,0.5188888888888888,-0.14555555555555555,-0.7855555555555556,1.1742492946392584,8.8125,-108.3602126158807
1590503749.392438,-1.9064763987517506,-3.0564763987517507,8.48580681622724,0.5188888888888888,-0.14555555555555555,-0.7855555555555556,2.423229906381306,9.636319937587537,-111.32800482836572
1590503749.402438,-1.91,-3.129343017008189,8.539680586949272,0.5188888888888888,-0.14555555555555555,-0.7855555555555556,1.6311024752658687,9.379106143698818,-113.54607542520473
1590503749.412438,-1.898906786539302,-3.269919460573141,8.78093213460698,0.4893069863270275,-0.14555555555555555,-0.7417989913494689,1.2899887619404384,9.3671606730349,-117.19915168258726
1590503749.422438,-1.8632088364935708,-3.2939253018961425,9.020030515636003,0.4655555555555556,-0.14555555555555555,-0.7066666666666667,1.890577319318745,10.180878498213401,-119.48461340340627
1590503749.432438,-1.746954391566431,-3.220184966006991,8.28600506454543,0.4655555555555556,-0.14555555555555555,-0.7066666666666667,4.387484173295533,12.24460515812942,-121.20614970686191
1590503749.442438,-1.7581646414959116,-3.3305645502817867,8.514046323744992,0.4655555555555556,-0.14555555555555555,-0.7066666666666667,2.7205915887546013,10.035003420529694,-123.68308588787178
1590503749.4524379,-1.7715618146500407,-3.4606247258600162,9.003642772103516,0.4655555555555556,-0.14555555555555555,-0.7066666666666667,-0.23762649602105396,7.6380333980825865,-126.4622470079579
1590503749.4624379,-1.6582135610906068,-3.447501690788584,8.624647446426156,0.47865159878821456,-0.10364821721104692,-0.6817841845246146,1.6630294583679543,10.064766864408417,-127.8326058916736
1590503749.4724379,-1.7383474807258001,-3.6375212210887002,9.203052721750643,0.4988888888888889,-0.03888888888888889,-0.6433333333333333,2.776769721984269,10.75822073826026,-129.19761895491004
1590503749.4824378,-1.6295534777215914,-3.487108100372102,9.113549279648888,0.4988888888888889,-0.03888888888888889,-0.6433333333333333,2.397230703177178,9.50971400629711,-131.42500715580573
1590503749.4924378,-1.2742705215062233,-3.210723570190641,7.573464235071688,0.4988888888888889,-0.03888888888888889,-0.6433333333333333,10.728643945958721,2.173268374822751,-132.57147077359383
1590503749.5024378,-1.1906870381465948,-3.230687038146595,7.471495905731975,0.5066140736302509,-0.0006921421121540983,-0.6403290948228036,6.580350009986018,5.625948671859397,-132.29131715598163
1590503749.5124378,-1.1660491782093303,-3.2060491782093306,7.919904956590185,0.5164692176051566,0.04803606976376863,-0.6364965388325625,-3.9215377882728895,14.557172899117706,-131.7061679824716
1590503749.5224378,-1.2452433624593835,-3.4077806959947474,8.488183073219187,0.5188888888888888,0.06,-0.6355555555555555,-0.8726061501422633,13.486777530851727,-131.49590362307862
1590503749.5324378,-1.2931749272239235,-3.557809912668708,8.777334694340478,0.5188888888888888,0.06,-0.6355555555555555,2.620652338285887,10.490874636119617,-131.57162536388037
1590503749.5424378,-1.1431718903159325,-3.500158091839043,8.486027596953779,0.5188888888888888,0.06,-0.6355555555555555,2.91372338954935,10.188488073994018,-130.94145229597606
1590503749.5524378,-1.0634363247548118,-3.4503893518177127,8.410859081188702,0.5188888888888888,0.06,-0.6355555555555555,3.2851513531450482,10.48682803628051,-130.3256719637195
1590503749.5624378,-1.0627549122846325,-3.535854188604844,8.793430197387583,0.5160154544345613,0.10022808236058522,-0.6355555555555555,2.58191248627697,10.24573745883091,-129.4676738623888
1590503749.5724378,-1.0641292722622646,-3.6146454312950476,8.918678214368752,0.5133333333333333,0.13777777777777778,-0.6355555555555555,2.279637003022553,9.783466054405952,-128.78548593350385
1590503749.5824378,-0.98,-3.573027679551274,8.439673210584075,0.5133333333333333,0.13777777777777778,-0.6355555555555555,2.607098219729301,9.896277892939885,-127.36282922814291
1590503749.5924377,-0.9888790118835968,-3.698790118835969,8.548612332740714,0.5133333333333333,0.13777777777777778,-0.6355555555555555,2.8402469121362404,9.673487648544961,-126.0425926359128
1590503749.6024377,-1.0,-3.8124681084900107,8.835318915099894,0.5133333333333333,0.13777777777777778,-0.6355555555555555,2.875,9.750797287749736,-124.36754719943478
1590503749.6124377,-1.0,-3.8816083032490973,8.766845367027678,0.5232210857066453,0.19254071399919773,-0.6294707848642866,3.088917719614922,9.220231648616124,-120.2127557160048
1590503749.6224377,-0.9508415245893954,-3.8510098295072748,8.66676720163773,0.5277777777777778,0.21777777777777774,-0.6266666666666667,3.0953278586051165,9.0625,-117.22116098357581
1590503749.6324377,-0.9021703226996979,-3.811703226996978,8.614258067492447,0.5277777777777778,0.21777777777777774,-0.6266666666666667,3.09495161811178,8.95398386501511,-114.1294676838973
1590503749.6424377,-0.8874412795616615,-3.8674412795616617,8.780995930864995,0.5277777777777778,0.21777777777777774,-0.6266666666666667,3.054807421135329,8.46179142661456,-108.60045425244752
1590503749.6524377,-0.7267968133901987,-3.6016795686810976,8.364218556369197,0.5277777777777778,0.21777777777777774,-0.6266666666666667,2.7553713687937553,8.25,-102.54894886135028
1590503749.6624377,-0.5931695827725437,-3.417100942126514,8.114201884253028,0.526549274712128,0.2307999102736653,-0.6286322715717063,3.9560817631224765,8.526413189771198,-97.56925471063258
1590503749.6724377,-0.6776249115124376,-3.8109685066592034,9.07190622787811,0.5222222222222223,0.2766666666666667,-0.6355555555555555,2.78026583310011,7.37538481800372,-90.92890127257462
1590503749.6824377,-0.6346721344592138,-3.705696739525676,8.915163831764373,0.5222222222222223,0.2766666666666667,-0.6355555555555555,-0.45107520908246124,4.907018908326936,-86.67315462001535
1590503749.6924376,-0.65,-3.847473794811498,8.66989517924599,0.5222222222222223,0.2766666666666667,-0.6355555555555555,1.8361831736422085,5.913024103770045,-78.33894128536762
1590503749.7024376,-0.5801845113785605,-3.804073244773613,8.694998600555472,0.5222222222222223,0.2766666666666667,-0.6355555555555555,1.5046302775206148,5.19676055504123,-72.91200723405171
1590503749.7124376,-0.4883149899240428,-3.73,8.585842505037979,0.5163546277637117,0.3042443606216665,-0.6472907444725767,1.9255574071203432,5.3125,-67.60958249367023
1590503749.7224376,-0.4220882036736281,-3.702920145481163,8.437520872886978,0.5111111111111111,0.3288888888888889,-0.6577777777777778,1.4037545462863417,4.601653818880527,-63.11746145664158
1590503749.7324376,-0.38446068637616654,-3.7852469588528366,8.698830580916011,0.5111111111111111,0.3288888888888889,-0.6577777777777778,1.69150059431982,4.450069231936471,-58.88905028957285
1590503749.7424376,-0.2805854232175269,-3.6587440243372447,8.57263440447887,0.5111111111111111,0.3288888888888889,-0.6577777777777778,1.2961516092747398,4.15232507605389,-54.452135580438174
1590503749.7524376,-0.24119236852896953,-3.6094713819836355,8.533116053818665,0.5111111111111111,0.3288888888888889,-0.6577777777777778,1.6221184264484758,3.6175476966939404,-50.718923919623506
1590503749.7624376,-0.2840198451113262,-3.6751960309777347,8.735196030977734,0.5335296332150156,0.3502398623211789,-0.6540413574271271,0.8811108422071636,3.4399503872216846,-47.18871006776379
1590503749.7724376,-0.31917889098545255,-3.6791788909854524,8.716231663521821,0.5577777777777778,0.37333333333333335,-0.65,0.009073132874794498,3.231579828352304,-44.29527055815935
1590503749.7824376,-0.3098988664774329,-3.6612840949677614,8.68564204748388,0.5577777777777778,0.37333333333333335,-0.65,0.8737358309679117,3.152237203225746,-42.300681899355226
1590503749.7924376,-0.2584513495822263,-3.5930973008355473,8.660840552924416,0.5577777777777778,0.37333333333333335,-0.65,0.3758278464441107,3.307246544222402,-40.68141869777829
1590503749.8024375,-0.23780457059206245,-3.6059348568640206,8.711869713728042,0.5577777777777778,0.37333333333333335,-0.65,0.8846499878009109,2.7850571324007807,-39.52337142160052
1590503749.8124375,-0.22446705663946198,-3.5553294336053805,8.72233528319731,0.6143604952109628,0.41353684308849115,-0.6634011699183859,0.5970808960033627,2.5625,-38.84453702406389
1590503749.8224375,-0.23,-3.5586096034071444,8.791864002433675,0.6844444444444444,0.4633333333333333,-0.68,0.48400499543686054,2.667160006084186,-37.71652997262116
1590503749.8324375,-0.221399015154407,-3.5819433522922473,8.768290643966866,0.6844444444444444,0.4633333333333333,-0.68,0.5093903882123907,2.7318657670725655,-36.76684114593274
1590503749.8424375,-0.21042904921165792,-3.436394409937888,8.623217869087435,0.6844444444444444,0.4633333333333333,-0.68,1.0319203893932154,2.373659221213569,-34.825649486383185
1590503749.8524375,-0.2342382353521989,-3.4915235292956024,8.782714706056597,0.6844444444444444,0.4633333333333333,-0.68,0.6386764647801102,2.2065441161950274,-33.54968749382887
1590503749.8624375,-0.22881499978096115,-3.449241249397643,8.758056249178605,0.8270531972371898,0.5627555575025676,-0.7924713910914463,-0.042359377053489286,2.1149296885267446,-32.88507031147326
1590503749.8724375,-0.23249129857547812,-3.3862456492877393,8.662996519430191,1.1944444444444444,0.8188888888888889,-1.0822222222222222,-0.3125,2.25,-32.75
1590503749.8824375,-0.2405096454161308,-3.479490354583869,8.71549586625023,1.1944444444444444,0.8188888888888889,-1.0822222222222222,-0.02035986588278521,2.1968836119786883,-31.8470214036377
1590503749.8924375,-0.14974034320971785,-3.621557940741693,8.661082974484222,1.1944444444444444,0.8188888888888889,-1.0822222222222222,0.35362571502024553,1.8257600102834373,-25.43104874991966
1590503749.9024374,-0.12103356097153478,-3.753449658542698,8.723127414740096,1.1944444444444444,0.8188888888888889,-1.0822222222222222,-0.4720634149907066,0.9417786583965082,-10.393878046488314
1590503749.9124374,-0.06538645723589695,-3.7501717587715095,8.762146984643872,1.1404675655446654,0.43223818493332905,-1.0249406364510283,-0.10529004246081164,0.035812342368227834,0.7075970532835294
1590503749.9224374,-0.02,-3.73,8.51,1.0855555555555556,0.03888888888888889,-0.9666666666666668,1.25,-0.5,5.6875
1590503749.9324374,-0.06747801582181781,-3.728739007910909,8.796217023732726,1.0855555555555556,0.03888888888888889,-0.9666666666666668,-0.5377571894204325,-1.3676684038977354,14.264476454011476
1590503749.9424374,0.016079695510330907,-3.751466521671586,8.77,1.0855555555555556,0.03888888888888889,-0.9666666666666668,0.4803334239552587,-1.8483328802237067,21.135826083579307
1590503749.9524374,0.15670970614425647,-3.8315160284951024,8.746967943009794,1.0855555555555556,0.03888888888888889,-0.9666666666666668,0.3963713268032057,-2.1241930097951913,25.169147929652716
1590503749.9624374,0.14559775157663835,-3.8648101179051277,8.66078763367151,0.9412579593577675,0.11508050757091065,-0.902603509734028,0.25747189470797915,-2.3150491842610363,29.142141657526736
1590503749.9724374,0.09615919791090864,-3.7720696490860224,8.815810952480795,0.57,0.3111111111111111,-0.7377777777777778,-0.3854478394296933,-2.9975125326420526,31.861442826372873
1590503749.9824374,-0.01541387885606016,-3.6775928118893955,8.843682278406064,0.57,0.3111111111111111,-0.7377777777777778,-1.2396530285984961,-4.0953856800284205,32.67340613713068
1590503749.9924374,-0.05,-3.5686578432286327,8.58073725417094,0.57,0.3111111111111111,-0.7377777777777778,-0.4832230403579085,-3.2416115201789544,32.79194239910523
1590503750.0024374,-0.07717764655937633,-3.5867944116398442,8.649668673536336,0.57,0.3111111111111111,-0.7377777777777778,-0.49760478175292344,-3.1851047817529237,32.076546881633284
1590503750.0124373,-0.09534463976760578,-3.636305615481556,8.935246171262577,0.558081489867166,0.32137936599478345,-0.7377777777777778,-0.19842952346369908,-2.885929523463699,31.240916761005618
1590503750.0224373,0.0823474217045969,-3.8223474217045967,8.811173710852298,0.4977777777777778,0.37333333333333335,-0.7377777777777778,0.025821535865673484,-2.625,30.496478764558212
1590503750.0324373,0.0956972814107274,-3.7797619397501836,8.682313005143277,0.4977777777777778,0.37333333333333335,-0.7377777777777778,-0.2768919911829537,-2.7594599559147683,29.73108008817046
1590503750.0424373,0.0643119902828388,-3.6779817059567192,8.591742891847005,0.4977777777777778,0.37333333333333335,-0.7377777777777778,-0.5877286755410128,-2.7998856622294936,28.824542648917973
1590503750.0524373,-0.009233784746970779,-3.5847806288112776,8.75,0.4977777777777778,0.37333333333333335,-0.7377777777777778,-0.8188851271085769,-2.521897521184763,27.18475786014097
1590503750.0624373,-0.07255207655253222,-3.4929686889727902,8.770416612420258,0.4980613418391703,0.3773032301928279,-0.7434490590056272,-0.29654952154667363,-2.3896485646400207,25.159832297226924
1590503750.0724373,-0.06380250270878923,-3.547851877031592,8.805703754063183,0.4988888888888889,0.3888888888888889,-0.76,-0.09814846289489895,-2.148765641929933,22.55169936688691
1590503750.0824373,-0.03666738418119633,-3.510004305087178,8.740006457630766,0.4988888888888889,0.3888888888888889,-0.76,0.0625134533974313,-2.041657697735046,20.479332591901652
1590503750.0924373,-0.03620248699179822,-3.4855062174794957,8.670696269512302,0.4988888888888889,0.3888888888888889,-0.76,-0.1206483155481083,-1.8924067378075669,18.25910298527207
1590503750.1024373,-0.04681971519837597,-3.524770427202436,8.675442278412993,0.4988888888888889,0.3888888888888889,-0.76,-0.28975356002030034,-1.3650616099949249,16.34252600979192
1590503750.1124372,-0.034298295369734604,-3.543552556945398,8.775613637042124,0.4988888888888889,0.3888888888888889,-0.76,-0.4462713078783175,-1.3259321730304205,14.738219094247246
1590503750.1224372,-0.05146330142152597,-3.487561164297457,8.785365438545595,0.4666666666666667,0.2911111111111111,-0.7022222222222222,0.5198203752054927,-1.0442087322309255,11.076232956193792
1590503750.1324372,-0.07579924572091674,-3.4470012571318054,8.874597234310029,0.4666666666666667,0.2911111111111111,-0.7022222222222222,-0.18997800019340494,-0.7400094284885408,8.186339570641138
1590503750.1424372,-0.03298509164505003,-3.44492545822525,8.6817912830307,0.4666666666666667,0.2911111111111111,-0.7022222222222222,0.5503727088737493,-0.5447749494028107,2.549433810324677
1590503750.1524372,1.7362451869333002,-4.775403055521053,5.525344677679792,0.4666666666666667,0.2911111111111111,-0.7022222222222222,-60.3582318966588,36.471633958514474,-101.18258601415974
1590503750.1624372,3.222292201759659,-4.476001420842669,-0.18508033225859336,0.4513450643933184,0.32108815903722726,-0.6849021500871328,-185.71835380348654,70.42398491720859,-228.5782112410514
1590503750.1724372,-0.5623723461910035,0.7726593463559461,0.02539880770046419,0.4155555555555556,0.3911111111111111,-0.6444444444444445,-224.82221394236433,6.020441103701785,-75.10815817997596
1590503750.1824372,-0.3072543778961801,-0.5395963137159617,-0.15904423887953625,0.4155555555555556,0.3911111111111111,-0.6444444444444445,-224.42033986185112,21.31519008486784,-25.607338725073326
1590503750.1924372,-0.300109927859842,-0.380219855719684,-0.49725180350395054,0.4155555555555556,0.3911111111111111,-0.6444444444444445,-224.36469426313982,24.66622294744074,-18.570379594641018
1590503750.2024372,-0.6974714697640418,-1.5201518905088738,3.9650635584616007,0.4155555555555556,0.3911111111111111,-0.6444444444444445,-212.3373065832758,22.869689924054747,-6.852569244202575
1590503750.2124372,-1.1127466276059408,-2.540319866466821,8.330301812235998,0.4119812341978169,0.42165531180451465,-0.6363209868132201,-156.8388297962938,-36.481170799836484,-5.120222441749558
1590503750.2224371,-0.2,0.58,-1.25,0.4033333333333333,0.4955555555555556,-0.6166666666666667,-74.1875,-133.0625,-10.25
1590503750.2324371,-0.15963930788659916,-0.08998748908245413,1.6478976937421805,0.4033333333333333,0.4955555555555556,-0.6166666666666667,17.25469306942378,-63.54120783466705,-7.222948091494937
1590503750.2424371,0.5101463356123306,-1.540110351445364,6.863557234816681,0.4033333333333333,0.4955555555555556,-0.6166666666666667,171.0878213586022,16.286174083403303,-3.916946543520851
1590503750.252437,1.5270746743743597,-2.282243707010098,7.869533696765696,0.4033333333333333,0.4955555555555556,-0.6166666666666667,221.7629004006293,-24.859459607785745,-6.485959680960047
1590503750.262437,0.5372738914093369,-1.4152089126298844,3.6724714620225374,0.4033333333333333,0.4955555555555556,-0.6166666666666667,286.45482172910874,-2.2244804624615853,-7.636890823942631
1590503750.272437,1.8169400630914827,-0.1852681388012618,10.019337539432177,0.4033333333333333,0.5577777777777778,-0.59,340.30441640378547,-1.9601735015772874,-6.357255520504732
1590503750.282437,2.4130746095751556,2.6149201327778644,4.328250941252478,0.4033333333333333,0.5577777777777778,-0.59,210.75408247376748,-24.16067151959365,7.503295776059884
1590503750.292437,0.2577104772429035,0.25384211616824365,-1.3951060156088129,0.4033333333333333,0.5577777777777778,-0.59,24.98868188410802,-39.526827646936944,25.655915463775123
1590503750.302437,1.5990472842327297,-1.0547090877131307,4.54567410792758,0.4033333333333333,0.5577777777777778,-0.59,-23.519555282123395,-8.17989760942169,35.31135744419054
1590503750.312437,4.490407241467235,-4.480838888281791,17.63978108039194,0.4035015197691408,0.5370908461734601,-0.6053049656584789,-45.721048246093325,27.77477302116344,43.565311623501984
1590503750.322437,0.8083823261574334,-3.273868065420901,12.491057443630933,0.40435030375146214,0.43269041634794014,-0.6825443080497173,-19.0798410009835,95.71462590609406,48.62618611809274
1590503750.332437,0.10987398281104452,-0.3098152802432466,1.0650888447545566,0.4044444444444445,0.4211111111111111,-0.6911111111111111,-3.6481635674991653,-26.41063566620384,20.42654929082377
1590503750.342437,0.47846107879150046,-2.020059405592562,7.824976185036118,0.4044444444444445,0.4211111111111111,-0.6911111111111111,-23.644013524438897,-28.207497759108563,19.551154937870187
1590503750.352437,0.11253157249043805,-2.8384787472035793,10.026160965576963,0.4044444444444445,0.4211111111111111,-0.6911111111111111,3.3283584109114526,9.382480425055927,24.894768889369992
1590503750.362437,0.08226311611459912,-1.9001565995525729,5.91721801255683,0.4044444444444445,0.4211111111111111,-0.6911111111111111,18.08423089413293,-5.278803131991051,20.922033990041136
1590503750.372437,0.1869919041602321,-2.3481849096042557,8.234635687210444,0.4188888888888889,0.4066666666666667,-0.6844444444444444,-9.560289827943906,0.5469215530285304,20.2876011979971
1590503750.382437,0.20661986990500256,-2.7080309482583806,9.117894145725115,0.4188888888888889,0.4066666666666667,-0.6844444444444444,-4.816864772957711,2.959525675823233,20.04225162618747
1590503750.392437,0.04862524678673597,-2.6893787018010396,8.442128208227569,0.4188888888888889,0.4066666666666667,-0.6844444444444444,5.472239010435553,-1.3930103952616948,17.6617233772513
1590503750.402437,0.04017547040573754,-2.562632056086063,8.332281115274588,0.4188888888888889,0.4066666666666667,-0.6844444444444444,-6.991181151537129,0.03288936903178996,17.503290070107578
1590503750.412437,0.0023008249970108805,-2.4463702124267668,7.342826312223506,0.42029494860928446,0.40589972500099636,-0.6844444444444444,0.914277031604958,-1.442479375074728,17.521570234346978
1590503750.422437,0.01901717747399466,-2.855920848112869,8.889088916344507,0.43051049734521896,0.40032760750866847,-0.6844444444444444,-1.070789825036866,-1.0245705631501336,17.6782860388187
1590503750.432437,-0.04143700188598893,-2.907185009429945,8.900511650544503,0.4311111111111111,0.4,-0.6844444444444444,0.13914871935267992,-1.5552412240676523,19.26931617691793
1590503750.442437,0.22747997086671523,-3.47297432629279,7.786731609613984,0.4311111111111111,0.4,-0.6844444444444444,0.4591052895120175,-2.0473757283321192,19.921038556081573
1590503750.452437,2.2332695740882427,-25.305796990563632,8.0516194848253,0.4311111111111111,0.4,-0.6844444444444444,-16.700124330527927,2.0153022188217293,-47.924811910226985
1590503750.462437,-12.504189265536723,-17.83713559322034,8.360494350282487,0.4352617702448211,0.4010376647834275,-0.6854821092278719,-35.72856638418079,7.176977401129943,-169.37989053672317
1590503750.472437,1.5748847420417125,1.7409098892326116,5.096582177427402,0.4577777777777778,0.4066666666666667,-0.6911111111111111,12.743941472906897,3.715093304061471,-30.6755263945714
1590503750.482437,1.0999262080457033,1.3136627333628046,9.310812391607442,0.4577777777777778,0.4066666666666667,-0.6911111111111111,56.075453973543716,11.088231543510048,-11.101895382051893
1590503750.492437,0.5508033801475838,0.5434644812459618,2.792653109803789,0.4577777777777778,0.4066666666666667,-0.6911111111111111,61.86976952766348,3.243619716394056,-8.293880921209237
1590503750.5024369,0.9084149561877325,-1.0531682871203938,6.289230584563678,0.4577777777777778,0.4066666666666667,-0.6911111111111111,-12.573920072620334,-16.67983097767375,4.6932991237546515
1590503750.5124369,1.3489398031448805,-2.4754342215820433,11.902775777217622,0.4577777777777778,0.4066666666666667,-0.6911111111111111,-39.67406467560917,3.02578940853439,13.50379606289761
1590503750.5224369,-0.2083803737599017,-3.0030039221718066,10.096783050065369,0.432446187631914,0.40033376913020075,-0.7111652866432533,-7.827957971237403,10.115694455125741,21.16222217949704
1590503750.5324368,-0.5192080749178424,-3.7020560401274984,6.591394084653208,0.4311111111111111,0.4,-0.7122222222222222,7.807434644560303,-2.7732651157619035,26.520326283017468
1590503750.5424368,-0.4192019563402123,-13.065982345222475,9.286183943695574,0.4311111111111111,0.4,-0.7122222222222222,-12.529531492305857,-2.867074734581892,40.03998419420255
1590503750.5524368,5.451809726056487,-12.612915480993841,8.428456147802082,0.4311111111111111,0.4,-0.7122222222222222,-7.449654916118072,-6.8594738798046295,37.00166171161605
1590503750.5624368,-1.4442322763078166,-1.0375269642496465,7.641499495051504,0.4311111111111111,0.4,-0.7111152853520052,20.33590941223995,10.389282468188245,-10.33871692587356
1590503750.5724368,-1.3510444354675823,-2.613248636639063,5.726912946879418,0.4311111111111111,0.4,-0.6932307502412531,18.694532670167643,5.571047515653403,-10.762298020601898
1590503750.5824368,-0.8781529687304453,-5.44406164518263,9.330610730695653,0.4311111111111111,0.4,-0.6911111111111111,-17.057923095489247,-4.422231732608656,4.341887839021687
1590503750.5924368,-0.3682350311980406,-4.454220942913843,9.255622798705595,0.4311111111111111,0.4,-0.6911111111111111,-11.480695653728567,-6.2969300323601445,6.872730543686195
1590503750.6024368,-0.45299090213694,-3.793889784027473,7.961216086454113,0.4311111111111111,0.4,-0.6911111111111111,7.131324967856387,2.1823071790114414,-1.9569957114724217
1590503750.6124368,-0.07071659912439171,-4.415085526422864,8.787201634034796,0.4311111111111111,0.4,-0.6911111111111111,0.9023017268037039,-0.29223630031085746,-0.4637367153296552
1590503750.6224368,-0.12515256229431124,-4.5057578749412315,8.705757874941233,0.4444444444444444,0.3944444444444444,-0.6911111111111111,-0.7234867183826986,0.125,0.08523007757404796
1590503750.6324368,-0.07637399768016542,-4.483626002319835,8.636883352665288,0.4444444444444444,0.3944444444444444,-0.6911111111111111,-0.45237089616218673,0.13827916183367794,-0.02266251449896616
1590503750.6424367,-0.107764970276932,-4.418586825189696,8.530591319897539,0.4444444444444444,0.3944444444444444,-0.6911111111111111,0.3816242569233,0.171322978589725,0.108822978589725
1590503750.6524367,-0.13,-4.3,8.79,0.4444444444444444,0.3944444444444444,-0.6911111111111111,0.9375,0.125,0.0625
1590503750.6624367,-0.14684832710800286,-4.277535563855996,8.756303345783994,0.4444444444444444,0.3944444444444444,-0.6911111111111111,0.5513925037749344,0.08989931852499404,0.09760068147500596
1590503750.6724367,-0.11211109581497797,-4.410507984581498,8.736841272026432,0.4322821830641214,0.3944444444444444,-0.6956719591287323,-0.43412720264317184,0.01974204983480176,0.08224204983480177
1590503750.6824367,-0.11857267435522903,-4.437140988467156,8.639995639756698,0.4266666666666667,0.3944444444444444,-0.6977777777777778,-0.8392896073600907,0.13393441104013604,-0.026789607360090686
1590503750.6924367,-0.1291540433889182,-4.467462130166754,8.633806804749868,0.4266666666666667,0.3944444444444444,-0.6977777777777778,-0.36178192795184666,0.06778722881926133,-0.11178192795184666
1590503750.7024367,-0.1138995471986325,-4.421698641595897,8.702452037606154,0.4266666666666667,0.3944444444444444,-0.6977777777777778,-0.12343042497863282,0.16312783000854686,0.12656957502136718
1590503750.7124367,-0.1532699503839011,-4.37538403969288,8.728653990076781,0.4266666666666667,0.3944444444444444,-0.6977777777777778,0.47837437979876374,0.13341256202012364,0.07932512404024725
1590503750.7224367,-0.1452741711336113,-4.37,8.722637085566806,0.43975629232567887,0.3985349524628857,-0.6928691681556483,0.14833606313281716,0.2170364304149295,0.0625
1590503750.7324367,-0.12,-4.450238773513102,8.550238773513103,0.4444444444444444,0.4,-0.6911111111111111,-0.3772385016853322,0.3735076655431119,-0.12350766554311188
1590503750.7424366,-0.12,-4.468480808959443,8.568480808959444,0.4444444444444444,0.4,-0.6911111111111111,-0.548257583994781,0.2594949440034794,-0.009494944003479402
1590503750.7524366,-0.12864289673009421,-4.421357103269906,8.596785516349529,0.4444444444444444,0.4,-0.6911111111111111,0.3252228431553667,0.37075905228154443,0.008481895436911139
1590503750.7624366,-0.1131457602069093,-4.4368542397930915,8.674271198965453,0.4444444444444444,0.4,-0.6911111111111111,0.47050849806022543,0.3223305006465915,0.10533899870681691
1590503750.7724366,-0.13917213620874974,-4.3912417956868754,8.727930340521874,0.4655555555555556,0.4066666666666667,-0.6911111111111111,0.33878095913280126,0.25517414869531413,0.05991292565234295
1590503750.7824366,-0.12000471364600518,-4.420014140938015,8.679943436247937,0.4655555555555556,0.4066666666666667,-0.6911111111111111,-0.5000589205750648,0.37488215884987036,0.00011784115012962527
1590503750.7924366,-0.12760873112275423,-4.442826193368263,8.58869522652695,0.4655555555555556,0.4066666666666667,-0.6911111111111111,-0.5951091390344277,0.1847817219311445,0.1902182780688555
1590503750.8024366,-0.12036976253474896,-4.459630237465251,8.56,0.4655555555555556,0.4066666666666667,-0.6911111111111111,-0.3240550792109053,0.125,0.0694330475265432
1590503750.8124366,-0.12,-4.453832457412106,8.658680681406308,0.4655555555555556,0.4066666666666667,-0.6911111111111111,-0.08121715295396884,-0.02918856469735412,0.0625
1590503750.8224366,-0.12632531500572738,-4.380421534936999,8.732650630011456,0.45641898943617154,0.40244978999618175,-0.7044645539009801,0.26016609392898055,0.033132875143184415,0.0625
1590503750.8324366,-0.12,-4.390984597832287,8.743436014451417,0.4511111111111111,0.4,-0.7122222222222222,-0.20801245483932307,0.1229487545160677,0.1229487545160677
1590503750.8424366,-0.12,-4.414911009697661,8.583926602015593,0.4511111111111111,0.4,-0.7122222222222222,-0.706479368701274,0.0731020631298726,0.0731020631298726
1590503750.8524365,-0.12,-4.433544986566583,8.577089973133166,0.4511111111111111,0.4,-0.7122222222222222,-0.6008595848971472,0.0625,-0.022156166041141123
1590503750.8624365,-0.12,-4.410581499775483,8.612063875168387,0.4511111111111111,0.4,-0.7122222222222222,0.05159687920969924,0.1544328132016165,-0.01653359339919174
1590503750.8724365,-0.10677202831340005,-4.4198419575299,8.6927538442763,0.4511111111111111,0.40440932389553336,-0.7026686871152334,0.4980244691237491,0.14616258847937516,0.08267482304124969
1590503750.8824365,-0.1187899721448468,-4.392420055710306,8.70181504178273,0.4511111111111111,0.4066666666666667,-0.6977777777777778,0.3314066852367688,0.3011559888579387,0.2424373259052925
1590503750.8924365,-0.12800198491464868,-4.39,8.595974196109568,0.4511111111111111,0.4066666666666667,-0.6977777777777778,-0.18762405716554187,0.21247518856689163,0.14997518856689163
1590503750.9024365,-0.12065546858968722,-4.4460671884618765,8.560655468589689,0.4511111111111111,0.4066666666666667,-0.6977777777777778,-0.5461132852578197,0.12909667868554509,-0.16701660657227452
1590503750.9124365,-0.12,-4.412828122074518,8.64177813143606,0.4511111111111111,0.4066666666666667,-0.6977777777777778,-0.14431637333832614,0.032070305186294695,0.044824237034263276
1590503750.9224365,-0.12988008720930233,-4.389640261627907,8.720359738372094,0.4444444444444444,0.4,-0.6844444444444444,0.18600109011627908,0.0014989098837209303,0.12350109011627906
1590503750.9324365,-0.12035451489825581,-4.361063544694768,8.748936455305232,0.4444444444444444,0.4,-0.6844444444444444,0.06693143622819768,0.12056856377180232,0.00443143622819768
1590503750.9424365,-0.13990584871712716,-4.409764621792818,8.61065905898011,0.4444444444444444,0.4,-0.6844444444444444,-0.5595577724102236,0.18720577724102236,0.0
1590503750.9524364,-0.1307038051343709,-4.447184779462517,8.600703805134371,0.4444444444444444,0.4,-0.6844444444444444,-0.5043987820898181,0.1875,0.0
1590503750.9624364,-0.14603003582254065,-4.45534334527418,8.6,0.4444444444444444,0.4,-0.6844444444444444,-0.46660409203637365,0.2542918159272527,0.03339590796362634
1590503750.9724364,-0.15339362478708737,-4.443484061967719,8.623122313245194,0.4466465695154153,0.4,-0.6866465695154154,-0.21040585205612783,0.291855077459648,0.021210154919295968
1590503750.9824364,-0.1132127808988764,-4.392141853932584,8.67,0.4511111111111111,0.4,-0.6911111111111111,0.25,0.25,0.049113412921348326
1590503750.9924364,-0.12456039533534245,-4.39,8.626318813993972,0.4511111111111111,0.4,-0.6911111111111111,0.25,0.25,0.016998764577054827
1590503751.0024364,-0.13713174462771216,-4.404263489255424,8.602868255372288,0.4511111111111111,0.4,-0.6911111111111111,-0.106587231385608,0.205426596076799,-0.044573403923201
1590503751.0124364,-0.11359805302933265,-4.436401946970667,8.619801460228,0.4511111111111111,0.4,-0.6911111111111111,-0.20874695785833225,0.1875,-0.021246957858332263
1590503751.0224364,-0.11631558045232224,-4.428245892730237,8.673508214539527,0.4547367956560716,0.4,-0.6911111111111111,-0.08552762217298607,0.1875,0.06798158521800929
1590503751.0324364,-0.13,-4.401619111092598,8.743523555629608,0.4577777777777778,0.4,-0.6911111111111111,0.15714166701378765,0.2922611113425251,-0.03214166701378765
1590503751.0424364,-0.12384585529933051,-4.387691710598661,8.676150263591966,0.4577777777777778,0.4,-0.6911111111111111,0.11057319124163136,0.23557319124163134,-0.13942680875836866
1590503751.0524364,-0.12,-4.3934361706062965,8.643436170606297,0.4577777777777778,0.4,-0.6911111111111111,-0.27340426515740024,0.10352393371064994,-0.06153590056597491
1590503751.0624363,-0.113694997330893,-4.437830016014642,8.643694997330893,0.4577777777777778,0.4,-0.6911111111111111,-0.5557188000457561,0.14131253336383742,-0.11821880004575612
1590503751.0724363,-0.11,-4.4327720342733015,8.676303954302265,0.4517271187274003,0.41916042032619527,-0.704220872386929,-0.3981002856108452,0.1875,0.03939971438915482
1590503751.0824363,-0.11,-4.436969009826153,8.673030990173848,0.4511111111111111,0.4211111111111111,-0.7055555555555556,-0.1136621315192744,0.1875,0.01894368858654573
1590503751.0924363,-0.1358179157520644,-4.405576112330581,8.609758196578516,0.4511111111111111,0.4211111111111111,-0.7055555555555556,0.16136197345040243,0.13371267551653251,0.05378732448346748
1590503751.1024363,-0.1226173405108235,-4.4,8.634765318978353,0.4511111111111111,0.4211111111111111,-0.7055555555555556,0.07885837819264689,0.125,0.1711416218073531
1590503751.1124363,-0.12,-4.410140506045678,8.655210759068519,0.4511111111111111,0.4211111111111111,-0.7055555555555556,-0.09594540696372592,0.029932755821764453,0.15581091860725482
1590503751.1224363,-0.1252698885924996,-4.42263494429625,8.67,0.4478906236379169,0.4173050804609725,-0.6999928953745838,-0.21706319629687745,-0.029563196296877446,0.10853159814843873
1590503751.1324363,-0.11653081208846869,-4.4065308120884685,8.67,0.4388888888888889,0.4066666666666667,-0.6844444444444444,0.07057656592942765,0.1602882829647138,0.013605858517643087
1590503751.1424363,-0.11712141882673942,-4.4,8.641514324693043,0.4388888888888889,0.4066666666666667,-0.6844444444444444,0.16950886766712142,0.27651773533424284,0.04450886766712142
1590503751.1524363,-0.12,-4.387407593319339,8.655184813361322,0.4388888888888889,0.4066666666666667,-0.6844444444444444,0.1481487291229351,0.07639237473761062,0.10185127087706489
1590503751.1624362,-0.13324950398103533,-4.413123759952588,8.67,0.4388888888888889,0.4066666666666667,-0.6844444444444444,-0.20623759952588316,-0.021095300059264604,0.125
1590503751.1724362,-0.14,-4.445606817566958,8.67520227252232,0.4348426769270849,0.4066666666666667,-0.6988952014508872,-0.5050568130579853,0.1300568130579854,0.02745739020651096
1590503751.1824362,-0.12831085714285714,-4.454155428571429,8.68,0.4311111111111111,0.4066666666666667,-0.7122222222222222,-0.4788857142857143,0.3230571428571428,-0.025971428571428576
1590503751.1924362,-0.11483687966860204,-4.429347518674408,8.643858157680214,0.4311111111111111,0.4066666666666667,-0.7122222222222222,-0.14911348550133924,0.245921991715051,0.03226950207123725
1590503751.2024362,-0.11922508960573477,-4.3961623655913975,8.637675268817205,0.4311111111111111,0.4066666666666667,-0.7122222222222222,0.09132840501792115,0.125,0.0625
1590503751.2124362,-0.13,-4.395029599017089,8.680019732678058,0.4311111111111111,0.4066666666666667,-0.7122222222222222,-0.031558323094679624,0.15631166461893592,0.09381166461893592
1590503751.2224362,-0.12471399636820785,-4.415286003631792,8.69,0.4352224472691717,0.4066666666666667,-0.7010628812217721,-0.22053752269870094,0.15446247730129906,0.09196247730129906
1590503751.2324362,-0.1256570076171914,-4.414342992382808,8.639086931445277,0.4388888888888889,0.4066666666666667,-0.6911111111111111,-0.1085748095702154,0.23106889282233845,0.02714370239255385
1590503751.2424362,-0.13676286579212918,-4.41,8.59323713420787,0.4388888888888889,0.4066666666666667,-0.6911111111111111,0.16907164480322906,0.35476791120080725,0.0
1590503751.2524362,-0.12411061946902655,-4.378221238938053,8.621778761061947,0.4388888888888889,0.4066666666666667,-0.6911111111111111,0.20034568584070797,0.17638274336283186,0.049654314159292036
1590503751.2624362,-0.1265421179770903,-4.383084235954181,8.682336943816724,0.4388888888888889,0.4066666666666667,-0.6911111111111111,0.0648352879295566,0.16588823735681446,0.02161176264318554
1590503751.2724361,-0.12444847288831777,-4.406654581335046,8.698896945776635,0.4388888888888889,0.40296564859221184,-0.694812129185566,-0.2081822666880837,0.1875,-0.06939408889602791
1590503751.2824361,-0.11302763353115727,-4.433944732937686,8.669082900593471,0.4388888888888889,0.4,-0.6977777777777778,-0.2878454191394659,0.23107729043026706,0.04930916172106825
1590503751.2924361,-0.12340086287750891,-4.433299568561245,8.606396548489965,0.4388888888888889,0.4,-0.6977777777777778,-0.20812230350778466,0.1662446070155693,0.08312230350778466
1590503751.302436,-0.13,-4.407565725413827,8.617390457643623,0.4388888888888889,0.4,-0.6977777777777778,-0.0940238558909445,0.125,0.0625
1590503751.312436,-0.12354696111078654,-4.4,8.688077350002922,0.4388888888888889,0.4,-0.6977777777777778,0.05849447917275223,0.08466850694241593,0.02216850694241592
1590503751.322436,-0.12427449426260516,-4.412823482787815,8.707176517212185,0.43366450701237147,0.40569932568347356,-0.6977777777777778,-0.0085779457064111,0.0625,0.0
1590503751.332436,-0.12577676158802745,-4.425776761588027,8.681553523176055,0.4266666666666667,0.4133333333333333,-0.6977777777777778,-0.26668572022448556,0.08889524007482852,0.0
1590503751.342436,-0.12468621553884712,-4.424686215538847,8.618451629072682,0.4266666666666667,0.4133333333333333,-0.6977777777777778,-0.22855576441102757,0.125,-0.05857769423558897
1590503751.352436,-0.13397444440089368,-4.422051111198212,8.595769999608043,0.4266666666666667,0.4133333333333333,-0.6977777777777778,-0.01281944498882922,0.17468055501117077,-0.05047916748324384
1590503751.362436,-0.1303787659327926,-4.400378765932793,8.678863702201623,0.4266666666666667,0.4133333333333333,-0.6977777777777778,0.21283178230011587,0.25,0.032433643539976825
1590503751.372436,-0.12,-4.395191743872405,8.694424768382785,0.43935759613254627,0.40987217075172977,-0.7018158007896487,0.2776548023924006,0.25,-0.03244839920253313
1590503751.382436,-0.12533627362736274,-4.416008820882088,8.658654905490549,0.4511111111111111,0.4066666666666667,-0.7055555555555556,-0.07931368136813682,0.1832965796579658,-0.0625
1590503751.392436,-0.10710287713286214,-4.424275719283215,8.594205754265724,0.4511111111111111,0.4066666666666667,-0.7055555555555556,-0.3482767544799029,0.1965535089598058,0.009053508959805806
1590503751.402436,-0.1058979573790786,-4.42,8.591795914758157,0.4511111111111111,0.4066666666666667,-0.7055555555555556,-0.2756377663807587,0.1837585109205058,0.029379255460252898
1590503751.412436,-0.11560404028842852,-4.406812120865285,8.663959597115715,0.4511111111111111,0.4066666666666667,-0.7055555555555556,-0.1050757554080348,0.09752525180267826,0.027474748197321736
1590503751.422436,-0.11,-4.3958790428609,8.731758085721799,0.4511111111111111,0.4066666666666667,-0.6970636047564789,-0.07348803576124112,0.24622008940310283,0.02575598211937944
1590503751.432436,-0.12366537491222139,-4.3931673125438895,8.712669250175557,0.4511111111111111,0.4066666666666667,-0.6911111111111111,-0.25311288980207547,0.28959140679861634,-0.042704296600691825
1590503751.442436,-0.12262567202636078,-4.419497311894556,8.611508064316329,0.4511111111111111,0.4066666666666667,-0.6911111111111111,-0.3125,0.20391045016475484,-0.01641045016475485
1590503751.452436,-0.12,-4.41594867197131,8.62215398408607,0.4511111111111111,0.4066666666666667,-0.6911111111111111,-0.18076879973103216,0.2753208001793119,0.08782080017931189
1590503751.462436,-0.12,-4.41,8.662660133559884,0.4511111111111111,0.4066666666666667,-0.6911111111111111,0.016625834749278867,0.20628062393804086,0.054187082625360566
1590503751.472436,-0.12627356271367185,-4.397452874572656,8.698820688141016,0.4511111111111111,0.4024842915242188,-0.7001729239197483,0.16420976696044914,0.2034195339208983,0.039209766960449144
1590503751.482436,-0.1179821703412021,-4.39,8.65591976653541,0.4511111111111111,0.4,-0.7055555555555556,0.03727712926502627,0.1373328469487697,0.0625
1590503751.492436,-0.12341554239667908,-4.410123313595019,8.593168915206642,0.4511111111111111,0.4,-0.7055555555555556,-0.18827070996886638,0.10442356998962213,0.0625
1590503751.502436,-0.12309830763778132,-4.42,8.607606769448875,0.4511111111111111,0.4,-0.7055555555555556,-0.20686442273613326,0.08186442273613326,0.019364422736133265
1590503751.512436,-0.125158409447366,-4.414841590552634,8.64579204723683,0.4511111111111111,0.4,-0.7055555555555556,-0.12301988190792508,0.12698011809207493,0.06448011809207492
1590503751.522436,-0.13,-4.421238013453556,8.70371404036067,0.459227454160902,0.4,-0.6974392125057647,0.007737584084728785,0.2577375840847288,0.019643623872906815
1590503751.532436,-0.13554914050822123,-4.4078034379671145,8.713352578475336,0.4655555555555556,0.4,-0.6911111111111111,-0.04154638452914798,0.17377148729446934,0.00686425635276533
1590503751.542436,-0.12231137140068327,-4.419481047665528,8.629245485602732,0.4655555555555556,0.4,-0.6911111111111111,-0.3092565479095494,0.13620261916381976,0.02564869041809012
1590503751.5524359,-0.11977715552444289,-4.435111422237779,8.589777155524443,0.4655555555555556,0.4,-0.6911111111111111,-0.3763927779722319,0.1875,-0.03055361101388403
1590503751.5624359,-0.13,-4.42053100069979,8.62209433170049,0.4655555555555556,0.4,-0.6911111111111111,-0.29277291812456263,0.14804583624912526,-0.023045836249125262
1590503751.5724359,-0.13,-4.411508201034997,8.693016402069993,0.4553260435244472,0.40255737800777713,-0.6855701254275941,-0.15409832470835894,0.038524581177089734,0.08647541882291027
1590503751.5824358,-0.13518381112984823,-4.419632377740303,8.735183811129849,0.4388888888888889,0.4066666666666667,-0.6766666666666666,0.0,0.06479763912310287,0.027803541315345695
1590503751.5924358,-0.14,-4.41,8.627267318607673,0.4388888888888889,0.4066666666666667,-0.6766666666666666,-0.0828916774943582,0.1664458387471791,0.020391677494358204
1590503751.6024358,-0.11986534898085238,-4.423423100679432,8.610269302038295,0.4388888888888889,0.4066666666666667,-0.6766666666666666,-0.16694718962322422,0.1875,0.02055281037677579
1590503751.6124358,-0.1194015859204413,-4.43,8.644102378880662,0.4388888888888889,0.4066666666666667,-0.6766666666666666,-0.09936013199586281,0.21687995600137905,0.0
1590503751.6224358,-0.13,-4.423132970975878,8.670300543536182,0.44079639695114486,0.4066666666666667,-0.6816261876285323,-0.042918931400760245,0.20708106859923975,-0.021459465700380122
1590503751.6324358,-0.1247070237584892,-4.41,8.684707023758488,0.4444444444444444,0.4066666666666667,-0.6911111111111111,-0.09191889849055752,0.05883779698111505,-0.0625
1590503751.6424358,-0.12554223519204985,-4.3989155296159,8.613493177695402,0.4444444444444444,0.4066666666666667,-0.6911111111111111,-0.09713896995031154,-0.034638969950311536,-0.0625
1590503751.6524358,-0.12510279677792369,-4.409588812888305,8.589383219332458,0.4444444444444444,0.4066666666666667,-0.6911111111111111,-0.216822560413931,-0.03189247986202301,-0.0625
1590503751.6624358,-0.1224088376037313,-4.425182324792537,8.632044188018655,0.4444444444444444,0.4066666666666667,-0.6911111111111111,-0.23722382488339694,0.030110470046641226,-0.017334294930038158
1590503751.6724358,-0.12876037312980798,-4.4124792537403845,8.66380186564904,0.4444444444444444,0.4066666666666667,-0.6911111111111111,-0.03873833969350049,0.10950466412259979,0.10175699618389969
1590503751.6824358,-0.12612146952643874,-4.41,8.69,0.4388888888888889,0.4066666666666667,-0.6911111111111111,0.08863877681036314,-0.07651836908048418,0.050379592270121044
1590503751.6924357,-0.11321189651003466,-4.406788103489966,8.680364310469896,0.4388888888888889,0.4066666666666667,-0.6911111111111111,-0.0625,0.09488847021842509,0.020074353187716613
1590503751.7024357,-0.12251860250868117,-4.404962794982637,8.626259301254342,0.4388888888888889,0.4066666666666667,-0.6911111111111111,-0.10925873432074268,-0.0625,0.125
1590503751.7124357,-0.11415925029088965,-4.42584074970911,8.628318500581779,0.4388888888888889,0.4066666666666667,-0.6911111111111111,-0.14850702852290953,-0.023507028522909527,0.07300937136387936
1590503751.7224357,-0.1330218928081945,-4.416043785616389,8.666043785616388,0.4425823134322377,0.4046520714612037,-0.6867461548326079,0.03777366010243093,0.10611316994878453,-0.08722633989756906
1590503751.7324357,-0.13880605793265696,-4.427612115865314,8.675224231730628,0.4511111111111111,0.4,-0.6766666666666666,0.13246213792089398,0.05503786207910601,0.0
1590503751.7424357,-0.12044413749136695,-4.405222068745684,8.620888274982734,0.4511111111111111,0.4,-0.6766666666666666,0.1576379296605217,-0.0597241406789566,-0.0298620703394783
1590503751.7524357,-0.11566417569010218,-4.4,8.616992527070307,0.4511111111111111,0.4,-0.6766666666666666,-0.0166043922525545,-0.125,-0.0625
1590503751.7624357,-0.12786069651741294,-4.403930348258707,8.64179104477612,0.4511111111111111,0.4,-0.6766666666666666,-0.07587064676616916,-0.19869402985074627,-0.03793532338308458
1590503751.7724357,-0.13716739235607162,-4.41,8.668497822931785,0.4482785034671827,0.4,-0.6777682363059722,0.008851898887276246,-0.2859443033381713,-0.008851898887276246
1590503751.7824357,-0.12735797630711676,-4.413678988153558,8.708963035539325,0.4311111111111111,0.4,-0.6844444444444444,0.0625,-0.05601897212078026,-0.03950632404026008
1590503751.7924356,-0.1349141867422453,-4.414914186742245,8.667113840340104,0.4311111111111111,0.4,-0.6844444444444444,0.07839316643048339,0.07839316643048339,0.01589316643048339
1590503751.8024356,-0.13695674612927008,-4.4,8.611304497419512,0.4311111111111111,0.4,-0.6844444444444444,0.054346891128041294,0.019020336692061934,0.0625
1590503751.8124356,-0.13248352322998863,-4.413137357577509,8.641895595962513,0.4311111111111111,0.4,-0.6844444444444444,-0.027369494953142774,-0.007761010093714452,0.007761010093714452
1590503751.8224356,-0.11680311195923418,-4.4277322960135885,8.674535407972822,0.43564651908393387,0.3987401644519937,-0.6874680497596596,-0.048326850084928805,0.0766731499150712,-0.048326850084928805
1590503751.8324356,-0.13859564567059998,-4.4214043543293995,8.6914043543294,0.4511111111111111,0.3944444444444444,-0.6977777777777778,0.026331643676250623,0.10744557088249959,0.026331643676250623
1590503751.8424356,-0.13,-4.424873252672383,8.674366263361916,0.4511111111111111,0.3944444444444444,-0.6977777777777778,0.1875,0.032042170797603665,0.15545782920239634
1590503751.8524356,-0.12610523327339832,-4.411947383363301,8.611684300179805,0.4511111111111111,0.3944444444444444,-0.6977777777777778,0.17532885397936973,0.07631541591747894,0.03815770795873947
1590503751.8624356,-0.11022825778366613,-4.419885871108167,8.659315226649001,0.4511111111111111,0.3944444444444444,-0.6977777777777778,0.12571330557395666,-0.1221467777041734,-0.0610733888520867
1590503751.8724356,-0.11332087417521644,-4.4016604370876085,8.65830218543804,0.44908168800403436,0.3964738675515211,-0.6977777777777778,0.0625,0.020989072809794423,0.031133195392654182
1590503751.8824356,-0.12931805179450018,-4.40965902589725,8.69829512948625,0.4393056350144721,0.40624992054108344,-0.6977777777777778,0.0625,-0.17897564743125216,0.18110673557343912
1590503751.8924356,-0.13295474336983773,-4.4059094867396755,8.632271539780975,0.4388888888888889,0.4066666666666667,-0.6977777777777778,0.0,-0.10653285393851432,-0.08806570787702864
1590503751.9024355,-0.13192617307488613,-4.4159630865374435,8.610184567312785,0.4388888888888889,0.4066666666666667,-0.6977777777777778,0.025230709140980828,-0.0625,0.0
1590503751.9124355,-0.12953824497078226,-4.416358829980521,8.655897074951303,0.4388888888888889,0.4066666666666667,-0.6977777777777778,0.042628656310870316,-0.022757312621740626,-0.019871343689129687
1590503751.9224355,-0.14970974576271187,-4.429806497175141,8.69009675141243,0.4388888888888889,0.4066021657250471,-0.697853028876334,-0.0006046963276836159,0.06129060734463277,-0.060081214689265534
1590503751.9324355,-0.12543233523571262,-4.407283832382144,8.694567664764287,0.4388888888888889,0.4,-0.7055555555555556,-0.01157185716519428,-0.0455239523883981,0.1535479047767962
1590503751.9424355,-0.13635058144072426,-4.401824709279638,8.67087645360181,0.4388888888888889,0.4,-0.7055555555555556,0.13640443299773666,0.011404432997736674,0.07390443299773668
1590503751.9524355,-0.12957491448118585,-4.41,8.634787457240593,0.4388888888888889,0.4,-0.7055555555555556,0.09773517673888255,0.0026567844925883682,0.125
1590503751.9624355,-0.1364841763990716,-4.417031647201857,8.654063294403715,0.4388888888888889,0.4,-0.7055555555555556,0.0659216925174078,-0.0185522049883948,0.0810522049883948
1590503751.9724355,-0.12854199100501643,-4.427083982010033,8.685832035979933,0.43775488189279055,0.4009720059966557,-0.7055555555555556,0.16016233134405813,0.0625,0.0
1590503751.9824355,-0.12,-4.410906521900796,8.710934780992043,0.4311111111111111,0.4066666666666667,-0.7055555555555556,0.005665761879973228,0.06816576187997322,0.011331523759946456
1590503751.9924355,-0.1327598871430656,-4.415746704285644,8.598733521428224,0.4311111111111111,0.4066666666666667,-0.7055555555555556,0.1156661964294401,0.1781661964294401,0.0718338035705599
1590503752.0024354,-0.14153500123243776,-4.41,8.584108331279271,0.4311111111111111,0.4066666666666667,-0.7055555555555556,0.13459375770273602,0.16182292950456,0.017635414099087993
1590503752.0124354,-0.12215044983978308,-4.41,8.616415916933693,0.4311111111111111,0.4066666666666667,-0.7055555555555556,0.01344031149864433,-0.04009948083559284,0.058019896167118556
1590503752.0224354,-0.12,-4.392184853976648,8.676554561929944,0.4301400648992675,0.4066666666666667,-0.7009430860492983,-0.13865533735405092,-0.07615533735405092,-0.021533987937847235
1590503752.0324354,-0.13052993064440105,-4.407019953762934,8.689470069355599,0.4266666666666667,0.4066666666666667,-0.6844444444444444,-0.16556264449083113,-0.10306264449083115,0.0811252889816623
1590503752.0424354,-0.14532921036120822,-4.417664605180604,8.653652236264229,0.4266666666666667,0.4066666666666667,-0.6844444444444444,-0.125,-0.047903782378775656,0.029192435242448685
1590503752.0524354,-0.13029183472259567,-4.410145917361298,8.601021421529085,0.4266666666666667,0.4066666666666667,-0.6844444444444444,-0.125,-0.0009119835081115024,0.123176032983777
1590503752.0624354,-0.11259626945699151,-4.4174037305430085,8.621155233483899,0.4266666666666667,0.4066666666666667,-0.6844444444444444,0.09254663178760603,-0.07872668410619699,0.09254663178760603
1590503752.0724354,-0.11941117213141389,-4.410588827868586,8.702934065576967,0.4266666666666667,0.4066666666666667,-0.6844444444444444,0.007360348357326227,-0.12131982582133688,0.007360348357326227
1590503752.0824354,-0.11203096315082234,-4.4140619263016445,8.707969036849178,0.4511111111111111,0.4,-0.7055555555555556,0.0,0.03711296061472075,-0.11230648030736037
1590503752.0924354,-0.11996915040596551,-4.429938300811931,8.700030849594034,0.4511111111111111,0.4,-0.7055555555555556,0.0,-0.06211438007456896,-0.06269280996271552
