time,acc_x,acc_y,acc_z,mag_x,mag_y,mag_z,gyr_x,gyr_y,gyr_z
1590503916.455715,-0.2,-4.36,8.64,0.4888888888888889,0.2677777777777778,-0.6288888888888889,0.0,-0.25,0.125
1590503916.465715,-0.18366801004614217,-4.351834005023071,8.672663979907716,0.4888888888888889,0.2677777777777778,-0.6288888888888889,0.051037468605805734,-0.3520749372116115,0.125
1590503916.475715,-0.18911137070026493,-4.389111370700265,8.69,0.4888888888888889,0.2733333333333333,-0.6077777777777778,-0.11666910031498362,-0.125,0.125
1590503916.485715,-0.1716128830388619,-4.371612883038862,8.69,0.4888888888888889,0.2733333333333333,-0.6077777777777778,0.04737922151066981,-0.125,0.125
1590503916.495715,-0.17847813501959386,-4.386956270039187,8.613696784823654,0.4888888888888889,0.2733333333333333,-0.6077777777777778,-0.0964650316173851,0.033965031617385094,0.125
1590503916.505715,-0.21,-4.369943409693427,8.670226361226293,0.4888888888888889,0.2733333333333333,-0.6077777777777778,0.1242926211678336,0.1264147576643328,0.0625
1590503916.515715,-0.21,-4.362815580178098,8.698737679287609,0.4888888888888889,0.2733333333333333,-0.6077777777777778,0.03519475222622527,0.3046104955475495,0.0625
1590503916.5257149,-0.23908420570031327,-4.36,8.729389470466876,0.47488538244059,0.26148421249246495,-0.6077777777777778,0.12118419041797204,0.496184190417972,-0.05868419041797204
1590503916.5357149,-0.21197275204359672,-4.352993188010899,8.701972752043597,0.4744444444444445,0.2611111111111111,-0.6077777777777778,0.0812074250681199,0.4562074250681199,-0.0625
1590503916.5457149,-0.19064498790647677,-4.340644987906477,8.643224939532384,0.4744444444444445,0.2611111111111111,-0.6077777777777778,0.1209688255845203,0.3205623488309594,-0.004031174415479712
1590503916.5557148,-0.2054279145512022,-4.3554279145512025,8.670855829102404,0.4744444444444445,0.2611111111111111,-0.6077777777777778,-0.11606116486253473,0.02322660216495831,-0.04821223297250695
1590503916.5657148,-0.21725306329603403,-4.345493873407932,8.709012253184136,0.4744444444444445,0.2611111111111111,-0.6077777777777778,-0.09683670879957465,-0.017168354399787325,0.1188265824008507
1590503916.5757148,-0.21331474922384014,-4.34,8.70662949844768,0.4744444444444445,0.26928197317086205,-0.5981213044344358,-0.020717182649000833,-0.12534845205299752,0.10393436529800167
1590503916.5857148,-0.2299649709597957,-4.37,8.699579651517547,0.4744444444444445,0.2733333333333333,-0.5933333333333334,-0.125,-0.18793786300255372,0.00021893150127686502
1590503916.5957148,-0.22048611268051255,-4.37,8.585833352166151,0.4744444444444445,0.2733333333333333,-0.5933333333333334,-0.125,-0.3064235914935931,0.05946179574679654
1590503916.6057148,-0.20021823966592928,-4.3897817603340705,8.629454400835177,0.4744444444444445,0.2733333333333333,-0.5933333333333334,0.1222720041758843,-0.0652279958241157,0.12431800104397107
1590503916.6157148,-0.19225165686549053,-4.3745033137309814,8.699735088210586,0.4744444444444445,0.2733333333333333,-0.5933333333333334,0.028145710818631556,0.034354289181368444,0.17342714459068423
1590503916.6257148,-0.18062995829544384,-4.37,8.710629958295444,0.49943122232326076,0.26188106013887585,-0.6204023427020511,0.11712552130695181,0.1210627606534759,0.2460627606534759
1590503916.6357148,-0.19621685279187817,-4.361891573604061,8.734325279187818,0.5011111111111111,0.2611111111111111,-0.6222222222222222,0.07432233502538071,0.27703299492385786,0.19932233502538071
1590503916.6457148,-0.22549316317228807,-4.35150227894257,8.655022789425708,0.5011111111111111,0.2611111111111111,-0.6222222222222222,0.0625,0.4718322698268004,0.08127848678213309
1590503916.6557148,-0.23709007878954177,-4.364180157579083,8.661270236368626,0.5011111111111111,0.2611111111111111,-0.6222222222222222,0.0625,0.3227480302614558,0.10681299243463604
1590503916.6657147,-0.24,-4.363529467953004,8.689411596140987,0.5011111111111111,0.2611111111111111,-0.6222222222222222,0.02205917470627567,0.16911834941255133,0.0036775241188270053
1590503916.6757147,-0.22252509006690685,-4.3687374549665465,8.708737454966547,0.4836362011780179,0.27179022273689024,-0.6154264239149082,0.054609093540916115,0.01578181291816777,-0.007890906459083885
1590503916.6857147,-0.2265752334832238,-4.356849533033552,8.683699066067105,0.4811111111111111,0.2733333333333333,-0.6144444444444445,0.0625,-0.2054760463507437,-0.041095209270148744
1590503916.6957147,-0.23,-4.368310453192193,8.605913413827324,0.4811111111111111,0.2733333333333333,-0.6144444444444445,0.0625,-0.3697201662256037,0.051940332451207424
1590503916.7057147,-0.21131278832868886,-4.332625576657378,8.628030817506968,0.4811111111111111,0.2733333333333333,-0.6144444444444445,-0.05429507294569469,-0.31660246352715266,0.237692609418542
1590503916.7157147,-0.23949287921030818,-4.344746439605154,8.681612538618038,0.4811111111111111,0.2733333333333333,-0.6144444444444445,0.0296652475322131,-0.3125,0.29608262376610656
1590503916.7257147,-0.25,-4.375346107423054,8.716897404948703,0.4811111111111111,0.2789658016495675,-0.6144444444444445,-0.04310878092939045,-0.04847804767652386,0.41810878092939047
1590503916.7357147,-0.2591855734431549,-4.36162885311369,8.72,0.4811111111111111,0.28,-0.6144444444444445,-0.0625,0.057409834019717956,0.49490983401971794
1590503916.7457147,-0.24300079106970202,-4.351500395534851,8.64350355981366,0.4811111111111111,0.28,-0.6144444444444445,0.20311263953590575,0.00937747209281884,0.6062450558143623
1590503916.7557147,-0.19355650195746482,-4.35,8.65786609882552,0.4811111111111111,0.28,-0.6144444444444445,0.13389125489366205,0.23221749021267593,0.566945627446831
1590503916.7657146,-0.19714345507816056,-4.3428565449218395,8.67428691015632,0.4811111111111111,0.28,-0.6144444444444445,0.0803534057614966,0.29464659423850337,0.5625
1590503916.7757146,-0.16805501460564753,-4.347986246348587,8.703958739045765,0.48732263604890186,0.2702390322406145,-0.6259801336146273,-0.23698423807205454,0.36241403967867575,0.6623280793573515
1590503916.7857146,-0.1887055095075573,-4.364352754753779,8.688470867869333,0.4888888888888889,0.2677777777777778,-0.6288888888888889,-0.35735235860555825,0.24044292418332522,0.6426476413944417
1590503916.7957146,-0.19218263923733067,-4.377817360762669,8.640913196186654,0.4888888888888889,0.2677777777777778,-0.6288888888888889,-0.375,0.13864149523331662,0.47842448569994983
1590503916.8057146,-0.19,-4.365431133888533,8.680991031390134,0.4888888888888889,0.2677777777777778,-0.6288888888888889,-0.4205277065983344,-0.05711082639333759,0.4375
1590503916.8157146,-0.18387821788399908,-4.36,8.706121782116002,0.4888888888888889,0.2677777777777778,-0.6288888888888889,-0.3227165853249827,-0.08673886177499424,0.3227165853249827
1590503916.8257146,-0.1953445113963846,-4.36,8.71,0.49826609029779056,0.2771549791866795,-0.6288888888888889,-0.15409680377259627,0.12930639245480746,0.15409680377259627
1590503916.8357146,-0.2117171207534477,-4.36,8.71,0.5011111111111111,0.28,-0.6288888888888889,-0.125,0.15088399764547594,0.125
1590503916.8457146,-0.22,-4.36669734704927,8.616237141310233,0.5011111111111111,0.28,-0.6288888888888889,-0.08314158094206822,0.08314158094206822,0.125
1590503916.8557146,-0.21466686890297446,-4.359333737805949,8.575333131097025,0.5011111111111111,0.28,-0.6288888888888889,-0.0625,0.16249620806922868,0.09166793064359044
1590503916.8657146,-0.21393372114611053,-4.357867442292221,8.619337211461104,0.5011111111111111,0.28,-0.6288888888888889,-0.16084302865276318,0.32375727148957234,0.0625
1590503916.8757145,-0.23357396773311456,-4.376786983866557,8.700360951599672,0.48753714337799653,0.27170479749643,-0.6190854677483062,-0.27008135083401696,0.5647559474979491,0.0625
1590503916.8857145,-0.2317565436770735,-4.38,8.726486912645854,0.4811111111111111,0.2677777777777778,-0.6144444444444445,-0.19847839798170924,0.4704351939451277,0.0625
1590503916.8957145,-0.2239976507439311,-4.373997650743931,8.681981205951448,0.4811111111111111,0.2677777777777778,-0.6144444444444445,-0.1499853171495693,0.4375,0.17504404855129208
1590503916.9057145,-0.22,-4.377010747787779,8.692064486726673,0.4811111111111111,0.2677777777777778,-0.6144444444444445,-0.08118282632638335,0.3498656526527667,0.0747313053055334
1590503916.9157145,-0.2265757020167905,-4.360272893949628,8.716575702016792,0.4811111111111111,0.2677777777777778,-0.6144444444444445,-0.0625,0.1481074495802374,0.0
1590503916.9257145,-0.23781603255603642,-4.35,8.727816032556037,0.47155818243151104,0.2677777777777778,-0.6144444444444445,0.0352004069504554,0.0136497965247723,0.0
1590503916.9357145,-0.21494468711423415,-4.366703541923844,8.679889374228468,0.4688888888888889,0.2677777777777778,-0.6144444444444445,0.11469856851201216,0.052198568512012156,0.0
1590503916.9457145,-0.22681318153432292,-4.361593409232839,8.577527501561224,0.4688888888888889,0.2677777777777778,-0.6144444444444445,0.125,0.0625,-0.2627059614737955
1590503916.9557145,-0.22378187517610595,-4.36,8.597308748943364,0.4688888888888889,0.2677777777777778,-0.6144444444444445,0.008410159551986485,-0.09295312059735136,-0.11818359925331082
1590503916.9657145,-0.22,-4.369278542124708,8.64319635531177,0.4688888888888889,0.2677777777777778,-0.6144444444444445,0.02448633241913914,-0.1295091117205739,0.0
1590503916.9757144,-0.23314505407638964,-4.373427472961805,8.689717581114584,0.4820339429652785,0.2758108663800159,-0.6239380946107259,0.08392170601128238,-0.18573488196615284,0.0
1590503916.9857144,-0.24,-4.359812625754527,8.705093687122737,0.4888888888888889,0.28,-0.6288888888888889,0.030664455482897382,-0.12265782193158953,-0.03183554451710262
1590503916.9957144,-0.2324673592587393,-4.357532640741261,8.679869437034958,0.4888888888888889,0.28,-0.6288888888888889,0.0470790046328794,0.0235395023164397,-0.1095790046328794
1590503917.0057144,-0.2063382390327957,-4.356338239032795,8.684647043868818,0.4888888888888889,0.28,-0.6288888888888889,0.125,0.0625,-0.1448069969774865
1590503917.0157144,-0.22256670155529848,-4.355641675388824,8.715641675388826,0.4888888888888889,0.28,-0.6288888888888889,0.125,0.02723952881984612,-0.08973952881984612
1590503917.0257144,-0.23482536163924178,-4.354825361639242,8.725174638360759,0.49233864779606107,0.28,-0.6214144112566826,0.060317020490522066,0.03234148975473897,-0.0625
1590503917.0357144,-0.23,-4.3647632987373965,8.685710103787812,0.4955555555555556,0.28,-0.6144444444444445,0.09227061710872586,-0.12204123421745172,-0.24704123421745172
1590503917.0457144,-0.23555018786902845,-4.358899624261943,8.636698872785828,0.4955555555555556,0.28,-0.6144444444444445,0.125,-0.2568773483628556,-0.20843397745571657
1590503917.0557144,-0.23432207447788134,-4.3556779255221185,8.632711702088475,0.4955555555555556,0.28,-0.6144444444444445,0.125,-0.3834740690264835,-0.125
1590503917.0657144,-0.23,-4.342893788104721,8.672808282527038,0.4955555555555556,0.28,-0.6144444444444445,0.08936205855150153,-0.36622411710300307,-0.16063794144849847
1590503917.0757143,-0.22320973225669358,-4.343580535486613,8.717161070973226,0.48122054587524205,0.2754731548377957,-0.6197257638003495,0.35957421376965576,-0.48225669358266043,-0.2299391733956651
1590503917.0857143,-0.20219494584837544,-4.344064981949458,8.712194945848376,0.4744444444444445,0.2733333333333333,-0.6222222222222222,0.5,-0.5625,-0.25
1590503917.0957143,-0.19621396807115207,-4.34,8.656502223501937,0.4744444444444445,0.2733333333333333,-0.6222222222222222,0.4611626995552996,-0.6013373004447004,-0.25
1590503917.1057143,-0.20720707566364266,-4.361621226990928,8.644414151327286,0.4744444444444445,0.2733333333333333,-0.6222222222222222,0.3924557771022333,-0.48986733130669985,-0.20495577710223328
1590503917.1157143,-0.21526622484301344,-4.364733775156987,8.681597349058082,0.4744444444444445,0.2733333333333333,-0.6222222222222222,0.24334437892466385,-0.3058443789246639,-0.1875
1590503917.1257143,-0.22461478209104865,-4.355385217908951,8.719229564182099,0.48982705141460664,0.2764098547273658,-0.6088906295147484,0.0961576119309459,-0.1298152238618918,-0.1875
1590503917.1357143,-0.23,-4.343815424588403,8.736184575411597,0.5077777777777778,0.28,-0.5933333333333334,0.2171143852899293,-0.13980719264496466,-0.1875
1590503917.1457143,-0.22493601427811954,-4.34506398572188,8.684296157059315,0.5077777777777778,0.28,-0.5933333333333334,0.24920017847649426,-0.1875,-0.2824497322852586
1590503917.1557143,-0.22,-4.35,8.639785823872353,0.5077777777777778,0.28,-0.5933333333333334,0.2792420988033139,-0.1875,-0.5584841976066278
1590503917.1657143,-0.22,-4.344595385601367,8.677023071993164,0.5077777777777778,0.28,-0.5933333333333334,0.4087788399914548,-0.28883651997436444,-0.8513365199743644
1590503917.1757143,-0.20957896615918192,-4.329578966159182,8.7,0.4938830659900203,0.2736315904306112,-0.6043333134986414,0.5351971922576697,-0.40756573075255653,-1.2631573075255655
1590503917.1857142,-0.2,-4.344959051724138,8.681280711206897,0.4811111111111111,0.2677777777777778,-0.6144444444444445,0.3910088900862069,-0.32050444504310344,-1.5625
1590503917.1957142,-0.1952349736080368,-4.350469947216074,8.631879788864294,0.4811111111111111,0.2677777777777778,-0.6144444444444445,0.16065575515068958,-0.25,-1.6220628298995403
1590503917.2057142,-0.2020997325697615,-4.34,8.605124665712202,0.4811111111111111,0.2677777777777778,-0.6144444444444445,0.04359416785974769,-0.17437667143899077,-1.7064058321402522
1590503917.2157142,-0.2031024620444741,-4.347685010844436,8.663055032533308,0.4811111111111111,0.2677777777777778,-0.6144444444444445,0.09606263555544962,0.09606263555544962,-1.629921705555688
1590503917.2257142,-0.16,-4.364936410162116,8.709872820324232,0.48824148134527834,0.2677777777777778,-0.6215748146786118,0.18829487297355274,0.31170512702644726,-1.128974364867764
1590503917.2357142,-0.1549033603336274,-4.375096639666372,8.72,0.4955555555555556,0.2677777777777778,-0.6288888888888889,0.18870799582965755,0.2475840083406849,-0.6213760125110274
1590503917.2457142,-0.17794343240651966,-4.35205656759348,8.63616970278044,0.4955555555555556,0.2677777777777778,-0.6288888888888889,0.14521212847555132,0.19485858101629916,-0.2279242569511026
1590503917.2557142,-0.2153874195723894,-4.355645699287316,8.646937097861947,0.4955555555555556,0.2677777777777778,-0.6288888888888889,-0.001614248218289191,0.410285620545723,0.001614248218289191
1590503917.2657142,-0.21541656685670485,-4.365416566856704,8.709062425142529,0.4955555555555556,0.2677777777777778,-0.6288888888888889,0.09700630000479088,0.3802070857088104,-0.005859842859196079
1590503917.2757142,-0.2004808629246074,-4.3504808629246075,8.707468104874346,0.48818013349749856,0.2677777777777778,-0.6238425474807446,0.3313297378141358,-0.003005393278796259,-0.08132973781413583
1590503917.2857141,-0.2065924674885999,-4.3521232899848,8.7355308224962,0.4744444444444445,0.2677777777777778,-0.6144444444444445,0.25,-0.09706764060124978,-0.02793235939875021
1590503917.2957141,-0.2000697069943289,-4.350139413988658,8.679651465028355,0.4744444444444445,0.2677777777777778,-0.6144444444444445,0.18706433128544425,0.00043566871455576195,-0.09396783435727787
1590503917.3057141,-0.20001849752371859,-4.360018497523718,8.639981502476282,0.4744444444444445,0.2677777777777778,-0.6144444444444445,0.15619219523837938,-0.06226878095351751,-0.09380780476162062
1590503917.3157141,-0.19494495340699092,-4.354944953406991,8.659889906813982,0.4744444444444445,0.2677777777777778,-0.6144444444444445,0.21840595879369323,-0.15659404120630677,-0.12431191758738647
1590503917.325714,-0.20482604817127564,-4.340695807314898,8.694130240856378,0.4744444444444445,0.2704589156507087,-0.6144444444444445,0.2801628010704728,-0.1853256021409456,-0.1271743978590544
1590503917.335714,-0.19092265837543723,-4.345436455499417,8.700922658375438,0.4744444444444445,0.2733333333333333,-0.6144444444444445,0.19326661484648272,-0.13076661484648272,-0.022755538282160905
1590503917.345714,-0.18048546782893687,-4.360485467828937,8.686601725197441,0.4744444444444445,0.2733333333333333,-0.6144444444444445,0.1189316521382889,-0.056431652138288914,0.0
1590503917.355714,-0.19,-4.369845113843183,8.620103257437878,0.4744444444444445,0.2733333333333333,-0.6144444444444445,0.0003226794933699811,0.06379071797347992,-0.0003226794933699811
1590503917.365714,-0.19,-4.3374088508281625,8.6607291933747,0.4744444444444445,0.2733333333333333,-0.6144444444444445,-0.01847341161991692,0.29630531767601664,-0.046305317676016616
1590503917.375714,-0.19,-4.330239474898724,8.718084200810216,0.4744444444444445,0.2733333333333333,-0.6144444444444445,-0.24251640941490177,0.2514967181170196,-0.001496718117019645
1590503917.385714,-0.2036717118251266,-4.333671711825127,8.754686847300507,0.5011111111111111,0.2733333333333333,-0.6077777777777778,-0.3979481989070413,0.5166036021859174,0.0625
1590503917.395714,-0.21,-4.334798635707727,8.707180899908172,0.5011111111111111,0.2733333333333333,-0.6077777777777778,-0.37248294634658274,0.33997441951987406,-0.002517053653417284
1590503917.405714,-0.2144236847519123,-4.338847369503824,8.657694739007649,0.5011111111111111,0.2733333333333333,-0.6077777777777778,-0.340148029699452,0.22235197030054799,-0.0625
1590503917.415714,-0.22591864125527708,-4.35,8.677040679372361,0.5011111111111111,0.2733333333333333,-0.6077777777777778,-0.35650424607725906,0.16900424607725908,-0.0625
1590503917.425714,-0.22611388081549524,-4.341668328489297,8.672777223836901,0.4921622787477636,0.2733333333333333,-0.6096292603357117,-0.3819305959225237,0.1770729469418928,-0.04514235101936907
1590503917.435714,-0.1993929902466101,-4.32,8.67373800650226,0.4688888888888889,0.2733333333333333,-0.6144444444444445,-0.6212061890413132,0.2733625406391246,0.019568729680437713
1590503917.445714,-0.23170502092050207,-4.331705020920502,8.624884937238493,0.4688888888888889,0.2733333333333333,-0.6144444444444445,-0.8231563807531381,0.33381276150627615,0.1722345711297071
1590503917.455714,-0.2686601773638767,-4.317071858108898,8.628660177363876,0.4688888888888889,0.2733333333333333,-0.6144444444444445,-0.9108252217048459,0.5091504434096918,0.644077438753305
1590503917.465714,-0.35815646206341295,-4.295456235862439,8.713612697925852,0.4688888888888889,0.2733333333333333,-0.6144444444444445,-1.022695577579266,0.5341014741402446,1.505470517195108
1590503917.475714,-0.45169124024284474,-4.274411679676207,8.78610291991905,0.4766830490507854,0.27116828884391764,-0.6118463910571456,-1.1493567505059266,0.4269297484822203,2.8938457646718705
1590503917.485714,-0.4936250028350457,-4.231099997731963,8.775274999432991,0.4888888888888889,0.2677777777777778,-0.6077777777777778,-1.2465625070876143,0.34203125354380715,5.181250141752285
1590503917.495714,-0.5341926662995385,-4.1887110005506925,8.741614667400922,0.4888888888888889,0.2677777777777778,-0.6077777777777778,-1.445556246558174,0.30847187672091303,7.542273931372363
1590503917.505714,-0.5649678867618633,-4.105289019143232,8.69,0.4888888888888889,0.2677777777777778,-0.6077777777777778,-1.718549292261645,-0.04536969196233709,10.213732306541123
1590503917.515714,-0.571832710066397,-3.9536654201327943,8.69,0.4888888888888889,0.2677777777777778,-0.6077777777777778,-1.8805607494466916,-0.920151873616729,13.311168243913608
1590503917.525714,-0.5526265740670075,-3.915253148134015,8.69,0.4888888888888889,0.2677777777777778,-0.6077777777777778,-2.040611882774937,-1.3202797069373426,15.071730710524307
1590503917.535714,-0.4939815070807606,-3.7481479433539153,8.739907535403804,0.4955555555555556,0.28,-0.6077777777777778,-2.6504623229809847,-1.999422096273769,16.612268838509507
1590503917.545714,-0.46774880441952504,-3.6631414907651716,8.70549760883905,0.4955555555555556,0.28,-0.6077777777777778,-2.413612868980871,-2.043521448301451,16.54352144830145
1590503917.555714,-0.4419033073122902,-3.614048346343855,8.653806614624582,0.4955555555555556,0.28,-0.6077777777777778,-2.2939010823245467,-1.7448075762718256,16.337802164649094
1590503917.565714,-0.48159416707859615,-3.597101458230351,8.730289792387543,0.4955555555555556,0.28,-0.6077777777777778,-2.1141308545477013,-1.5733691454522987,16.14130468363816
1590503917.5757139,-0.6075543631742446,-3.3612934199378706,8.801078791301892,0.4936370767830808,0.2745643101446547,-0.6096962565502526,-1.06069966111268,-2.7347147698390284,15.482014261508048
1590503917.5857139,-0.7274219893150032,-2.6845319358900195,8.646132983972505,0.4888888888888889,0.2611111111111111,-0.6144444444444445,-0.7338363902405826,-3.653222513356246,15.550390053424984
1590503917.5957139,-0.4016913776646516,-2.1752230353165767,8.428234171174037,0.4888888888888889,0.2611111111111111,-0.6144444444444445,-3.785316576519249,-1.8927736239261852,16.82795100222717
1590503917.6057138,-0.052318598097921803,-2.33994716449454,8.62492074674181,0.4888888888888889,0.2611111111111111,-0.6144444444444445,-8.341152254314899,4.918699365973935,19.0232311113068
1590503917.6157138,-0.014392824443012646,-2.6811214351113977,9.023614229034555,0.4888888888888889,0.2611111111111111,-0.6144444444444445,-7.543435687883617,4.34816584150022,19.385713740716877
1590503917.6257138,0.06230941129061802,-2.705307176612815,8.916609883870022,0.4900682614695143,0.2611111111111111,-0.6158203791218408,-1.3837440927574458,-5.143413195589259,19.20563386086383
1590503917.6357138,-0.033465394454815736,-2.667161492544193,8.955576759086403,0.4955555555555556,0.2611111111111111,-0.6222222222222222,3.807140058540183,1.0206244670308142,29.109954423932333
1590503917.6457138,-0.10815365057680631,-2.6344704386763813,8.65263357619915,0.4955555555555556,0.2611111111111111,-0.6222222222222222,3.143218493852459,-0.601920632210079,35.429121840846996
1590503917.6557138,-0.23094347577318036,-2.785660854639082,8.705057367422532,0.4955555555555556,0.2611111111111111,-0.6222222222222222,-1.3502443009004126,-2.793401993555576,40.457554130153284
1590503917.6657138,-0.2651059600623834,-3.012658940093575,9.106917219656891,0.4955555555555556,0.2611111111111111,-0.6222222222222222,-5.438824500779793,-5.992052995321244,44.96086511115868
1590503917.6757138,-0.25227974679673404,-2.9934196201951013,9.177461392617962,0.4955555555555556,0.2611111111111111,-0.6222222222222222,-5.278496834959175,-6.954018990244947,47.80668117947464
1590503917.6857138,-0.29271212684256165,-3.027627276105537,8.915930261365045,0.4888888888888889,0.2677777777777778,-0.6144444444444445,-0.507405084850737,-3.497878731574384,54.61018983029852
1590503917.6957138,-0.3369238074932646,-3.0707714224797935,8.594995251293781,0.4888888888888889,0.2677777777777778,-0.6144444444444445,0.3965775395887039,-3.3630058825809703,58.47366042874033
1590503917.7057137,-0.35223379944501876,-3.1010648022199248,8.534571793895205,0.4888888888888889,0.2677777777777778,-0.6144444444444445,-0.7925349583764079,-4.007957451439142,60.773221135535124
1590503917.7157137,-0.3908549843375714,-3.1101114796388427,8.697137460843928,0.4888888888888889,0.2677777777777778,-0.6144444444444445,-1.3557156347890178,-4.899628017320803,62.87639349548554
1590503917.7257137,-0.45749989515621725,-3.177499056405955,8.905001467812959,0.4936113091493674,0.2588885161109946,-0.6144444444444445,-1.359376965820927,-5.640636139651918,64.4062670371147
1590503917.7357137,-0.4556639765223771,-3.1081120078258744,8.940144289557349,0.5077777777777778,0.23222222222222225,-0.6144444444444445,-1.1578014184397163,-5.930102103203717,66.08519809244314
1590503917.7457137,-0.5051440228478172,-3.135201631986944,8.549481517747859,0.5077777777777778,0.23222222222222225,-0.6144444444444445,-0.3003855569155447,-4.3157405140758875,68.3925152998776
1590503917.7557137,-0.57359445124439,-3.2310322317421463,8.303059975520195,0.5077777777777778,0.23222222222222225,-0.6144444444444445,-1.9688647490820075,-5.855875152998776,69.29092717258261
1590503917.7657137,-0.61,-3.1903019664587142,8.838161871100885,0.5077777777777778,0.23222222222222225,-0.6144444444444445,-2.8180521621557513,-7.5813180491970495,71.49061840263776
1590503917.7757137,-0.6428982839108422,-3.16,8.483838845420474,0.5103365331930655,0.2263736384158503,-0.6144444444444445,-0.7287913406535604,-5.317562791768032,74.43178997632981
1590503917.7857137,-0.7067162312607708,-3.0976083939546446,9.00537798721996,0.5155555555555555,0.21444444444444444,-0.6144444444444445,-3.712670235317442,-7.873141327721096,76.27710706714859
1590503917.7957137,-0.7003196535053605,-2.9760734166018517,9.171689008860625,0.5155555555555555,0.21444444444444444,-0.6144444444444445,-3.1529696817190525,-8.113012993548978,78.15610178280032
1590503917.8057137,-0.7320154587572463,-3.1120154587572464,8.606611179661492,0.5155555555555555,0.21444444444444444,-0.6144444444444445,-1.5110731497217889,-6.6753864689311575,82.86489302260611
1590503917.8157136,-0.7852538145745471,-3.1635025430496984,8.74751271524849,0.5155555555555555,0.21444444444444444,-0.6144444444444445,-2.5155455296969356,-7.8640545529696935,85.19876332824256
1590503917.8257136,-0.8028840845721652,-3.1752560563814436,8.806280281907217,0.5155555555555555,0.21444444444444444,-0.6144444444444445,-2.1482482380798924,-7.827324823807989,86.70468222387244
1590503917.8357136,-0.9274917801784877,-3.414983560356975,9.016028651949272,0.5275223109441052,0.18833515996033606,-0.6492568237565889,-1.6328381869422264,-7.751306364490371,90.12740723344294
1590503917.8457136,-0.87,-3.055875121834782,8.81941041911165,0.5277777777777778,0.18777777777777774,-0.65,-0.01093902293477611,-9.073874147156525,93.40728000119348
1590503917.8557136,-0.877828270455659,-2.880064919157276,8.234797893189613,0.5277777777777778,0.18777777777777774,-0.65,1.6624739710926018,-10.018534113179815,95.64100777804998
1590503917.8657136,-0.9442238669273991,-2.967039778212332,8.647472709720537,0.5277777777777778,0.18777777777777774,-0.65,-3.420802495111265,-7.108302495111265,98.54919057402411
1590503917.8757136,-0.9929215382448232,-3.0252810254965485,8.667903930131004,0.5345693446651328,0.17957130112222375,-0.6483021082781613,-2.6828162417241863,-7.070696576982674,100.69335469784477
1590503917.8857136,-1.0516650621740875,-3.1116746891295626,9.071655435218613,0.5544444444444444,0.15555555555555556,-0.6433333333333333,-1.0258661752908143,-6.942432561171279,102.58872718612113
1590503917.8957136,-1.0480739473642913,-3.161926052635709,9.000092434205364,0.5544444444444444,0.15555555555555556,-0.6433333333333333,-0.027541940647510255,-5.2528885689176255,103.9248844572433
1590503917.9057136,-1.0744031010185027,-3.1355968989814973,9.033003876273128,0.5544444444444444,0.15555555555555556,-0.6433333333333333,-0.9326065975110247,-6.281371133535256,103.88374515465858
1590503917.9157135,-1.2132500647165416,-3.1839645353352317,8.79082190007766,0.5544444444444444,0.15555555555555556,-0.6433333333333333,-3.9787972430753302,-9.838839632410044,102.2823663603417
1590503917.9257135,-1.1589619466735697,-2.9745675085980547,8.395294182907437,0.5544444444444444,0.15555555555555556,-0.6433333333333333,-1.797578214563071,-9.548010428608409,102.04000869050701
1590503917.9357135,-1.330596751533427,-3.2558895589898227,9.071734571497105,0.5577777777777778,0.10222222222222224,-0.68,-3.74613109515814,-9.271890955350718,101.11029002330123
1590503917.9457135,-1.424017407394716,-3.3349378062570674,8.741169173834082,0.5577777777777778,0.10222222222222224,-0.68,-1.6351835829078571,-7.430426104238769,101.06537624644484
1590503917.9557135,-1.3297267917069857,-3.061562866731177,8.817715921022833,0.5577777777777778,0.10222222222222224,-0.68,-1.8492490374915072,-7.965096199378229,99.29931697926746
1590503917.9657135,-1.2905701876718332,-2.9853970594094914,8.58975534924493,0.5577777777777778,0.10222222222222224,-0.68,-0.34406751803004343,-5.799515380324341,98.74287265410209
1590503917.9757135,-1.449337570227517,-3.1692329760529145,9.107838387058214,0.5577777777777778,0.10222222222222224,-0.68,-1.8063986731481851,-7.67965543690481,96.75828037215604
1590503917.9857135,-1.4585681463854927,-3.07575038975958,8.518797899401001,0.5701539892234895,0.09079802704156524,-0.68,-1.9731527447279888,-7.63394908509067,94.98281980799213
1590503917.9957135,-1.469463196907504,-3.041560594588132,8.875805204638743,0.5722222222222222,0.08888888888888889,-0.68,-2.085673793488224,-7.138420077312398,92.44542053560754
1590503918.0057135,-1.4026031164069659,-2.9245554537121907,8.97609532538955,0.5722222222222222,0.08888888888888889,-0.68,-3.0258936755270396,-8.809922089825848,90.51274633363886
1590503918.0157135,-1.599083575701037,-3.1412039730011525,9.05373465766705,0.5722222222222222,0.08888888888888889,-0.68,-1.4956385245751707,-6.063866176443689,89.60798510124567
1590503918.0257134,-1.5306345358619706,-2.9424069585056327,8.815820618850706,0.5721237542975743,0.087214934169875,-0.6811816150957746,-3.293490660202481,-8.448954174390417,85.8848812027663
1590503918.0357134,-1.76,-3.215986077050866,8.743457004983782,0.57,0.05111111111111112,-0.7066666666666667,-1.1789440115497192,-6.224477889407484,84.02044685942568
1590503918.0457134,-1.7881308713961774,-3.2423072562358275,9.165169258179462,0.57,0.05111111111111112,-0.7066666666666667,-2.950568918043408,-6.486273080660836,81.99382997246518
1590503918.0557134,-1.9057450972228005,-3.261986925927468,8.736803930549195,0.57,0.05111111111111112,-0.7066666666666667,-1.5629085647666237,-5.903349710621643,79.56452200524629
1590503918.0657134,-1.8647917510918997,-3.1435938133189247,9.146560853707957,0.57,0.05111111111111112,-0.7066666666666667,-4.805979557836913,-7.74543822324283,76.37532222297267
1590503918.0757134,-1.8982555395507064,-3.153427625731711,8.499250360109107,0.5683524540201116,0.04771910468192917,-0.711221646728711,-0.7449316558889332,-5.929514389040424,74.74378237151001
1590503918.0857134,-1.8749423948758475,-2.9850576051241524,8.80126148983072,0.5511111111111111,0.012222222222222223,-0.7588888888888888,-1.241359231377116,-5.614919103273302,71.6515695836626
1590503918.0957134,-1.9089418031066332,-3.0426267317380353,8.492630142737196,0.5511111111111111,0.012222222222222223,-0.7588888888888888,0.8322559167716205,-2.7138483286104114,69.81586016215365
1590503918.1057134,-2.1666513652283315,-3.2549311435274917,8.601857934645857,0.5511111111111111,0.012222222222222223,-0.7588888888888888,-0.5020083137814955,-1.9618717909483492,65.67330579074434
1590503918.1157134,-2.152389404604033,-3.190752320718148,8.78013244244959,0.5511111111111111,0.012222222222222223,-0.7588888888888888,-2.373890645720698,-5.25995018531742,62.15238426162059
1590503918.1257133,-1.7876789320170519,-2.778509086829706,8.437886470720215,0.5511111111111111,0.012222222222222223,-0.7588888888888888,-0.1781817926856628,-4.343630805474534,59.66521062373794
1590503918.1357133,-2.0360453853901044,-3.0525328390511497,8.959749073220905,0.5540541615178939,-0.02799946667047616,-0.7716421073182811,-1.0630973171620202,-3.37440268283798,57.086619024149826
1590503918.1457133,-2.0864692355933383,-3.0032346177966693,8.84451025480222,0.5544444444444444,-0.03333333333333333,-0.7733333333333333,-2.6954727312846956,-4.300398636564235,51.85862773790444
1590503918.1557133,-2.2591427334391687,-3.09130947226632,8.79216673882715,0.5544444444444444,-0.03333333333333333,-0.7733333333333333,-2.0351211093471884,-4.141368403329004,48.731247293981816
1590503918.1657133,-2.181421951809171,-3.074482230639052,8.856120557659763,0.5544444444444444,-0.03333333333333333,-0.7733333333333333,-3.448415716415505,-3.6441267426867596,46.256472117011846
1590503918.1757133,-2.2997235877185913,-3.2096841002498184,8.889921025062455,0.5544444444444444,-0.03333333333333333,-0.7733333333333333,-2.1280849584978645,-3.749753203320171,44.56644874687726
1590503918.1857133,-2.098720606622837,-2.8838381801314887,8.67,0.5288888888888889,-0.10666666666666667,-0.78,-1.6010113741781955,-2.3844658774654137,42.75864407292381
1590503918.1957133,-2.0902619691041826,-2.9092140926874523,8.67,0.5288888888888889,-0.10666666666666667,-0.78,-1.4424119207034243,-2.860264237889727,40.74971766224338
1590503918.2057133,-2.1461623628983504,-2.9591420675360567,8.627878227826237,0.5288888888888889,-0.10666666666666667,-0.78,-0.8232241557992918,-1.6025714655842473,39.283440927541236
1590503918.2157133,-2.1435848518346825,-2.9535848518346826,8.645220197553757,0.5288888888888889,-0.10666666666666667,-0.78,-1.4980364975216633,-2.3832574082658775,36.04598518346825
1590503918.2257133,-1.9798751929364513,-2.7962801852189934,8.413015285545947,0.5288888888888889,-0.10666666666666667,-0.78,-1.5049063947023384,-0.32075270111031795,34.76678235938459
1590503918.2357132,-1.9161725739848587,-2.753620956641431,8.829624053682037,0.507563087864189,-0.13574730442762103,-0.7305629158063777,0.25281206985547144,0.664869020991053,32.723266517549895
1590503918.2457132,-1.7540132867728473,-2.635509965079635,8.685917937143344,0.5044444444444445,-0.14,-0.7233333333333334,-1.7304464589898645,-2.902217656076995,29.90645760582574
1590503918.2557132,-1.9259187358916479,-2.8024177808647335,8.85984511199861,0.5044444444444445,-0.14,-0.7233333333333334,-4.080754037159229,0.5286508074318458,28.17553177635006
1590503918.2657132,-1.8312392776523703,-2.7514365341205074,8.320900503559646,0.5044444444444445,-0.14,-0.7233333333333334,-2.9427797794756034,0.3010559558951207,27.674823102969267
1590503918.2757132,-1.908117563195701,-2.971914240280748,9.234694302791029,0.5044444444444445,-0.14,-0.7233333333333334,-1.9070193836705598,-0.3074861545210287,26.83776799912266
1590503918.2857132,-1.7486570932617957,-2.7258513492188734,8.914508442480669,0.517771114968527,-0.16284572089842722,-0.7090547577718164,-2.0802232917784442,-2.1955183840934196,25.090115590973646
1590503918.2957132,-1.7143368421052632,-2.6662947368421053,8.361452631578947,0.52,-0.16666666666666666,-0.7066666666666667,0.4826315789473685,-0.7522368421052631,21.935394736842106
1590503918.3057132,-1.6465187667560321,-2.6037337801608578,9.105371849865952,0.52,-0.16666666666666666,-0.7066666666666667,-5.14948726541555,1.3096833109919572,17.096885053619303
1590503918.3157132,-1.6146339491450055,-2.525853579658002,7.701947689695598,0.52,-0.16666666666666666,-0.7066666666666667,1.9329395237902736,-6.838440392933662,9.887208432712132
1590503918.3257132,-1.6994118122650281,-2.559764724906011,9.219471439544003,0.52,-0.16666666666666666,-0.7066666666666667,-3.5246354145611836,4.235667977119295,4.164702672110604
1590503918.3357131,-1.6648084174938234,-2.4786290147804606,8.562943522170691,0.5011111111111111,-0.15777777777777774,-0.7511111111111111,-3.538496651640588,1.8394656711889386,-5.2464701356681545
1590503918.3457131,-1.8702034146469004,-2.5522375611159043,8.677119512641514,0.5011111111111111,-0.15777777777777774,-0.7511111111111111,1.2870731691374486,2.0319878029649385,-12.105317083692839
1590503918.3557131,-1.8723823757543654,-2.651535973060406,9.003918348814771,0.5011111111111111,-0.15777777777777774,-0.7511111111111111,0.20004043776840272,0.7423605724663729,-20.66889153218941
1590503918.3657131,-1.800968425433701,-2.572187139370779,8.85315556480448,0.5011111111111111,-0.15777777777777774,-0.7511111111111111,1.4894589852248432,2.4285232883709496,-25.18185644828695
1590503918.375713,-1.8836686400290232,-2.659522930030837,8.841708580003628,0.5011111111111111,-0.15777777777777774,-0.7511111111111111,1.2484282498639534,5.102394625748256,-28.875323625929653
1590503918.385713,-2.0104294037258144,-2.784386463353233,9.303220527943608,0.47828222525913666,-0.19537829565161793,-0.7202249714290281,0.2199008307559519,2.129221211249371,-34.58799584622024
1590503918.395713,-1.756904484802555,-2.5101561696484156,8.385747151324871,0.4633333333333333,-0.22,-0.7,1.2678160608439115,5.761826061655885,-38.245962121417165
1590503918.405713,-1.7421650661473373,-2.6905412665368345,9.082111342421596,0.4633333333333333,-0.22,-0.7,2.0149712913840574,2.6552783560539925,-42.101655362299375
1590503918.415713,-1.7703317440064468,-2.697582936001612,8.58919447988718,0.4633333333333333,-0.22,-0.7,-0.22956085051373298,1.4229861997179505,-45.0503544506749
1590503918.425713,-1.8134002243171967,-2.7918506168722907,8.570301009427384,0.4633333333333333,-0.22,-0.7,1.0353261693291702,3.4006411227985085,-48.20220187032041
1590503918.435713,-1.82,-2.861105110511051,9.111051105110512,0.46982287117600646,-0.19566423308997566,-0.6691746952473026,-1.6653102810281029,1.4566331633163316,-52.41225372537254
1590503918.445713,-1.6608058198097368,-2.700906547285954,8.32493564633464,0.4722222222222222,-0.18666666666666668,-0.6577777777777778,2.411059037493005,3.298649972020146,-55.98898293228875
1590503918.455713,-1.800481952006453,-2.8030200981380657,9.041140686966457,0.4722222222222222,-0.18666666666666668,-0.6577777777777778,1.9106926799758015,1.4394073065806277,-59.16084392014519
1590503918.465713,-1.8195371747665148,-2.7909256504669706,8.861107805603648,0.4722222222222222,-0.18666666666666668,-0.6577777777777778,-0.8073304030822501,7.511663598234534,-61.044005584140066
1590503918.475713,-1.7749152796802583,-2.8050282401065805,8.917627080479612,0.4722222222222222,-0.18666666666666668,-0.6577777777777778,1.5515522676524118,6.450565740341133,-62.29908125832661
1590503918.485713,-1.8557439517044165,-2.8985813172348056,8.996678089964142,0.54,-0.13444444444444445,-0.6355555555555555,1.9409610321819255,6.712155598928782,-64.18490422586356
1590503918.495713,-1.8328229828516773,-2.891881988567785,9.289903668784588,0.54,-0.13444444444444445,-0.6355555555555555,-0.6449337865227391,1.3829777846097788,-66.2904696431418
1590503918.505713,-1.8525857765160787,-2.903644951299496,8.227881650433165,0.54,-0.13444444444444445,-0.6355555555555555,3.3419007880182074,6.828661103225491,-64.87169007880182
1590503918.515713,-1.722001356852103,-2.7953369516056084,8.264050203527814,0.54,-0.13444444444444445,-0.6355555555555555,2.616576209859792,5.929118611488015,-64.83751696065129
1590503918.525713,-1.7478697421981004,-2.8643193125282678,9.221180461329716,0.54,-0.13444444444444445,-0.6355555555555555,0.8920171867933062,5.012946630483944,-65.16087177747626
1590503918.535713,-1.701286940747147,-2.861881156791191,9.01584048769169,0.5228602198925146,-0.06949369877397384,-0.6247304312771438,-0.9245114118168203,-0.7964330162212336,-66.100869860991
1590503918.545713,-1.7558705028796529,-2.901169064299783,8.719453239921215,0.5188888888888888,-0.054444444444444434,-0.6222222222222222,0.900337206113341,4.101820975342193,-64.04820146351193
1590503918.555713,-1.6722138066457553,-2.92777930788259,9.04336546553439,0.5188888888888888,-0.054444444444444434,-0.6222222222222222,0.04155190880575321,4.82633629153597,-62.95133629153597
1590503918.565713,-1.6406932269552115,-2.8656440898507056,8.671686584029585,0.5188888888888888,-0.054444444444444434,-0.6222222222222222,1.5241201975756746,6.60023241679222,-62.030328679290506
1590503918.575713,-1.6157865697752658,-2.87974700578657,8.638988023146279,0.5188888888888888,-0.054444444444444434,-0.6222222222222222,4.0365109002826,4.382561229982505,-61.78458484726147
1590503918.585713,-1.7624671724540415,-3.1899562299387223,9.137401517362125,0.5455555555555556,-0.015555555555555557,-0.6144444444444445,-0.013177914877652255,5.093339655675518,-61.80353234815957
1590503918.595713,-1.5788824044353662,-2.945176539247155,8.586647213306097,0.5455555555555556,-0.015555555555555557,-0.6144444444444445,1.1888652090541498,2.7985300554420776,-61.58497905289924
1590503918.605713,-1.4919213770644335,-2.9880786229355665,8.325764131193301,0.5455555555555556,-0.015555555555555557,-0.6144444444444445,4.29093975343103,4.26446557338916,-60.103672365666434
1590503918.615713,-1.568052552445049,-3.224157657335147,8.885881005226606,0.5455555555555556,-0.015555555555555557,-0.6144444444444445,-0.5642630844132599,2.605100415264552,-60.367392782988475
1590503918.6257129,-1.4904900036915425,-3.206147001107463,8.772784005906468,0.5455555555555556,-0.015555555555555557,-0.6144444444444445,0.1075999630845752,3.208518720006217,-59.679287532301
1590503918.6357129,-1.3471114440104863,-3.056518823676279,8.910074545681523,0.5544444444444444,0.0033333333333333327,-0.6222222222222222,0.9009271396215648,4.375,-58.76111163126639
1590503918.6457129,-1.4368722914771814,-3.1387996005207497,9.037235746259341,0.5544444444444444,0.0033333333333333327,-0.6222222222222222,1.228180229343891,4.375,-58.90136295543309
1590503918.6557128,-1.2017437621516527,-3.210871881075826,8.48418745949449,0.5544444444444444,0.0033333333333333327,-0.6222222222222222,5.055976081497084,2.0875210122326635,-59.51089851344783
1590503918.6657128,-1.2527114387556708,-3.2363557193778356,8.314295204147763,0.5544444444444444,0.0033333333333333327,-0.6222222222222222,3.038505549254699,8.299206598347375,-59.82944649222294
1590503918.6757128,-1.2971893558466283,-3.3366923252012333,8.966846276408631,0.5544444444444444,0.0033333333333333327,-0.6222222222222222,0.19323178554431308,6.212351532269746,-62.80366177292197
1590503918.6857128,-1.2760296483566997,-3.240912663755459,9.050530452769479,0.5612385147731045,0.02522533772568248,-0.626751602441329,-1.7915364284072628,2.7671124454148472,-66.57259107101815
1590503918.6957128,-1.2408816800409765,-3.1704408400204884,9.171183199590233,0.5644444444444444,0.03555555555555556,-0.6288888888888889,2.3475904900119513,5.508408741676627,-69.54785299641455
1590503918.7057128,-1.1740279130152547,-3.104027913015255,8.586251217137294,0.5644444444444444,0.03555555555555556,-0.6288888888888889,2.209078105438865,4.391619719942505,-73.15921894561136
1590503918.7157128,-1.17,-3.044224734982332,8.364082449941108,0.5644444444444444,0.03555555555555556,-0.6288888888888889,4.046675500588928,5.358286219081272,-74.65318315665489
1590503918.7257128,-1.1766492892772755,-3.169582942654615,8.602412331695607,0.5644444444444444,0.03555555555555556,-0.6288888888888889,1.7381811874132693,7.1636256235232345,-76.97514814536999
1590503918.7357128,-1.1422149725274724,-3.4861564217032965,8.931140109890109,0.6148244810744811,0.02820846688034188,-0.6687730845543346,-2.1844469007554945,5.034201150412088,-80.64291616586539
1590503918.7457128,-1.1810801930382995,-3.3767594208851013,8.578494301262964,0.6177777777777778,0.027777777777777776,-0.6711111111111111,1.0252656843618442,5.080400965191498,-82.09625603244686
1590503918.7557127,-1.1591895773016792,-3.4116208453966417,8.808104226983207,0.6177777777777778,0.027777777777777776,-0.6711111111111111,1.1723045744064853,6.3285321366531555,-83.14526056745802
1590503918.7657127,-1.1261098125031084,-3.469816979161486,8.804439250012432,0.6177777777777778,0.027777777777777776,-0.6711111111111111,1.6470259113741483,6.836813671855572,-84.17133958322972
1590503918.7757127,-1.1538942259414227,-3.5195432635983264,8.667019246861924,0.6177777777777778,0.027777777777777776,-0.6711111111111111,1.9890324267782427,6.698467573221757,-84.33969351464435
1590503918.7857127,-1.18,-3.600307373354967,8.759669190553453,0.751132243655229,-0.05686637421629308,-0.630386094585662,1.4961578330629168,6.427748107084911,-83.5938232377862
1590503918.7957127,-1.1678132787165045,-3.6626535244922342,8.88484024577573,0.8033333333333333,-0.09,-0.6144444444444445,0.7929979518689196,6.375,-82.28424539170507
1590503918.8057127,-1.0867688996502556,-3.6314151197202045,8.92,0.8033333333333333,-0.09,-0.6144444444444445,1.6900053806833466,5.779997309658326,-80.02306967984934
1590503918.8157127,-0.9086171273733135,-3.353307302937358,8.479015110174435,0.8033333333333333,-0.09,-0.6144444444444445,2.125,5.685909950510886,-76.8870276894417
1590503918.8257127,-0.9144781503648438,-3.4344445355415267,8.503434451094531,0.8033333333333333,-0.09,-0.6144444444444445,3.0185188980896944,4.653408625071739,-73.08501578256949
1590503918.8357127,-0.7895647868940996,-3.353343984877807,8.587558395967417,1.2927883043041242,-0.13588640352851164,-0.4877105680323647,0.05851973536162758,5.414510103965075,-69.0869497952203
1590503918.8457127,-0.7,-3.1719677734375002,8.230530598958333,1.55,-0.16,-0.4211111111111111,2.47674560546875,4.390950520833333,-64.76129150390625
1590503918.8557127,-0.7210213222773376,-3.216056859406234,8.649476197527207,1.55,-0.16,-0.4211111111111111,3.2563832642333606,5.044682849633523,-62.51692872214407
1590503918.8657126,-0.7776439597005269,-3.271762639800351,9.000872539051668,1.55,-0.16,-0.4211111111111111,-0.16153872816341597,3.7501097606063407,-61.45222525187171
1590503918.8757126,-0.6994413766533967,-3.227174136381148,8.866429305252344,1.55,-0.16,-0.4211111111111111,1.7674569795813535,3.9728232952356493,-60.38451505714653
1590503918.8857126,-0.6521775230967138,-3.1832662846450708,8.711976377031926,0.9272034459907224,0.1023864655206019,-0.6696356501513793,3.0216714419366157,2.4609475499941524,-59.39415711612677
1590503918.8957126,-0.6255586109867621,-3.3022069450661893,8.80591268572403,0.8511111111111112,0.13444444444444445,-0.7,3.0625,2.25,-59.3125
1590503918.9057126,-0.5468673020527859,-3.4518878299120233,8.691860459433041,0.8511111111111112,0.13444444444444445,-0.7,1.691261913489736,4.433823619257087,-57.585755742913
1590503918.9157126,-0.49458419442837065,-3.529582127800281,8.78041373894354,0.8511111111111112,0.13444444444444445,-0.7,1.1536512151773166,5.158848784822683,-57.1875
1590503918.9257126,-0.4235835116567181,-3.4058245297893905,8.616871044036492,0.8511111111111112,0.13444444444444445,-0.7,1.650171753575853,3.291094154747156,-57.775171753575854
1590503918.9357126,-0.42296570537802025,-3.35296570537802,8.786691348402183,0.6441597384602061,0.20678585346843334,-0.7192299948038452,0.4547325604053001,4.391392244738894,-58.02198217069369
1590503918.9457126,-0.4057763851586591,-3.37211180742067,8.856055903710335,0.6,0.2222222222222222,-0.7233333333333334,1.1090843529294738,4.345108425345668,-58.37849398189595
1590503918.9557126,-0.2699544871046797,-3.2811389893803247,8.662277978760649,0.6,0.2222222222222222,-0.7233333333333334,2.500284455595752,4.970956354300385,-58.933940658186486
1590503918.9657125,-0.2674909660045573,-3.2954061270053168,8.40586645798329,0.6,0.2222222222222222,-0.7233333333333334,0.9326492623196079,3.6435585310838494,-60.59606244389716
1590503918.9757125,-0.28,-3.403117187816027,8.838888394482424,0.6,0.2222222222222222,-0.7233333333333334,1.0194824238501679,4.060473635775252,-61.41570173132155
1590503918.9857125,-0.24979205711735833,-3.3216162427487728,8.709952699687639,0.5630791809212157,0.24236085081065,-0.7107466904655659,1.548499553770638,4.547199910754127,-62.75779785809906
1590503918.9957125,-0.21555539443155453,-3.2392589907192573,8.875187064965196,0.5511111111111111,0.2488888888888889,-0.7066666666666667,1.0648111223897911,4.002311122389791,-64.14352523201856
1590503919.0057125,-0.22473944449221775,-3.3184366669533065,8.733647777108951,0.5511111111111111,0.2488888888888889,-0.7066666666666667,1.3059861123054433,4.473789932496345,-64.92772916845817
1590503919.0157125,-0.23746563465936218,-3.387328173296811,8.749587615912345,0.5511111111111111,0.2488888888888889,-0.7066666666666667,1.5308204332420274,5.340743032694192,-65.91822368255724
1590503919.0257125,-0.22151587823463428,-3.430806869608943,8.749193130391058,0.5511111111111111,0.2488888888888889,-0.7066666666666667,1.6010085870111785,4.676802498742893,-66.9191631532124
1590503919.0357125,-0.15191640378548896,-3.464520899053628,8.875208990536278,0.5365902120574834,0.24082172274798458,-0.7187674158780232,1.3981109522870663,5.350200857649842,-67.73802247634069
1590503919.0457125,-0.16458261299086194,-3.5460817485798963,8.798586070634725,0.5311111111111111,0.23777777777777775,-0.7233333333333334,1.2692717337614225,5.423445603852803,-68.65310879229439
1590503919.0557125,-0.10112892931227062,-3.5513196106590077,8.711319610659007,0.5311111111111111,0.23777777777777775,-0.7233333333333334,1.7877573001436093,5.429252433381203,-69.76182284187011
1590503919.0657125,-0.08510422698320788,-3.5702084539664156,8.684895773016791,0.5311111111111111,0.23777777777777775,-0.7233333333333334,2.1416021279675737,6.255211349160394,-70.72330993051534
1590503919.0757124,3.6547036324740154,-7.001765888022128,5.739205220736003,0.5311111111111111,0.23777777777777775,-0.7233333333333334,-59.909305648594334,61.51107056421116,-159.1441658383214
1590503919.0857124,2.2284867837159945,-3.738211460544086,2.0314950800694582,0.48283435161961114,0.2801671275751924,-0.6921300619546809,-177.60253472892146,40.0335652614316,-213.65202223615665
1590503919.0957124,-0.5607878961474723,0.16601960022096285,-0.04842420770505555,0.44,0.31777777777777777,-0.6644444444444444,-253.20668591566584,13.583357202774312,-166.8842477034188
1590503919.1057124,-0.6094279845144979,-0.5546519712412104,-0.2958718495694082,0.44,0.31777777777777777,-0.6644444444444444,-248.71704886624002,38.63370071896974,-55.91897764083116
1590503919.1157124,-0.5136601488723475,-0.4785112765248306,-0.4779157871347628,0.44,0.31777777777777777,-0.6644444444444444,-253.39174813909565,38.78562972169759,-38.159088226308185
1590503919.1257124,-0.1354848002578617,-0.9518437115977356,1.817871230282641,0.44,0.31777777777777777,-0.6644444444444444,-257.49172399726024,39.981087199580976,-26.993650405930822
1590503919.1357124,-0.36881001197702035,-1.2358967540244818,3.4431144312945334,0.4348206491951036,0.38108095428206673,-0.6414251075337939,-218.75395089421653,-7.950333428066827,-23.381725655183615
1590503919.1457124,1.2919625180540388,-1.734338253425864,4.05178955155529,0.43,0.44,-0.62,-115.48042898157607,-107.13704997005672,-25.12493174692641
1590503919.1557124,0.8578988068161939,-1.5111487455824206,4.881052521081913,0.43,0.44,-0.62,14.819185415864794,-35.59118364883305,-22.909960110570697
1590503919.1657124,-0.07698596826915416,-0.7903938451726062,2.8795192537670413,0.43,0.44,-0.62,140.0348401498844,35.823409969704215,-19.94309076775891
1590503919.1757123,0.23426971519723505,-0.9695766175933003,3.372213286364693,0.43,0.44,-0.62,191.24033971951746,-1.34330239938852,-21.10938901997275
1590503919.1857123,2.235639084660228,-2.5488492995736536,8.950935351953362,0.42194171331341784,0.5132571516962016,-0.5687199938126589,269.951649917341,-12.267755372835639,-23.60983587836074
1590503919.1957123,2.1019719593642794,-3.1634679571104227,8.752186241527319,0.4177777777777778,0.5511111111111111,-0.5422222222222223,338.2406313700469,0.18838869922606527,-24.277167473194012
1590503919.2057123,1.9810284074037416,-2.3941561912303277,14.07808472730872,0.4177777777777778,0.5511111111111111,-0.5422222222222223,393.5850118776601,1.1831819756507964,-22.727024151242205
1590503919.2157123,-0.05139636819035687,-0.7995522855353788,5.617479649342519,0.4177777777777778,0.5511111111111111,-0.5422222222222223,232.96483641202255,-14.798195835942392,-0.17431120851597015
1590503919.2257123,-0.7563127107061502,-0.057597630979498826,-1.1240225968109339,0.4177777777777778,0.5511111111111111,-0.5422222222222223,85.68014123006834,-22.444484054669704,20.161666287015947
1590503919.2357123,-0.2880141167493323,0.2796848107168596,-1.0561384543643224,0.4237229688037268,0.5154399649554171,-0.5834139029020118,12.433602526601383,-10.309194698800288,35.90529219127559
1590503919.2457123,0.6546510075514205,-1.16682882055989,5.450750552797363,0.43333333333333335,0.4577777777777778,-0.65,-35.119951812758146,19.415474154115735,51.11696097042012
1590503919.2557123,2.5429212443622067,-4.956255348675842,18.917530935584598,0.43333333333333335,0.4577777777777778,-0.65,-86.17954926564126,22.83874465132416,62.47799814964728
1590503919.2657123,1.1335172901742283,-4.169563986910763,15.064912885822942,0.43333333333333335,0.4577777777777778,-0.65,-10.003355222428581,-3.6238171044485696,61.770894136375695
1590503919.2757123,0.018523075705722924,-3.1021461494332456,10.122956024608811,0.43333333333333335,0.4577777777777778,-0.65,41.17002754643825,7.850673082629424,66.31567995687523
1590503919.2857122,-0.19395751740644038,-1.6755393276762403,4.057774967362924,0.4259480768300938,0.4033954344357412,-0.6587280304129194,20.41076989501741,1.8128484687771973,68.55079654862924
1590503919.2957122,-0.07247228055913106,-3.5858117110403542,11.21169297473071,0.4211111111111111,0.36777777777777776,-0.6644444444444444,-19.349516180023937,-10.312624201160716,68.5863395659734
1590503919.3057122,-0.013736908482754837,-3.8935735044141033,12.951876770667692,0.4211111111111111,0.36777777777777776,-0.6644444444444444,-17.103555500721974,-10.358530505748387,70.88060330646488
1590503919.3157122,-0.12268145465519843,-2.7129244001810777,8.410977818017203,0.4211111111111111,0.36777777777777776,-0.6644444444444444,5.958720009053871,-4.6768334087822545,74.84144409234948
1590503919.3257122,-0.18673722613496693,-2.8088822990030633,8.282447080398775,0.4211111111111111,0.36777777777777776,-0.6644444444444444,0.6507013676180815,-5.18617700996937,76.89218179955908
1590503919.3357122,-0.15610043089161418,-2.843707325157441,8.822436194895593,0.441445880749825,0.36777777777777776,-0.6644444444444444,-7.5241029996685445,-6.6375538614517735,78.31443694066954
1590503919.3457122,-0.24266284399481383,-2.8218262997388655,8.295817278720257,0.4544444444444444,0.36777777777777776,-0.6644444444444444,2.032727442888187,-6.608357225032414,80.04605695659319
1590503919.3557122,-0.29302587836516525,-3.032902027247246,8.895691284792386,0.4544444444444444,0.36777777777777776,-0.6644444444444444,-0.35629603676422583,-6.824029561306303,81.45971579427678
1590503919.3657122,-0.24335964837415722,-3.005730989161048,9.132766066399249,0.4544444444444444,0.36777777777777776,-0.6644444444444444,-4.18230989161048,-7.045330769394896,82.72850879064607
1590503919.3757122,-0.26038861428327936,-2.9307772285665585,8.81604208094237,0.4544444444444444,0.36777777777777776,-0.6644444444444444,-1.2506652084161884,-7.183524136886161,83.84540532734883
1590503919.3857121,3.5448864520693317,-12.360732224973468,4.797332861690838,0.47563345517431116,0.35012026883622216,-0.6674714459772825,-7.338110187477892,-5.121980014149274,63.61368942341705
1590503919.3957121,2.055852711223203,-8.623976544766709,4.486939974779319,0.5011111111111111,0.3288888888888889,-0.6711111111111111,-26.59076765447667,-4.3603688524590165,-138.1291661412358
1590503919.4057121,0.18957632091636745,-2.7716886134779237,10.717038471469145,0.5011111111111111,0.3288888888888889,-0.6711111111111111,9.697142806844589,22.407543189446752,-239.75790877403
1590503919.415712,0.18344236337314512,-1.6293526058631924,5.847698154180239,0.5011111111111111,0.3288888888888889,-0.6711111111111111,47.023067091929065,39.17162617625769,-228.27785129388346
1590503919.425712,-0.0057302671177435205,-1.7369444386791475,4.931709387517902,0.5011111111111111,0.3288888888888889,-0.6711111111111111,23.1929598804508,20.850270334779268,-205.69002174093524
1590503919.435712,-9.015267119763886,-15.054648939914975,10.465166932928975,0.49697507965304666,0.33243405871008697,-0.6711111111111111,-21.920028228317673,6.9977204110367985,-147.36094338089953
1590503919.445712,-6.693454583732953,-11.014090154155653,11.862913752368476,0.4933333333333334,0.33555555555555555,-0.6711111111111111,-17.340696566001544,-5.886481262719595,-6.463491836066339
1590503919.455712,-0.03631589438776428,-1.0074262000978562,9.479475925556784,0.4933333333333334,0.33555555555555555,-0.6711111111111111,13.974902823333274,-5.264403212946016,73.70540519725277
1590503919.465712,-0.9686946742404026,-1.9857249056459914,6.727157180435363,0.4933333333333334,0.33555555555555555,-0.6711111111111111,21.470623975448895,7.398598032861881,84.9881461819984
1590503919.475712,-0.4198155459868588,-2.124843333283669,7.342899712442451,0.4933333333333334,0.33555555555555555,-0.6711111111111111,-9.113013469016792,-8.660390623835989,86.76348670977546
1590503919.485712,-0.17843999550106854,-2.9204184006298504,10.118152063884827,0.4913811719716568,0.33755533060898035,-0.6721109986378235,-19.816162411427285,-24.30902738724553,87.0303185805871
1590503919.495712,3.3715120476870117,-8.636404374107968,8.279665225421878,0.4477777777777778,0.38222222222222224,-0.6944444444444444,-1.5131614159180589,-7.292724424901351,80.30493871211485
1590503919.505712,3.065276898439536,-9.58214032996909,8.244042307549067,0.4477777777777778,0.38222222222222224,-0.6944444444444444,-1.311838944545827,-4.02181482998771,8.75463902647946
1590503919.515712,-0.6430145106738917,-1.2686631268865696,7.717940138924247,0.4477777777777778,0.38222222222222224,-0.6944444444444444,6.963648307088045,10.339837073135252,-58.98553705858821
1590503919.525712,-1.5536573886229001,-3.930327030755498,7.974465633368498,0.4477777777777778,0.38222222222222224,-0.6944444444444444,8.708010427655603,8.272001541832346,-57.59590298628581
1590503919.535712,-3.3961547581903275,-7.398115444617784,9.333507644305772,0.45474279771190845,0.3740280811232449,-0.6858405962905183,-8.198767550702028,0.19413806552262092,-34.000682527301095
1590503919.545712,-0.9966256975090266,-5.5183781319522955,8.865821875341917,0.4666666666666667,0.36,-0.6711111111111111,-1.194424942558081,-0.8768554651883729,19.922382745541412
1590503919.555712,0.034539571491036314,-2.6583572365544383,8.881309575863577,0.4666666666666667,0.36,-0.6711111111111111,4.442879591167468,-3.9989587888062967,29.630524431569743
1590503919.565712,-0.8578319574478326,-3.4702247948205733,8.504989530433946,0.4666666666666667,0.36,-0.6711111111111111,-1.9122451803894198,-0.18905990517220683,-4.333491780788947
1590503919.575712,-1.051662198391421,-4.806177709689774,8.490505553427806,0.4666666666666667,0.36,-0.6711111111111111,-2.8583397165836844,2.491645921103026,-13.328035235541938
1590503919.585712,-0.44833614766507507,-4.959583090718528,8.83202253406312,0.45695440782578317,0.36399916540506966,-0.6785381325776692,-1.0611971584954003,0.2983215907767556,-0.5993544020030281
1590503919.595712,-0.16207339449541283,-4.427987155963303,8.677866055045872,0.4477777777777778,0.36777777777777776,-0.6855555555555556,0.40091743119266054,-0.25990825688073393,1.919598623853211
1590503919.605712,-0.13111954012156624,-4.433244828723555,8.578842529331386,0.4477777777777778,0.36777777777777776,-0.6855555555555556,-0.4377370659190501,-0.03451149696084438,-0.17374281439947226
1590503919.615712,-0.13527882256745707,-4.396654129190515,8.534721177432543,0.4477777777777778,0.36777777777777776,-0.6855555555555556,-0.5694705641864268,0.06947056418642682,-0.19447056418642683
1590503919.625712,-0.13,-4.434890958938252,8.560087232849398,0.4477777777777778,0.36777777777777776,-0.6855555555555556,-0.2805684933640725,-0.046806849336407254,-0.0625
1590503919.635712,-0.13,-4.369555112468067,8.612355910025546,0.4477777777777778,0.36777777777777776,-0.6855555555555556,0.12778054707458408,-0.0059719452925415945,-0.0625
1590503919.645712,-0.1385274957086427,-4.469077409881496,8.756747461377783,0.4811111111111111,0.36777777777777776,-0.6711111111111111,0.22239054453705046,-0.027609455462949555,-0.009203151820983186
1590503919.655712,-0.13,-4.296303640130216,8.677898786623262,0.4811111111111111,0.36777777777777776,-0.6711111111111111,0.05429213524711453,-0.1825752811482687,-0.0608584270494229
1590503919.6657119,-0.12400230370512574,-4.53,8.576009214820502,0.4811111111111111,0.36777777777777776,-0.6711111111111111,-0.2125143981570359,0.01874280092148205,-0.0374856018429641
1590503919.6757119,-0.11272969805769567,-4.5136218116538265,8.548661829605804,0.4811111111111111,0.36777777777777776,-0.6711111111111111,-0.0738181614182063,0.0625,-0.1079393871394021
1590503919.6857119,-0.12834742505764796,-4.40173712528824,8.71347425057648,0.47798958066444613,0.36649244171150397,-0.6676223417883679,0.23967140661029976,0.05217140661029977,0.010328593389700231
1590503919.6957119,-0.12349549047602465,-4.3460180380959015,8.640486471428074,0.4622222222222222,0.36,-0.65,0.1656531845248459,-0.010923407737577044,0.0625
1590503919.7057118,-0.14,-4.382098489087857,8.644231711788201,0.4622222222222222,0.36,-0.65,-0.20154781660652604,-0.040496015282789496,0.040496015282789496
1590503919.7157118,-0.14501213337727314,-4.514866532849996,8.577542466820457,0.4622222222222222,0.36,-0.65,-0.6091854159801072,0.01566291680397855,-0.01566291680397855
1590503919.7257118,-0.1500579449131805,-4.3997102754340975,8.613429908188635,0.4622222222222222,0.36,-0.65,-0.41642522952841454,0.0625,-0.0625
1590503919.7357118,-0.13,-4.4794898127118925,8.61589282775419,0.4670649053319143,0.36,-0.6554124105343617,-0.275669826536322,0.04647641618116587,-0.0625
1590503919.7457118,-0.1342687284920145,-4.432806185476044,8.715731271507986,0.4811111111111111,0.36,-0.6711111111111111,0.3216408938498191,-0.053359106150180885,-0.0625
1590503919.7557118,-0.13689080213487087,-4.412689625618451,8.682017219213838,0.4811111111111111,0.36,-0.6711111111111111,0.21113502668588569,-0.0861350266858857,-0.0625
1590503919.7657118,-0.1254867013355937,-4.334513298664406,8.62,0.4811111111111111,0.36,-0.6711111111111111,0.0497783555932281,0.009402705550846487,-0.0625
1590503919.7757118,-0.1024778174400816,-4.371563148053714,8.621651878293386,0.4811111111111111,0.36,-0.6711111111111111,-0.3646757606663267,0.0625,-0.0625
1590503919.7857118,-0.12386639469658338,-4.471376508584056,8.635910929797722,0.4811111111111111,0.36,-0.6711111111111111,-0.27555668876423595,0.0625,-0.0625
1590503919.7957118,-0.13,-4.390638519248672,8.692554076994687,0.4666666666666667,0.36,-0.6577777777777778,0.3045185093915996,0.13298149060840042,-0.003990745304200208
1590503919.8057117,-0.13,-4.39829472646624,8.723178905864959,0.4666666666666667,0.36,-0.6577777777777778,0.20881591917200593,0.22868408082799407,-0.051842040413997044
1590503919.8157117,-0.12541085749537323,-4.37529714168209,8.606118856672836,0.4666666666666667,0.36,-0.6577777777777778,0.163953578038248,0.0625,0.02425714579477689
1590503919.8257117,-0.10041221290357946,-4.458763361289262,8.63958778709642,0.4666666666666667,0.36,-0.6577777777777778,-0.3112118346763142,0.06507633064737159,-0.1862118346763142
1590503919.8357117,-0.12,-4.3986877588976245,8.629185687716628,0.4650628164304299,0.36,-0.6577777777777778,-0.25,0.15469397244061206,-0.133201506889847
1590503919.8457117,-0.12064740958723766,-4.391618523968094,8.688705180825524,0.4544444444444444,0.36,-0.6577777777777778,-0.23988422519941144,-0.06654630992023543,-0.17940738015952915
1590503919.8557117,-0.1306805563190589,-4.424467593865098,8.64378703754604,0.4544444444444444,0.36,-0.6577777777777778,0.023668984662745314,-0.12925347699411796,0.043084492331372654
1590503919.8657117,-0.11295569533707098,-4.39295569533707,8.62704430466293,0.4544444444444444,0.36,-0.6577777777777778,-0.09020964378504034,0.0,-0.00923654792834678
1590503919.8757117,-0.12355396010532498,-4.41,8.62289207978935,0.4544444444444444,0.36,-0.6577777777777778,-0.3104316240125784,0.020143874670859457,-0.04235612532914054
1590503919.8857117,-0.11,-4.423684510792051,8.65,0.4568338034716279,0.36,-0.6590810645198779,-0.3764084339640582,0.0625,-0.024436626414376727
1590503919.8957117,-0.12187323741694948,-4.452295779360451,8.6737464748339,0.4666666666666667,0.36,-0.6644444444444444,-0.0013204435734429504,0.08723591128531141,-0.07552817742937717
1590503919.9057117,-0.14,-4.413867366124277,8.67906107100578,0.4666666666666667,0.36,-0.6644444444444444,0.21167103827673453,0.10082896172326547,0.0
1590503919.9157116,-0.14,-4.412957056328123,8.640564415507816,0.4666666666666667,0.36,-0.6644444444444444,0.22799080102538508,0.018481602050770173,0.022009198974614914
1590503919.9257116,-0.13626206068391583,-4.407475878632169,8.661868969658043,0.4666666666666667,0.36,-0.6644444444444444,0.11741363782342182,-0.02745681891171091,0.03913787927447394
1590503919.9357116,-0.12454891994917408,-4.4309021601016525,8.667725540025414,0.4666666666666667,0.36,-0.6644444444444444,-0.10220775095298601,0.082353875476493,-0.03406925031766202
1590503919.9457116,-0.13,-4.4,8.66965723003899,0.4811111111111111,0.38222222222222224,-0.68,-0.12285768774368537,0.0625,-0.12357179182912358
1590503919.9557116,-0.13,-4.4,8.629887684884917,0.4811111111111111,0.38222222222222224,-0.68,0.10990147710195364,0.07830049236731788,-0.03160098473463577
1590503919.9657116,-0.128806055905082,-4.398806055905082,8.607163664569507,0.4811111111111111,0.38222222222222224,-0.68,0.2126892470338131,0.10261354822028786,-0.11007569881352523
1590503919.9757116,-0.12221103756217931,-4.396633112686538,8.66221103756218,0.4811111111111111,0.38222222222222224,-0.68,-0.13159492381810348,-0.034862030472758605,-0.027637969527241395
1590503919.9857116,-0.1294278410288847,-4.420572158971115,8.66885568205777,0.48003036638789326,0.38095075784196597,-0.6808264518471666,-0.375,0.0625,-0.1214240064305292
1590503919.9957116,-0.12185224100147098,-4.433704482002942,8.653704482002942,0.4622222222222222,0.36,-0.6944444444444444,-0.3171174687040317,0.0625,-0.07407650625919365
1590503920.0057116,-0.13,-4.445168271584789,8.655504814754366,0.4622222222222222,0.36,-0.6944444444444444,-0.0474008487024645,0.0474008487024645,-0.125
1590503920.0157115,-0.13,-4.431477068712257,8.614431206136771,0.4622222222222222,0.36,-0.6944444444444444,-0.004615839725803823,0.004615839725803823,-0.125
1590503920.0257115,-0.12595355069227335,-4.407976775346137,8.66606967396159,0.4622222222222222,0.36,-0.6944444444444444,0.14956453774006254,0.04985484591335418,0.012645154086645825
1590503920.0357115,-0.11154361493798742,-4.400771807468994,8.687684577593018,0.4622222222222222,0.36,-0.6944444444444444,0.014471390043632126,0.004823796681210704,0.057676203318789296
1590503920.0457115,-0.12553327874605216,-4.4444667212539475,8.67,0.4744444444444445,0.3744444444444445,-0.6711111111111111,-0.017291496081413033,-0.04520850391858697,-0.017291496081413033
1590503920.0557115,-0.14,-4.42485316774826,8.641692422615435,0.4744444444444445,0.3744444444444445,-0.6711111111111111,-0.030332298426630565,0.016083850786684718,-0.046416149213315286
1590503920.0657115,-0.1421043774541375,-4.407895622545863,8.583148151995513,0.4744444444444445,0.3744444444444445,-0.6711111111111111,0.07565235908835934,0.049347640911640664,0.013152359088359336
1590503920.0757115,-0.14881811089774363,-4.400590944551128,8.671181889102256,0.4744444444444445,0.3744444444444445,-0.6711111111111111,0.11391978966634661,0.0,0.05880659655544887
1590503920.0857115,-0.13623319731156985,-4.406883401344215,8.68376680268843,0.4744444444444445,0.3744444444444445,-0.6711111111111111,-0.004063775204032644,0.0,0.019478741598655785
1590503920.0957115,-0.14796571331579395,-4.4279657133157935,8.698982856657896,0.46745777815496903,0.3684558733391798,-0.6790958725847973,-0.34321427055928033,0.1684285623355682,-0.056142854111856065
1590503920.1057115,-0.13,-4.4343996560894166,8.618001719552916,0.4666666666666667,0.36777777777777776,-0.68,-0.36125107472057266,0.14625322416171796,-0.0625
1590503920.1157115,-0.12922120696982575,-4.447663620909477,8.544672758181045,0.4666666666666667,0.36777777777777776,-0.68,-0.2832952613684658,-0.004867456438589035,-0.06736745643858903
1590503920.1257114,-0.12145550117817654,-4.421455501178176,8.613099510603588,0.4666666666666667,0.36777777777777776,-0.68,0.05340311763639659,-0.0625,-0.09770935290918978
1590503920.1357114,-0.12990272491088153,-4.429902724910881,8.689124524197933,0.4666666666666667,0.36777777777777776,-0.68,0.0006079693069905093,-0.0625,0.060676092079028465
1590503920.1457114,-0.13,-4.413622034802189,8.69,0.47303587535470454,0.36140856908973995,-0.68,-0.10236228248632206,-0.011318858756838968,-0.0910434237294831
1590503920.1557114,-0.11,-4.428536146628421,8.665361466284214,0.4744444444444445,0.36,-0.68,-0.17835091642763382,0.018298167144732362,0.009149083572366181
1590503920.1657114,-0.11,-4.4217390247459765,8.597390247459769,0.4744444444444445,0.36,-0.68,-0.13586890466235596,0.10326219067528805,0.051631095337644026
1590503920.1757114,-0.12103715196965778,-4.421037151969657,8.646222911817947,0.4744444444444445,0.36,-0.68,0.11851780018963883,0.04953560037927765,-0.06898219981036117
1590503920.1857114,-0.1282680803379019,-4.428268080337902,8.689608482027412,0.4744444444444445,0.36,-0.68,0.0733244978881131,-0.040851004223773815,-0.1141755021118869
1590503920.1957114,-0.13125062429477813,-4.407498751410444,8.674997502820887,0.4744444444444445,0.36,-0.6711111111111111,-0.08594920552708976,0.125,-0.125
1590503920.2057114,-0.13900908233292023,-4.3919818353341595,8.64396367066832,0.4744444444444445,0.36,-0.6711111111111111,-0.23142029374225412,0.125,-0.125
1590503920.2157114,-0.12851823328615436,-4.438518233286155,8.578890600283074,0.4744444444444445,0.36,-0.6711111111111111,-0.3911947901923237,0.07176104196153527,-0.00926104196153526
1590503920.2257113,-0.12,-4.429692265836368,8.630461601245447,0.4744444444444445,0.36,-0.6711111111111111,-0.12307666147730537,0.125,-0.06346166926134732
1590503920.2357113,-0.12,-4.417013195084718,8.649480207372925,0.4744444444444445,0.36,-0.6711111111111111,-0.04383246927948489,0.125,-0.10308376536025755
1590503920.2457113,-0.12776911917098446,-4.394461761658031,8.698845595854923,0.46840179620034544,0.366042648244099,-0.6607522855497985,0.04855699481865285,0.07644300518134714,-0.125
1590503920.2557113,-0.13234839920140476,-4.44,8.644167608784548,0.4666666666666667,0.36777777777777776,-0.6577777777777778,-0.014677495008779738,0.23532250499122026,0.014677495008779738
1590503920.2657113,-0.13796374816630833,-4.435927496332617,8.574253762835843,0.4666666666666667,0.36777777777777776,-0.6577777777777778,-0.04977342603942688,0.1875,0.02432027811828065
1590503920.2757113,-0.13050200759631037,-4.42100401519262,8.632510037981552,0.4666666666666667,0.36777777777777776,-0.6577777777777778,0.009412642430819317,0.19063754747693978,-0.12186245252306023
1590503920.2857113,-0.139605208898535,-4.43921041779707,8.678026044492675,0.4666666666666667,0.36777777777777776,-0.6577777777777778,0.18009766684753123,0.24753255561584372,-0.06496744438415628
1590503920.2957113,-0.1315732437257167,-4.423146487451433,8.688426756274282,0.4666666666666667,0.36777777777777776,-0.6886758841168166,0.029498319857187844,0.14466554657145858,-0.00983277328572929
1590503920.3057113,-0.12086368501281095,-4.401727370025622,8.69963577984627,0.4666666666666667,0.36777777777777776,-0.6944444444444444,0.057101968669931565,0.057101968669931565,-0.07329606266013687
1590503920.3157113,-0.12766532611163364,-4.415330652223267,8.618016086660397,0.4666666666666667,0.36777777777777776,-0.6944444444444444,0.014591711802289756,0.014591711802289756,-0.1583165763954205
1590503920.3257113,-0.1201768775408316,-4.429823122459168,8.639115612295843,0.4666666666666667,0.36777777777777776,-0.6944444444444444,-0.18418354610940732,-0.12278903073960488,-0.00331645389059268
1590503920.3357112,-0.14166710230540017,-4.43,8.654444734870268,0.4666666666666667,0.36777777777777776,-0.6944444444444444,-0.0972204070608326,-0.17013979646958372,-0.13541938940875112
1590503920.3457112,-0.13156926675408442,-4.402353900131127,8.706076833114789,0.46257094816757427,0.36061027040436616,-0.6811333593223944,-0.0625,-0.07230791721302761,-0.07230791721302761
1590503920.3557112,-0.11098032227681186,-4.393921289107247,8.650196777231882,0.4622222222222222,0.36,-0.68,-0.0625,-0.11274597153985184,0.07475402846014816
1590503920.3657112,-0.12223688052907326,-4.4311184402645365,8.562236880529074,0.4622222222222222,0.36,-0.68,-0.07648050330670789,0.02097075496006184,0.15254874173323027
1590503920.3757112,-0.13664656875375764,-4.438323284376879,8.576646568753757,0.4622222222222222,0.36,-0.68,-0.16654105471098513,0.15606158206647772,-0.07260263677746287
1590503920.3857112,-0.13149479359374175,-4.431494793593742,8.639536444843808,0.4622222222222222,0.36,-0.68,-0.08118491992177176,0.08118491992177176,-0.018684919921771764
1590503920.3957112,-0.13,-4.421903295624428,8.682386817502287,0.4622222222222222,0.35640146472196815,-0.68,0.03870880469464713,0.16370880469464713,0.050604402347323565
1590503920.4057112,-0.12,-4.407862426962911,8.681449707851643,0.4622222222222222,0.3555555555555556,-0.68,0.19417991574090326,0.06917991574090328,0.10496025277729017
1590503920.4157112,-0.1214874712049269,-4.397437356024635,8.612974942409853,0.4622222222222222,0.3555555555555556,-0.68,0.2035165248460345,0.1342966950307931,-0.0532033049692069
1590503920.4257112,-0.12904524622948088,-4.44,8.631909507541039,0.4622222222222222,0.3555555555555556,-0.68,-0.05056557786851096,0.1875,0.0
1590503920.4357111,-0.12205532872260645,-4.44,8.645889342554787,0.4622222222222222,0.3555555555555556,-0.68,0.03680839096741938,0.1875,0.0
1590503920.4457111,-0.12,-4.434060180541625,8.6737592778335,0.46486214198150005,0.3522556558564583,-0.6879197592778336,0.13674774322968908,0.15037612838515546,0.03712387161484453
1590503920.4557111,-0.11155426703506247,-4.421554267035062,8.65621706814025,0.4666666666666667,0.35,-0.6933333333333334,0.1875,0.01942833793828072,0.11528583103085964
1590503920.465711,-0.13076037371262375,-4.438479252574753,8.602281121137871,0.4666666666666667,0.35,-0.6933333333333334,-0.12024766429610151,0.057747664296101515,0.05299532859220303
1590503920.475711,-0.13911571943664217,-4.421768561126716,8.627347158309927,0.4666666666666667,0.35,-0.6933333333333334,-0.06802675352098647,0.0055267535209864715,-0.05144649295802706
1590503920.485711,-0.1343628438298512,-4.431274312340298,8.63563715617015,0.4666666666666667,0.35,-0.6933333333333334,-0.1681966781902901,0.0,0.007964452126860061
1590503920.495711,-0.12501351142680667,-4.42504053428042,8.664932442865966,0.46445044952302517,0.3549864885731933,-0.6789279218996637,-0.09417223208770847,-0.06233110716491662,-0.03099666074737492
1590503920.505711,-0.12,-4.422931404072883,8.683534297963558,0.4622222222222222,0.36,-0.6644444444444444,0.18373191318327975,-0.04417872454448017,-0.0037680868167202647
1590503920.515711,-0.13826159924478165,-4.411738400755218,8.606953603020873,0.4622222222222222,0.36,-0.6644444444444444,0.1358650047201147,-0.17120249291982798,0.005432502360057344
1590503920.525711,-0.12599076868453754,-4.417004615657731,8.628018462630925,0.4622222222222222,0.36,-0.6644444444444444,0.037442304278359664,-0.0561634564175395,0.08755769572164034
1590503920.535711,-0.12777147462723581,-4.42,8.647771474627236,0.4622222222222222,0.36,-0.6644444444444444,0.09714343284044763,0.09714343284044763,-0.11785858210111907
1590503920.545711,-0.13717065219633978,-4.43434130439268,8.678682608785358,0.4654091787539288,0.36,-0.6692248792420042,0.03536684754575278,0.03536684754575278,-0.09786684754575278
1590503920.555711,-0.12999750262224666,-4.419997502622246,8.67997752360022,0.4666666666666667,0.36,-0.6711111111111111,0.12496878277808302,0.0,-0.062468782778083015
1590503920.565711,-0.12043942146289865,-4.410878842925797,8.591757685851595,0.4666666666666667,0.36,-0.6711111111111111,0.0054927682862333,0.0,0.06524638414311665
