time,acc_x,acc_y,acc_z,mag_x,mag_y,mag_z,gyr_x,gyr_y,gyr_z
1590504101.525853,-0.13,-4.41,8.77,0.4811111111111111,0.37333333333333335,-0.6444444444444445,-0.375,-0.25,0.0625
1590504101.535853,-0.1632711257091669,-4.370186622872499,8.637102120035832,0.4811111111111111,0.37333333333333335,-0.6444444444444445,0.02044453568229322,-0.2920554643177068,0.0625
1590504101.545853,-0.17463123942886363,-4.354631239428864,8.587684380285568,0.4811111111111111,0.37333333333333335,-0.6444444444444445,0.07697262321519883,-0.2644726232151988,0.03355475356960233
1590504101.555853,-0.1934386077989043,-4.359684176603287,8.58,0.4811111111111111,0.37333333333333335,-0.6444444444444445,-0.0039477924589107205,-0.26951740251369644,-0.01951740251369643
1590504101.5658529,-0.19987523594677964,-4.340374292159661,8.58,0.4811111111111111,0.37333333333333335,-0.6444444444444445,-0.24532134800423555,-0.18905955066525482,0.06094044933474517
1590504101.5758529,-0.18526110435692272,-4.35,8.650522208713845,0.4666666666666667,0.3655555555555556,-0.6522222222222223,0.0,-0.11847239107693178,0.0625
1590504101.5858529,-0.15184075879712314,-4.366895544721726,8.623104455278273,0.4666666666666667,0.3655555555555556,-0.6522222222222223,0.035199051503596084,-0.0740047424820196,0.13289810300719218
1590504101.5958529,-0.1691499542607839,-4.374407149391317,8.621185701217367,0.4666666666666667,0.3655555555555556,-0.6522222222222223,0.027544683695728656,0.16736594891281403,0.08263405108718598
1590504101.6058528,-0.17744945264716194,-4.383530328411703,8.688631423117378,0.4666666666666667,0.3655555555555556,-0.6522222222222223,-0.0845645525731427,0.22181181580895243,0.056376368382095136
1590504101.6158528,-0.1670967040477152,-4.382903295952286,8.747177471964214,0.47284047646167493,0.37172936535056383,-0.6370251519575866,-0.08064559970178,0.1875,0.098286399925445
1590504101.6258528,-0.17268151349227784,-4.377318486507722,8.747318486507723,0.4811111111111111,0.38,-0.6166666666666667,0.0625,0.15141981977557886,0.0625
1590504101.6358528,-0.1840108756342097,-4.383997281091448,8.657953778554608,0.4811111111111111,0.38,-0.6166666666666667,0.024983006821547346,-0.025067972713810616,0.0625
1590504101.6458528,-0.18152144480440985,-4.37384048160147,8.64543566558677,0.4811111111111111,0.38,-0.6166666666666667,0.0,-0.3174849499540641,0.024003010009187177
1590504101.6558528,-0.16515785561646382,-4.374842144383536,8.670315711232927,0.4811111111111111,0.38,-0.6166666666666667,0.0,-0.34670979280869646,0.06052680479420236
1590504101.6658528,-0.1666552508737773,-4.376672374563111,8.666655250873777,0.4811111111111111,0.37519342992449417,-0.6236916537000983,0.020797658980554058,-0.2707976589805541,0.125
1590504101.6758528,-0.17673503942721688,-4.37,8.666940157708867,0.4811111111111111,0.3655555555555556,-0.6377777777777778,0.021687992840210918,-0.3125,0.08418799284021092
1590504101.6858528,-0.17,-4.37,8.620370930209432,0.4811111111111111,0.3655555555555556,-0.6377777777777778,-0.0625,-0.2248702241492472,-0.03505191034030112
1590504101.6958528,-0.17,-4.372206439756499,8.581032198782495,0.4811111111111111,0.3655555555555556,-0.6377777777777778,-0.03491950304376125,0.013790248478119377,-0.11120975152188062
1590504101.7058527,-0.1738022016732717,-4.3723955966534565,8.635208806693086,0.4811111111111111,0.3655555555555556,-0.6377777777777778,0.03873623954205196,0.11002752091589608,-0.03873623954205196
1590504101.7158527,-0.18,-4.36,8.667359456711214,0.4794756762863968,0.36419269320162695,-0.6364149154238492,0.0,0.2028322014816967,0.015332201481696688
1590504101.7258527,-0.1850231432030193,-4.365023143203019,8.68497685679698,0.4744444444444445,0.36,-0.6322222222222222,-0.03139464501887061,0.2813946450188706,0.031105354981129388
1590504101.7358527,-0.1795657364572452,-4.380434263542755,8.674782868228622,0.4744444444444445,0.36,-0.6322222222222222,-0.029892926428891207,0.18207170571556483,0.03260707357110879
1590504101.7458527,-0.17,-4.3821005129988695,8.681849230501696,0.4744444444444445,0.36,-0.6322222222222222,0.0740576906355969,0.0625,0.0378141031214677
1590504101.7558527,-0.17379192406607102,-4.37,8.705687886099106,0.4744444444444445,0.36,-0.6322222222222222,0.11640142376116872,0.05065023729352812,0.011849762706471883
1590504101.7658527,-0.18517207723318482,-4.374827922766815,8.73,0.477931277553811,0.36,-0.6351726194686093,-0.15732548270740504,-0.07543629323148737,0.0625
1590504101.7758527,-0.17,-4.38779581953495,8.718979097674751,0.4888888888888889,0.36,-0.6444444444444445,-0.0625,-0.3262761279065627,0.02117161628031193
1590504101.7858527,-0.1651792455098459,-4.3751792455098455,8.626971700608305,0.4888888888888889,0.36,-0.6444444444444445,-0.0625,-0.375,-0.09487028443653675
1590504101.7958527,-0.17435446422289452,-4.37,8.608278571261053,0.4888888888888889,0.36,-0.6444444444444445,-0.0625,-0.3151897324046061,-0.0026897324046061127
1590504101.8058527,-0.18245053155827987,-4.36245053155828,8.65,0.4888888888888889,0.36,-0.6444444444444445,0.008276266641126323,-0.25,0.01531582223924912
1590504101.8158526,-0.18458397677435295,-4.35291679535487,8.64708320464513,0.4866202702795451,0.3658335907097412,-0.6424999142078641,0.125,-0.19531008709617642,-0.026040058064117605
1590504101.8258526,-0.19271845655472178,-4.3755894533973025,8.682870996842581,0.4811111111111111,0.38,-0.6377777777777778,0.027565916266863486,-0.1355755627998524,0.0625
1590504101.8358526,-0.17666770944128135,-4.384761308890696,8.673806544453482,0.4811111111111111,0.38,-0.6377777777777778,-0.029758180566852283,-0.08332681599199149,0.0625
1590504101.8458526,-0.1885719207230576,-4.364489725610992,8.581428079276943,0.4811111111111111,0.38,-0.6377777777777778,0.06887842986260284,0.1875,0.09056078506869858
1590504101.8558526,-0.15442544510942116,-4.3722127225547105,8.628850890218843,0.4811111111111111,0.38,-0.6377777777777778,-0.027659031933882312,0.14601145209917654,0.11117048403305885
1590504101.8658526,-0.16700790472333468,-4.378503952361667,8.654015809446669,0.4811111111111111,0.38,-0.6377777777777778,-0.10629940452084177,0.028050893218737355,0.07185029773957911
1590504101.8758526,-0.1723633965709648,-4.386454905143553,8.701181698285481,0.4744444444444445,0.3533333333333333,-0.6444444444444445,-0.0625,0.0625,0.05511438571573501
1590504101.8858526,-0.1893839910723344,-4.360924013391498,8.709691995536168,0.4744444444444445,0.3533333333333333,-0.6444444444444445,-0.0625,0.0625,0.001925027898955059
1590504101.8958526,-0.19742948167239405,-4.382570518327606,8.637993628293241,0.4744444444444445,0.3533333333333333,-0.6444444444444445,-0.09286852090492553,-0.25352591638029787,0.014302781357388314
1590504101.9058526,-0.18975330446672745,-4.389629956700091,8.690493391066545,0.4744444444444445,0.3533333333333333,-0.6444444444444445,-0.0015418470829535096,-0.6265418470829535,-0.1234581529170465
1590504101.9158525,-0.17452990033222593,-4.36,8.726980066445183,0.4766255075673681,0.3551788482834994,-0.6412567368032485,-0.07781353820598007,-0.7877491694352159,0.037749169435215946
1590504101.9258525,-0.20668091506372202,-4.354989313702209,8.704154199319245,0.4888888888888889,0.3655555555555556,-0.6233333333333333,0.20054866223383203,-1.0,0.25
1590504101.9358525,-0.30213571360015357,-4.28765294174105,8.60063403397639,0.4888888888888889,0.3655555555555556,-0.6233333333333333,0.3936318264708705,-1.1489154429407813,0.5052836164699108
1590504101.9458525,-0.18525493755673106,-4.365764812670193,8.624412031675483,0.4888888888888889,0.3655555555555556,-0.6233333333333333,0.276469920811293,-1.2447318382421986,1.1927681617578014
1590504101.9558525,-0.12648094176810104,-4.35012857877593,8.556866678095892,0.4888888888888889,0.3655555555555556,-0.6233333333333333,0.3951190068003886,-0.5413095034001942,1.8543452482999028
1590504101.9658525,-0.049827115559599636,-4.4124567788899,8.6671974522293,0.48697806086341117,0.3674663835810333,-0.6255171367910222,0.07785486806187443,-0.25216105550500456,1.906790263876251
1590504101.9758525,-0.10219766581021644,-4.40668140051387,8.702241867351827,0.4811111111111111,0.37333333333333335,-0.6322222222222222,0.09725291773722945,0.0695058354744589,1.507282095109524
1590504101.9858525,-0.1421703221977696,-4.385943225934077,8.647545807472614,0.4811111111111111,0.37333333333333335,-0.6322222222222222,0.011790324175960036,0.1521290274721199,0.9982258104399001
1590504101.9958525,-0.16434364994663822,-4.38,8.62606189967983,0.4811111111111111,0.37333333333333335,-0.6322222222222222,0.01894343649946638,0.3207043756670224,0.6496131270010672
1590504102.0058525,-0.1725785771648528,-4.382578577164852,8.66,0.4811111111111111,0.37333333333333335,-0.6322222222222222,0.07665167815900972,0.20165167815900972,0.40526778543933983
1590504102.0158525,-0.1783860873418072,-4.388386087341807,8.66,0.4811111111111111,0.37333333333333335,-0.6322222222222222,-0.032239137658885086,0.09276086234111491,0.33267390822740994
1590504102.0258524,-0.17,-4.368146383449633,8.69,0.4666666666666667,0.36,-0.6233333333333333,-0.011585103439795887,-0.09725531031938767,0.125
1590504102.0358524,-0.17301672266937565,-4.356983277330625,8.653799327967493,0.4666666666666667,0.36,-0.6233333333333333,-0.04364548331640228,-0.2688545166835977,0.10614548331640228
1590504102.0458524,-0.17643474925687985,-4.35356525074312,8.58069575222936,0.4666666666666667,0.36,-0.6233333333333333,0.014855211429667274,-0.28278957714066544,0.047644788570332726
1590504102.0558524,-0.15230415188416913,-4.377695848115831,8.653087544347493,0.4666666666666667,0.36,-0.6233333333333333,0.11539936714929525,-0.08170126570140951,-0.052899367149295246
1590504102.0658524,-0.16207888809345045,-4.3889605559532745,8.69623666428035,0.4653962350540025,0.36,-0.6263361716905395,0.16151389883186953,0.025986101168130465,0.04950694941593477
1590504102.0758524,-0.17672609173927467,-4.381636954130363,8.740178275217824,0.45644516615933206,0.36,-0.6474932436233968,-0.021576146740933444,0.20907614674093344,-0.04203807337046672
1590504102.0858524,-0.1892020759000973,-4.359202075900098,8.685611417450534,0.4544444444444444,0.36,-0.6522222222222223,0.0,0.18500648718780408,0.125
1590504102.0958524,-0.17106260136230944,-4.341062601362309,8.585844307492701,0.4544444444444444,0.36,-0.6522222222222223,0.0,0.128320629257217,0.125
1590504102.1058524,-0.1723256199168475,-4.38,8.62860495933478,0.4544444444444444,0.36,-0.6522222222222223,0.0,0.17296487551970316,0.01453512448029683
1590504102.1158524,-0.17927316095476303,-4.38,8.684185287638105,0.4544444444444444,0.36,-0.6522222222222223,0.0,0.12954274403273094,0.05795725596726905
1590504102.1258523,-0.18,-4.37,8.658691729857399,0.4744444444444445,0.3655555555555556,-0.6377777777777778,-0.07608082790218607,0.15493420468469749,0.040742483706558225
1590504102.1358523,-0.18,-4.37,8.688485553444265,0.4744444444444445,0.3655555555555556,-0.6377777777777778,-0.12263367725666388,-0.17093574079664714,0.18040103176999167
1590504102.1458523,-0.17105711398739354,-4.37,8.604742818649859,0.4744444444444445,0.3655555555555556,-0.6377777777777778,0.0,-0.25,0.0
1590504102.1558523,-0.18389198023269387,-4.37,8.642216039534613,0.4744444444444445,0.3655555555555556,-0.6377777777777778,-0.038175123545663256,-0.2245499176362245,-0.01272504118188775
1590504102.1658523,-0.1675711117164092,-4.37,8.674857776567181,0.4744444444444445,0.3655555555555556,-0.6377777777777778,-0.1401805517724425,-0.15654629881837168,-0.04672685059081417
1590504102.1758523,-0.17814118596208148,-4.3609294070189595,8.735352964905204,0.4875464120837255,0.3655555555555556,-0.6458405270942584,-0.30088241226300927,-0.18169120613150463,-0.0625
1590504102.1858523,-0.19462503308831017,-4.38820834436277,8.695666754902161,0.4888888888888889,0.3655555555555556,-0.6466666666666666,0.0,-0.09140645680193847,0.011197847732687179
1590504102.1958523,-0.16960959379562918,-4.379609593795629,8.631952031021855,0.4888888888888889,0.3655555555555556,-0.6466666666666666,0.009760155109270651,0.06738007755463532,0.06494003877731766
1590504102.2058523,-0.16,-4.369577653473724,8.680844693052553,0.4888888888888889,0.3655555555555556,-0.6466666666666666,0.24208100263232113,0.17430167105386857,0.12236033421077372
1590504102.2158523,-0.16,-4.360533942529508,8.700533942529507,0.48796932119918074,0.3655555555555556,-0.6462810415064665,0.06416857040471231,-0.11832571838115076,0.06083142959528769
1590504102.2258523,-0.16,-4.379321821317387,8.719321821317388,0.4556124188422783,0.3655555555555556,-0.6327120179374429,0.12288069161683352,0.11652276646733409,0.002119308383166478
1590504102.2358522,-0.1820409625604586,-4.36,8.70571326207679,0.4544444444444444,0.3655555555555556,-0.6322222222222222,0.1747439839971338,0.11224398399713381,0.09948796799426762
1590504102.2458522,-0.18830223323580342,-4.36,8.661884367349376,0.4544444444444444,0.3655555555555556,-0.6322222222222222,0.13561104227622858,0.07311104227622858,0.02122208455245715
1590504102.2558522,-0.21,-4.36358411982729,8.654653433189408,0.4544444444444444,0.3655555555555556,-0.6322222222222222,0.013366417026479692,0.04913358297352031,0.11831679148676015
1590504102.2658522,-0.21,-4.315504566122807,8.614587138435672,0.4544444444444444,0.3655555555555556,-0.6322222222222222,0.11353215391081732,-0.05103215391081732,0.06823392304459133
1590504102.2758522,-0.11091463414634146,-4.440802845528455,8.810497967479675,0.4666666666666667,0.36,-0.6377777777777778,-0.1407520325203252,-0.11928353658536583,-0.04103150406504065
1590504102.2858522,-0.24792356271777005,-4.311405524099884,8.63543100319396,0.4666666666666667,0.36,-0.6377777777777778,0.6204086817653891,0.7370222669860629,0.05411358522067364
1590504102.2958522,-0.13948263594004637,-4.401238322583607,8.65587784332178,0.4666666666666667,0.36,-0.6377777777777778,0.12950599077283265,-0.04574850230679184,-0.012245506920375515
1590504102.3058522,-0.21800547586453187,-4.35,8.59997262067734,0.4666666666666667,0.36,-0.6377777777777778,0.2751026724599726,0.03739732754002738,0.1125342241533242
1590504102.3158522,-0.20867302526083426,-4.350331743684791,8.64199046210875,0.46755131649277715,0.3604423249130552,-0.6377777777777778,0.10841281576042816,0.1688394177304817,0.0625
1590504102.3258522,-0.17373435515108604,-4.359066411212229,8.69439846727337,0.49084376323260936,0.37208854828297133,-0.6377777777777778,-0.32832056061142467,-0.32248563068785274,0.0625
1590504102.3358521,-0.17565618385243423,-4.356515724221349,8.659140459631086,0.4933333333333334,0.37333333333333335,-0.6377777777777778,0.035351149077713945,-0.0625,-0.035351149077713945
1590504102.3458521,-0.1642316145721899,-4.38,8.626347421858284,0.4933333333333334,0.37333333333333335,-0.6377777777777778,-0.07572379553809348,-0.07572379553809348,0.0625
1590504102.3558521,-0.17967817878448492,-4.37935635756897,8.65193092729309,0.4933333333333334,0.37333333333333335,-0.6377777777777778,-0.12298861740303078,-0.12298861740303078,0.06048861740303079
1590504102.365852,-0.17009142648168044,-4.360182852963361,8.709451441109918,0.4933333333333334,0.37333333333333335,-0.6377777777777778,-0.0630714155105026,-0.0630714155105026,0.0005714155105026111
1590504102.375852,-0.18,-4.38,8.76329101702923,0.4888888888888889,0.3655555555555556,-0.6233333333333333,-0.11451721410817362,-0.03105164232452086,0.01048278589182638
1590504102.385852,-0.18078230360177622,-4.379217696398224,8.724523874787566,0.4888888888888889,0.3655555555555556,-0.6233333333333333,-0.055165903733347954,0.12255530124444931,0.06005530124444932
1590504102.395852,-0.19862190388539874,-4.361378096114602,8.595512384458406,0.4888888888888889,0.3655555555555556,-0.6233333333333333,0.10777379856748429,0.0625,-0.008613100716257854
1590504102.405852,-0.19023028290184466,-4.369769717098156,8.629078868392622,0.4888888888888889,0.3655555555555556,-0.6233333333333333,0.002878536273058299,0.0625,-0.06106073186347085
1590504102.415852,-0.16661187982570141,-4.393388120174299,8.661184160232398,0.4888888888888889,0.3655555555555556,-0.6233333333333333,-0.3898020029049767,-0.22985150217873251,0.03495050072624417
1590504102.425852,-0.1893421026913981,-4.350986845962902,8.6206578973086,0.4666666666666667,0.3655555555555556,-0.6233333333333333,-0.1875,-0.189555929089381,-0.0625
1590504102.435852,-0.17294626976526006,-4.37558059535211,8.63705373023474,0.4666666666666667,0.3655555555555556,-0.6233333333333333,-0.1875,-0.24079290698356234,-0.0625
1590504102.445852,-0.1818826073309385,-4.370941303665469,8.595647821992815,0.4666666666666667,0.3655555555555556,-0.6233333333333333,-0.05661685209081715,-0.5389674083632686,0.0
1590504102.455852,-0.1965106546228159,-4.3782553273114075,8.639531963868448,0.4666666666666667,0.3655555555555556,-0.6233333333333333,-0.01090420430370035,-0.3561168172148014,0.0
1590504102.465852,-0.2,-4.371032178356826,8.730710394788566,0.4666666666666667,0.3655555555555556,-0.6233333333333333,-0.05604888526983771,-0.3125,0.05604888526983771
1590504102.475852,-0.17564421342951098,-4.37,8.764355786570489,0.47298112985160834,0.36104522470916867,-0.6350601935339392,-0.0625,-0.3125,0.011758777978147873
1590504102.485852,-0.15838987401761384,-4.363220251964773,8.715508866158524,0.4744444444444445,0.36,-0.6377777777777778,-0.27012657477982704,-0.27224685044034597,-0.05243671261008649
1590504102.495852,-0.15010761818253623,-4.379784763634928,8.640968563642828,0.4744444444444445,0.36,-0.6377777777777778,-0.37365477271829706,-0.06519045456340589,-0.0006726136408514716
1590504102.505852,-0.1922396703419089,-4.354754426996325,8.656502951330884,0.4744444444444445,0.36,-0.6377777777777778,-0.25,-0.08435655418198018,-0.010928277090990089
1590504102.515852,-0.24673738723688607,-4.331398262612764,8.640932175075175,0.4744444444444445,0.36,-0.6377777777777778,-0.25,-0.1816739057801537,-0.05958695289007685
1590504102.525852,-0.2559797283999213,-4.368659909466641,8.699279275733124,0.4888888888888889,0.38,-0.6322222222222222,-0.30412443416650264,-0.3125,0.10050679000196812
1590504102.535852,-0.231215115134816,-4.360405038378272,8.633240307026178,0.4888888888888889,0.38,-0.6322222222222222,-0.25253148986419993,-0.3125,0.7196221216296005
1590504102.545852,-0.1934700334651658,-4.374897474901126,8.613059933069668,0.4888888888888889,0.38,-0.6322222222222222,0.11479692728932157,-0.44770307271067844,0.7806092181320353
1590504102.555852,-0.16,-4.399773233648562,8.680680299054314,0.4888888888888889,0.38,-0.6322222222222222,0.06320864484824479,-0.4992913551517552,0.9382086448482448
1590504102.565852,-0.16,-4.385928603257909,8.722214190226271,0.4888888888888889,0.38,-0.6322222222222222,0.10647311481903252,-0.45602688518096746,0.9814731148190325
1590504102.575852,-0.2715096094234346,-4.31495272783633,8.749292467451953,0.48166141420403663,0.38,-0.6373847041399738,0.24115584314941102,-0.6117337647241166,0.8257662352758834
1590504102.585852,-0.29574265196405447,-4.302128674017973,8.72638602205392,0.4811111111111111,0.38,-0.6377777777777778,0.34839157477534044,-0.9693705117136915,0.7633042126123298
1590504102.595852,-0.31116521827686877,-4.268834781723131,8.57116521827687,0.4811111111111111,0.38,-0.6377777777777778,0.1875,-1.158369543078281,1.4581522846085953
1590504102.605852,-0.3182843370222011,-4.261715662977799,8.5782843370222,0.4811111111111111,0.38,-0.6377777777777778,0.1875,-0.9803915744449725,2.3480421277751375
1590504102.6158519,-0.2935692145901367,-4.268810261803288,8.668102618032878,0.4811111111111111,0.38,-0.6377777777777778,-0.08782068135274257,-0.5520510461061604,3.6637827254109703
1590504102.6258519,-0.4403855116851987,-4.178097742859046,8.688354750649177,0.4913224730156617,0.37443016623388153,-0.6377777777777778,-0.3338687662294427,-0.39556561688527864,4.6479750649177705
1590504102.6358519,-0.5794558887984471,-4.13,8.725501847097865,0.4933333333333334,0.37333333333333335,-0.6377777777777778,-0.40795034750485254,-0.5130744787427212,6.98261693068687
1590504102.6458519,-0.5099108365854289,-4.129732509756287,8.630356653658286,0.4933333333333334,0.37333333333333335,-0.6377777777777778,-0.6283436280464166,-0.18694272865893055,9.781207195099888
1590504102.6558518,-0.5027316072412287,-4.098634196379385,8.675463214482457,0.4933333333333334,0.37333333333333335,-0.6377777777777778,-1.0,-0.15060881788651864,13.501820042550767
1590504102.6658518,-0.5346013715023841,-4.082699314248808,8.739202743004768,0.4933333333333334,0.37333333333333335,-0.6377777777777778,-1.0,-0.44938785783484986,16.439813935376023
1590504102.6758518,-0.6343428501107555,-3.9712675363032246,8.7389593075724,0.4744444444444445,0.3533333333333333,-0.6166666666666667,-1.263008655344983,-0.9505086553449832,20.938333230781854
1590504102.6858518,-0.9182297563376816,-3.8164201329067193,8.730356674050373,0.4744444444444445,0.3533333333333333,-0.6166666666666667,-1.370541574370334,-1.058041574370334,25.078350613257854
1590504102.6958518,-1.0386961366050838,-3.811303863394916,8.623162231492756,0.4744444444444445,0.3533333333333333,-0.6166666666666667,-1.370059013292566,-2.0116148006115098,32.237682351721816
1590504102.7058518,-1.0739833427387184,-3.5804578800910702,8.617649691568234,0.4744444444444445,0.3533333333333333,-0.6166666666666667,-1.3514249158380198,-2.9528498316760396,40.41040276129133
1590504102.7158518,-0.6414045807468525,-2.731624082974956,8.340146334818735,0.4744444444444445,0.3533333333333333,-0.6166666666666667,-1.6064831481445445,-3.462966296289089,47.19495174064488
1590504102.7258518,-0.7107435486909022,-2.6883170088528914,8.576438123940479,0.4876733952826437,0.3533333333333333,-0.6492302379606957,-2.712572400640422,-3.7289626106611413,56.44531985778866
1590504102.7358518,-0.8383218749433127,-2.815281985234096,8.857524080758974,0.4888888888888889,0.3533333333333333,-0.6522222222222223,-6.6840613492481005,-1.2704607089085203,63.035591679213454
1590504102.7458518,-0.3549011647759608,-3.0037747088060094,9.313992108358311,0.4888888888888889,0.3533333333333333,-0.6522222222222223,-10.763834085821603,-0.06805829570891983,71.11653924953522
1590504102.7558517,-0.1645685371470125,-2.840442370621743,8.48589564901224,0.4888888888888889,0.3533333333333333,-0.6522222222222223,-2.9169683977699674,-6.387237153072355,76.95961853108714
1590504102.7658517,-0.22387468185674464,-2.9759992728154163,8.951872500302994,0.4888888888888889,0.3533333333333333,-0.6522222222222223,-0.21642073688037788,-6.546092897830566,83.73746364077081
1590504102.7758517,-0.37030724846736385,-3.060153624233682,8.898873422286332,0.4888888888888889,0.3411111111111111,-0.6233333333333333,-3.7362378290659937,-7.253200504868373,92.41212585647314
1590504102.7858517,-0.43098288277239516,-3.090786306217916,8.681081171049634,0.4888888888888889,0.3411111111111111,-0.6233333333333333,-1.0754003363876867,-7.880528715594723,99.69073028540393
1590504102.7958517,-0.5044678241673529,-3.1495742593338822,8.761914606584087,0.4888888888888889,0.3411111111111111,-0.6233333333333333,-2.0398901921965065,-8.29388151094136,104.60503574119173
1590504102.8058517,-0.6096971682317828,-3.03052995559438,8.69037853971027,0.4888888888888889,0.3411111111111111,-0.6233333333333333,-2.31273658731892,-9.060134126810803,111.97847055397831
1590504102.8158517,-0.6710584580744694,-3.0648905474711254,8.576605720718844,0.4888888888888889,0.3411111111111111,-0.6233333333333333,-1.0586209502564317,-9.771214245507235,117.01551619897427
1590504102.8258517,-0.71,-3.07,8.88,0.5277777777777778,0.3,-0.6522222222222223,-3.0,-9.9375,128.3125
1590504102.8358517,-0.7601293594711648,-3.152029860952815,8.779741281057671,0.5277777777777778,0.3,-0.6522222222222223,-3.0,-9.9375,128.3125
1590504102.8458517,-0.8366334110107777,-3.333167055053889,8.776433877075444,0.5277777777777778,0.3,-0.6522222222222223,-2.0643706306437517,-10.769170550538886,131.58720279274687
1590504102.8558517,-0.8481328451882845,-3.2524058577405857,8.767468619246863,0.5277777777777778,0.3,-0.6522222222222223,-2.1799816945606696,-11.344142259414227,139.16291841004184
1590504102.8658516,-0.9823026609186859,-3.3209580793815965,8.900571577226103,0.5277777777777778,0.3,-0.6522222222222223,-4.058825442247659,-12.212710903820426,143.69580143451762
1590504102.8758516,-1.0323957287773626,-3.2802780565936995,8.847882327816338,0.5277777777777778,0.26516219967965826,-0.6522222222222223,-3.364371329418046,-11.908422317138282,147.39191270688735
1590504102.8858516,-1.0928979571324473,-3.252443148981079,8.706647234716185,0.5277777777777778,0.2533333333333333,-0.6522222222222223,-3.1416909566047693,-11.89169095660477,151.3657797698319
1590504102.8958516,-1.1685325975883916,-3.3377988963825875,8.640733701205805,0.5277777777777778,0.2533333333333333,-0.6522222222222223,-3.3704143674637237,-12.211871551195586,155.10194410382178
1590504102.9058516,-1.22713299642549,-3.3328670035745103,8.722832491063725,0.5277777777777778,0.2533333333333333,-0.6522222222222223,-3.2054187723406877,-13.008743682977936,159.37413718723036
1590504102.9158516,-1.2554112591135533,-3.338470419704518,8.69611832118193,0.5277777777777778,0.2533333333333333,-0.6522222222222223,-3.346320369459708,-13.0625,162.37788640396826
1590504102.9258516,-1.3335854869767914,-3.3735854869767916,8.767951150298977,0.5422222222222223,0.1955555555555556,-0.6522222222222223,-3.5993893787372047,-13.147409293604946,165.79314381270902
1590504102.9358516,-1.39309719266241,-3.43309719266241,8.733944461335765,0.5422222222222223,0.1955555555555556,-0.6522222222222223,-3.174305766697071,-13.519357454140064,167.54661371237458
1590504102.9458516,-1.4133763844294527,-3.419935423355821,8.709935423355821,0.5422222222222223,0.1955555555555556,-0.6522222222222223,-3.2504036040261193,-13.771506006710199,168.62782522818284
1590504102.9558516,-1.4478123280132085,-3.3451045679691798,8.76489543203082,0.5422222222222223,0.1955555555555556,-0.6522222222222223,-3.5442694001100716,-13.817057649972481,170.27928935057787
1590504102.9658515,-1.4735152415775374,-3.3164847584224626,8.76216158614082,0.5422222222222223,0.1955555555555556,-0.6522222222222223,-3.4155297401403906,-14.00846034647948,170.32600991338012
1590504102.9758515,-1.4405756405756405,-3.2015830115830117,8.917697437697438,0.5597441597441598,0.1375141375141375,-0.6675539175539176,-3.6214022464022464,-13.754497191997192,168.83408652158653
1590504102.9858515,-1.4698557294477423,-3.125360676380644,8.688618096779996,0.56,0.13666666666666666,-0.6677777777777778,-2.971905918330635,-13.37680338190322,166.43337155963303
1590504102.9958515,-1.64006661481757,-3.2129881986947555,8.713572515470194,0.56,0.13666666666666666,-0.6677777777777778,-3.86811238291685,-13.485392080614073,161.4467905691002
1590504103.0058515,-1.6897436404245647,-3.1325639910659575,8.672307631490522,0.56,0.13666666666666666,-0.6677777777777778,-3.1923067420394124,-13.052884045223648,157.21313595754353
1590504103.0158515,-1.7693093100419635,-3.117701034449107,8.79091758563482,0.56,0.13666666666666666,-0.6677777777777778,-3.1925258612276766,-12.504316812237729,152.04819398360496
1590504103.0258515,-1.8084646831705655,-3.073838292073586,8.76537360890302,0.5517934741464153,0.06896282837459308,-0.694448986801928,-2.6152765160118103,-12.028787190551897,145.90781853281854
1590504103.0358515,-1.81,-3.078885844335243,8.866630132022918,0.5511111111111111,0.06333333333333334,-0.6966666666666667,-2.1737443103331144,-11.222488620666228,140.9460047781879
1590504103.0458515,-1.7245083822103173,-2.88336927908373,8.53803352884127,0.5511111111111111,0.06333333333333334,-0.6966666666666667,-1.1632192998660695,-9.949490255391863,135.77982554380455
1590504103.0558515,-1.8929562362115848,-2.9414781181057927,8.736138730696219,0.5511111111111111,0.06333333333333334,-0.6966666666666667,-3.1154314811964494,-11.293693243035246,128.5393579087784
1590504103.0658514,-1.9986209270307478,-2.9795403090102495,8.996322472081994,0.5511111111111111,0.06333333333333334,-0.6966666666666667,-2.6663057404007953,-10.14511148080159,123.04488632017745
1590504103.0758514,-1.69,-2.38,8.75,0.54,-0.017777777777777778,-0.6755555555555556,-0.25,-7.875,113.75
1590504103.0858514,-1.69,-2.38,8.75,0.54,-0.017777777777777778,-0.6755555555555556,-0.25,-7.875,113.75
1590504103.0958514,-1.945549688855365,-2.5236997925702433,8.75171600980577,0.54,-0.017777777777777778,-0.6755555555555556,-2.2597193412533785,-8.491286378779307,101.2188305361745
1590504103.1058514,-2.0609506592939177,-2.5258379413015737,9.029457677584007,0.54,-0.017777777777777778,-0.6755555555555556,-2.349558698426202,-7.6117077839217355,91.43243566567418
1590504103.1158514,-2.069257765667575,-2.426699182561308,8.939628882833787,0.54,-0.017777777777777778,-0.6755555555555556,-1.3253167574931881,-6.841553133514986,81.79236035422343
1590504103.1258514,-2.17109512873202,-2.505821346549015,9.05671461380394,0.54,-0.036157513732758495,-0.6986615093275313,-3.026116584068657,-6.4623549498368185,72.7327148555542
1590504103.1358514,-2.1610376221716425,-2.462405944570893,8.904766367652966,0.54,-0.05666666666666665,-0.7244444444444444,-1.4693566742535815,-4.8420052885259075,64.93871334850716
1590504103.1458514,-2.238530887554495,-2.455229086123221,8.889905404293822,0.54,-0.05666666666666665,-0.7244444444444444,-1.409954141646788,-4.555590400592251,56.396320021386856
1590504103.1558514,-2.138598368522073,-2.381956094049904,8.922656909788868,0.54,-0.05666666666666665,-0.7244444444444444,-1.3247255878119002,-3.7075710772552783,48.87179852447217
1590504103.1658514,-2.135396261524148,-2.2930186923792606,8.66596168485156,0.54,-0.05666666666666665,-0.7244444444444444,0.3377394696777467,-2.8264135583185315,42.75564841833714
1590504103.1758513,-2.244886862546437,-2.315888002364066,8.806329154002027,0.5261607611917896,-0.07778971537393523,-0.7433823501819955,-0.8673286579702801,-2.870828584093212,35.53344256585613
1590504103.1858513,-2.368302333846701,-2.2868759625636774,8.836519369742922,0.5188888888888888,-0.08888888888888889,-0.7533333333333333,-0.18473818267977715,-2.098788650633811,26.491181435848834
1590504103.1958513,-2.2432728535463147,-2.152618282837052,8.582572922996787,0.5188888888888888,-0.08888888888888889,-0.7533333333333333,0.4500566998003299,-2.08761339960066,18.18903957591805
1590504103.2058513,-2.534939836075103,-2.4031988606638377,8.93117479509388,0.5188888888888888,-0.08888888888888889,-0.7533333333333333,-1.4941834273091903,-0.5166976690112188,8.868409579724467
1590504103.2158513,-2.582448499117128,-2.4122424955856387,8.924484991171278,0.5188888888888888,-0.08888888888888889,-0.7533333333333333,-0.06621542083578569,-0.48598440258975867,2.935918187168923
1590504103.2258513,-2.5233591355723357,-2.3622394237148905,8.833918991501058,0.5188888888888888,-0.08993779378569748,-0.7470399039524818,-0.4440144071277369,0.5585171084641876,-3.93508104009352
1590504103.2358513,-2.564286060766415,-2.4397149093795476,8.918572121532831,0.5188888888888888,-0.09,-0.7466666666666667,-0.3892848480839617,0.4589272721259426,-9.010751532389646
1590504103.2458513,-2.5404257929564147,-2.420425792956415,8.811703171825659,0.5188888888888888,-0.09,-0.7466666666666667,0.08709698505601476,0.8995969850560148,-13.183146784931314
1590504103.2558513,-2.381095019082102,-2.289457872590273,8.862179273901557,0.5188888888888888,-0.09,-0.7466666666666667,0.028415206967413648,1.4613526274586555,-18.071490605734418
1590504103.2658513,-2.386117489399152,-2.27606408512681,8.82186114889191,0.5188888888888888,-0.09,-0.7466666666666667,0.3883010640851268,2.1133678194255543,-22.905941225298022
1590504103.2758512,-2.4488521967662686,-2.3377043935325372,8.820272524710049,0.5223800364381979,-0.09,-0.7697082404921062,0.569673770210821,2.673152459578358,-28.895439353253728
1590504103.2858512,-2.505739000614736,-2.410821111794151,8.926231667691226,0.5244444444444445,-0.09,-0.7833333333333333,0.43647361025731096,2.8442631948713446,-34.30131948713445
1590504103.2958512,-2.4956370867124145,-2.465436291328759,8.80972980349345,0.5244444444444445,-0.09,-0.7833333333333333,0.9186291328758578,3.4526059536805986,-40.263029768402994
1590504103.3058512,-2.472327813774898,-2.4755819534437244,8.75047516198704,0.5244444444444445,-0.09,-0.7833333333333333,0.8168046556275498,3.8328383729301656,-45.966897648188144
1590504103.3158512,-2.3896405784179877,-2.4498921735253965,8.880179710791007,0.5244444444444445,-0.09,-0.7833333333333333,0.6258985539550306,3.75,-51.16557249728344
1590504103.3258512,-2.319962021375947,-2.42,8.910025319082703,0.5144571039857955,-0.09,-0.7905464125534687,1.0622626335996679,5.029627996264398,-56.028362042129295
1590504103.3358512,-2.3435373902952055,-2.4329252194095887,8.734897367084935,0.5044444444444445,-0.09,-0.7977777777777778,1.5731304852397185,6.6356304852397185,-61.42263092043229
1590504103.3458512,-2.4248455827439264,-2.5389865132012477,8.883325352545798,0.5044444444444445,-0.09,-0.7977777777777778,0.4242877696261478,5.97288225409656,-66.79280383736766
1590504103.3558512,-2.28235693130792,-2.4706811884971818,8.802356931307921,0.5044444444444445,-0.09,-0.7977777777777778,0.8144585363523454,6.009323946689596,-71.21628093054362
1590504103.3658512,-2.2058749667137794,-2.4904996005653537,9.054873102685429,0.5044444444444445,-0.09,-0.7977777777777778,0.6625033286220529,6.444529793727852,-75.24295356316189
1590504103.3758512,-2.1244308268180037,-2.480759803181695,8.638357834998642,0.486891793535317,-0.09511952318182884,-0.8116736264141704,1.9367000482989705,8.229421997162435,-79.6756195852326
1590504103.3858511,-2.239890764025231,-2.641868916830277,8.670946572538536,0.4777777777777778,-0.09777777777777777,-0.8188888888888889,0.5340566126404611,7.4236196687413845,-84.27776066251724
1590504103.3958511,-2.2384425551339477,-2.7077427177541296,8.577156143904595,0.4777777777777778,-0.09777777777777777,-0.8188888888888889,0.6145580725228952,8.216702091238481,-88.678044135688
1590504103.4058511,-2.216242156156774,-2.779331858862257,8.563695093097417,0.4777777777777778,-0.09777777777777777,-0.8188888888888889,2.2026347597983746,9.089770213969755,-92.59237732743544
1590504103.415851,-2.236309897879026,-2.8217465305053677,8.675173911146024,0.4777777777777778,-0.09777777777777777,-0.8188888888888889,1.882510419394257,9.113673682028454,-94.05416857597974
1590504103.425851,-2.2994266804879993,-2.9182377800813333,9.00537118252133,0.48247703089422256,-0.10149801982829651,-0.8161476579042961,-0.1844450203333068,9.238721991866678,-98.24920759907504
1590504103.435851,-2.194138858811563,-2.916982642648555,8.85473963972832,0.5044444444444445,-0.11888888888888888,-0.8033333333333333,1.002169668930669,10.324349099320798,-103.36256644354759
1590504103.445851,-2.0851833545574237,-2.92,8.560733418229695,0.5044444444444445,-0.11888888888888888,-0.8033333333333333,1.3318053786881352,10.746727353176059,-106.86714348924046
1590504103.455851,-1.9751633720372324,-2.947213319259188,8.739756501295462,0.5044444444444445,-0.11888888888888888,-0.8033333333333333,0.4769380937529988,10.83247918865752,-110.34120705786393
1590504103.465851,-1.958627063851945,-2.984836085135927,8.734774467900458,0.5044444444444445,-0.11888888888888888,-0.8033333333333333,0.5972085114230544,10.46324255277603,-113.59554468334382
1590504103.475851,-1.9317693584610878,-3.0286729811541844,8.83115320769456,0.5171879916240818,-0.10242847378185724,-0.7826250691664226,0.4922492920613222,10.339603066106825,-116.5475905673274
1590504103.485851,-1.7804235049235448,-3.0052117524617725,8.711270514770634,0.5311111111111111,-0.08444444444444445,-0.76,1.307206188455688,10.285310423504924,-120.08713273556961
1590504103.495851,-1.7910438360765872,-3.0726555256970105,8.5918496808868,0.5311111111111111,-0.08444444444444445,-0.76,1.140683784010749,11.133011420893517,-122.80837672153174
1590504103.505851,-1.8354158653035058,-3.199334615514391,8.724085096332287,0.5311111111111111,-0.08444444444444445,-0.76,0.4343810102237069,10.616102760063434,-125.93911959712521
1590504103.515851,-1.7036234299164705,-3.2120061657674923,8.696018497302477,0.5311111111111111,-0.08444444444444445,-0.76,1.3598381486033286,10.194791905347136,-128.7647764909284
1590504103.525851,-1.674113288485912,-3.230584966364434,8.724698254850345,0.5356205518182705,-0.04536262498239685,-0.7795409097310237,1.557015940333431,10.641567953592668,-131.25354026518474
1590504103.535851,-1.7,-3.25,8.77,0.5377777777777778,-0.02666666666666667,-0.7888888888888889,1.375,10.5,-132.0625
1590504103.545851,-1.6581583024587403,-3.3685514763669024,8.66539575614685,0.5377777777777778,-0.02666666666666667,-0.7888888888888889,2.11594672729314,10.979436117660267,-134.06741467385203
1590504103.555851,-1.6346082888206992,-3.4631336894344056,8.679308822972308,0.5377777777777778,-0.02666666666666667,-0.7888888888888889,2.134216246164337,10.917914441034966,-135.64516209228321
1590504103.565851,-1.5904624017957352,-3.469248534730016,8.773930664671406,0.5377777777777778,-0.02666666666666667,-0.7888888888888889,2.094653323357027,10.824783327098142,-136.46965332335702
1590504103.575851,-1.4429525988501701,-3.412873988032383,8.887086706558723,0.5301662169032814,-0.03744971123886999,-0.7768372508376028,2.2322832336031913,10.643208084007979,-137.0354335327936
1590504103.585851,-1.3412335764501435,-3.414383211774928,8.735826641038468,0.5244444444444445,-0.045555555555555564,-0.7677777777777778,2.1699475367966508,10.689632757576556,-137.5196852207799
1590504103.595851,-1.3010701732749583,-3.4055350866374794,8.669643275575014,0.5244444444444445,-0.045555555555555564,-0.7677777777777778,2.36831141703151,10.63168858296849,-137.65513523617193
1590504103.605851,-1.2643355149377735,-3.4126579402489066,8.68,0.5244444444444445,-0.045555555555555564,-0.7677777777777778,2.686410610736207,10.419798484180541,-137.54588787344434
1590504103.615851,-1.2543444488526028,-3.526477835083836,8.740822283936438,0.5244444444444445,-0.045555555555555564,-0.7677777777777778,2.7827775573698608,10.429305610657535,-136.80736072539725
1590504103.625851,-1.2663092634663156,-3.6220824221321046,8.804226841334211,0.5198877541632165,-0.014359752860994932,-0.7425407239125152,2.4014177583388183,10.519716448332236,-135.89845458502305
1590504103.635851,-1.2456809338521402,-3.639112840466926,8.745976653696497,0.51,0.05333333333333334,-0.6877777777777778,2.3590953307392994,10.283657587548639,-134.39941634241245
1590504103.645851,-1.1230602195813686,-3.5352616010996467,8.683731491308961,0.51,0.05333333333333334,-0.6877777777777778,2.5604022758512692,9.953356358637969,-132.10612048266142
1590504103.655851,-1.0340646869680348,-3.4818706260639303,8.710450160771705,0.51,0.05333333333333334,-0.6877777777777778,1.9854950822772839,10.324191412899564,-129.52865519198033
1590504103.6658509,-0.9994001676002293,-3.5305998323997705,8.711550963701319,0.51,0.05333333333333334,-0.6877777777777778,2.060304381863891,9.985004190005734,-125.57251466502007
1590504103.6758509,-1.0311292647765498,-3.428567996155694,9.322200864968766,0.4965075551284105,0.1101436275294997,-0.6615030167120508,5.676297453147525,4.906355117731859,-122.03754204709274
1590504103.6858509,-0.9719076060738325,-3.286002389102019,9.5714336909329,0.4888888888888889,0.14222222222222222,-0.6466666666666666,0.8008014403528518,9.866422779168868,-116.19896453102386
1590504103.6958508,-0.8514675748317292,-3.1848327628586524,9.354641634697112,0.4888888888888889,0.14222222222222222,-0.6466666666666666,-7.931100824699639,20.194155458179228,-109.63498282832924
1590504103.7058508,-0.7255381038037995,-3.2404948887816434,8.827525556091782,0.4888888888888889,0.14222222222222222,-0.6466666666666666,-0.8699436230421611,10.779065941297768,-106.69628833413768
1590504103.7158508,-0.67,-3.2303270618664217,8.350841016227943,0.4888888888888889,0.14222222222222222,-0.6466666666666666,3.8526565954695258,6.386830701681198,-103.41953688832339
1590504103.7258508,-0.6660602651490085,-3.2427344318708227,8.31970992433768,0.49414186869021093,0.18074407409858406,-0.6466666666666666,0.7309562018838374,8.592632574504224,-99.23283948779036
1590504103.7358508,-0.6504352711769178,-3.3939118220577056,8.650429652642364,0.5022222222222222,0.24,-0.6466666666666666,1.2661822057705652,6.518972882308226,-94.61697912879664
1590504103.7458508,-0.6336329113924051,-3.4773037974683545,8.931911392405063,0.5022222222222222,0.24,-0.6466666666666666,2.7607594936708857,7.283939873417721,-88.94731012658228
1590504103.7558508,-0.6210582923914487,-3.51,9.016587438587173,0.5022222222222222,0.24,-0.6466666666666666,2.076100036515735,6.93638585513212,-86.85144320143407
1590504103.7658508,-0.5627180603827311,-3.535436120765462,8.871845818851806,0.5022222222222222,0.24,-0.6466666666666666,1.3894204597797413,5.675963632176207,-81.59774245215861
1590504103.7758508,-0.5850585566575226,-3.604824330027432,8.814707216712385,0.5022222222222222,0.25427528076715666,-0.6466666666666666,1.2132603133572484,5.909543811985651,-77.06023323749736
1590504103.7858508,-0.5635121785869933,-3.662975642826013,8.851073071521961,0.5022222222222222,0.2977777777777777,-0.6466666666666666,2.4425300227591884,5.103048883831291,-72.04359353057963
1590504103.7958508,-0.5276119283977196,-3.6648134194474347,8.76440298209943,0.5022222222222222,0.2977777777777777,-0.6466666666666666,2.3073695331499424,4.960121147789339,-67.49067097237173
1590504103.8058507,-0.4597950589556429,-3.595918023582257,8.7357130825379,0.5022222222222222,0.2977777777777777,-0.6466666666666666,2.8482067658618755,4.3494876473891075,-63.31879912970241
1590504103.8158507,-0.4171168352990481,-3.6030653176076153,8.734780129318086,0.5022222222222222,0.2977777777777777,-0.6466666666666666,2.355841764952404,4.286039558761899,-58.35403632580974
1590504103.8258507,-0.41083907082560017,-3.6532874333951986,8.854057654313596,0.5022222222222222,0.2977777777777777,-0.6466666666666666,2.0419535412800096,4.364511614679998,-55.45057025684009
1590504103.8358507,-0.3826569898659114,-3.725523299553038,8.835941939195468,0.4844444444444445,0.34444444444444444,-0.6377777777777778,2.1468391821923265,3.5332123733238925,-49.41515466654866
1590504103.8458507,-0.36,-3.659937026906685,8.697515743273328,0.4844444444444445,0.34444444444444444,-0.6377777777777778,1.420792649958654,3.1878935818332166,-44.772611077539594
1590504103.8558507,-0.3514970282317979,-3.5326950222882614,8.872813893016344,0.4844444444444445,0.34444444444444444,-0.6377777777777778,2.2829332280832095,2.0699874628528976,-39.73690564635958
1590504103.8658507,-0.32785524967311025,-3.377687564052726,9.025878184966604,0.4844444444444445,0.34444444444444444,-0.6377777777777778,3.2623566544156626,0.6796667932996431,-35.93838238152454
1590504103.8758507,-0.3018505390096839,-3.51,8.84793604969852,0.4840332135534036,0.34855675335485314,-0.6397311245102218,3.6278891832632922,0.8607664900420244,-31.985318837931665
1590504103.8858507,-0.3153786732929991,-3.5238639801210025,8.928856417458945,0.48,0.3888888888888889,-0.6588888888888889,-1.7418870192307692,3.372103230337079,-25.34891894446845
1590504103.8958507,-0.30077184089814213,-3.5630703977546445,8.622298556856503,0.48,0.3888888888888889,-0.6588888888888889,0.7020780533271893,1.240245952286199,-21.56785418804851
1590504103.9058506,-0.2814125459692568,-3.577118818953885,8.595594094769426,0.48,0.3888888888888889,-0.6588888888888889,0.5187084953832315,1.4099630923089133,-17.595009193851364
1590504103.9158506,-0.28742048563611494,-3.542579514363885,8.605812670998633,0.48,0.3888888888888889,-0.6588888888888889,1.0977804911935705,0.5211463855164159,-13.51601241877565
1590504103.9258506,-0.3242618435549027,-3.5342618435549027,8.806063165626147,0.4889796792753091,0.40156608315991354,-0.6557195903211327,0.8842269555637166,0.09221217407271393,-9.077935640837312
1590504103.9358506,-0.2912345975705672,-3.5716735121908587,8.80872432928428,0.4988888888888889,0.4155555555555556,-0.6522222222222223,0.9922837651839552,0.02340541160534826,-4.345594741326575
1590504103.9458506,-0.23568635145972325,-3.5685295271895847,8.70063746651424,0.4988888888888889,0.4155555555555556,-0.6522222222222223,0.7579683314279864,-0.28615075844182436,-0.7693097667514119
1590504103.9558506,-0.2130293228324309,-3.5390879684972925,8.628485338583785,0.4988888888888889,0.4155555555555556,-0.6522222222222223,-0.0587335630405738,-0.734833169256733,2.567998031080796
1590504103.9658506,-0.23,-3.5822539254490886,8.679386571556986,0.4988888888888889,0.4155555555555556,-0.6522222222222223,0.1672611021704145,-1.0322753106287967,6.460056833833529
1590504103.9758506,-0.23,-3.5640106998390677,8.819251301233816,0.4988888888888889,0.4155555555555556,-0.6522222222222223,-0.17479937801748513,-1.1082887506705523,8.13235251475215
1590504103.9858506,-0.21410257962940535,-3.521794840741189,8.639316135803965,0.5788888888888889,0.4533333333333333,-0.6588888888888889,0.34027819829639494,-1.6875,10.80715731096847
1590504103.9958506,-0.1958906513436328,-3.5677910057461375,8.79263668582046,0.5788888888888889,0.4533333333333333,-0.6588888888888889,-0.32170414272442627,-1.6875,12.168347641330902
1590504104.0058506,-0.27,-3.529089852545943,8.724547831771627,0.5788888888888889,0.4533333333333333,-0.6588888888888889,-0.33521736761821747,-1.7386413161908914,13.738659475557492
1590504104.0158505,-0.26798949657843085,-3.4949737414460773,8.780952734602938,0.5788888888888889,0.4533333333333333,-0.6588888888888889,-0.05307576521139462,-1.875,14.42526258553923
1590504104.0258505,-0.2343616718794427,-3.41599279689129,8.625992796891289,0.6163669583715077,0.46722606598637306,-0.6695507534830821,0.20678134773955076,-1.8386527343379775,15.58399677755663
1590504104.0358505,-0.24449458960147796,-3.4600381220492067,8.730336940265682,0.8366666666666667,0.5488888888888889,-0.7322222222222222,0.42907649335796605,-1.6896058766605084,17.038620568311778
1590504104.0458505,-0.1946590364333653,-3.2172601070629594,8.659444710770213,0.8366666666666667,0.5488888888888889,-0.7322222222222222,-0.41864039030041544,-2.1541189777085332,18.55310827141259
1590504104.0558505,-0.2635342785865412,-3.224137114346165,8.431891243250071,0.8366666666666667,0.5488888888888889,-0.7322222222222222,0.5808215176682351,-2.4962322765023526,20.173463305649413
1590504104.0658505,-0.2862716585992295,-3.3088149757976884,8.825505877704238,0.8366666666666667,0.5488888888888889,-0.7322222222222222,-0.15417119430998716,-2.2658957324903684,23.476243455497382
1590504104.0758505,-0.3020604985261712,-3.3767864808402255,8.778846979366397,0.9811305077793359,0.5166077453122069,-0.8311261514784395,-1.1965969579028704,-2.41174376842286,26.599955642045618
1590504104.0858505,-0.3045023036122188,-3.48,8.857013821673313,1.5377777777777777,0.3922222222222223,-1.2122222222222223,-0.8702621084827132,-2.5530242169654267,31.026080181191684
1590504104.0958505,-0.2880415702371075,-3.4770623553556614,8.75433256189686,1.5377777777777777,0.3922222222222223,-1.2122222222222223,-1.0956986048644164,-3.2364607440723114,34.48478641762368
1590504104.1058505,-0.2692985994397759,-3.450701400560224,8.612571802054154,1.5377777777777777,0.3922222222222223,-1.2122222222222223,-0.24853874883286647,-3.6962675070028013,38.47728758169934
1590504104.1158504,-0.2354854292615301,-3.48902914147694,8.744830139061586,1.5377777777777777,0.3922222222222223,-1.2122222222222223,-0.21571606711543684,-4.090716067115437,43.61059004702082
1590504104.1258504,-0.22349640555102973,-3.5130071888979404,8.810769769469337,1.5377777777777777,0.3922222222222223,-1.2122222222222223,-0.2906474653060641,-4.165647465306064,45.89599769183496
1590504104.1358504,-0.17248212275203118,-3.418975139214314,8.70674497154855,0.7511111111111111,0.2533333333333333,-0.7744444444444445,1.7440415512886833,-2.357465082311414,49.25359636977756
1590504104.1458504,-0.03963935111049224,-3.042010954071805,8.320929007403281,0.7511111111111111,0.2533333333333333,-0.7744444444444445,1.686201814848337,-1.9592558425584257,49.5964819907633
1590504104.1558504,-0.09678217913374901,-3.1852050916760715,8.554038187570537,0.7511111111111111,0.2533333333333333,-0.7744444444444445,-1.2941566911506226,-4.711943097929656,47.255922866287996
1590504104.1658504,-0.15093757737489338,-3.1756254642493604,8.45265729456106,0.7511111111111111,0.2533333333333333,-0.7744444444444445,-3.7641561666070595,-6.376464964648271,44.40331233321412
1590504104.1758504,-0.17617708983156583,-3.407486743605739,8.952354179663132,0.7248615443266098,0.2656203645941637,-0.7691386809454496,-1.757853926232065,-6.060511540860886,39.84878694245165
1590504104.1858504,-0.08623381940112289,-3.391133421709295,8.772467638802246,0.5540601822970819,0.34556993831011296,-0.7346150013862895,-1.808958057158453,-3.607513256394261,36.42481017038366
1590504104.1958504,-0.12490482172190549,-3.510571069668567,8.726046961059039,0.5422222222222223,0.3511111111111111,-0.7322222222222222,0.02127621026186105,-3.033034592714272,30.28912213740458
1590504104.2058504,-0.14095373336415576,-3.423814933456623,8.586704534196361,0.5422222222222223,0.3511111111111111,-0.7322222222222222,-0.8571174994220798,-2.7559608335259735,26.079672484396156
1590504104.2158504,-0.13878958317281762,-3.431973957932044,8.803566145311658,0.5422222222222223,0.3511111111111111,-0.7322222222222222,-0.47730468449033053,-2.497207026735496,20.06366534401726
1590504104.2258503,-0.10852545103092784,-3.3423054123711338,8.726220038659795,0.5410753508018328,0.356190113115693,-0.7353351589347079,0.11779558634020618,-1.5953406894329898,15.545566204896907
1590504104.2358503,-0.10956973293768546,-3.211290801186944,8.775341246290802,0.5344444444444445,0.3855555555555555,-0.7533333333333333,0.5371847181008902,-1.1821216617210681,8.656620919881306
1590504104.2458503,-0.137227202556672,-3.154818135037781,8.71854508030225,0.5344444444444445,0.3855555555555555,-0.7533333333333333,0.5994332800693335,-1.0911965441594669,2.7270028166725346
1590504104.2558503,-0.14769971934321893,-3.209975912134538,8.84,0.5344444444444445,0.3855555555555555,-0.7533333333333333,0.3748494508408654,0.32672620494574706,-3.73926128704338
1590504104.2658503,-0.10572281048097631,-3.2952409368269917,8.82810234206748,0.5344444444444445,0.3855555555555555,-0.7533333333333333,0.8185234206748025,0.7204423344400575,-9.528811748474515
1590504104.2758503,-0.0646774729679526,-3.286236630623937,8.85704377920732,0.5363500815795363,0.3763738493592041,-0.7588770049990549,0.5057131474493088,0.08300256144535906,-15.424068298691903
1590504104.2858503,-0.08928083999765363,-3.3190411199968715,9.20969203996637,0.5463736755545996,0.3280783511157169,-0.7880365511083303,0.8645122499657822,2.492082249770252,-19.627143499599164
1590504104.2958503,-0.05199591558883595,-3.15501021102791,8.53502382573179,0.5466666666666666,0.32666666666666666,-0.7888888888888889,4.124914908100749,-1.6936521443158612,-28.025374404356704
1590504104.3058503,0.0032633466135458186,-3.26,8.757894422310756,0.5466666666666666,0.32666666666666666,-0.7888888888888889,2.9046003486055776,-0.2592044322709163,-33.0079108565737
1590504104.3158503,0.05222349809489013,-3.2518471736520693,8.662953181272508,0.5466666666666666,0.32666666666666666,-0.7888888888888889,1.7338228769768778,1.3426457539537555,-37.44933190667572
1590504104.3258502,-1.5503960836671116,-4.774401980418336,6.151860814419225,0.5341456509914454,0.3295971171438461,-0.7750358502694951,0.10217442701379653,2.7247788718291055,-45.5500528482421
1590504104.3358502,-12.127921673342232,-15.313039608366712,-8.757783711615488,0.4529130198289077,0.348609009543589,-0.685161449834347,-14.237761459724076,4.18307743658211,-61.68855696484201
1590504104.3458502,4.290525325161072,0.28649163871528194,1.6603911585145146,0.44222222222222224,0.3511111111111111,-0.6733333333333333,-203.32869923505706,99.8680217055573,-563.0864663014888
1590504104.3558502,-0.48824878575283326,-0.3762987947472567,-0.6055810397553518,0.44222222222222224,0.3511111111111111,-0.6733333333333333,-248.6894000719554,-32.94286292498651,-158.0315085896744
1590504104.3658502,-0.059357470678225395,-0.7554135645079041,0.2325996940336563,0.44222222222222224,0.3511111111111111,-0.6733333333333333,-234.89240183579807,-32.372737123916366,-56.82399286078531
1590504104.3758502,0.09315217391304348,-0.6932968638631504,1.0899141126158232,0.43804284469786964,0.36663451334442065,-0.6714426625485072,-231.3787152530292,-20.497164558089807,-46.58388720598717
1590504104.3858502,1.7964072950770282,-2.852210416373752,11.977487496736096,0.3955555555555556,0.5244444444444445,-0.6522222222222223,-217.060540402113,-2.976705766565569,-32.56269206821058
1590504104.3958502,-0.3434597698021823,-2.3721476966613153,11.00067181845392,0.3955555555555556,0.5244444444444445,-0.6522222222222223,-153.09175260537128,35.936505129112135,-26.37695402846181
1590504104.4058502,0.046856962108156486,-0.46981893937741326,2.72988285595864,0.3955555555555556,0.5244444444444445,-0.6522222222222223,6.064603739010927,56.94830364738989,-31.83582518924107
1590504104.4158502,0.7115825261402271,-1.3236891397780486,7.290007697735582,0.3955555555555556,0.5244444444444445,-0.6522222222222223,85.9774720957085,-4.723547052408749,-38.11512524857271
1590504104.4258502,1.0969878496151317,-1.901064908076931,7.988732373459997,0.39354406252135216,0.5362767564103471,-0.6446495425640446,152.93565650247035,10.806668663457664,-37.275164867787694
1590504104.4358501,0.8212752602896582,-1.9099588625713013,6.3077749740240465,0.376744370698653,0.6350984730144593,-0.5814036439374127,225.47697284717657,6.582040278631863,-36.4413566339405
1590504104.4458501,2.61351279356778,-1.565927564212224,10.626627483565091,0.37666666666666665,0.6355555555555555,-0.5811111111111111,318.60390649820374,8.200211087758744,-34.90889623402332
1590504104.4558501,7.59,0.75,19.27,0.37666666666666665,0.6355555555555555,-0.5811111111111111,365.0,7.8125,-33.875
1590504104.46585,-0.07169923457901817,0.7144880684376407,-0.39473210265645875,0.37666666666666665,0.6355555555555555,-0.5811111111111111,326.6582113912652,-15.547692480864477,-25.551891040072043
1590504104.47585,0.3331609718694588,0.1332723918148272,-0.4449278765514926,0.37666666666666665,0.6355555555555555,-0.5811111111111111,67.60607508266642,-48.25182105717161,0.2741125341448232
1590504104.48585,0.8374367237855682,-0.47105761672692975,3.1769305140701145,0.37247292529127146,0.5676169452741533,-0.6624696937937781,5.862352126238008,-31.23175159173086,10.583030380443327
1590504104.49585,3.225965866183356,-4.023786739163269,16.509847152998038,0.3711111111111111,0.5455555555555556,-0.6888888888888889,-45.61023259326386,21.952537381060264,25.24861236973267
1590504104.50585,-0.05732045205978854,-0.9304265402843601,3.137973022238425,0.3711111111111111,0.5455555555555556,-0.6888888888888889,-17.403367663142546,80.83038643820635,29.51246354356544
1590504104.51585,0.2825789904633465,-1.9604715345342452,7.314540506694923,0.3711111111111111,0.5455555555555556,-0.6888888888888889,-0.04788495809652249,-15.014735454195165,13.9082097100472
1590504104.52585,0.46065905342751345,-2.572947692690668,9.303509350592774,0.3738082445640712,0.5428584221025955,-0.69205104535098,-7.291799561253384,-32.92521081619317,16.781441562684755
1590504104.53585,0.0730645960324811,-2.1906058974303746,7.55252374695759,0.4033333333333333,0.5133333333333333,-0.7266666666666667,3.349101815753764,12.600306664225558,31.82403289034398
1590504104.54585,0.18795883012330583,-3.5032242943034753,11.914132273514726,0.4033333333333333,0.5133333333333333,-0.7266666666666667,-1.1363624783450526,9.525177061041475,35.30209925608886
1590504104.55585,0.16422491617229817,-2.68845370131545,8.767614134640187,0.4033333333333333,0.5133333333333333,-0.7266666666666667,1.4507028630384318,-22.657459053391797,32.181374129481554
1590504104.56585,0.10240539445079037,-3.113462913150816,9.973094808209588,0.4033333333333333,0.5133333333333333,-0.7266666666666667,1.25751685765872,-6.864503113600353,37.30080327204392
1590504104.57585,0.08946685232824338,-2.441469637251894,7.870806683816761,0.4027409470313815,0.511911606208649,-0.7251264622815919,-5.076727006679096,16.112280510254656,47.809167827051525
1590504104.58585,0.08410860540783126,-2.323382418938629,7.621416470324245,0.3922222222222223,0.4866666666666667,-0.6977777777777778,-2.0064196959497362,-14.420346334006508,48.25715598002917
1590504104.59585,0.15621025126566038,-2.9210512563283015,9.211466532907169,0.3922222222222223,0.4866666666666667,-0.6977777777777778,-1.840768844924527,-1.8014283881202902,58.86851130345519
1590504104.60585,0.13435859944123868,-2.8080320635003524,8.694096190501057,0.3922222222222223,0.4866666666666667,-0.6977777777777778,-0.6014941643384945,-7.744077847985587,65.71537931799786
1590504104.61585,-1.2349348392701998,-8.576576889661164,7.776720243266724,0.3922222222222223,0.4866666666666667,-0.6977777777777778,-0.6070807993049522,-5.312174196350999,73.58408449174631
1590504104.62585,-4.761119315973572,-29.858181111542947,6.112763311309755,0.39443105756358776,0.48623915014898306,-0.6996303493544069,-4.370700544111932,-8.9381072677808,83.07960066070734
1590504104.63585,12.194017797770389,-18.59889751613534,7.450385096812047,0.4266666666666667,0.48,-0.7266666666666667,-53.5625,-31.75,153.5625
1590504104.64585,-1.5498642667453526,2.3353703157273533,2.8238979049867217,0.4266666666666667,0.48,-0.7266666666666667,-49.10277736795515,-30.216361758630864,147.58617955149012
1590504104.65585,-1.822610789428424,-1.2298855319230255,11.807248944180092,0.4266666666666667,0.48,-0.7266666666666667,59.75413131342086,7.953713524049762,0.1030857650633492
1590504104.66585,-0.331774350742418,0.48537789753291705,-0.007229069922985332,0.4266666666666667,0.48,-0.7266666666666667,51.63869102218655,10.20800249383707,-0.047200166255804615
1590504104.67585,-1.30348814895493,-0.424410300295628,7.21127638607956,0.4266666666666667,0.48,-0.7266666666666667,-17.329498599657697,-3.5450427234064623,-4.886171943882578
1590504104.68585,-2.2246938376582124,-3.0970620143673946,14.125641401554024,0.4577777777777778,0.4533333333333333,-0.7122222222222222,-29.940618433269805,3.0025381175780677,-2.44500134388897
1590504104.69585,-0.8445628695694671,-2.4616551825245563,9.206362703415921,0.4577777777777778,0.4533333333333333,-0.7122222222222222,0.6340651419635464,-6.477321873625568,3.4905866686214146
1590504104.70585,-0.4101141216831198,-2.587041937968214,7.946120562906953,0.4577777777777778,0.4533333333333333,-0.7122222222222222,7.8803822726318,7.356586501435273,12.88343660295456
1590504104.7158499,1.5867520828957504,-6.74228558426101,7.637780928376392,0.4577777777777778,0.4533333333333333,-0.7122222222222222,-5.884779983196806,-4.1602659192746625,1.9630745466638668
1590504104.7258499,1.2477971067017004,-10.929185769079762,8.676388511370844,0.4574121054097497,0.4533333333333333,-0.7118135295756026,-5.060831370239497,0.65487300292954,-70.39452712089638
1590504104.7358499,-0.89,-1.77,9.0,0.4388888888888889,0.4533333333333333,-0.6911111111111111,7.6875,8.5,-17.5625
1590504104.7458498,-0.061600195571697935,-1.529010965984494,8.30715652720542,0.4388888888888889,0.4533333333333333,-0.6911111111111111,8.393522560592302,-3.5965198714814566,13.87903803171055
1590504104.7558498,1.5025790726929644,-3.713971830353131,7.6491403091023455,0.4388888888888889,0.4533333333333333,-0.6911111111111111,-7.091586452062181,-0.7568753369574983,19.73201910549016
1590504104.7658498,-1.2571670398906898,-4.242527422476942,8.570647132500854,0.4388888888888889,0.4533333333333333,-0.6911111111111111,0.19818432838653358,0.4739012031730368,-13.100654249060614
1590504104.7758498,-0.2383216305461724,-4.027614718943333,8.578606862261358,0.4388888888888889,0.4533333333333333,-0.6911111111111111,2.6358515675408967,0.9216360022013892,-4.344951512506167
1590504104.7858498,0.010689456693110437,-4.643976826246903,9.212482044095198,0.4266666666666667,0.44,-0.6977777777777778,0.022269701443980078,-0.08304605971120399,2.8836182086638806
1590504104.7958498,-0.24,-4.41,8.31,0.4266666666666667,0.44,-0.6977777777777778,-0.5,-0.1875,-0.25
1590504104.8058498,-0.11936872507220464,-4.474955301884198,8.412072617246595,0.4266666666666667,0.44,-0.6977777777777778,-0.3840083894925045,0.04448322101499105,0.0979748315224866
1590504104.8158498,-0.08604964737938772,-4.416132393011701,8.5477352139766,0.4266666666666667,0.44,-0.6977777777777778,0.173862247555698,0.012603432040391091,0.025206864080782182
1590504104.8258498,-0.07403781771934091,-4.471546187367909,8.687319281051863,0.4266666666666667,0.44,-0.6977777777777778,0.6478727532870743,0.037263639254119366,0.037263639254119366
1590504104.8358498,-0.09235556857289302,-4.333703595225891,8.819614849527715,0.44074239502737705,0.4499358082546191,-0.714337458202143,0.4092589880647287,-0.17037050596763564,0.10907410119352713
1590504104.8458498,-0.09319423368740516,-4.406115326251896,8.751525037936268,0.4455555555555555,0.4533333333333333,-0.72,-0.17536039453717756,-0.12239188163884673,0.03992792109256449
1590504104.8558497,-0.09012138984553483,-4.360455211920756,8.57,0.4455555555555555,0.4533333333333333,-0.72,-0.9990516418317591,0.06212065673270365,-0.0625
1590504104.8658497,-0.1187250656391721,-4.467718996146895,8.57,0.4455555555555555,0.4533333333333333,-0.72,-0.775585424693968,-0.02726583012241278,-0.0625
1590504104.8758497,-0.11632952252858103,-4.414306657700068,8.597340954942837,0.4455555555555555,0.4533333333333333,-0.72,-0.1748570948217888,0.02294048419636853,-0.0625
1590504104.8858497,-0.1228811678333618,-4.382881167833362,8.725930510500255,0.4362524898981276,0.4483239902870259,-0.7149906569536926,0.38452919583404477,-0.05826094843776679,0.018007298958511192
1590504104.8958497,-0.12091317796000575,-4.335479067760034,8.717305423680047,0.4311111111111111,0.4455555555555555,-0.7122222222222222,0.10815889800028772,-0.23858527549992808,0.005707362250035965
1590504104.9058497,-0.0808893300248139,-4.447332009925558,8.631778660049628,0.4311111111111111,0.4455555555555555,-0.7122222222222222,-0.365272952853598,-0.005558312655086856,0.0
1590504104.9158497,-0.11959502627692097,-4.468380105107683,8.513644763507711,0.4311111111111111,0.4455555555555555,-0.7122222222222222,-0.4822823996152921,0.12246891423075602,-0.0625
1590504104.9258497,-0.10518806031669702,-4.410752241266787,8.643307457149726,0.4311111111111111,0.4455555555555555,-0.7122222222222222,0.14802236114450584,0.032425376979356296,-0.0625
1590504104.9358497,-0.11843337912087912,-4.39921668956044,8.662349931318682,0.4556889499389499,0.44043517246642244,-0.7122222222222222,0.5478129292582418,0.05760430975274725,0.052708619505494506
1590504104.9458497,-0.12,-4.334509277797272,8.709118041652047,0.4577777777777778,0.44,-0.7122222222222222,0.4601707465582365,0.011335373279118245,0.011335373279118245
1590504104.9558496,-0.1096552370684604,-4.428965711205381,8.563102866383856,0.4577777777777778,0.44,-0.7122222222222222,-0.5064643049663674,-0.1271547683221225,-0.058190463355755034
1590504104.9658496,-0.10018929363319608,-4.400757174532784,8.649337472283815,0.4577777777777778,0.44,-0.7122222222222222,-0.6869084573962623,-0.1875,0.06190845739626227
1590504104.9758496,-0.1108178650617675,-4.44327146024707,8.612137472283814,0.4577777777777778,0.44,-0.7122222222222222,-0.6536941716819765,-0.1875,0.028694171681976563
1590504104.9858496,-0.12,-4.465700208768268,8.608599582463466,0.454864857341684,0.4431777313848295,-0.7087796798886569,-0.4164613778705637,-0.1875,-0.01489561586638831
1590504104.9958496,-0.1252230155582,-4.4043309533254,8.7104460311164,0.4455555555555555,0.4533333333333333,-0.6977777777777778,0.2826438472387501,-0.12221230552249988,0.002787694477500116
1590504105.0058496,-0.13784105857772963,-4.350794707111351,8.665112589955893,0.4455555555555555,0.4533333333333333,-0.6977777777777778,0.21448676777837963,-0.11150661611081018,-0.03551323222162037
1590504105.0158496,-0.09160118191982111,-4.427117872544322,8.611280945535857,0.4455555555555555,0.4533333333333333,-0.6977777777777778,-0.5384822712026833,-0.1854985226002236,0.11899556780067083
1590504105.0258496,-0.11336947169161934,-4.445579647794413,8.63336947169162,0.4455555555555555,0.4533333333333333,-0.6977777777777778,-0.3677544025698388,-0.04144080192737912,0.0763136006424597
1590504105.0358496,-0.12,-4.431492355485168,8.64,0.43218892340595455,0.44099490365677857,-0.7306802569152572,0.15019111287080467,-0.05783638910885058,0.0625
1590504105.0458496,-0.1101166195350234,-4.400349858605071,8.709183663254837,0.4311111111111111,0.44,-0.7333333333333333,0.6198978953427263,-0.0625,0.0625
1590504105.0558496,-0.11918994970420756,-4.381620100591585,8.63648040236634,0.4311111111111111,0.44,-0.7333333333333333,0.22293970044091904,0.05237437130259456,-0.05237437130259456
1590504105.0658495,-0.12888927584685753,-4.406667827540573,8.656667827540574,0.4311111111111111,0.44,-0.7333333333333333,-0.20140581830001625,0.006942025957140538,0.048615948085718924
1590504105.0758495,-0.11491678843968177,-4.41,8.644916788439682,0.4311111111111111,0.44,-0.7333333333333333,-0.43854014450397794,-0.14140510837798345,-0.03177007225198897
1590504105.0858495,-0.11883380715470267,-4.427667614309405,8.622332385690594,0.4311111111111111,0.44490767064150144,-0.6940719682013214,-0.058309642264866124,-0.13228870528310827,0.04792258943378347
1590504105.0958495,-0.09312108067329906,-4.412080720448866,8.655838559102268,0.4311111111111111,0.4455555555555555,-0.6888888888888889,0.2239909943891744,-0.013004502805412793,0.1184977485972936
1590504105.1058495,-0.09894977822292174,-4.383150665331235,8.633150665331236,0.4311111111111111,0.4455555555555555,-0.6888888888888889,0.19406388610673916,-0.055936113893260836,0.06906388610673916
1590504105.1158495,-0.10926660083929894,-4.389266600839298,8.6392666008393,0.4311111111111111,0.4455555555555555,-0.6888888888888889,-0.15999753147371015,-0.0625,0.12041625524561836
1590504105.1258495,-0.11,-4.415885728708636,8.650354291483454,0.4311111111111111,0.4455555555555555,-0.6888888888888889,-0.4140001262005659,0.0022143217715902552,0.027928517342614603
1590504105.1358495,-0.11221115381598556,-4.437788846184015,8.657788846184015,0.4360247862577457,0.44432713676889685,-0.6940482477928552,-0.5973605773001804,0.0625,-0.048680288650090206
1590504105.1458495,-0.12,-4.41769715033845,8.66230284966155,0.4533333333333333,0.44,-0.7122222222222222,-0.038643137691857676,-0.014392810384690383,0.07689281038469038
1590504105.1558495,-0.11347930914570534,-4.41,8.624355164019937,0.4533333333333333,0.44,-0.7122222222222222,0.453771589196708,0.019008635678683203,0.125
1590504105.1658494,-0.10507208459877786,-4.390288338395112,8.644351238611,0.4533333333333333,0.44,-0.7122222222222222,0.408502643711808,0.12409894251527681,0.03260158622708478
1590504105.1758494,-0.10481104306932368,-4.389244172277295,8.680377913861353,0.4533333333333333,0.44,-0.7122222222222222,0.009447846533816029,0.097292942450181,-0.032430980816727004
1590504105.1858494,-0.11,-4.402461821787789,8.662461821787788,0.4424448536934725,0.45005090428294847,-0.7122222222222222,-0.25,0.0,-0.09422722765264202
1590504105.1958494,-0.11,-4.392958987063033,8.631835948252133,0.4388888888888889,0.4533333333333333,-0.7122222222222222,-0.07397467657583262,-0.044006330856041845,0.05102532342416738
1590504105.2058494,-0.11764738050967953,-4.38235261949032,8.62,0.4388888888888889,0.4533333333333333,-0.7122222222222222,0.2867767691129826,-0.0625,0.029407743629005792
1590504105.2158494,-0.11078829575596817,-4.38,8.67527022546419,0.4388888888888889,0.4533333333333333,-0.7122222222222222,0.14470739389920426,-0.17764630305039786,0.0
1590504105.2258494,-0.11,-4.36594441048506,8.68702779475747,0.4388888888888889,0.4533333333333333,-0.7122222222222222,-0.13854230340512746,0.032118586170939545,0.0
1590504105.2358494,-0.1018536210047126,-4.417024652967012,8.665560863014138,0.4325528163369987,0.4469972607814431,-0.7185582947741124,-0.4536594748821851,0.023170262558907445,0.0
1590504105.2458494,-0.11355512239007384,-4.450332683585111,8.653222438804963,0.4311111111111111,0.4455555555555555,-0.72,-0.41528048506203846,-0.04235975746898077,-0.04235975746898077
1590504105.2558494,-0.11150243768454302,-4.426009750738172,8.5905170637918,0.4311111111111111,0.4455555555555555,-0.72,0.04987811577284895,-0.11560976447160612,-0.009390235528393881
1590504105.2658494,-0.11,-4.3909924135667815,8.645267069474741,0.4311111111111111,0.4455555555555555,-0.72,0.17032435380190336,-0.17032435380190336,0.04532435380190336
1590504105.2758493,-0.10414438785214616,-4.385855612147854,8.675855612147855,0.4311111111111111,0.4455555555555555,-0.72,0.07770727222774056,-0.15090242407591353,0.09909757592408648
1590504105.2858493,-0.1031634936823616,-4.402653974729446,8.673673012635277,0.4381410970719147,0.44168906327711355,-0.72,-0.03954367102952008,-0.10522816448523996,0.125
1590504105.2958493,-0.10910476514250099,-4.426419060570003,8.661790469714997,0.45134392253889105,0.43442750927027657,-0.72,-0.11380956428126239,-0.06809521785936881,0.125
1590504105.3058493,-0.11703942298191877,-4.408881731054244,8.60368461614465,0.4533333333333333,0.43333333333333335,-0.72,0.050985574547969564,-0.01850360636300761,0.0810036063630076
1590504105.3158493,-0.12,-4.383884156729131,8.636405451448042,0.4533333333333333,0.43333333333333335,-0.72,0.17536201022146508,-0.050362010221465074,0.0625
1590504105.3258493,-0.11405005707379305,-4.38,8.685699657557242,0.4533333333333333,0.43333333333333335,-0.72,0.1875,-0.02531285671120661,0.0625
1590504105.3358493,-0.11,-4.38,8.704471373157487,0.44534753900525814,0.4400905439186277,-0.7156999569002672,-0.08893134212567883,-0.03455391776570985,0.0625
1590504105.3458493,-0.11680187747035572,-4.414009387351778,8.659188735177866,0.4388888888888889,0.4455555555555555,-0.7122222222222222,-0.5250586709486166,-0.14752346837944663,0.10501173418972332
1590504105.3558493,-0.1274311268291433,-4.422568873170857,8.57311985853771,0.4388888888888889,0.4455555555555555,-0.7122222222222222,-0.43922182927141795,-0.048166371953563464,0.032110914635708976
1590504105.3658493,-0.10585247761946792,-4.403901651746312,8.606344218887907,0.4388888888888889,0.4455555555555555,-0.7122222222222222,0.02745870634220149,0.0,0.050307338292775186
1590504105.3758492,-0.1,-4.393908684580729,8.668730523354167,0.4388888888888889,0.4455555555555555,-0.7122222222222222,0.1630707213704436,-0.07614144274088716,0.10057072137044358
1590504105.3858492,-0.1137390049477735,-4.396869502473887,8.713739004947774,0.4388888888888889,0.4455555555555555,-0.7175651685908008,0.058696828614623414,-0.125,-0.003803171385376586
1590504105.3958492,-0.11479171293505504,-4.394791712935055,8.70958342587011,0.4388888888888889,0.4455555555555555,-0.72,-0.13020717662362385,-0.15755179415590598,-0.029948205844094036
1590504105.4058492,-0.11,-4.403188628361675,8.638453067645516,0.4388888888888889,0.4455555555555555,-0.72,-0.22252369091317703,-0.13254738182635403,-0.08242892726046895
1590504105.4158492,-0.11,-4.39904093627819,8.608904482017556,0.4388888888888889,0.4455555555555555,-0.72,-0.012841135651588537,-0.018835283912897134,-0.05650585173869138
1590504105.4258492,-0.1163819391795131,-4.39,8.674673574256591,0.4388888888888889,0.4455555555555555,-0.72,0.34170983910369807,-0.07977423974391375,0.07977423974391375
1590504105.4358492,-0.11300835733242984,-4.38300835733243,8.7,0.4388888888888889,0.45099349985255455,-0.72,0.23781339996611894,-0.03760446665537298,0.125
1590504105.4458492,-0.102214010202812,-4.411143959188752,8.637712081622496,0.4388888888888889,0.4533333333333333,-0.72,-0.16697461739455016,0.0,0.07633756376757497
1590504105.4558492,-0.1,-4.427133513221802,8.548664867781975,0.4388888888888889,0.4533333333333333,-0.72,-0.2945844576362655,-0.04458445763626551,0.1070844576362655
1590504105.4658492,-0.11470174898702365,-4.422649125506488,8.608210493922142,0.4388888888888889,0.4533333333333333,-0.72,-0.17467110324665333,-0.10844296558444888,0.033114068831102225
1590504105.4758492,-0.10219086248662046,-4.42,8.651872758342254,0.4388888888888889,0.4533333333333333,-0.72,0.06051184909770341,-0.05079526036091864,-0.03710236981954068
1590504105.4858491,-0.10883278708799703,-4.407444808608002,8.691387978479996,0.4312162719271123,0.444963205738668,-0.7060497873422245,0.06979508070001855,0.0,-0.0625
1590504105.4958491,-0.12,-4.4,8.688881355932203,0.4266666666666667,0.44,-0.6977777777777778,-0.08799435028248588,-0.08799435028248588,0.06949152542372883
1590504105.5058491,-0.11256569287631006,-4.41486861424738,8.59822262163941,0.4266666666666667,0.44,-0.6977777777777778,-0.2643932585691864,-0.17146441952306213,0.07853558047693787
1590504105.515849,-0.11,-4.427807751785758,8.616846510714549,0.4266666666666667,0.44,-0.6977777777777778,-0.11730620535604702,0.05649224330494121,0.0625
1590504105.525849,-0.1192426575580256,-4.420757342441974,8.643863986337038,0.4266666666666667,0.44,-0.6977777777777778,0.02414991460648991,0.09611669513117004,0.033616695131170035
1590504105.535849,-0.12864764172683976,-4.40864764172684,8.6667617913658,0.43027295539509397,0.44180314436421364,-0.7045395691435791,0.1334522392072515,0.045595521585497,-0.0084522392072515
1590504105.545849,-0.11623736297788279,-4.392474725955766,8.717525274044235,0.4533333333333333,0.4533333333333333,-0.7477777777777778,0.21101648138823256,-0.1330494441646977,-0.015467037223534881
1590504105.555849,-0.11348571633135247,-4.390457148994058,8.670742822367009,0.4533333333333333,0.4533333333333333,-0.7477777777777778,0.1410713646452352,-0.16285709171618815,0.08428572707095297
1590504105.565849,-0.12467836948598222,-4.414678369485983,8.583391847429912,0.4533333333333333,0.4533333333333333,-0.7477777777777778,-0.17945923714955575,-0.05847961857477787,0.09576019071261106
1590504105.575849,-0.1191958902127249,-4.42,8.624405479716367,0.4533333333333333,0.4533333333333333,-0.7477777777777778,-0.2674828758863538,-0.1475085620568231,0.01748287588635377
1590504105.585849,-0.11134671541802656,-4.408653284581973,8.672693430836054,0.452492835894961,0.4533333333333333,-0.7397930521132405,-0.09294403818311207,-0.11658302863733405,-0.015222019091556037
1590504105.595849,-0.10706729275282256,-4.39,8.692800469564617,0.4511111111111111,0.4533333333333333,-0.7266666666666667,0.0625,-0.07166471014742948,-0.009164710147429478
1590504105.605849,-0.11033053875755909,-4.39,8.625785229979842,0.4511111111111111,0.4533333333333333,-0.7266666666666667,-0.10692115631299248,-0.04028942184350376,0.02221057815649624
1590504105.615849,-0.11301068258187472,-4.403978634836251,8.6,0.4511111111111111,0.4533333333333333,-0.7266666666666667,-0.36223293545313207,0.0,0.018816766136716984
1590504105.625849,-0.11,-4.41,8.639923604496094,0.4511111111111111,0.4533333333333333,-0.7266666666666667,-0.29491569822823394,-0.03564607544294151,0.07129215088588302
1590504105.635849,-0.10373161348721431,-4.41,8.676268386512785,0.4476286741595634,0.44497548464961906,-0.7134334062507858,-0.030790337180357563,-0.0625,0.04664516859017878
1590504105.645849,-0.10726091525747587,-4.388217254227572,8.687260915257475,0.4455555555555555,0.44,-0.7055555555555556,0.10788072035922422,-0.0625,0.0
1590504105.655849,-0.11,-4.393860147811257,8.655349630471859,0.4455555555555555,0.44,-0.7055555555555556,0.125,0.06743888573052872,0.04331296191017624
1590504105.665849,-0.11,-4.41355493602116,8.64677746801058,0.4455555555555555,0.44,-0.7055555555555556,-0.0020775251983701504,0.04028164986775323,0.020140824933876617
1590504105.675849,-0.11,-4.42,8.640914206243906,0.4455555555555555,0.44,-0.7055555555555556,-0.034106894512204874,-0.05678621097559026,0.02839310548779513
1590504105.685849,-0.10083920187793427,-4.416946400625978,8.642214397496089,0.4411448009041905,0.4440714658320292,-0.7140377760389498,-0.019084996087636932,-0.16316999217527386,0.08158499608763693
1590504105.695849,-0.09235657726692209,-4.41,8.645286845466156,0.4311111111111111,0.4533333333333333,-0.7333333333333333,0.053342911877394636,-0.21138569604086846,0.047771392081736905
1590504105.705849,-0.09327358396489828,-4.403273583964898,8.609820751894695,0.4311111111111111,0.4533333333333333,-0.7333333333333333,0.04091979956122857,-0.31362030065815716,-0.042040100219385715
1590504105.715849,-0.10277920695467045,-4.4,8.62555841390934,0.4311111111111111,0.4533333333333333,-0.7333333333333333,-0.1996751086667258,-0.05551982613323869,0.017370043466690327
1590504105.725849,-0.11,-4.420471442246331,8.645117860561584,0.4311111111111111,0.4533333333333333,-0.7333333333333333,-0.24852674298021699,0.029040114470325465,-0.06544651403956606
1590504105.735849,-0.11,-4.429931771443947,8.660068228556053,0.4359587767121737,0.45743520422654016,-0.724010899485136,-0.1875,-0.083475476158444,-0.145549047683112
1590504105.745849,-0.10711038833810102,-4.404220776676202,8.68,0.4455555555555555,0.4655555555555556,-0.7055555555555556,-0.11525970845252557,-0.1069399271131314,-0.026379854226262787
1590504105.755849,-0.10428854609673467,-4.402865638290204,8.649980177322856,0.4455555555555555,0.4655555555555556,-0.7055555555555556,0.03569658689540835,-0.008893173790816694,0.03569658689540835
1590504105.7658489,-0.10214696191862692,-4.416073480959313,8.621779557122059,0.4455555555555555,0.4655555555555556,-0.7055555555555556,0.07362223201287257,0.0625,0.024540744004290856
1590504105.7758489,-0.09478777090635494,-4.41,8.654363312719065,0.4455555555555555,0.4655555555555556,-0.7055555555555556,0.09772929550584479,0.0325764318352816,0.0625
1590504105.7858489,-0.1,-4.41,8.679046569118727,0.4455555555555555,0.4565089864368277,-0.7055555555555556,-0.05654105699204917,-0.028270528496024586,-0.02231158548807377
1590504105.7958488,-0.10599685475542203,-4.41,8.701993709510845,0.4455555555555555,0.4455555555555555,-0.7055555555555556,-0.050039315557224684,-0.0625,0.09988205332832598
1590504105.8058488,-0.11,-4.404240222170794,8.640882666049526,0.4455555555555555,0.4455555555555555,-0.7055555555555556,0.03599861143253876,0.045495834297616305,0.1420041657023837
1590504105.8158488,-0.11,-4.4,8.636959071593648,0.4455555555555555,0.4455555555555555,-0.7055555555555556,0.025813225317462295,0.05162645063492459,-0.01087354936507541
1590504105.8258488,-0.11479193868861766,-4.404791938688618,8.674791938688617,0.4455555555555555,0.4455555555555555,-0.7055555555555556,-0.11979846721544138,-0.05989923360772069,-0.032550383196139655
1590504105.8358488,-0.11580614203454895,-4.414193857965451,8.67580614203455,0.4455555555555555,0.44881744508423965,-0.7083514608658563,-0.2237883877159309,-0.0987883877159309,-0.026211612284069097
1590504105.8458488,-0.11,-4.42,8.664471499723298,0.4455555555555555,0.4533333333333333,-0.7122222222222222,-0.1875,-0.0625,-0.027946873270614278
1590504105.8558488,-0.11480954465849387,-4.4103809106830125,8.616714098073555,0.4455555555555555,0.4533333333333333,-0.7122222222222222,-0.1273806917688266,-0.0625,0.03005965411558669
1590504105.8658488,-0.12450740246085647,-4.4,8.59704441476514,0.4455555555555555,0.4533333333333333,-0.7122222222222222,-0.03432873461964707,-0.0625,0.0625
1590504105.8758488,-0.10786933375088077,-4.4044261332498245,8.65213066624912,0.4455555555555555,0.4533333333333333,-0.7122222222222222,-0.055326665622798095,-0.007173334377201905,0.034836667188600956
1590504105.8858488,-0.08674852775341436,-4.416748527753414,8.68,0.4455555555555555,0.4507089058736721,-0.7073482855114229,-0.125,0.10467829845883975,-0.021089149229419873
1590504105.8958488,-0.10436851893597836,-4.438737037871957,8.68,0.4455555555555555,0.4455555555555555,-0.6977777777777778,-0.04309026995040577,0.13289351330027052,-0.08980324334986474
1590504105.9058487,-0.11385898314616615,-4.422987117976837,8.641410168538338,0.4455555555555555,0.4455555555555555,-0.6977777777777778,0.08661864466353843,0.014262710672923146,-0.07676271067292315
1590504105.9158487,-0.117448049580751,-4.3825519504192485,8.600415603353992,0.4455555555555555,0.4455555555555555,-0.6977777777777778,0.14094969012030623,-0.030600619759387535,0.0
1590504105.9258487,-0.11,-4.394107337189988,8.676429348759951,0.4455555555555555,0.4455555555555555,-0.6977777777777778,0.059145712812875895,-0.040183429749699295,0.025670857437424824
1590504105.9358487,-0.10626454027445295,-4.403735459725548,8.692529080548905,0.4476308109586372,0.44846091311986985,-0.7031734418257902,-0.17169324656933815,-0.11746013014599278,-0.007539869854007217
1590504105.9458487,-0.1053870276003597,-4.41538702760036,8.658451889598561,0.4511111111111111,0.4533333333333333,-0.7122222222222222,-0.21633107749775185,-0.03366892250224815,-0.125
1590504105.9558487,-0.10498743259299881,-4.42,8.609924595557993,0.4511111111111111,0.4533333333333333,-0.7122222222222222,-0.06218581482497029,-0.031171453706242573,-0.09367145370624258
1590504105.9658487,-0.10791034211561149,-4.408134486826583,8.599775855289028,0.4511111111111111,0.4533333333333333,-0.7122222222222222,0.03778018088871411,0.0,0.011659457333857648
1590504105.9758487,-0.11053558978259491,-4.39,8.637098307663054,0.4511111111111111,0.4533333333333333,-0.7122222222222222,0.029576281929390883,0.0,0.08063557710591368
1590504105.9858487,-0.08638676704951366,-4.391596691762378,8.664790075287135,0.449159598957093,0.4533333333333333,-0.7111577610473032,0.1150206764851349,0.019958647029730176,-0.0724793235148651
1590504105.9958487,-0.11317553766670671,-4.406824462333294,8.67976330650006,0.4388888888888889,0.4533333333333333,-0.7055555555555556,-0.02280577916616605,0.125,-0.03969422083383395
1590504106.0058486,-0.1044946318673914,-4.415505368132608,8.610559049458695,0.4388888888888889,0.4533333333333333,-0.7055555555555556,-0.10322565248641122,0.125,0.012634203315214948
1590504106.0158486,-0.11474288512814931,-4.400514229743702,8.602171736409643,0.4388888888888889,0.4533333333333333,-0.7055555555555556,0.059286064101866466,0.125,-0.06571393589813354
1590504106.0258486,-0.11142608069437338,-4.394286959652813,8.677147838611253,0.4388888888888889,0.4533333333333333,-0.7055555555555556,0.125,0.1517934978300832,0.0
1590504106.0358486,-0.11085646798981565,-4.396381177336728,8.703618822663271,0.44411607718028157,0.4485082364489708,-0.7079681039977368,0.07976471670910151,0.09702943341820303,0.0
1590504106.0458486,-0.0993852726087901,-4.400204909130403,8.704897545434799,0.4533333333333333,0.44,-0.7122222222222222,0.0,0.001280682065020633,-0.031890341032510316
