time,acc_x,acc_y,acc_z,mag_x,mag_y,mag_z,gyr_x,gyr_y,gyr_z
1590500138.0596693,-0.01,-4.31,8.72,0.4977777777777778,0.35,-0.6088888888888889,-0.3125,0.125,-0.0625
1590500138.0696692,-0.036780104712041885,-4.318926701570681,8.702146596858638,0.4977777777777778,0.35,-0.6088888888888889,-0.033540575916230386,-0.1539594240837696,0.04908376963350784
1590500138.0796692,-0.008013701758392326,-4.301986298241608,8.5958218771409,0.4977777777777778,0.35,-0.6088888888888889,0.05008563598995204,-0.03767127197990409,0.16267127197990408
1590500138.0896692,0.0,-4.31,8.7,0.4977777777777778,0.35,-0.6088888888888889,0.034573072264836496,0.03657019580137263,0.04521346386758175
1590500138.0996692,0.0,-4.31,8.7,0.4977777777777778,0.35,-0.6088888888888889,0.2462353653613242,-0.12217652402099313,-0.0606176826806621
1590500138.1096692,0.00910270007512484,-4.291794599849751,8.709102700075126,0.48564084434427807,0.35,-0.6007975999332223,0.25,-0.011216249060939501,-0.0625
1590500138.1196692,-0.01,-4.314716960424943,8.698773678087756,0.4844444444444445,0.35,-0.6,0.125,0.044221503983845126,0.08077849601615487
1590500138.1296692,-0.01,-4.326495686582938,8.640512940251186,0.4844444444444445,0.35,-0.6,0.09214706171504411,0.1875,-0.029647061715044117
1590500138.1396692,-0.011616697194639931,-4.31161669719464,8.69161669719464,0.4844444444444445,0.35,-0.6,-0.08270871493299914,0.16729128506700086,0.10479128506700086
1590500138.1496692,-0.019703653716379062,-4.319703653716379,8.699703653716378,0.4844444444444445,0.35,-0.6,-0.18379567145473827,0.06620432854526173,0.0037043285452617314
1590500138.1596692,-0.016202469619756958,-4.321898765190122,8.722404939239514,0.49,0.3422222222222222,-0.5955555555555555,-0.10126543512348099,0.026898152685221485,-0.026898152685221485
1590500138.1696692,0.0,-4.328438220236106,8.680629321416633,0.49,0.3422222222222222,-0.5955555555555555,0.0,-0.15428337057302205,0.11523887647565932
1590500138.1796691,0.0,-4.321058955998522,8.636353735991133,0.49,0.3422222222222222,-0.5955555555555555,0.0,-0.29264457502770985,0.06911847499076339
1590500138.1896691,-0.01893814163911606,-4.293185575082652,8.64061858360884,0.49,0.3422222222222222,-0.5955555555555555,-0.006636614755524622,-0.25663661475552463,-0.06913661475552463
1590500138.1996691,-0.012856272838002437,-4.311431181485993,8.701437271619977,0.49,0.3422222222222222,-0.5955555555555555,-0.044648294762484775,-0.2946482947624848,-0.10714829476248477
1590500138.209669,-0.0014531063895185763,-4.311453106389518,8.72145310638952,0.49664758391926334,0.34886980614148555,-0.583210042562638,-0.009081914934491106,-0.2590819149344911,-0.125
1590500138.219669,-0.008001216085880824,-4.318001216085881,8.703997567828237,0.4977777777777778,0.35,-0.5811111111111111,0.0,3.8002683775739676e-05,0.07503040214702061
1590500138.229669,0.0,-4.319250796737428,8.633746016312863,0.4977777777777778,0.35,-0.5811111111111111,-0.009365040782153082,0.30781747960892347,-0.11095243882677037
1590500138.239669,0.0,-4.3116988062442605,8.671505968778696,0.4977777777777778,0.35,-0.5811111111111111,-0.10376492194674013,0.26061753902662993,0.030647382920110183
1590500138.249669,0.0,-4.327377452290587,8.706066178435881,0.4977777777777778,0.35,-0.5811111111111111,0.09221815363233013,0.3043045384080825,0.0625
1590500138.259669,0.0,-4.314105656166852,8.725894343833147,0.4915966440648871,0.3650113247313058,-0.5855262066203187,0.125,0.21316035104282893,0.0625
1590500138.269669,-0.027846875472840066,-4.32,8.64569375094568,0.49,0.3688888888888889,-0.5866666666666667,0.1875,-0.05577148585262521,-0.05577148585262521
1590500138.279669,-0.011981010742926314,-4.32,8.613962021485852,0.49,0.3688888888888889,-0.5866666666666667,0.1875,-0.006190658571644719,-0.006190658571644719
1590500138.289669,0.0,-4.32,8.673994689367019,0.49,0.3688888888888889,-0.5866666666666667,0.050016595728064356,-0.012483404271935646,0.0625
1590500138.299669,0.0,-4.32,8.706751142176579,0.49,0.3688888888888889,-0.5866666666666667,-0.05234731930180794,-0.11484731930180794,0.0625
1590500138.309669,-0.019015213764597496,-4.32,8.747045641293793,0.5044444444444445,0.35,-0.6088888888888889,0.0625,-0.02461965588506262,-0.056345086028734344
1590500138.319669,-0.01,-4.32,8.706983953469186,0.5044444444444445,0.35,-0.6088888888888889,0.05510451901658279,-0.20562711409949674,0.0
1590500138.329669,-0.01,-4.32,8.61182410692187,0.5044444444444445,0.35,-0.6088888888888889,0.0010364243874267862,0.1187814536754393,0.0
1590500138.339669,-0.01,-4.311311704274723,8.59721437351098,0.5044444444444445,0.35,-0.6088888888888889,-0.25,0.18340092414148926,-0.050202772424467745
1590500138.349669,-0.01,-4.324041184236483,8.667226513300657,0.5044444444444445,0.35,-0.6088888888888889,-0.25,0.14362129926099032,0.0691361022170291
1590500138.359669,-0.0009833481529383237,-4.33,8.7,0.49843334321307003,0.35,-0.5968666864261399,0.03177037022067736,0.06864592595586452,0.06864592595586452
1590500138.369669,-0.00973280391170912,-4.30026719608829,8.697862431293672,0.4977777777777778,0.35,-0.5955555555555555,0.12333002444818199,0.0625,0.060830024448181995
1590500138.379669,-0.0024602500303434888,-4.307539749969656,8.639682000242747,0.4977777777777778,0.35,-0.5955555555555555,0.0778765626896468,0.0625,0.015376562689646801
1590500138.389669,-0.006067243791535502,-4.31,8.662470706540748,0.4977777777777778,0.35,-0.5955555555555555,0.02457972630290311,0.10042027369709688,0.07584054739419378
1590500138.399669,-0.0028577392134060894,-4.31,8.72571130393297,0.4977777777777778,0.35,-0.5955555555555555,-0.08927825983242389,0.03572174016757611,0.03572174016757611
1590500138.409669,-0.007040840749363563,-4.31,8.76112252224809,0.49230156830605054,0.34452379052827276,-0.5955555555555555,-0.08099474531647773,0.0,0.0
1590500138.419669,-0.009548850574712643,-4.310902298850574,8.7263908045977,0.49,0.3422222222222222,-0.5955555555555555,-0.0737787356321839,0.07095905172413793,0.125
1590500138.429669,-0.0015137931034482754,-4.326972413793103,8.662110344827587,0.49,0.3422222222222222,-0.5955555555555555,-0.2746551724137931,0.22161637931034484,0.125
1590500138.439669,-0.01,-4.300855094904226,8.64427547452113,0.49,0.3422222222222222,-0.5955555555555555,-0.13568868630282363,0.19284434315141183,-0.10896697054576454
1590500138.449669,-0.01,-4.308152194714591,8.680760973572957,0.49,0.3422222222222222,-0.5955555555555555,-0.2269024339323927,0.23845121696619637,0.027853650898589044
1590500138.4596689,-0.0007178609734920068,-4.290957147964656,8.700239286991163,0.5044444444444445,0.3622222222222222,-0.5866666666666667,-0.373504456305225,0.06549108738955003,0.12051336891567496
1590500138.4696689,-0.03,-4.33,8.71,0.5044444444444445,0.3622222222222222,-0.5866666666666667,-0.3125,0.1875,-0.0625
1590500138.4796689,-0.01562282931719718,-4.351565756024205,8.666868487951591,0.5044444444444445,0.3622222222222222,-0.5866666666666667,0.002000608686311689,0.09764268323248237,0.027357316767517625
1590500138.4896688,0.008233894044339848,-4.287064423822641,8.66823389404434,0.5044444444444445,0.3622222222222222,-0.5866666666666667,0.18198091888856202,-0.1654236755542481,-0.22240459444281013
1590500138.4996688,-0.003583744924683177,-4.293583744924683,8.703959362311709,0.5044444444444445,0.3622222222222222,-0.5866666666666667,0.22994920288963494,-0.10260159422073015,-0.1226523913310952
1590500138.5096688,-0.01,-4.3,8.762958946833974,0.5101723040223076,0.351721146329473,-0.5818934503517806,0.30369868354246754,-0.0625,-0.00880131645753246
1590500138.5196688,-0.019645943685531082,-4.319291887371063,8.702478394201282,0.5111111111111111,0.35,-0.5811111111111111,0.19192570393086145,-0.18307429606913855,0.0
1590500138.5296688,-0.02,-4.32,8.639070456399468,0.5111111111111111,0.35,-0.5811111111111111,0.24190137821476107,-0.07869724357047787,0.0
1590500138.5396688,-0.02959341005541039,-4.31040658994459,8.660203294972295,0.5111111111111111,0.35,-0.5811111111111111,0.12754118715368506,0.11737643853894479,-0.06377059357684253
1590500138.5496688,-0.014047738181279072,-4.3259522618187205,8.667976130909361,0.5111111111111111,0.35,-0.5811111111111111,0.2247016363670058,-0.1741049091010174,-0.1123508181835029
1590500138.5596688,-0.003402943177951684,-4.3234029431779515,8.702985284110241,0.5023150353483801,0.35806306944917016,-0.5811111111111111,0.291231605137802,-0.291231605137802,-0.08376839486219803
1590500138.5696688,0.0,-4.290693654678968,8.700462436452645,0.4977777777777778,0.3622222222222222,-0.5811111111111111,0.12933534174355113,-0.12933534174355113,-0.12355488608548296
1590500138.5796688,0.0,-4.296995311521471,8.630046884785294,0.4977777777777778,0.3622222222222222,-0.5811111111111111,0.08127930299080924,-0.16872069700919076,-0.125
1590500138.5896688,-0.018238775587137632,-4.309119387793569,8.636477551174275,0.4977777777777778,0.3622222222222222,-0.5811111111111111,0.005503826290194892,0.04048469483922043,-0.06800382629019489
1590500138.5996687,-0.005372186213136853,-4.302686093106568,8.698511255147453,0.4977777777777778,0.3622222222222222,-0.5811111111111111,0.0,0.0625,-0.0625
1590500138.6096687,0.0,-4.30925449263613,8.738508985272261,0.49057983906078756,0.3509111756669519,-0.5985918194238016,0.11568115795162816,0.004659421024185921,-0.12034057897581407
1590500138.6196687,0.0,-4.31,8.724467810655513,0.49,0.35,-0.6,0.17353809170152054,0.04853809170152054,-0.027923816596958917
1590500138.6296687,0.0,-4.320101794095536,8.640101794095537,0.49,0.35,-0.6,0.2487275738057988,0.2493637869028994,-0.18495514761159762
1590500138.6396687,0.0,-4.328623849482902,8.648623849482902,0.49,0.35,-0.6,0.14220188146372187,0.19610094073186093,0.028096237072556235
1590500138.6496687,-0.029073804642550095,-4.3241852390714905,8.66162952185702,0.49,0.35,-0.6,0.015973232590437134,0.15115774419681238,-0.010184511606375249
1590500138.6596687,-0.021501285347043705,-4.32,8.692798971722366,0.49,0.35379982862039416,-0.6050664381605255,0.008746786632390743,-0.08874035989717224,0.04437017994858612
1590500138.6696687,-0.009807499833188764,-4.32,8.71980749983319,0.49,0.3566666666666667,-0.6088888888888889,-0.06009374791485955,-0.06610937812771067,0.002406252085140448
1590500138.6796687,-0.00021316866586225738,-4.310213168665862,8.612344855324483,0.49,0.3566666666666667,-0.6088888888888889,0.18217078335344358,-0.1848353916767218,-0.12233539167672179
1590500138.6896687,0.009332393469462004,-4.31,8.647329573877848,0.49,0.3566666666666667,-0.6088888888888889,0.1291725408158625,-0.1291725408158625,-0.008345081631724954
1590500138.6996686,0.0024692549761569198,-4.317530745023843,8.710245960190745,0.49,0.3566666666666667,-0.6088888888888889,0.030865687201961506,-0.125,-0.0941343127980385
1590500138.7096686,0.0,-4.32,8.735363049357053,0.49,0.35309130042863185,-0.6017381564128192,0.0,-0.15851905848157619,-0.19203811696315237
1590500138.7196686,0.0,-4.313690341551685,8.708451707758426,0.49,0.35,-0.5955555555555555,0.1971768265098394,-0.029758538792128475,-0.17112926939606424
1590500138.7296686,0.0,-4.31,8.658439340400472,0.49,0.35,-0.5955555555555555,0.11524587750294463,0.18085247349823322,-0.08554917550058894
1590500138.7396686,-0.008969671146918698,-4.3189696711469185,8.693818026881512,0.49,0.35,-0.5955555555555555,-0.28030222334120924,0.36212088933648373,-0.006439555331758141
1590500138.7496686,-0.017494753310184304,-4.312505246689815,8.722484259930553,0.49,0.35,-0.5955555555555555,-0.03144675086808868,0.28131558362269626,-0.09368441637730376
1590500138.7596686,-0.010635116687252161,-4.3193648833127485,8.673810700123513,0.49,0.3562432555418319,-0.6153258647713565,0.23809156211402197,-0.042652603523369914,-0.06646947929532601
1590500138.7696686,-0.01,-4.294089760480335,8.67,0.49,0.3566666666666667,-0.6166666666666667,0.19602033433403165,-0.0625,-0.0625
1590500138.7796686,-0.0008060895368339569,-4.317581731389498,8.614836537221004,0.49,0.3566666666666667,-0.6166666666666667,0.015114178815636703,-0.0625,-0.005038059605212232
1590500138.7896686,0.0,-4.306759102924874,8.636481794150251,0.49,0.3566666666666667,-0.6166666666666667,-0.0827556067195361,-0.0625,-0.04137780335976805
1590500138.7996686,-0.005773064078480485,-4.3,8.673092256313922,0.49,0.3566666666666667,-0.6166666666666667,-0.125,-0.0625,0.009663300981006054
1590500138.8096685,-0.03661978749256741,-4.326619787492567,8.749894521858277,0.48630280729269904,0.35223003541790543,-0.6026173343789227,-0.125,-0.02090658204286342,0.02090658204286342
1590500138.8196685,-0.015084868183459735,-4.331271217045865,8.74508486818346,0.4844444444444445,0.35,-0.5955555555555555,0.03866468039003251,-0.10910978692668834,0.05455489346334417
1590500138.8296685,-0.0010280440522347223,-4.312056088104469,8.623364572679051,0.4844444444444445,0.35,-0.5955555555555555,0.5110977973882639,-0.5735977973882639,0.006425275326467014
1590500138.8396685,0.0,-4.3014417980390816,8.618558201960917,0.4844444444444445,0.35,-0.5955555555555555,0.5625,-0.35755618872130845,0.0534887622557383
1590500138.8496685,-0.00701106647763075,-4.292988933522369,8.662066398865784,0.4844444444444445,0.35,-0.5955555555555555,0.2557658416036547,-0.13722333805923126,-0.02513833097038437
1590500138.8596685,0.006490788473782578,-4.29,8.67450307050874,0.4874982941618116,0.35,-0.5979986353294492,0.09064419067961962,-0.02814419067961963,-0.09685580932038038
1590500138.8696685,0.004875524158513089,-4.297562237920744,8.700248951682974,0.49,0.35,-0.6,0.0625,0.047263987004646596,-0.125
1590500138.8796685,0.0,-4.3,8.66073912138247,0.49,0.35,-0.6,-0.040126830453188975,0.165126830453189,-0.022373169546811025
1590500138.8896685,-0.006540344168260038,-4.30654034416826,8.69578240917782,0.49,0.35,-0.6,-0.30776290630975145,0.1875,0.0
1590500138.8996685,-0.01,-4.3189556890724745,8.733433533608713,0.49,0.35,-0.6,-0.3815269432970334,0.1875,0.02798652835148329
1590500138.9096684,-0.023771933037840212,-4.334590644345947,8.754590644345946,0.49663093072192305,0.35,-0.593879140872071,-0.22642541851349868,0.1588084728378329,-0.023574581486501336
1590500138.9196684,-0.01583711211878723,-4.327918556059394,8.717714946207877,0.5044444444444445,0.35,-0.5866666666666667,0.06377256157197475,0.0494909753712101,-0.125
1590500138.9296684,0.0,-4.32,8.65115921967551,0.5044444444444445,0.35,-0.5866666666666667,0.3817039016224569,-0.14565292621684264,-0.07644902459438578
1590500138.9396684,0.0,-4.332731603542012,8.627268396457989,0.5044444444444445,0.35,-0.5866666666666667,0.3977137389312144,-0.10792747786242886,-0.0625
1590500138.9496684,0.0,-4.3244500578389475,8.651099884322104,0.5044444444444445,0.35,-0.5866666666666667,0.31020857432895016,-0.09489571283552492,-0.0625
1590500138.9596684,-0.010207805132336564,-4.304896097433831,8.690207805132337,0.5078470461552232,0.3562381031364279,-0.5934718700882243,0.1543018268843447,-0.15689939103855177,-0.0625
1590500138.9696684,-0.012976202264250586,-4.3,8.7,0.5111111111111111,0.3622222222222222,-0.6,0.0625,-0.2752974716968677,-0.01860126415156616
1590500138.9796684,-0.002172590039225009,-4.3,8.660862950196124,0.5111111111111111,0.3622222222222222,-0.6,0.0625,-0.2146573754903126,0.048921312254843696
1590500138.9896684,0.0,-4.307597563517613,8.718378071658522,0.5111111111111111,0.3622222222222222,-0.6,0.015015228014915352,0.09740863191050791,0.0625
1590500138.9996684,-0.006324878791521417,-4.316324878791521,8.758974636374564,0.5111111111111111,0.3622222222222222,-0.6,0.0,0.10843901510598229,-0.05609147734102657
1590500139.0096684,-0.01,-4.313890384714958,8.751671154144876,0.49821303439824643,0.3500029916521399,-0.6047519229994764,0.11455528659452183,-0.013870191063014542,-0.04862980893698546
1590500139.0196683,-0.017385375222938676,-4.332156125668816,8.673531622993552,0.49,0.3422222222222222,-0.6077777777777778,0.1875,0.029817190286733436,0.0
1590500139.0296683,-0.0124080103056564,-4.332408010305657,8.612040051528282,0.49,0.3422222222222222,-0.6077777777777778,0.045150193231057484,0.20484980676894252,0.094899871179295
1590500139.0396683,-0.003494822485207101,-4.323494822485207,8.626020710059171,0.49,0.3422222222222222,-0.6077777777777778,-0.12197207840236687,0.16868528106508876,0.0030279215976331264
1590500139.0496683,-0.0038223210179365325,-4.316177678982063,8.65146696305381,0.49,0.3422222222222222,-0.6077777777777778,-0.1875,0.10111049363789668,-0.014720987275793351
1590500139.0596683,-0.010659481549741577,-4.308681036900516,8.672637926198966,0.4891939669947603,0.34398083968819976,-0.606971744772538,-0.17513472094234545,0.046012961256460594,0.05837824031411515
1590500139.0696683,-0.02,-4.3051323983321605,8.699911734445227,0.4777777777777778,0.3688888888888889,-0.5955555555555555,-0.06305165971733362,-0.2190258298586668,0.06305165971733362
1590500139.0796683,-0.005376430559851531,-4.327311784720075,8.63881750695948,0.4777777777777778,0.3688888888888889,-0.5955555555555555,0.14919192700278383,-0.25,0.07930134549953603
1590500139.0896683,0.01116700809349498,-4.296498975719515,8.631167008093495,0.4777777777777778,0.3688888888888889,-0.5955555555555555,0.11041239883131276,-0.25,0.09739690029217181
1590500139.0996683,0.011454873251748252,-4.291362816870629,8.678453070367134,0.4777777777777778,0.3688888888888889,-0.5955555555555555,-0.053407042176573424,-0.11648239455856643,0.09829647891171328
1590500139.1096683,0.0,-4.3068557702349874,8.73,0.4806987177255585,0.36061289237017696,-0.5955555555555555,-0.09761618798955614,0.08988381201044386,0.03511618798955614
1590500139.1196682,0.0,-4.295514662756598,8.724485337243403,0.4844444444444445,0.35,-0.5955555555555555,-0.165899926686217,0.193933284457478,0.06893328445747801
1590500139.1296682,0.0,-4.320947959759308,8.650173467468973,0.4844444444444445,0.35,-0.5955555555555555,-0.2936415828318917,0.33728316566378336,0.03771683433621663
1590500139.1396682,0.0,-4.322586536257355,8.679307709941162,0.4844444444444445,0.35,-0.5955555555555555,-0.40516829678306715,0.28233170321693285,0.0
1590500139.1496682,-0.005651702373544315,-4.314348297626456,8.705651702373544,0.4844444444444445,0.35,-0.5955555555555555,-0.2255611609920882,0.10870744066139212,0.03532313983465197
1590500139.1596682,-0.003694194013703571,-4.316305805986296,8.716305805986297,0.4928521857595064,0.35420387065753095,-0.5808420082541972,0.016322574828705375,-0.15764514965741075,0.0625
1590500139.1696682,0.0,-4.313122070821038,8.699366212463113,0.4977777777777778,0.3566666666666667,-0.5722222222222222,0.14847411473702482,-0.2929870573685124,0.0625
1590500139.1796682,-0.0073008134389655815,-4.31,8.616991865610345,0.4977777777777778,0.3566666666666667,-0.5722222222222222,0.23313008399353488,-0.44939025198060467,-0.07439025198060464
1590500139.1896682,-0.0034939561565253017,-4.290481868469576,8.6160241753739,0.4977777777777778,0.3566666666666667,-0.5722222222222222,0.20933722597828314,-0.2560233558696988,-0.043674451956566274
1590500139.1996682,-0.003600162006567052,-4.294400648026269,8.662401458059104,0.4977777777777778,0.3566666666666667,-0.5722222222222222,0.11999696237686777,-0.05749696237686777,0.022501012541044075
1590500139.2096682,-0.009667163293940666,-4.318668653175763,8.717004469645467,0.4977777777777778,0.3566666666666667,-0.5722222222222222,0.006240688238612513,0.05625931176138749,0.060419770587129155
1590500139.2196681,0.0,-4.324466383581034,8.734466383581033,0.4844444444444445,0.35,-0.5955555555555555,-0.055829794762915774,0.03458510261854211,0.055829794762915774
1590500139.2296681,0.0,-4.312849408608706,8.651343494695768,0.4844444444444445,0.35,-0.5955555555555555,-0.08938239239117181,0.19657358858675772,-0.044691196195585904
1590500139.2396681,-0.009530243618210737,-4.314765121809105,8.643825609045527,0.4844444444444445,0.35,-0.5955555555555555,-0.035653966079274346,0.3095640226138171,-0.0625
1590500139.2496681,-0.014805838283138823,-4.32,8.67259708085843,0.4844444444444445,0.35,-0.5955555555555555,0.0625,0.2938412231740441,-0.046268244634808824
1590500139.259668,0.0,-4.309867588815984,8.690132411184017,0.4844444444444445,0.34737307858192173,-0.5955555555555555,0.041390810033299835,0.041390810033299835,0.021109189966700165
1590500139.269668,-0.0034319014867591944,-4.300295704460278,8.734023310407315,0.4844444444444445,0.3422222222222222,-0.5955555555555555,-0.0643481528767349,0.04289876858448993,0.0625
1590500139.279668,-0.014905179733937166,-4.32,8.721137843192754,0.4844444444444445,0.3422222222222222,-0.5955555555555555,-0.24881474667421455,0.125,0.031842626662892726
1590500139.289668,-0.008786161870098683,-4.314393080935049,8.671213838129901,0.4844444444444445,0.3422222222222222,-0.5955555555555555,-0.20737026753217513,-0.05021622077970808,-0.03504324415594162
1590500139.299668,-0.011027226142932693,-4.315513613071467,8.707568065357332,0.4844444444444445,0.3422222222222222,-0.5955555555555555,0.01284032678665864,-0.15303991830333535,-0.02803991830333534
1590500139.309668,-0.008463176102721043,-4.32,8.73,0.4876491177492442,0.33837661425646254,-0.5820959276753968,0.052894850642006525,-0.08894742532100326,0.03605257467899674
1590500139.319668,0.0,-4.3145739485655925,8.708295794262371,0.49,0.33555555555555555,-0.5722222222222222,0.06782564293009005,-0.0625,0.0625
1590500139.329668,0.0,-4.31,8.626616623947273,0.49,0.33555555555555555,-0.5722222222222222,0.125,-0.09551217502746247,0.0625
1590500139.339668,0.0,-4.316666079295154,8.609996475770926,0.49,0.33555555555555555,-0.5722222222222222,0.125,-0.04167400881057269,0.020837004405286345
1590500139.349668,0.0,-4.32,8.651552267948333,0.49,0.33555555555555555,-0.5722222222222222,-0.04337709334635026,0.033675418669270055,-0.033675418669270055
1590500139.359668,0.0,-4.3164621335504885,8.677075732899022,0.49,0.34066580709373867,-0.5773324737604053,-0.12116500407166124,0.040388334690553744,-0.040388334690553744
1590500139.369668,-0.010440433951965065,-4.320440433951965,8.70392057860262,0.49,0.35,-0.5866666666666667,0.06525271219978165,-0.06525271219978165,0.0
1590500139.379668,-0.01793298451456054,-4.315865969029121,8.675698430315522,0.49,0.35,-0.5866666666666667,0.22520942339199831,-0.1875,-0.03770942339199831
1590500139.389668,-0.014432394180764927,-4.3,8.662161970903824,0.49,0.35,-0.5866666666666667,0.25,-0.1875,-0.0902024636297808
1590500139.399668,-0.02,-4.302354511943808,8.692354511943806,0.49,0.35,-0.5866666666666667,0.17642150175601545,-0.14335290105360926,-0.08085290105360926
1590500139.409668,-0.014018784742188997,-4.307009392371095,8.708971822886717,0.4883385513172747,0.35,-0.5933124613975678,-0.13726519072263754,0.018691297680659382,0.11857389304197816
1590500139.419668,0.0,-4.30424130040243,8.715155448591494,0.4844444444444445,0.35,-0.6088888888888889,-0.3125,0.009483744969620456,0.21023780872721534
1590500139.429668,-0.011236575636698373,-4.314381712181651,8.615053697453206,0.4844444444444445,0.35,-0.6088888888888889,-0.17204280454127033,-0.15238570113531757,0.0625
1590500139.439668,-0.00856504102516825,-4.315717479487416,8.60858739743708,0.4844444444444445,0.35,-0.6088888888888889,-0.02676575320365078,-0.125,0.0625
1590500139.449668,0.0,-4.316022676972318,8.661818584221459,0.4844444444444445,0.35,-0.6088888888888889,-0.024858268923014064,-0.10014173107698593,0.08735826892301407
1590500139.459668,-0.005131470990427818,-4.312565735495213,8.717697206485642,0.4844444444444445,0.3517104903301426,-0.6054679082286036,-0.09457169369017386,-0.04646415315491307,0.0768924594647392
1590500139.469668,-0.023977055781179493,-4.32,8.74,0.4844444444444445,0.3566666666666667,-0.5955555555555555,-0.336639591794231,0.0,0.012069795897115487
1590500139.479668,-0.03,-4.322799907185398,8.72040064970222,0.4844444444444445,0.3566666666666667,-0.5955555555555555,-0.4925023203650708,0.05249825972619693,0.125
1590500139.489668,-0.013636937611074734,-4.319091291740716,8.686363062388924,0.4844444444444445,0.3566666666666667,-0.5955555555555555,-0.10796172013843419,0.01705143344869517,0.125
1590500139.499668,-0.004195689462301439,-4.297412931613096,8.704195689462301,0.4844444444444445,0.3566666666666667,-0.5955555555555555,0.088723059139384,-0.229892236557536,0.072553881721232
1590500139.5096679,-0.007736437679278072,-4.277736437679279,8.71,0.48293540289729653,0.3551576251195187,-0.5935435001593582,0.0967054709909759,-0.33255820648646384,0.01414726450451205
1590500139.5196679,-0.007942416288872982,-4.260071979638909,8.702057583711127,0.4777777777777778,0.35,-0.5866666666666667,-0.06205012725682017,-0.17508997454863595,0.07491002545136403
1590500139.5296679,-0.05080960412739359,-4.1821663855541225,8.65378559380891,0.4777777777777778,0.35,-0.5866666666666667,-0.48140006449052486,-0.19256002579620995,-0.04390006449052483
1590500139.5396678,-0.06,-4.144587666990247,8.650824666019508,0.4777777777777778,0.35,-0.5866666666666667,-0.5573458373780797,-0.08086459344519947,-0.6949062196644016
1590500139.5496678,-0.07843394101205624,-4.130783029493972,8.683042426265072,0.4777777777777778,0.35,-0.5866666666666667,-0.5576060656626758,0.004893934337324268,-1.787469755120771
1590500139.5596678,-0.11371374527112232,-4.12,8.729199243379572,0.48326327588622675,0.3533522488440521,-0.5891046658259773,-0.6421421815889029,-0.0796421815889029,-2.871059268600252
1590500139.5696678,-0.14945127977914863,-4.12,8.779231791690808,0.49755828968943727,0.36208809061268077,-0.5954580052940708,-0.6868140997239358,-0.12431409972393578,-3.675153795030844
1590500139.5796678,-0.16,-4.046966046002191,8.68696604600219,0.4977777777777778,0.3622222222222222,-0.5955555555555555,-0.75,-0.3212075575027382,-4.079915115005477
1590500139.5896678,-0.16450974954132355,-3.931373255962794,8.652548747706618,0.4977777777777778,0.3622222222222222,-0.5955555555555555,-1.0318593463327217,-0.4473015424329052,-3.627454719034006
1590500139.5996678,-0.18370916241991078,-3.760608572455647,8.676572709395023,0.4977777777777778,0.3622222222222222,-0.5955555555555555,-1.6106262290922162,-0.6446588674377789,-2.950112072064452
1590500139.6096678,-0.20274549098196393,-3.497454909819639,8.680881763527054,0.5001959474504565,0.3577889111556446,-0.5955555555555555,-2.9919839679358717,-0.5851703406813628,-1.4908567134268538
1590500139.6196678,-0.11379127014549757,-3.282359960667322,8.772398293361777,0.5044444444444445,0.35,-0.5955555555555555,-4.625,-0.625,0.0625
1590500139.6296678,-0.00928711917472805,-2.9876317585196484,8.85528318548549,0.5044444444444445,0.35,-0.5955555555555555,-4.492401055673745,0.06210362059968688,1.6175239834624493
1590500139.6396677,-0.11356761229739697,-2.4010631599776935,8.741423483063196,0.5044444444444445,0.35,-0.5955555555555555,-3.27466090413571,1.5872722121282987,11.979286594470128
1590500139.6496677,-0.16563425610255011,-2.4978677212600573,8.819035047047592,0.5044444444444445,0.35,-0.5955555555555555,-2.040612641483704,-0.8629380880949133,19.933659484522025
1590500139.6596677,-0.22,-2.6185844378063283,8.873132449754937,0.5018406916530521,0.3443585356186499,-0.5864424207856822,-1.1660389054841798,-2.2714610945158205,29.97509316725153
1590500139.6696677,-0.22462867126680822,-2.7701727264685068,8.813886013800426,0.4977777777777778,0.33555555555555555,-0.5722222222222222,-1.1110751725053079,-2.962867126680821,38.42864942719391
1590500139.6796677,-0.22575403410047376,-2.8654757953971575,8.791786306904264,0.4977777777777778,0.33555555555555555,-0.5722222222222222,-1.285962713127961,-3.5,45.46448969530818
1590500139.6896677,-0.23408306842461826,-2.956332273698473,8.772860492990777,0.4977777777777778,0.33555555555555555,-0.5722222222222222,-1.396698629423107,-3.8520767106154565,52.187793136692896
1590500139.6996677,-0.25,-3.028534256055363,8.844137024221453,0.4977777777777778,0.33555555555555555,-0.5722222222222222,-1.429152249134948,-4.356678200692041,57.86442906574395
1590500139.7096677,-0.2651827641799795,-3.062774146269969,8.859634471640042,0.49271685638445134,0.34356868109498917,-0.582765808458319,-1.1788307929063462,-4.571169207093654,62.85678403927891
1590500139.7196677,-0.2810835979744228,-3.046501587846537,8.78325079392327,0.4844444444444445,0.3566666666666667,-0.6,-1.3968650759591452,-5.0775925886190025,67.3314616234658
1590500139.7296677,-0.27783014284326113,-3.007405499951414,8.710849285783695,0.4844444444444445,0.3566666666666667,-0.6,-1.8369691963851909,-5.758253571081528,70.4761138373336
1590500139.7396677,-0.3020738940899021,-3.1224433645394125,8.662073894089902,0.4844444444444445,0.3566666666666667,-0.6,-1.8498460539793706,-6.263731568165035,73.24396573286643
1590500139.7496676,-0.32599654982304505,-3.235996549823045,8.70398619929218,0.4844444444444445,0.3566666666666667,-0.6,-1.7562823454089527,-6.5625,75.54332950968362
1590500139.7596676,-0.3438893507671378,-3.2558340261507066,8.759027662308215,0.4863891198280134,0.3534255410273852,-0.5995678499147624,-1.6493084422946112,-6.592885552868264,77.43839042778323
1590500139.7696676,-0.38606205090323015,-3.3221241018064602,8.783341279967766,0.5044444444444445,0.3233333333333333,-0.5955555555555555,-1.9128878181451883,-6.856056090927406,79.64215381774225
1590500139.7796676,-0.40084139753604603,-3.351009677043255,8.856802689363025,0.5044444444444445,0.3233333333333333,-0.5955555555555555,-1.9947412653997123,-6.798827290039252,80.71379367300143
1590500139.7896676,-0.4586934192200557,-3.381021935933148,8.672897806406684,0.5044444444444445,0.3233333333333333,-0.5955555555555555,-1.7056112900417828,-6.163001610376044,82.64844838091922
1590500139.7996676,-0.48147323032698525,-3.3123571685231763,8.684419690980956,0.5044444444444445,0.3233333333333333,-0.5955555555555555,-1.753683075817463,-6.558816924182537,83.66367229608336
1590500139.8096676,-0.529101336351369,-3.373824054324642,8.822810690810952,0.5079392475224539,0.32093689693698396,-0.5974527343693321,-1.7963669307447874,-6.4375,85.038599660471
1590500139.8196676,-0.5199551090209491,-3.2097755451047454,8.750224454895255,0.5433333333333333,0.2966666666666667,-0.6166666666666667,-1.0036473920478837,-6.441989097905088,86.0669890979051
1590500139.8296676,-0.5202226927570094,-3.152332980432243,8.76677624853972,0.5433333333333333,0.2966666666666667,-0.6166666666666667,-1.9243107020297896,-7.485418872298482,87.4139050635222
1590500139.8396676,-0.550743041988278,-3.1329721679531115,8.671114562982417,0.5433333333333333,0.2966666666666667,-0.6166666666666667,-2.245355987573263,-7.629644012426737,88.48626213048074
1590500139.8496675,-0.5985954988566614,-3.2219147911902755,8.723829582380551,0.5433333333333333,0.2966666666666667,-0.6166666666666667,-1.976065110121555,-7.735106511012155,90.0478697797569
1590500139.8596675,-0.6953144980417099,-3.2506996284270073,8.798671375489572,0.5425952086053181,0.29238554324417815,-0.6156332920474453,-1.5415195159508586,-7.73732341914103,91.22420538613464
1590500139.8696675,-0.7337013361641244,-3.1974026723282485,8.80850668082062,0.5377777777777778,0.2644444444444444,-0.6088888888888889,-2.0901002123093253,-8.016233297948446,93.33523382872175
1590500139.8796675,-0.7638633031579437,-3.1759095669172233,8.775228177142724,0.5377777777777778,0.2644444444444444,-0.6088888888888889,-2.392047834586116,-8.086645644737148,95.05538909962533
1590500139.8896675,-0.832597824283649,-3.1422826061194984,8.65322826061195,0.5377777777777778,0.2644444444444444,-0.6088888888888889,-1.9616168558765672,-7.931114165856895,97.23865481240964
1590500139.8996675,-0.870352117757414,-3.1834683238328885,8.698591528970343,0.5377777777777778,0.2644444444444444,-0.6088888888888889,-1.7801496320080814,-7.1959726080525295,99.90041782415759
1590500139.9096675,-0.8400880294393535,-3.100242080958222,8.819647882242586,0.5377777777777778,0.2644444444444444,-0.6088888888888889,-1.8747249080020203,-7.810711902013132,101.7446357060394
1590500139.9196675,-0.8623654964686331,-3.0707153614457834,8.726182748234317,0.5577777777777778,0.2311111111111111,-0.6377777777777778,-1.7918733122143748,-7.375619936643124,104.19520214478604
1590500139.9296675,-1.052955860541873,-3.268176557832508,8.752015207536923,0.5577777777777778,0.2311111111111111,-0.6377777777777778,-1.9147069729063524,-8.1875,105.64935320966765
1590500139.9396675,-1.072672192348529,-3.2512641709764702,8.620976470185292,0.5577777777777778,0.2311111111111111,-0.6377777777777778,-1.668101602904408,-8.266701202178306,107.02280414083639
1590500139.9496675,-1.1373170188718018,-3.3087262389971572,8.778997157242182,0.5577777777777778,0.2311111111111111,-0.6377777777777778,-2.206808490598349,-8.670731367948761,108.4144636007124
1590500139.9596674,-1.081448430583098,-3.0937892354225505,8.957578470845101,0.5568121573890459,0.22644394589890654,-0.640835575675429,-1.7836042505458405,-9.307791498908319,111.05779149890832
1590500139.9696674,-1.0898499689521866,-2.883750776195341,8.537501552390681,0.5512111318096535,0.19937232226517726,-0.6585721566768379,-0.8909407988301985,-11.093118402339602,112.8431184023396
1590500139.9796674,-1.2225175309343321,-3.1274824690656677,9.024474071970033,0.5511111111111111,0.1988888888888889,-0.6588888888888889,-3.699728381473131,-7.864524711960092,116.06512964014983
1590500139.9896674,-1.2299636066679684,-3.1200363933320316,8.801091799960945,0.5511111111111111,0.1988888888888889,-0.6588888888888889,-2.257051208081095,-10.05180945871576,117.18204100019528
1590500139.9996674,-1.3895221948809362,-3.2032082308035106,8.751604115401754,0.5511111111111111,0.1988888888888889,-0.6588888888888889,-2.9025171475073144,-9.283489711495612,119.45947084923756
1590500140.0096674,-1.3398632425096566,-2.9898632425096565,8.651096147823365,0.5516590690283143,0.19121747804804493,-0.6580669520130842,-2.429794341789331,-9.523971708946654,120.39640750600272
1590500140.0196674,-1.4023611237799871,-3.0447222475599744,8.737638876220013,0.5555555555555556,0.13666666666666666,-0.6522222222222223,-2.4466144645626198,-9.3693574409377,121.6762148818754
1590500140.0296674,-1.4234001035313182,-3.036700051765659,8.686539803290495,0.5555555555555556,0.13666666666666666,-0.6522222222222223,-2.3328742882221873,-9.395499482343409,122.22950051765659
1590500140.0396674,-1.5060308018429192,-3.0646563993856932,8.688246414743354,0.5555555555555556,0.13666666666666666,-0.6522222222222223,-2.1588787826350284,-9.19609001535766,122.51240374424087
1590500140.0496674,-1.5550691475986926,-3.039861704802615,8.962273070153381,0.5555555555555556,0.13666666666666666,-0.6522222222222223,-2.77908913754086,-9.435771310032688,122.39612144832789
1590500140.0596673,-1.5922212425606954,-3.0000645526970433,8.601566898636522,0.5578720002239227,0.13331181576765228,-0.6542191572811594,-2.040437934943477,-8.81699310388261,122.43260344176088
1590500140.0696673,-1.6680489076239688,-3.0141381107787146,8.950647493427613,0.5877777777777777,0.09,-0.68,-2.103291292720515,-8.875,121.31523377300336
1590500140.0796673,-1.4658990825688074,-2.7062354740061165,8.88420489296636,0.5877777777777777,0.09,-0.68,-0.8268922018348623,-9.280561926605504,120.26964831804281
1590500140.0896673,-1.4899489678899083,-2.6501190749235475,7.882126337920489,0.5877777777777777,0.09,-0.68,-0.37595685206422014,-10.933991542431192,118.56611477446484
1590500140.0996673,-1.6987360989866018,-2.8727881732265534,9.201914829012791,0.5877777777777777,0.09,-0.68,-4.583994382662162,-9.230251546665654,116.02927515466656
1590500140.1096673,-1.6562711714890612,-2.7690428722653495,8.696600211714891,0.5885222104602839,0.08691592174390339,-0.6807444326825062,-0.7392819336626676,-8.342410241707833,115.66232577628793
1590500140.1196673,-1.8276264092351313,-2.785180584621616,8.713529332343212,0.5955555555555555,0.057777777777777775,-0.6877777777777778,-3.0,-8.75090292310808,112.4487232498481
1590500140.1296673,-1.9136431436009287,-2.875292338000422,9.106356856399072,0.5955555555555555,0.057777777777777775,-0.6877777777777778,-2.827961197495251,-9.038980598747626,110.30003781749103
1590500140.1396673,-2.0759498346584113,-2.949068106662914,8.944050165341588,0.5955555555555555,0.057777777777777775,-0.6877777777777778,-1.997983800042215,-8.623991900021107,108.73230273341308
1590500140.1496673,-2.015284461731162,-2.8494310765376754,8.877705188212802,0.5955555555555555,0.057777777777777775,-0.6877777777777778,-2.994033884896829,-8.59311754235612,105.46100599907706
1590500140.1596673,-2.042934933087217,-2.7941301338255653,8.290132671896632,0.5955555555555555,0.057777777777777775,-0.6877777777777778,-1.6547141785879096,-7.772244173973235,103.9488708467928
1590500140.1696672,-2.274546522359258,-3.0045543529938192,9.370938277819727,0.5666666666666667,0.01,-0.7155555555555555,-3.221706588919652,-8.301187529714461,99.99438047095674
1590500140.1796672,-2.2143868432134,-2.7881289477377997,8.783097365835399,0.5666666666666667,0.01,-0.7155555555555555,-1.2487952089084358,-7.477421864034062,97.65362256117531
1590500140.1896672,-2.161249808244395,-2.7443750958778024,8.88104227389275,0.5666666666666667,0.01,-0.7155555555555555,-2.4843773969450593,-7.824221746181324,95.01172174618132
1590500140.1996672,-2.2015714942327476,-2.6300477138917464,8.573095274573749,0.5666666666666667,0.01,-0.7155555555555555,-1.5655751384359473,-6.706547254262514,93.25506002538904
1590500140.2096672,-2.0318041918429004,-2.345002832326284,8.531206570996979,0.5646442807989258,0.0019104565290365902,-0.7205337361530715,-2.402497167673716,-7.76248583836858,91.22997309290031
1590500140.2196672,-2.35,-2.56,9.03,0.5522222222222222,-0.04777777777777778,-0.7511111111111111,-2.1875,-6.6875,89.1875
1590500140.2296672,-2.264250035824684,-2.484338266904133,8.954338266904132,0.5522222222222222,-0.04777777777777778,-0.7511111111111111,-2.62886010972589,-6.5613971115068885,87.7688425044525
1590500140.2396672,-2.2869300960726777,-2.481286730715118,8.922772038429072,0.5522222222222222,-0.04777777777777778,-0.7511111111111111,-1.5922111790006832,-5.279090625879326,84.77104855890984
1590500140.2496672,-2.4857159255679075,-2.5787759787336877,8.919387989366843,0.5522222222222222,-0.04777777777777778,-0.7511111111111111,-1.14282639560174,-5.2806005316578055,80.27432107902368
1590500140.2596672,-2.4265889318511356,-2.5618825519574675,8.910941275978734,0.5522222222222222,-0.04777777777777778,-0.7511111111111111,-2.2514575277912035,-5.702936201063316,77.15959551715805
1590500140.2696671,-2.266794815819105,-2.4538757267274858,8.948323643633522,0.5333333333333333,-0.12,-0.7677777777777778,-0.4940210147758347,-3.6611812624951168,73.84837391134499
1590500140.2796671,-2.401999626365041,-2.4951247431259658,8.619937161393318,0.5333333333333333,-0.12,-0.7677777777777778,-0.9566392384640207,-3.1398424364395985,71.41211192914523
1590500140.2896671,-2.6299468419354293,-2.6518384538306075,8.826514325503982,0.5333333333333333,-0.12,-0.7677777777777778,-1.8025371087447564,-3.9412193661792427,69.85387901020702
1590500140.2996671,-2.52906472581992,-2.6309352741800796,8.76046763709004,0.5333333333333333,-0.12,-0.7677777777777778,-0.5435022432171336,-2.6439977567828663,69.31688409771913
1590500140.309667,-2.501593994072667,-2.6584060059273327,8.774203002963667,0.5333333333333333,-0.12,-0.7677777777777778,0.014496995398948775,-3.201996995398949,69.44565315278437
1590500140.319667,-2.1207474582875765,-2.420969216054412,8.213240284813489,0.48753456846977694,-0.19537713383793653,-0.7534656637579163,1.5380902617875236,-3.38382957242552,70.30505641361721
1590500140.329667,-2.1250164875165947,-2.4937788531540406,8.583242473555735,0.48,-0.20777777777777776,-0.7511111111111111,1.2928528221489444,-0.7337051946383455,71.8597356644255
1590500140.339667,-2.3686152733964247,-2.5198462145110407,8.854307965299684,0.48,-0.20777777777777776,-0.7511111111111111,-4.133654541272345,-3.9951900959516298,71.78942396161935
1590500140.349667,-2.434726299130661,-2.43775424371843,8.57422355670215,0.48,-0.20777777777777776,-0.7511111111111111,-3.4045393695666313,-5.801606163418389,70.83372943178615
1590500140.359667,-2.1710310664036245,-2.10131549851497,7.992275456890758,0.48,-0.20777777777777776,-0.7511111111111111,-1.7564441650226548,-5.687944425173976,68.4468329286535
1590500140.369667,-2.4790543706078165,-2.340375621583857,9.380744667735174,0.47618451394311345,-0.22399359351954592,-0.7272643232555698,-5.130282178522993,-3.541289093001274,63.071972732503184
1590500140.379667,-2.386519837763125,-2.161854847846283,8.90116624747921,0.4755555555555556,-0.22666666666666666,-0.7233333333333334,-1.5537763691568667,-4.357436612059003,53.76411358847121
1590500140.389667,-2.5262931999701426,-2.020366499962678,8.911720783259934,0.4755555555555556,-0.22666666666666666,-0.7233333333333334,-1.4629581249533476,-1.980715520887761,44.22052822771267
1590500140.399667,-2.318437394674756,-1.7560267104819682,8.4752220256151,0.4755555555555556,-0.22666666666666666,-0.7233333333333334,-1.2229340453319852,-2.3448664475901584,32.30135658914729
1590500140.409667,-2.3778353758616917,-1.7981521501258344,9.168310537257906,0.47556728793570907,-0.2268543847491216,-0.7234799880852513,-1.9279307774373564,-2.1279697587263375,22.13206450377503
1590500140.419667,-2.010947116090211,-1.4732033657844528,8.888217308350864,0.4777777777777778,-0.26222222222222225,-0.7511111111111111,-0.22736779022552714,-2.4742337703634854,10.501739763220977
1590500140.429667,-2.293168838418197,-1.6431688384181975,9.075553229717237,0.4777777777777778,-0.26222222222222225,-0.7511111111111111,-0.8170779039545066,-1.03811685593176,2.1673698693460324
1590500140.439667,-2.4394977933608946,-1.7894977933608947,8.731680185601897,0.4777777777777778,-0.26222222222222225,-0.7511111111111111,-0.4512555165977637,-0.48938327489664557,-3.091326948907147
1590500140.449667,-2.261199670134116,-1.8843987904917605,8.984401539374122,0.4777777777777778,-0.26222222222222225,-0.7511111111111111,0.4849869428087791,1.4625103083088586,-9.657456705102794
1590500140.459667,-2.279404360595495,-1.9511493221834806,8.899446317221024,0.4777777777777778,-0.26222222222222225,-0.7511111111111111,1.2055892735716662,0.8936137313907898,-12.046822328158683
1590500140.469667,-2.416837896500514,-1.9299188911313354,8.89005407257911,0.4162131847395165,-0.2970841002077437,-0.7184744593799847,1.0826011004912228,2.231419690796238,-15.39848063668558
1590500140.479667,-2.5227589314451238,-1.8144821371097521,8.82448213710975,0.3855555555555555,-0.3144444444444445,-0.7022222222222222,0.8570405535886707,1.9935267138719022,-18.379324911490183
1590500140.489667,-1.9401490881983963,-1.6006858057126234,8.640387629315832,0.3855555555555555,-0.3144444444444445,-0.7022222222222222,-1.5,-1.2494409192560136,-21.628540844711914
1590500140.499667,-1.9782783949382738,-1.7760806167160599,8.739523826839513,0.3855555555555555,-0.3144444444444445,-0.7022222222222222,-1.5,-1.106456018981473,-22.534111879784003
1590500140.509667,-1.727554207537429,-1.8206269359834797,8.713761615900879,0.3855555555555555,-0.3144444444444445,-0.7022222222222222,1.60482745547238,2.921052207021167,-22.871081650103253
1590500140.519667,-1.94314239774897,-1.980787860516531,8.830590895387399,0.3980612780401746,-0.2742474793153117,-0.6673848524436404,1.963238619234248,3.087007587177168,-23.980416541051152
1590500140.529667,-1.7256346105733145,-1.7565358634360386,8.70930717268721,0.4011111111111111,-0.2644444444444444,-0.6588888888888889,-0.7605379515405785,2.438802659687073,-27.59150853524759
1590500140.539667,-2.0242991859279074,-1.7161757856854178,8.701235157137083,0.4011111111111111,-0.2644444444444444,-0.6588888888888889,-0.15513678528126862,0.26944848059121274,-30.11401339466138
1590500140.549667,-2.0947344531947087,-1.7400919424292975,9.159285021530822,0.4011111111111111,-0.2644444444444444,-0.6588888888888889,-1.7618104317802692,2.8668604763936845,-33.629468615432366
1590500140.5596669,-1.6798116537998993,-1.5773771191372155,8.654869069325368,0.4011111111111111,-0.2644444444444444,-0.6588888888888889,-2.982171606470885,0.680380038406331,-36.782068316716455
1590500140.5696669,-2.3356573501485123,-1.8359229683011151,9.216507279544237,0.4711111111111111,-0.23222222222222225,-0.6166666666666667,-1.3427122388859134,7.9334326459560796,-39.45766938939475
1590500140.5796669,-1.7469110700349149,-1.643049907578558,8.500733210104745,0.4711111111111111,-0.23222222222222225,-0.6166666666666667,5.586144485520641,-0.3508677346477716,-41.51979359211337
1590500140.5896668,-1.7124538919696035,-1.5655212569316082,8.397361675908812,0.4711111111111111,-0.23222222222222225,-0.6166666666666667,4.455518330252619,-0.08167103101252826,-43.13497381392483
1590500140.5996668,-1.8412676056338029,-1.8287323943661973,9.550845070422536,0.4711111111111111,-0.23222222222222225,-0.6166666666666667,-2.2640845070422535,5.465669014084507,-44.421654929577464
1590500140.6096668,-1.8604269508945566,-1.8095730491054436,9.110180129425201,0.4711111111111111,-0.23222222222222225,-0.6166666666666667,-0.5876417967263039,4.946770079939094,-44.18216311381804
1590500140.6196668,-2.055642139123442,-1.8843827905106554,8.560907117008444,0.48611249609078316,-0.19378117321181254,-0.6401063306974043,-0.11917470848411743,2.261494772818657,-43.48236831523924
1590500140.6296668,-2.2000509710456146,-2.0500509710456143,9.359057035656134,0.4888888888888889,-0.18666666666666668,-0.6444444444444445,-3.1181507657455696,1.8104293012719164,-42.74331005026311
1590500140.6396668,-2.219846142954905,-2.0698461429549044,8.992846355334262,0.4888888888888889,-0.18666666666666668,-0.6444444444444445,-0.45817454043466954,1.0062504424569934,-40.145193737168746
1590500140.6496668,-1.8033475603330171,-1.7849220149646958,8.712231706888678,0.4888888888888889,-0.18666666666666668,-0.6444444444444445,0.5218970650226579,0.908628850950223,-37.932092422805354
1590500140.6596668,-1.9263582809694793,-1.9414199955116695,8.781790282764812,0.4888888888888889,-0.18666666666666668,-0.6444444444444445,1.8553249831687613,-1.1790142504488328,-35.30439645982944
1590500140.6696668,-2.1236392255627266,-2.0882970643790335,9.099098063906816,0.5011240752400441,-0.1737117634713259,-0.6264515233398045,0.12281230324256232,1.8495346686604757,-33.14910524555328
1590500140.6796668,-2.070966815329957,-2.0563973089424747,8.613059188147252,0.5077777777777778,-0.16666666666666666,-0.6166666666666667,1.2715246806258977,3.1935425958122305,-30.32491590445234
1590500140.6896667,-2.084251441894711,-2.163173395508651,8.800598232912014,0.5077777777777778,-0.16666666666666666,-0.6166666666666667,1.2979046508774084,1.811380230703154,-29.367142440790282
1590500140.6996667,-1.6954905265723046,-1.934912576406799,8.883353573096684,0.5077777777777778,-0.16666666666666666,-0.6166666666666667,0.8186315821538087,1.290113569441342,-29.73626454521455
1590500140.7096667,-1.8573240866722172,-2.079711024917247,8.687449789817842,0.5077777777777778,-0.16666666666666666,-0.6166666666666667,2.841551083402717,-1.2119184452612557,-31.173602085575617
1590500140.7196667,-1.9636875554546767,-2.2034298330685265,9.109758166023564,0.5277777777777778,-0.15222222222222226,-0.6444444444444445,-0.13496249716278397,2.269726389204135,-34.568943059653755
1590500140.7296667,-1.8944504054639622,-2.0216823143429004,8.66837133483276,0.5277777777777778,-0.15222222222222226,-0.6444444444444445,1.8123323463260634,2.4860924829251183,-37.38170227802654
1590500140.7396667,-1.7815406698564593,-2.0926961722488038,8.904265550239236,0.5277777777777778,-0.15222222222222226,-0.6444444444444445,-1.3414772727272728,0.8774072966507177,-43.04600777511962
1590500140.7496667,-1.8180287081339714,-2.1565502392344498,9.478952153110047,0.5277777777777778,-0.15222222222222226,-0.6444444444444445,-3.5079545454545453,0.9344198564593301,-48.576226076555024
1590500140.7596667,-1.9008617608327585,-2.122679187307958,9.205213363014987,0.5277777777777778,-0.15222222222222226,-0.6444444444444445,-3.7805033862168433,5.952484205493196,-51.479681719132124
1590500140.7696667,-1.781834602829162,-1.9900457018498368,8.728944504896626,0.5622732438641035,-0.1400050779833152,-0.6307899891186072,2.7141730141458105,5.119260065288357,-55.770933079434165
1590500140.7796667,-2.065315116386052,-2.2065479804949857,8.579876713589107,0.5811111111111111,-0.13333333333333333,-0.6233333333333333,1.1889548256509341,5.530907857208575,-62.25008625448523
1590500140.7896667,-1.9361613741165098,-2.3772982823543627,8.638554398824027,0.5811111111111111,-0.13333333333333333,-0.6233333333333333,0.7067542941140936,3.314429330863253,-65.71074636032299
1590500140.7996666,-2.191236058147203,-2.5942581070619606,8.979725033689824,0.5811111111111111,-0.13333333333333333,-0.6233333333333333,1.1705009748544888,5.48128243541589,-68.13272536342002
1590500140.8096666,-1.8560386955416006,-2.4640152982373773,8.99,0.5811111111111111,-0.13333333333333333,-0.6233333333333333,2.2373818886084864,4.7125956139836065,-68.58745500518418
1590500140.8196666,-1.9673092775487984,-2.4854932343105998,9.033161404463801,0.5961833475905332,-0.14155455323119995,-0.6500522980013997,2.5385369682712495,6.735144159732483,-68.225056380745
1590500140.8296666,-1.9400896825396825,-2.511181746031746,8.469176984126985,0.6055555555555555,-0.14666666666666667,-0.6666666666666666,0.9090773809523809,4.101671626984127,-68.54375496031746
1590500140.8396666,-1.9132521127736215,-2.6112183083956775,8.923083090883901,0.6055555555555555,-0.14666666666666667,-0.6666666666666666,-0.19816019846217792,2.255096849889166,-69.00456865648378
1590500140.8496666,-1.8037535628870032,-2.66,8.777781345215084,0.6055555555555555,-0.14666666666666667,-0.6666666666666666,1.9837294826851881,4.4234552632441115,-69.0452056645808
1590500140.8596666,-1.6781982878757713,-2.66,8.833603424248457,0.6055555555555555,-0.14666666666666667,-0.6666666666666666,1.8562321653726193,4.069351814984405,-70.96034906098613
1590500140.8696666,-1.5721150021230474,-2.591208572641741,8.779697856839563,0.8033333333333333,-0.34444444444444444,-0.6588888888888889,-0.5759017364292578,5.485837039354593,-74.62009603995799
1590500140.8796666,-1.7033421234943125,-2.666195499139607,8.760951125215097,0.8033333333333333,-0.34444444444444444,-0.6588888888888889,2.470442152546539,4.607083994457729,-78.1936917558719
1590500140.8896666,-1.61906042358804,-2.595594892026578,8.76826723421927,0.8033333333333333,-0.34444444444444444,-0.6588888888888889,1.3849148671096347,4.045797861295681,-83.0769894622093
1590500140.8996665,-1.5212071207760367,-2.529859076857478,8.590925274490992,0.8033333333333333,-0.34444444444444444,-0.6588888888888889,2.06514230892229,4.922410990299541,-87.24107637778488
1590500140.9096665,-1.3968228512992145,-2.589866127457816,9.025818807232836,0.8033333333333333,-0.34444444444444444,-0.6588888888888889,1.231188699855901,7.55873483475108,-91.41178589689954
1590500140.9196665,-1.43552051648147,-2.778235561901215,8.93221656630869,1.1029718836721134,-0.5452592868490813,-0.6956310367105575,0.838801291203675,9.756506456018375,-95.11991355763858
1590500140.9296665,-1.274076840981857,-2.9410149068750644,9.012528660446863,1.3288888888888888,-0.6966666666666667,-0.7233333333333334,1.0,7.6473624642820255,-100.13757875167832
1590500140.9396665,-1.297834757834758,-3.222847222222222,9.436545584045584,1.3288888888888888,-0.6966666666666667,-0.7233333333333334,-0.6427951388888888,5.383057336182336,-104.40785256410257
1590500140.9496665,-1.3658141845733451,-3.35,8.836733325052789,1.3288888888888888,-0.6966666666666667,-0.7233333333333334,1.8735948950440942,6.937531052043225,-107.7529344180847
1590500140.9596665,-1.494894230342809,-3.3734176681892767,8.452658654485788,1.3288888888888888,-0.6966666666666667,-0.7233333333333334,3.4818021309148963,8.622096600736175,-111.0308480974766
1590500140.9696665,-1.2597176409636475,-3.098729384336413,9.2568703048096,0.7322222222222222,-0.13444444444444445,-0.6877777777777778,0.3495596235212849,6.2377952033503155,-117.43058943528193
1590500140.9796665,-1.2416091011138934,-3.0172409550125203,8.414823201796045,0.7322222222222222,-0.13444444444444445,-0.6877777777777778,2.726305478801485,9.46337886408773,-120.99570821820222
1590500140.9896665,-1.4159858306765851,-3.287516117605384,9.016868579525328,0.7322222222222222,-0.13444444444444445,-0.6877777777777778,1.8375885582713425,8.438567127169678,-125.1621900460503
1590500140.9996665,-1.3960359721941014,-3.3160359721941015,8.964130053317135,0.7322222222222222,-0.13444444444444445,-0.6877777777777778,3.011911992981035,8.762171407842343,-130.39882398596208
1590500141.0096664,-1.319398538504778,-3.3237343076634813,8.864377615389419,0.7322222222222222,-0.13444444444444445,-0.6877777777777778,2.594142308412966,9.210839422896758,-133.63951345949658
1590500141.0196664,-1.325709120788825,-3.4242773212818407,8.89999548069022,0.6712767278371222,-0.03350346936912263,-0.69603081347576,2.6874152629416597,9.803523007395235,-137.28551253081346
1590500141.0296664,-1.1835517880590098,-3.3339738935660774,8.631863366030741,0.6255555555555555,0.042222222222222223,-0.7022222222222222,3.972525005792848,10.809497373909014,-140.10807764346953
1590500141.0396664,-1.1115611571516268,-3.3729957028852056,8.88886049723757,0.6255555555555555,0.042222222222222223,-0.7022222222222222,2.255539249539595,10.886339874923266,-144.12763533993248
1590500141.0496664,-1.0687978179338562,-3.425601091033072,8.621584725536993,0.6255555555555555,0.042222222222222223,-0.7022222222222222,3.1725579611319468,9.332436924650528,-146.5100750085237
1590500141.0596664,-1.0275941148439363,-3.4710147128901596,8.754958899213724,0.6255555555555555,0.042222222222222223,-0.7022222222222222,3.355974133309507,11.291324160114367,-148.1978310400286
1590500141.0696664,-0.9594604234493914,-3.5021079153101216,8.917622296414574,0.6154656261304541,0.08661791169266855,-0.7150027994940173,3.567558530161956,10.691928644008046,-149.94930323704457
1590500141.0796664,-0.9275012276164599,-3.7200343732608765,8.784982813369561,0.6088888888888889,0.11555555555555555,-0.7233333333333334,3.7968519821913773,11.95357768356958,-151.5157400890431
1590500141.0896664,-0.9385233765588512,-3.8155701296765536,8.724429870323446,0.6088888888888889,0.11555555555555555,-0.7233333333333334,2.0453246882297416,10.477800342823073,-154.1471996571769
1590500141.0996664,-0.94,-3.9400927408593542,8.647944355484388,0.6088888888888889,0.11555555555555555,-0.7233333333333334,3.0510046926430032,11.16335012454408,-155.2130023463215
1590500141.1096663,-0.7827917659804984,-4.25583315276273,8.722895774647887,0.6088888888888889,0.11555555555555555,-0.7233333333333334,2.794401408450704,11.348177139761647,-156.04492145178764
1590500141.1196663,-0.7289350931677019,-4.057271739130434,8.51875248447205,0.5612350586611456,0.14831756383712907,-0.6657516218081435,3.9027639751552794,12.48523097826087,-155.80990100931677
1590500141.1296663,0.46405504119595675,-5.017772020725388,7.410443387411875,0.5555555555555556,0.15222222222222226,-0.6588888888888889,3.091307971630001,11.091538902573685,-155.75
1590500141.1396663,-5.302052317947682,-11.777531562468438,0.08486592263407733,0.5555555555555556,0.15222222222222226,-0.6588888888888889,-65.99654706595294,74.46144644480356,-372.52688017624484
1590500141.1496663,-14.385514353094251,-16.992274538505328,-5.624243311376758,0.5555555555555556,0.15222222222222226,-0.6588888888888889,-151.64327681548346,56.93197527852322,-1004.8264668211759
1590500141.1596663,-8.18356092010079,-8.881815654718363,-4.781770299926848,0.5555555555555556,0.15222222222222226,-0.6588888888888889,-199.94358083394295,117.69443326830854,-1075.3537602617248
1590500141.1696663,1.5980417850946806,1.4436502897641283,-1.2042324019046915,0.540975887851234,0.21236335150254904,-0.6559729553480246,-205.93914261193754,130.22780166845078,-665.1873615776457
1590500141.1796663,-0.2889181758412528,-0.29,-0.04701811009503315,0.5111111111111111,0.33555555555555555,-0.65,-165.87933327356404,-15.213678949255872,-173.92119792600562
1590500141.1896663,1.6939087309366059,-1.9356341396479397,7.369505233857374,0.5111111111111111,0.33555555555555555,-0.65,-169.6574126710315,-14.781160563766809,-147.54748451405496
1590500141.1996663,1.1906164685160723,-1.0825319242624394,4.603896961690885,0.5111111111111111,0.33555555555555555,-0.65,-140.73800088066932,16.77055812417437,-137.27091589608102
1590500141.2096663,-1.091136224987799,-1.9570760126891165,5.566096266471449,0.5111111111111111,0.33555555555555555,-0.65,-72.5506134852367,83.0011953239385,-124.77270352916057
1590500141.2196662,-0.5999971351981828,-2.5076823753299635,9.289415580429312,0.4185948374452334,0.48477535179084214,-0.6034434235745906,37.163896079314085,67.2436820888498,-107.82746091591807
1590500141.2296662,0.5739286337158603,-1.211116188217238,6.878883811782762,0.3388888888888889,0.6133333333333333,-0.5633333333333334,144.40462912902439,29.01061250828421,-86.59512888485821
1590500141.2396662,0.7289196985205173,-1.5557569554294222,7.633852237833814,0.3388888888888889,0.6133333333333333,-0.5633333333333334,227.59257816134735,16.725655997022425,-67.91586605564343
1590500141.2496662,7.663314099979843,0.9578512396694214,18.400912618423703,0.3388888888888889,0.6133333333333333,-0.5633333333333334,303.9473612930861,11.102461701269906,-53.54054279631123
1590500141.2596662,2.983478260869565,2.2104347826086954,7.2513043478260855,0.3388888888888889,0.6133333333333333,-0.5633333333333334,339.9429347826087,0.36141304347826164,-41.682065217391305
1590500141.2696662,-0.3906882891007472,0.6947916129863436,-0.6328832775057975,0.32091918606315667,0.6372929371009763,-0.5795916358899482,174.61577033947438,-6.804627109636692,-13.51606383664004
1590500141.2796662,-0.16506760872213425,0.4891984407357778,-0.5397344378121574,0.31555555555555553,0.6444444444444445,-0.5844444444444444,64.72359605311243,-10.827483554635156,8.189098854915336
1590500141.2896662,1.9404349588004863,-0.6401999189517761,9.201634472511143,0.31555555555555553,0.6444444444444445,-0.5844444444444444,-1.2007209914899377,15.310634202350396,29.818595501823587
1590500141.2996662,3.829325235574494,-3.2948511872075916,22.111575548575573,0.31555555555555553,0.6444444444444445,-0.5844444444444444,-85.51621702506205,-2.3210224152700576,46.5822327959233
1590500141.3096662,2.248451351047694,-2.2864089096118194,14.513901325768215,0.31555555555555553,0.6444444444444445,-0.5844444444444444,-97.33484249480367,-4.731151866468176,54.452968758777594
1590500141.3196661,-0.7498334363238017,0.4821448233245329,-2.1622170102803224,0.31555555555555553,0.6444444444444445,-0.5844444444444444,-73.55178782090894,7.749429456210322,59.2022165187349
1590500141.3296661,0.5232392023288512,-2.09614274115294,6.8743418420896285,0.3111111111111111,0.5333333333333333,-0.67,17.934471354733944,-2.1739137968592193,66.43074093510505
1590500141.3396661,0.42578999857529565,-1.8397620743695684,5.254114546231657,0.3111111111111111,0.5333333333333333,-0.67,37.19223714204303,5.7670964524861095,77.60117181934748
1590500141.349666,0.5501164472861709,-2.886843421264132,9.632871711525066,0.3111111111111111,0.5333333333333333,-0.67,-0.9824424907574425,-8.450353628261684,88.85462172492008
1590500141.359666,0.5876196835833162,-2.996749537702897,10.312361824532566,0.3111111111111111,0.5333333333333333,-0.67,-31.916176546126977,-15.52796897472776,99.46069190466406
1590500141.369666,0.5396847115959067,-2.996935959451907,9.810354603095067,0.3372391922072972,0.5372041601623979,-0.6511297192083101,-17.16206710478136,-12.787560947406964,111.56231571238605
1590500141.379666,0.20451366511516889,-2.8743191311612364,7.416926840911803,0.3711111111111111,0.5422222222222223,-0.6266666666666667,22.043118709472093,-3.3745947209293075,122.21384313959501
1590500141.389666,0.2923554931280337,-2.9847282328467544,8.259197766833205,0.3711111111111111,0.5422222222222223,-0.6266666666666667,13.634057793858794,-8.287910273278452,130.21068844122823
1590500141.399666,0.44,-3.2149283656616094,9.96953677741502,0.3711111111111111,0.5422222222222223,-0.6266666666666667,-20.492985404263493,-12.412279143460726,138.94260370654888
1590500141.409666,0.2700656455142232,-3.057927477336668,8.717219443576118,0.3711111111111111,0.5422222222222223,-0.6266666666666667,-12.944885120350108,-12.54224953110347,146.91129063769927
1590500141.419666,0.09320171411080502,-2.9582177143334167,7.662081141998498,0.38528044448154636,0.5226550475678116,-0.6280161269876605,9.153614311155634,-10.383471422211091,153.7105785819629
1590500141.429666,-0.8919368183527641,-14.665715494546824,7.744355255735239,0.3944444444444444,0.51,-0.6288888888888889,1.9462174454682213,-11.101929766829635,159.6648793014291
1590500141.439666,0.5198587461300308,-8.21858939628483,10.099630417956657,0.3944444444444444,0.51,-0.6288888888888889,-21.48715654024768,-20.46232827012384,205.644144253096
1590500141.449666,9.103462068151414,-12.84394093806563,7.210592586763201,0.3944444444444444,0.51,-0.6288888888888889,-18.71428641693555,-29.58054738529944,290.11908913394194
1590500141.459666,8.39945489443378,-13.60639385796545,6.488009213051823,0.3944444444444444,0.51,-0.6288888888888889,-2.3175863723608447,-30.746737044145874,281.3745105566219
1590500141.469666,-0.5189988478804974,-2.273519129156569,11.538824838107345,0.41803177377846634,0.49844702236700966,-0.6226310260043525,20.846519804536968,5.6446456239323055,91.9822861626475
1590500141.479666,-1.6902870178996217,0.832758647584136,7.229537105642866,0.4488888888888889,0.4833333333333333,-0.6144444444444445,41.25,49.25,-72.875
1590500141.489666,-1.1936063877325431,-0.06731484747995031,5.408500435099603,0.4488888888888889,0.4833333333333333,-0.6144444444444445,-7.5765510712857775,10.293574637221006,-63.57262488534538
1590500141.499666,-1.012691289813353,-2.0153433466431423,9.113270498653543,0.4488888888888889,0.4833333333333333,-0.6144444444444445,-28.625,-6.5,-59.5625
1590500141.509666,-0.7265456981063143,-2.744316507337271,9.298916763076173,0.4488888888888889,0.4833333333333333,-0.6144444444444445,-5.216114595384521,2.2028481398039332,-43.43558956950618
1590500141.519666,-2.879378745261098,-5.824837960132077,7.5857221474868535,0.4657459269223976,0.4496192572663161,-0.641837131248896,5.529954445395622,5.612296685826097,-15.028448697566343
1590500141.529666,-3.1656999800119934,-8.947252048770737,7.788642214671197,0.4755555555555556,0.43,-0.6577777777777778,-4.20481586048371,-6.301542824305416,40.67188312012792
1590500141.539666,-1.5488065034840095,-6.233210648561729,8.303023048061462,0.4755555555555556,0.43,-0.6577777777777778,-2.486242629980347,-8.980491781311418,85.49027380739682
1590500141.549666,2.6149349722196353,-5.26946270602477,7.6612651705621255,0.4755555555555556,0.43,-0.6577777777777778,-0.6664319303473323,-8.519064081075209,95.78554218269858
1590500141.559666,4.2723127317878085,-8.774163113267656,8.613656488424905,0.4755555555555556,0.43,-0.6577777777777778,-7.132158873695045,-10.776982347367218,44.730998505121796
1590500141.569666,2.151027997587027,-7.6727884035342955,9.516460026258827,0.4800271262355646,0.43894314136001794,-0.6473441128577568,-2.655818636670098,-0.02090060679180894,-22.13726668677478
1590500141.579666,-2.157184318127155,-4.0227234827226805,7.224753467489777,0.4888888888888889,0.4566666666666666,-0.6266666666666667,12.900651657580374,14.006685691092759,-38.565758287901865
1590500141.589666,-2.5454887674559807,-5.30143897996357,7.737510625379477,0.4888888888888889,0.4566666666666666,-0.6266666666666667,-0.3934805707346687,0.28373557984213793,-4.435716454159074
1590500141.5996659,0.24695315509669458,-4.332838623930965,9.460617536019724,0.4888888888888889,0.4566666666666666,-0.6266666666666667,-8.00223919408275,-8.669822405424146,23.840391208875875
1590500141.6096659,0.7135951484325329,-4.119363231769942,9.319469359808284,0.4888888888888889,0.4566666666666666,-0.6266666666666667,-2.4994528537193723,-5.013730620628943,12.52558749449797
1590500141.6196659,-0.8199273367607173,-4.0422051977492615,8.780500748896895,0.4867932144993635,0.4491222388643754,-0.6400789827596288,1.793366443346962,2.943507620531919,-8.840519117111281
1590500141.6296659,-0.5388304433841499,-4.409694324838046,8.436726793126189,0.4833333333333333,0.43666666666666665,-0.6622222222222223,0.9952771635827609,0.9475032972574577,-4.00246809418519
1590500141.6396658,0.07912299514042573,-4.527525723802788,8.75118569049303,0.4833333333333333,0.43666666666666665,-0.6622222222222223,-0.45553660651137307,-0.5711967557208368,1.7390374392553216
1590500141.6496658,-0.005603326383396837,-4.44680997915019,8.800495842020753,0.4833333333333333,0.43666666666666665,-0.6622222222222223,0.1356405924221727,-0.23626039494811513,0.108161382318403
1590500141.6596658,-0.010615261044176707,-4.374230923694779,8.783923293172691,0.4833333333333333,0.43666666666666665,-0.6622222222222223,-0.034134036144578314,-0.05865461847389558,-0.0625
1590500141.6696658,-0.02510216990731828,-4.403876131019499,8.656941228239047,0.4762586898661264,0.43666666666666665,-0.6518823586932275,-0.15561143807926076,0.001277123841478503,-0.0625
1590500141.6796658,-0.024877799557909662,-4.4453666013262705,8.55024440088418,0.4688888888888889,0.43666666666666665,-0.6411111111111111,-0.21798624723693538,-0.0929862472369354,-0.001527505526129215
1590500141.6896658,-0.025135604131097986,-4.38135604131098,8.549728791737804,0.4688888888888889,0.43666666666666665,-0.6411111111111111,0.05402474180637573,-0.03379257745808727,0.03209752581936243
1590500141.6996658,-0.015213810451152224,-4.344358568646544,8.631792843232716,0.4688888888888889,0.43666666666666665,-0.6411111111111111,0.2553452612788056,-0.027241054040895815,0.0
1590500141.7096658,-0.01555732347858817,-4.39334394087153,8.66832007391059,0.4688888888888889,0.43666666666666665,-0.6411111111111111,0.14236663587058804,-0.125,0.017366635870588034
1590500141.7196658,-0.029909322657359405,-4.479455935944157,8.560680080069805,0.4688888888888889,0.43666666666666665,-0.6411111111111111,0.18721663330424815,-0.125,0.062216633304248155
1590500141.7296658,-0.017092661086237103,-4.440926610862371,8.66,0.4888888888888889,0.4244444444444445,-0.6266666666666667,-0.22963305431185516,-0.05231652715592758,-0.044329131788981894
1590500141.7396657,-0.01215560425798372,-4.3656887914840325,8.662155604257984,0.4888888888888889,0.4244444444444445,-0.6266666666666667,0.11152747338760176,0.09805494677520352,0.0
1590500141.7496657,-0.02,-4.3253116251103885,8.690573645741344,0.4888888888888889,0.4244444444444445,-0.6266666666666667,0.16536822870671353,-0.025717057176678382,-0.025717057176678382
1590500141.7596657,-0.017446936371721834,-4.312977572654503,8.70723468185861,0.4888888888888889,0.4244444444444445,-0.6266666666666667,0.21676011393956876,-0.030586704646522918,-0.0625
1590500141.7696657,-0.016762552946498335,-4.389016737261998,8.665491631369001,0.4888888888888889,0.4271995586078327,-0.6346815442328869,-0.0625,0.03432269605625694,-0.04841134802812847
1590500141.7796657,-0.033254115510639136,-4.401448817654257,8.666864711223402,0.4888888888888889,0.43666666666666665,-0.6622222222222223,-0.11520222257313173,-0.0625,-0.021080889029252696
1590500141.7896657,-0.008579586303227,-4.32286937945484,8.681363309574184,0.4888888888888889,0.43666666666666665,-0.6622222222222223,-0.1873215496169094,-0.11612241439516874,-0.125
1590500141.7996657,-0.017501280805582546,-4.347496157583253,8.602493595972087,0.4888888888888889,0.43666666666666665,-0.6622222222222223,0.031266010069781816,-0.2031169949651091,-0.03129803020934546
1590500141.8096657,-0.010091511350587404,-4.369725465948238,8.639542443247063,0.4888888888888889,0.43666666666666665,-0.6622222222222223,-0.06135610811765746,-0.24942805405882873,0.24656832435297238
1590500141.8196657,-0.02699820759328662,-4.406003584813427,8.67,0.48722122644071475,0.43833432911484077,-0.6538839099813518,0.1811715822062897,-0.043738797458041385,0.02497759491608277
1590500141.8296657,-0.024192233646008275,-4.407423299061975,8.682576700938025,0.4833333333333333,0.44222222222222224,-0.6344444444444445,-0.07259707942489657,0.05240292057510343,-0.036298539712448286
1590500141.8396657,-0.03,-4.386256268944613,8.651331496279967,0.4833333333333333,0.44222222222222224,-0.6344444444444445,-0.023398319096169743,0.07820336180766052,0.023398319096169743
1590500141.8496656,-0.025851965244388868,-4.388296069511222,8.574148034755611,0.4833333333333333,0.44222222222222224,-0.6344444444444445,0.1189765205579871,-0.025925217222569588,0.010649565554860824
1590500141.8596656,-0.017660808546954516,-4.392982425640864,8.594035148718273,0.4833333333333333,0.44222222222222224,-0.6344444444444445,0.25804042734772575,-0.04788005341846572,-0.04788005341846572
1590500141.8696656,-0.011032019470872713,-4.373096058412618,8.633807883174764,0.4833333333333333,0.44222222222222224,-0.6344444444444445,-0.07339902645636437,-0.006450121692954454,-0.006450121692954454
1590500141.8796656,-0.054461034657518226,-4.339231608904137,8.74261471287669,0.4955555555555556,0.43666666666666665,-0.6411111111111111,0.10672342208880746,0.039420977739659274,0.05096048886982964
1590500141.8896656,-0.03,-4.379960016983936,8.709400254759041,0.4955555555555556,0.43666666666666665,-0.6411111111111111,-0.24975010614960017,-0.06324968155119949,-0.00024989385039983015
1590500141.8996656,-0.024847024543315027,-4.382882438641713,8.575458926370056,0.4955555555555556,0.43666666666666665,-0.6411111111111111,-0.1391908550935784,-0.23389695169785946,-0.04639695169785947
1590500141.9096656,-0.009433408054417562,-4.416033856380923,8.624532735564658,0.4955555555555556,0.43666666666666665,-0.6411111111111111,0.014164798639560949,-0.18041760068021953,0.010623598979670712
1590500141.9196656,-0.002371705038371705,-4.353557557557557,8.7,0.4947649872094317,0.4373254736217699,-0.6411111111111111,0.21294210877544212,-0.06991157824491158,0.16526526526526525
1590500141.9296656,-0.02085682615924626,-4.377429521522261,8.698286347681506,0.4888888888888889,0.44222222222222224,-0.6411111111111111,-0.0625,-0.125,0.005355163495289118
1590500141.9396656,-0.023806788511749347,-4.371676240208877,8.636647519582246,0.4888888888888889,0.44222222222222224,-0.6411111111111111,-0.10120757180156659,-0.08629242819843341,0.043146214099216706
1590500141.9496655,-0.01,-4.413565487452254,8.550295220076393,0.4888888888888889,0.44222222222222224,-0.6411111111111111,-0.13924115589190733,-0.016086281369364224,0.008043140684682112
1590500141.9596655,-0.006947461875913934,-4.373052538124086,8.63526269062043,0.4888888888888889,0.44222222222222224,-0.6411111111111111,0.1684216367244621,-0.125,0.08157836327553791
1590500141.9696655,-0.00068788257972877,-4.377248469681085,8.67550306063783,0.4888888888888889,0.44222222222222224,-0.6416461308953446,0.1335985322466096,-0.125,0.11640146775339037
1590500141.9796655,-0.01,-4.351794850804306,8.726410298391388,0.4888888888888889,0.44222222222222224,-0.6488888888888888,0.17628218247308747,-0.10657054561827187,0.018429454381728133
1590500141.9896655,-0.012290564306468878,-4.3822905643064685,8.658547178467655,0.4888888888888889,0.44222222222222224,-0.6488888888888888,0.0,-0.03386794616913902,0.0625
1590500141.9996655,-0.014270112975008558,-4.392864943512496,8.617135056487504,0.4888888888888889,0.44222222222222224,-0.6488888888888888,-0.017905896953098254,-0.009123587812393016,0.08040589695309826
1590500142.0096655,-0.00013064998366875205,-4.399738700032663,8.61058792492651,0.4888888888888889,0.44222222222222224,-0.6488888888888888,-0.06127515640310545,-0.1866834376020703,0.12459171880103515
1590500142.0196655,-0.02,-4.362175002263741,8.700725000754579,0.4884861106918998,0.44222222222222224,-0.6478416655767173,0.11140623585161932,-0.06703125471612689,0.04890623585161933
1590500142.0296655,-0.018079235393864652,-4.39,8.71,0.4833333333333333,0.44222222222222224,-0.6344444444444445,-0.050495221211654076,-0.10099044242330815,-0.11299522121165408
1590500142.0396655,-0.010895123580494322,-4.39,8.71,0.4833333333333333,0.44222222222222224,-0.6344444444444445,-0.005594522378089516,-0.011189044756179031,-0.06809452237808952
1590500142.0496655,-0.02,-4.395690859882189,8.587236560471245,0.4833333333333333,0.44222222222222224,-0.6344444444444445,-0.09806787426367833,0.0,0.0
1590500142.0596654,-0.02,-4.380851921954326,8.646592312182696,0.4833333333333333,0.44222222222222224,-0.6344444444444445,-0.005324512214537155,0.0,0.0
1590500142.0696654,-0.01,-4.389267578125,8.623662109375,0.4835367838541666,0.4420187717013889,-0.6354616970486111,-0.17376708984375,0.0533447265625,-0.002288818359375
1590500142.0796654,-0.01,-4.37,8.718822805262754,0.4888888888888889,0.43666666666666665,-0.6622222222222223,0.18872624451796569,-0.1875,-0.061273755482034314
1590500142.0896654,-0.006637520684794378,-4.366637520684795,8.639825124108766,0.4888888888888889,0.43666666666666665,-0.6622222222222223,0.20796900855992972,-0.08242252139982431,0.021015495720035138
1590500142.0996654,-0.005062660668380462,-4.3650626606683804,8.60506266066838,0.4888888888888889,0.43666666666666665,-0.6622222222222223,0.07753755623393316,0.07753755623393316,0.04667918541131105
1590500142.1096654,-0.02,-4.377211296116216,8.63394351941892,0.4888888888888889,0.43666666666666665,-0.6622222222222223,-0.045070600726349004,-0.027641201452698008,-0.017429399273650996
1590500142.1196654,-0.02,-4.373252683492892,8.676505366985785,0.4888888888888889,0.4355824388357025,-0.6587888340908359,0.010164635915288657,0.0625,-0.052335364084711344
1590500142.1296654,-0.017257553836153572,-4.38177266150846,8.707257553836154,0.4888888888888889,0.43,-0.6411111111111111,0.07964028852404018,0.0625,0.0
1590500142.1396654,-0.013875452647159886,-4.36581317897074,8.6903113683821,0.4888888888888889,0.43,-0.6411111111111111,0.06444605238812677,0.026167631432876065,-0.012110789522374647
1590500142.1496654,-0.024304276397670136,-4.38430427639767,8.65,0.4888888888888889,0.43,-0.6411111111111111,-0.1341025912281575,-0.125,0.008696545029123315
1590500142.1596653,-0.01,-4.3747553907628065,8.652377695381404,0.4888888888888889,0.43,-0.6411111111111111,-0.014860596133770113,-0.125,0.12805761546491956
1590500142.1696653,-0.01,-4.389854206414918,8.659927103207458,0.4888888888888889,0.43,-0.6411111111111111,-0.06204439504661794,-0.125,-0.06067758018647176
1590500142.1796653,-0.023020914604988296,-4.366979085395012,8.68187451237007,0.5011111111111111,0.43666666666666665,-0.6266666666666667,0.11914214884353057,0.04361928371882315,0.0872385674376463
1590500142.1896653,-0.021078213927017073,-4.3629739286909945,8.628104285236024,0.5011111111111111,0.43666666666666665,-0.6266666666666667,0.21282589136257113,-0.055761162956143286,0.018587054318714432
1590500142.1996653,-0.001430623973727422,-4.371430623973727,8.60572249589491,0.5011111111111111,0.43666666666666665,-0.6266666666666667,0.1339413998357964,-0.15173440065681446,0.0625
1590500142.2096653,-0.008604782430213466,-4.378604782430213,8.634419129720854,0.5011111111111111,0.43666666666666665,-0.6266666666666667,0.17877989018883417,0.027619560755336614,0.0625
1590500142.2196653,-0.0016373277935709599,-4.371637327793571,8.670818663896785,0.4996557086279369,0.43612089073547633,-0.6290316957018247,0.0051166493549092504,-0.11988335064509074,0.125
1590500142.2296653,-0.02,-4.385793237152856,8.682103381423572,0.4833333333333333,0.43,-0.6555555555555556,0.11508453558929427,-0.0625,0.09870773220535287
1590500142.2396653,-0.01750005907232816,-4.37,8.662500649795609,0.4833333333333333,0.43,-0.6555555555555556,0.26562610760615296,-0.09374926159589801,0.06249852319179603
1590500142.2496653,-0.01,-4.372643484569741,8.603791361127666,0.4833333333333333,0.43,-0.6555555555555556,0.09195644287824217,-0.1875,0.1673911071956054
1590500142.2596653,-0.01512527655390201,-4.377437361723049,8.664874723446099,0.4833333333333333,0.43,-0.6555555555555556,-0.016016489230943783,-0.1714835107690562,-0.014450532307168654
1590500142.2696652,-0.028538168793373626,-4.369269084396687,8.652923662413253,0.48373939755739614,0.4313806183618138,-0.6550682784866801,-0.05793177747929259,-0.1204317774792926,0.11586355495858518
1590500142.2796652,-0.014230040530493801,-4.364230040530494,8.69,0.4888888888888889,0.4488888888888889,-0.6488888888888888,0.013218876657793126,-0.08893775331558626,-0.013218876657793126
1590500142.2896652,-0.02311780336581045,-4.37770593445527,8.667059344552701,0.4888888888888889,0.4488888888888889,-0.6488888888888888,0.09117581930912312,-0.13014836138175376,-0.03382418069087688
1590500142.2996652,-0.005423784804152902,-4.367288107597924,8.606271354412458,0.4888888888888889,0.4488888888888889,-0.6488888888888888,0.13665201746106653,-0.00529731005191128,0.0625
1590500142.3096652,-0.01794616484925043,-4.364107670301499,8.658215340602998,0.4888888888888889,0.4488888888888889,-0.6488888888888888,-0.0128364696921848,-0.1361541212312608,0.0496635303078152
1590500142.3196652,-0.010154557782690272,-4.379690884434619,8.689381768869238,0.4888888888888889,0.4488888888888889,-0.6488888888888888,-0.061534013858185806,0.05863605543274322,0.0009659861418141943
1590500142.3296652,-0.010905829596412557,-4.382717488789238,8.679094170403587,0.4833333333333333,0.43666666666666665,-0.6488888888888888,-0.05117713004484305,-0.10801569506726458,0.0
1590500142.3396652,-0.014491478834524466,-4.396228697086311,8.647965915338098,0.4833333333333333,0.43666666666666665,-0.6488888888888888,0.11414238592633316,0.010857614073666845,0.0344282572842221
1590500142.3496652,-0.0025820418313424217,-4.362582041831343,8.602910209156713,0.4833333333333333,0.43666666666666665,-0.6488888888888888,0.21772447710821974,-0.09272447710821972,0.09272447710821972
1590500142.3596652,-0.008392450129033474,-4.371607549870967,8.646430199483866,0.4833333333333333,0.43666666666666665,-0.6488888888888888,0.1149528133064592,-0.020094373387081584,0.0
1590500142.3696651,-0.0004916457889878878,-4.379508354211012,8.678033416844048,0.4833333333333333,0.43666666666666665,-0.6488888888888888,0.06557278618117429,-0.11885442763765142,0.0
1590500142.3796651,-0.022156291453477354,-4.387843708546522,8.697843708546522,0.4688888888888889,0.43666666666666665,-0.6411111111111111,-0.08945364316846693,-0.17402317841576653,-0.040430464752700394
1590500142.3896651,-0.026924577259982933,-4.378462288629992,8.67923602040994,0.4688888888888889,0.43666666666666665,-0.6411111111111111,-0.14905721574978667,-0.125,-0.15866791181234
1590500142.399665,-0.01231614509865385,-4.371158072549327,8.628106507845288,0.4688888888888889,0.43666666666666665,-0.6411111111111111,0.033548186266826874,-0.125,-0.021713860299879845
1590500142.409665,-0.029041176470588233,-4.37,8.651917647058823,0.4688888888888889,0.43666666666666665,-0.6411111111111111,-0.05051470588235294,-0.10702205882352941,0.03852941176470588
1590500142.419665,-0.022873088235294117,-4.37,8.664253823529412,0.4688888888888889,0.43666666666666665,-0.6411111111111111,0.026586397058823527,0.008629595588235311,-0.11567279411764705
1590500142.429665,-0.010984589385587253,-4.37,8.688030821228825,0.4869197101177144,0.44768550186206,-0.6411111111111111,0.006153683659920334,0.0625,-0.018461050979761
1590500142.439665,-0.027854930946407175,-4.387854930946407,8.645362672633983,0.4888888888888889,0.4488888888888889,-0.6411111111111111,-0.055796659207522435,-0.04909331841504487,-0.055796659207522435
1590500142.449665,-0.02,-4.394875054299367,8.593416630467088,0.4888888888888889,0.4488888888888889,-0.6411111111111111,0.021353940419305426,0.15546908937104187,-0.03046908937104186
1590500142.459665,-0.02,-4.3733322896281805,8.61666457925636,0.4888888888888889,0.4488888888888889,-0.6411111111111111,0.11805772994129159,-0.01388454011741683,0.10417318982387476
1590500142.469665,-0.02,-4.397956360078278,8.665912720156555,0.4888888888888889,0.4488888888888889,-0.6411111111111111,0.0667575831702544,-0.1164848336594912,-0.04972725048923679
1590500142.479665,-0.01860434845490045,-4.378604348454901,8.6986043484549,0.4955555555555556,0.44222222222222224,-0.6555555555555556,0.07266306705876682,0.0537771778431278,0.1162771778431278
1590500142.489665,-0.011409998871459203,-4.372819997742918,8.673080013542489,0.4955555555555556,0.44222222222222224,-0.6555555555555556,-0.22356252116013994,0.0,0.053687507053379976
1590500142.499665,-0.02100590337113562,-4.387988193257728,8.580059033711356,0.4955555555555556,0.44222222222222224,-0.6555555555555556,-0.037352415721609446,0.006286896069597639,0.006286896069597639
1590500142.509665,-0.028639530273566558,-4.37,8.67,0.4955555555555556,0.44222222222222224,-0.6555555555555556,0.161991192629373,0.0625,0.045494128419582
1590500142.519665,-0.020720826174788078,-4.37,8.67,0.4955555555555556,0.44222222222222224,-0.6555555555555556,0.013515490777276401,0.0625,-0.05348967281514906
1590500142.529665,-0.01,-4.37,8.7,0.4888888888888889,0.44222222222222224,-0.6555555555555556,-0.18091921297473182,0.05591921297473181,-0.0625
1590500142.539665,-0.008821567052083697,-4.371178432947916,8.685858804625004,0.4888888888888889,0.44222222222222224,-0.6555555555555556,-0.1176347940755231,-0.007365205924476892,-0.0698652059244769
1590500142.549665,-0.0014957906871135643,-4.3785042093128865,8.597949488245362,0.4888888888888889,0.44222222222222224,-0.6555555555555556,-0.07184869179445977,-0.053151308205540225,-0.11565130820554023
1590500142.559665,-0.018149366865469932,-4.37,8.634626582836326,0.4888888888888889,0.44222222222222224,-0.6555555555555556,0.0,-0.00578322854540647,0.04515031436378059
1590500142.569665,-0.005826600464200724,-4.37,8.665433498839498,0.4888888888888889,0.44222222222222224,-0.6555555555555556,0.0,-0.044291873549372744,-0.07037562064811823
1590500142.579665,-0.008572813275434243,-4.395718439826303,8.688572813275433,0.48412621484698093,0.426981665288117,-0.6307896505376345,0.05358008297146402,0.04466016594292804,0.035740248914392064
1590500142.589665,-0.018734147651633698,-4.381265852348366,8.662404885909803,0.4833333333333333,0.4244444444444445,-0.6266666666666667,-0.10917684564542121,0.01582315435457879,-0.054588422822710606
1590500142.599665,-0.012044800287873336,-4.387955199712127,8.611022400143936,0.4833333333333333,0.4244444444444445,-0.6266666666666667,0.006390000899604174,0.13139000089960418,-0.006390000899604174
1590500142.609665,-0.029588171889935122,-4.369588171889935,8.623706452990584,0.4833333333333333,0.4244444444444445,-0.6266666666666667,0.05992607431209453,0.18235214862418905,-0.05735214862418905
1590500142.619665,-0.021058144027983977,-4.361058144027984,8.700476703748144,0.4833333333333333,0.4244444444444445,-0.6266666666666667,0.006613400174899843,0.07572680034979969,0.049273199650200314
1590500142.629665,-0.004476274982042505,-4.375523725017957,8.694476274982042,0.4928200541776407,0.4382433111270734,-0.6490898250259386,0.048511640681117164,-0.13154656272446866,-0.0830349220433515
1590500142.639665,-0.008851125571579318,-4.381148874428421,8.689660130144214,0.4955555555555556,0.44222222222222224,-0.6555555555555556,-0.07686093035525852,0.11063906964474148,0.0
1590500142.6496649,0.0,-4.389551062920628,8.611346811238114,0.4955555555555556,0.44222222222222224,-0.6555555555555556,-0.18188828650785172,0.0,0.0
1590500142.6596649,-0.0022666006491720305,-4.381133300324586,8.643399900973758,0.4955555555555556,0.44222222222222224,-0.6555555555555556,-0.055416872971337405,0.0,0.0070831270286625956
1590500142.6696649,-0.017649777190955604,-4.388824888595478,8.666474665786433,0.4955555555555556,0.44222222222222224,-0.6555555555555556,-0.007344446278263736,0.0,0.055155553721736264
1590500142.6796649,-0.01931499849016283,-4.387944995470488,8.713834986411467,0.4955555555555556,0.44222222222222224,-0.6488888888888888,-0.05821874056351769,0.05821874056351769,0.05821874056351769
1590500142.6896648,-0.01,-4.3609428454368535,8.628114309126294,0.4955555555555556,0.44222222222222224,-0.6488888888888888,0.0,0.0,-0.0029463919901669567
1590500142.6996648,-0.008903995367689635,-4.37890399536769,8.596576027793862,0.4955555555555556,0.44222222222222224,-0.6488888888888888,-0.00685002895193978,0.00685002895193978,-0.07620005790387956
1590500142.7096648,-0.0010565080898333737,-4.37,8.651056508089834,0.4955555555555556,0.44222222222222224,-0.6488888888888888,-0.059198412219270705,0.059198412219270705,-0.17099206109635354
1590500142.7196648,-0.013717399178942285,-4.37,8.663717399178942,0.4955555555555556,0.44222222222222224,-0.6488888888888888,-0.01963312756580536,0.01963312756580536,0.02683436217097318
1590500142.7296648,-0.012427066160131891,-4.37,8.685145867679736,0.49050693299564346,0.44222222222222224,-0.653937511448801,0.04733083649917569,-0.04733083649917569,0.030338327001648624
1590500142.7396648,-0.016736836056467523,-4.37,8.69,0.4888888888888889,0.44222222222222224,-0.6555555555555556,0.02039477464707798,0.021710450705844042,0.0
1590500142.7496648,-0.02,-4.37,8.610463036883282,0.4888888888888889,0.44222222222222224,-0.6555555555555556,0.062138252434935336,0.00036174756506466427,-0.062138252434935336
1590500142.7596648,-0.005025078819145887,-4.377487460590427,8.654924763542562,0.4888888888888889,0.44222222222222224,-0.6555555555555556,-0.031093257380338205,0.0,-0.1092966286901691
1590500142.7696648,-0.014891449298554436,-4.387445724649277,8.677445724649276,0.4888888888888889,0.44222222222222224,-0.6555555555555556,-0.0625,-0.09307155811596522,-0.07846422094201738
1590500142.7796648,-0.012473723374569808,-4.37494744674914,8.710105106501722,0.4788538533883153,0.44222222222222224,-0.6505380378052688,-0.015460771091061296,0.0161176867268161,-0.1095392289089387
1590500142.7896647,-0.010385085147962032,-4.3892298297040755,8.686534233668342,0.4755555555555556,0.44222222222222224,-0.6488888888888888,0.1802796534757119,0.0048135643495254045,-0.0048135643495254045
1590500142.7996647,-0.017703447794528197,-4.374593104410944,8.620668969849246,0.4755555555555556,0.44222222222222224,-0.6488888888888888,0.04306035385259632,0.09629309743160246,-0.09629309743160246
1590500142.8096647,-0.010160678267409661,-4.37983932173259,8.639357286930363,0.4755555555555556,0.44222222222222224,-0.6488888888888888,-0.06149576082868962,-0.12098304331475848,-0.06350423917131037
1590500142.8196647,-0.03376494632692822,-4.372078351224357,8.671686595102571,0.4755555555555556,0.44222222222222224,-0.6488888888888888,-0.0625,-0.025979390304465763,-0.0625
1590500142.8296647,-0.010589869023197099,-4.360196623007733,8.699606753984535,0.46901997089404385,0.43024031700945065,-0.6412640401171251,0.06004221240334544,0.0,-0.001228893798327281
1590500142.8396647,-0.01,-4.370248411455935,8.687764296896583,0.4688888888888889,0.43,-0.6411111111111111,0.0015525715995948063,-0.0031051431991896126,-0.12344742840040519
1590500142.8496647,-0.01,-4.37990468735611,8.600857813795008,0.4688888888888889,0.43,-0.6411111111111111,0.061904295975688375,-0.12380859195137675,-0.06309570402431162
1590500142.8596647,-0.01,-4.371222682504121,8.617554634991757,0.4688888888888889,0.43,-0.6411111111111111,0.007641765650758754,-0.125,-0.0625
1590500142.8696647,-0.016327966398319918,-4.3763279663983194,8.664295764788239,0.4688888888888889,0.43,-0.6411111111111111,-0.07909957997899895,0.03319915995799791,-0.0625
1590500142.8796647,-0.006457115167178161,-4.393542884832822,8.69,0.4824317737217107,0.43,-0.6508920834903713,-0.08267848489743176,0.08267848489743176,-0.020178484897431757
1590500142.8896646,0.0,-4.382198634907368,8.69,0.4888888888888889,0.43,-0.6555555555555556,-0.0625,0.17375853182894552,0.055629265914472766
1590500142.8996646,-0.015548962638621763,-4.372225518680689,8.627804149445513,0.4888888888888889,0.43,-0.6555555555555556,-0.0625,0.04172847526292098,0.013909491754306995
1590500142.9096646,-0.026073390549549373,-4.37,8.628220171648648,0.4888888888888889,0.43,-0.6555555555555556,-0.13841738186936717,-0.07591738186936717,-0.07591738186936717
1590500142.9196646,-0.03,-4.389334807607254,8.672224679345423,0.4888888888888889,0.43,-0.6555555555555556,-0.10693830163644405,-0.08471915081822202,0.07640424590888986
1590500142.9296646,-0.01185611656379642,-4.381856116563797,8.6960479611454,0.49292086298582305,0.42664002158588826,-0.6595875296524897,-0.024700242841242538,-0.0625,0.07410072852372761
1590500142.9396646,-0.009059089806806241,-4.37,8.645645461159162,0.4955555555555556,0.4244444444444445,-0.6622222222222223,0.056619311292539,-0.0058806887074610015,0.0
1590500142.9496646,-0.024201215249771466,-4.37,8.611597569500457,0.4955555555555556,0.4244444444444445,-0.6622222222222223,0.0625,0.0,0.08875759531107168
1590500142.9596646,-0.02132044329167649,-4.378679556708324,8.608679556708323,0.4955555555555556,0.4244444444444445,-0.6622222222222223,-0.045994458854043865,0.10849445885404387,0.07075277057297807
1590500142.9696646,-0.013261678599276955,-4.366523357198554,8.65716824980506,0.4955555555555556,0.4244444444444445,-0.6622222222222223,-0.02038549124548096,0.2513435262635571,0.0625
1590500142.9796646,-0.01,-4.36,8.689042643104111,0.47747026934733433,0.435496563793913,-0.6371037691552482,-0.056516519400691516,0.08643392239723394,0.005983480599308484
1590500142.9896646,-0.017140064792861925,-4.367140064792862,8.682859935207137,0.4755555555555556,0.43666666666666665,-0.6344444444444445,-0.0625,-0.026750809910774068,0.0
1590500142.9996645,-0.028667152945857234,-4.378667152945857,8.601995623487285,0.4755555555555556,0.43666666666666665,-0.6344444444444445,-0.008330294088392289,-0.008330294088392289,0.05416970591160771
1590500143.0096645,-0.002563304876284183,-4.38,8.599145565041239,0.4755555555555556,0.43666666666666665,-0.6344444444444445,0.0,-0.11431956301548256,0.0625
1590500143.0196645,0.0,-4.38,8.645838431466172,0.4755555555555556,0.43666666666666665,-0.6344444444444445,-0.07162254916589572,-0.017566176251156404,0.02668872541705214
1590500143.0296645,0.0,-4.371321479744692,8.684339260127654,0.4726627154704529,0.43666666666666665,-0.6373372845295472,-0.125,0.0625,-0.027120375797837697
1590500143.0396645,-0.009042044032103675,-4.36,8.69,0.4688888888888889,0.43666666666666665,-0.6411111111111111,0.10105110080259186,-0.16355110080259186,-0.005987224799352035
1590500143.0496645,-0.01820253534047788,-4.368202535340478,8.60797464659522,0.4688888888888889,0.43666666666666665,-0.6411111111111111,0.07373415412201326,0.017563383511946945,0.051265845877986736
1590500143.0596645,-0.02,-4.361322847768346,8.642062913389928,0.4688888888888889,0.43666666666666665,-0.6411111111111111,-0.04596440289568253,-0.04596440289568253,0.0625
1590500143.0696645,-0.027193201553261652,-4.3671932015532615,8.678772806213047,0.4688888888888889,0.43666666666666665,-0.6411111111111111,-0.0625,-0.10745750970788534,0.0625
1590500143.0796645,-0.024343506906672686,-4.375656493093327,8.684343506906671,0.4839728704710951,0.4398091628296263,-0.6530525965303576,-0.027146918166704295,-0.018940754500112886,-0.043559245499887114
1590500143.0896645,-0.028540955982080472,-4.37145904401792,8.654377132053758,0.4955555555555556,0.44222222222222224,-0.6622222222222223,0.0,-0.04426194977600592,-0.17838097488800297
1590500143.0996644,-0.02354001211468569,-4.37,8.617700060573428,0.4955555555555556,0.44222222222222224,-0.6622222222222223,0.04037492428321443,-0.0625,-0.026000302867142278
1590500143.1096644,-0.011512444679036907,-4.378487555320963,8.625462665962889,0.4955555555555556,0.44222222222222224,-0.6622222222222223,0.0625,-0.0625,0.11554722075601932
1590500143.1196644,-0.01,-4.38,8.658739119808997,0.4955555555555556,0.44222222222222224,-0.6622222222222223,-0.02730974940311695,-0.017595125298441525,0.21480974940311695
1590500143.1296644,-0.01,-4.3721479109040615,8.693556267287814,0.4955555555555556,0.44222222222222224,-0.6404108636223937,-0.0625,0.0,0.1518488863007716
1590500143.1396644,-0.01,-4.37,8.653149327846027,0.4955555555555556,0.44222222222222224,-0.6344444444444445,-0.0625,0.0,0.045140899737545745
1590500143.1496644,-0.01,-4.37,8.596299887871655,0.4955555555555556,0.44222222222222224,-0.6344444444444445,-0.0625,0.0,-0.05176155476422245
1590500143.1596644,-0.0035568301573864524,-4.376443169842614,8.635102188898294,0.4955555555555556,0.44222222222222224,-0.6344444444444445,-0.0625,-0.08053962303266934,-0.022230188483665328
1590500143.1696644,-0.011629996732382094,-4.38,8.66581499836619,0.4955555555555556,0.44222222222222224,-0.6344444444444445,-0.02615626021130596,0.020374959154776162,0.0
1590500143.1796644,-0.006800447038370794,-4.373400223519186,8.696399105923259,0.4955555555555556,0.44222222222222224,-0.6527771568911517,-0.12374580901527382,0.0012541909847261778,0.0
1590500143.1896644,0.0,-4.362219223354448,8.63997301019003,0.4955555555555556,0.44222222222222224,-0.6622222222222223,-0.1388701459652988,-0.013870145965298813,-0.048629854034701187
1590500143.1996644,0.0,-4.386100184861867,8.567799630276266,0.4955555555555556,0.44222222222222224,-0.6622222222222223,-0.0706246148711102,0.0,-0.0081246148711102
1590500143.2096643,-0.008319234846946832,-4.36504229545916,8.634873113622522,0.4955555555555556,0.44222222222222224,-0.6622222222222223,-0.0625,0.0,0.0
1590500143.2196643,-0.01661209623310649,-4.366612096233107,8.663224192466213,0.4955555555555556,0.44222222222222224,-0.6622222222222223,-0.021174398543084443,-0.04132560145691556,-0.08265120291383111
1590500143.2296643,-0.011137807638939604,-4.37,8.68329328854159,0.49013977133490755,0.4368064380015742,-0.6592681581018688,-0.027694351128313734,0.07597175564156869,-0.09730564887168627
1590500143.2396643,-0.012718345870233816,-4.37,8.687281654129766,0.4833333333333333,0.43,-0.6555555555555556,0.01698966168896135,0.14401378441471818,-0.036003446103679546
1590500143.2496643,-0.020342266532516237,-4.37,8.631369066130064,0.4833333333333333,0.43,-0.6555555555555556,0.034458748742339715,0.0,0.0
1590500143.2596643,-0.015654798825621305,-4.3869643964768645,8.601309597651243,0.4833333333333333,0.43,-0.6555555555555556,0.008184985320266305,0.03534249266013315,0.03534249266013315
1590500143.2696643,-0.015156245184751456,-4.390312490369503,8.639062528891492,0.4833333333333333,0.43,-0.6555555555555556,-0.028320402785910206,0.0625,0.0625
1590500143.2796643,-0.01,-4.38,8.682598893139694,0.4833333333333333,0.43384966179268447,-0.6555555555555556,-0.14468577053077294,0.003442688407681166,0.0625
1590500143.2896643,-0.01490851366028908,-4.384908513660289,8.71,0.4833333333333333,0.44222222222222224,-0.6555555555555556,-0.09546536886957975,-0.0636435792463865,0.0011435792463865002
1590500143.2996643,-0.02,-4.383217374517375,8.62182586872587,0.4833333333333333,0.44222222222222224,-0.6555555555555556,-0.04239140926640927,0.0,-0.0625
1590500143.3096642,-0.02,-4.3741652344495945,8.615008593302433,0.4833333333333333,0.44222222222222224,-0.6555555555555556,-0.0989672846900335,0.0,-0.0625
1590500143.3196642,-0.02,-4.374532141594708,8.653596424784125,0.4833333333333333,0.44222222222222224,-0.6555555555555556,-0.0683482300661516,0.0,0.02247765490077261
1590500143.3296642,-0.012470959361662648,-4.364941918723326,8.677529040638337,0.4833333333333333,0.43302006144203214,-0.6505361951299973,-0.047056503989608464,0.047056503989608464,0.125
1590500143.3396642,-0.002504991715875781,-4.3749900165682485,8.672504991715876,0.4833333333333333,0.43,-0.6488888888888888,-0.015656198224223622,-0.031187603551552756,0.031312396448447244
1590500143.3496642,-0.015147328493556734,-4.372426335753222,8.586689693285438,0.4833333333333333,0.43,-0.6488888888888888,-0.14200620462709437,-0.015164598457635209,0.14200620462709437
1590500143.3596642,-0.027439395335975666,-4.3848787906719515,8.619515162687806,0.4833333333333333,0.43,-0.6488888888888888,0.04498110424923957,0.0,-0.04498110424923957
1590500143.3696642,-0.018232891874355943,-4.378232891874356,8.663534216251287,0.4833333333333333,0.43,-0.6488888888888888,0.014683361322086946,-0.07354442578527537,-0.05145557421472463
1590500143.3796642,-0.01833858622242233,-4.374169293111211,8.696677172444845,0.4833333333333333,0.43277952874080744,-0.6516684176296963,0.041732327780279146,-0.09894191805493022,0.0
1590500143.3896642,-0.020045874953755087,-4.384977062523122,8.705068812430632,0.4833333333333333,0.43666666666666665,-0.6555555555555556,0.12528671846096928,-0.03139335923048465,0.062213281539030704
1590500143.3996642,-0.01,-4.382818370550408,8.646910223302447,0.4833333333333333,0.43666666666666665,-0.6555555555555556,0.017614815940047594,-0.08977036811990481,-0.09942592029976202
1590500143.4096642,-0.02796175744738734,-4.391974504964925,8.63,0.4833333333333333,0.43666666666666665,-0.6555555555555556,0.07484065603078059,-0.125,-0.037818687938438816
1590500143.4196641,-0.03247597173144876,-4.396237985865724,8.648810070671379,0.4833333333333333,0.43666666666666665,-0.6555555555555556,0.125,-0.125,0.0625
1590500143.4296641,-0.022417310214192045,-4.39,8.684834620428383,0.48628782359512357,0.43666666666666665,-0.6539440154127608,0.04945905580649862,-0.09478362232259945,0.0625
1590500143.4396641,-0.03,-4.381968599722492,8.67189009902872,0.4955555555555556,0.43666666666666665,-0.6488888888888888,-0.11220562239835777,0.0,0.08759812586721408
1590500143.449664,-0.022169355744394117,-4.37,8.61825403361659,0.4955555555555556,0.43666666666666665,-0.6488888888888888,-0.024470763298768388,0.024470763298768388,0.10052923670123161
1590500143.459664,-0.020280534656635183,-4.3648597326716825,8.62056106931327,0.4955555555555556,0.43666666666666665,-0.6488888888888888,-0.030373329198015046,0.030373329198015046,-0.0017533416039699073
1590500143.469664,-0.021375958579592635,-4.36,8.652936062130612,0.4955555555555556,0.43666666666666665,-0.6488888888888888,0.026950129438773018,0.053900258877546035,-0.08945012943877302
1590500143.479664,-0.014017445617057936,-4.368034891234116,8.682052336851173,0.49064534424581807,0.43666666666666665,-0.6457642089645105,0.0625,0.049672894680163684,-0.09989096489338789
1590500143.489664,-0.02,-4.37002464615168,8.70498767692416,0.4833333333333333,0.43666666666666665,-0.6411111111111111,0.0001540384479966142,-0.0936729807760017,-0.031327019223998304
1590500143.499664,-0.013299881507992165,-4.36,8.629598578095907,0.4833333333333333,0.43666666666666665,-0.6411111111111111,-0.0625,-0.125,0.0
1590500143.509664,-0.01,-4.3871949256385,8.60359746281925,0.4833333333333333,0.43666666666666665,-0.6411111111111111,-0.020007928689844072,-0.040015857379688144,-0.04249207131015593
1590500143.519664,-0.004843887938023601,-4.384531663814071,8.646092784433835,0.4833333333333333,0.43666666666666665,-0.6411111111111111,0.0,0.0,0.0019514007747049728
1590500143.529664,0.0,-4.37,8.691399909145971,0.49346658590753073,0.4398333080961034,-0.6411111111111111,0.0,0.1068741482434888,0.0625
1590500143.539664,-0.006350498338870432,-4.37,8.706350498338871,0.5011111111111111,0.44222222222222224,-0.6411111111111111,0.039690614617940205,0.1875,-0.01688122923588041
1590500143.549664,-0.01,-4.363129863538965,8.641298635389647,0.5011111111111111,0.44222222222222224,-0.6411111111111111,0.019561647118529375,0.0157465884741175,0.02337670576294125
1590500143.559664,-0.02726779015732602,-4.365755930052442,8.644535580314653,0.5011111111111111,0.44222222222222224,-0.6411111111111111,0.10792368848328761,-0.026525437172237466,0.09847456282776254
1590500143.569664,-0.03396846337479583,-4.363968463374796,8.673015768312602,0.5011111111111111,0.44222222222222224,-0.6411111111111111,0.13095434413871088,0.018848551953763035,0.030757240231184826
1590500143.579664,-0.020793755496921723,-4.350793755496921,8.679603122251539,0.5011111111111111,0.44222222222222224,-0.6411111111111111,0.007441457783641164,0.06001951407211961,-0.1750975703605981
1590500143.589664,-0.015999959122774746,-4.39,8.69900014307029,0.4833333333333333,0.44222222222222224,-0.6344444444444445,-0.025000255482657836,0.018749872258671082,0.0
1590500143.599664,-0.03,-4.380937217794181,8.631874435588362,0.4833333333333333,0.44222222222222224,-0.6344444444444445,0.04361920373787742,0.0625,-0.05664238878636774
1590500143.609664,-0.017004122602616953,-4.364331959132461,8.611659795662305,0.4833333333333333,0.44222222222222224,-0.6344444444444445,-0.05414948915576268,-0.018724233733644027,-0.07920102168847463
1590500143.619664,-0.011479576231126436,-4.37,8.654349470288908,0.4833333333333333,0.44222222222222224,-0.6344444444444445,-0.10706316213886494,-0.08912632427772989,0.0625
1590500143.629664,-0.03662812344861824,-4.366628123448619,8.693371876551382,0.48932778053578974,0.4403489574714546,-0.6438107681982828,-0.0625,-0.021074228446136024,0.041425771553863976
1590500143.639664,-0.026370568610917623,-4.370888294167247,8.696370568610917,0.5011111111111111,0.43666666666666665,-0.6622222222222223,-0.017132107636470294,-0.0625,0.022683946181764853
1590500143.649664,-0.02,-4.38556137751599,8.650052397643913,0.5011111111111111,0.43666666666666665,-0.6622222222222223,0.14572417157518158,-0.007017218949878938,0.0625
1590500143.659664,-0.02,-4.38,8.617257478549895,0.5011111111111111,0.43666666666666665,-0.6622222222222223,0.16910556929736414,0.03553518976578805,0.03553518976578805
1590500143.669664,-0.015433860393366756,-4.38,8.658264558426533,0.5011111111111111,0.43666666666666665,-0.6622222222222223,0.0625,0.0,0.0
1590500143.679664,-0.013280583459474336,-4.383280583459475,8.693122333837897,0.49527896273871225,0.44067626867269083,-0.6578481109429232,0.08300364662171461,0.0,0.0
1590500143.689664,-0.02,-4.380961484170196,8.715480742085099,0.4833333333333333,0.4488888888888889,-0.6488888888888888,0.09675463803186127,0.0,0.0
1590500143.6996639,-0.010810979025331425,-4.374594510487334,8.654865874151989,0.4833333333333333,0.4488888888888889,-0.6488888888888888,0.0337843094541607,0.0287156905458393,0.1148627621833572
1590500143.7096639,-0.006302061961427985,-4.38,8.627812371768568,0.4833333333333333,0.4488888888888889,-0.6488888888888888,0.039387887258924906,-0.01627577451784981,0.05306056370537546
1590500143.7196639,-0.01,-4.374845499831454,8.665463500505638,0.4833333333333333,0.4488888888888889,-0.6488888888888888,0.03028437394658976,-0.03028437394658976,0.0019312521068204774
1590500143.7296638,-0.013431493977961903,-4.376862987955923,8.686862987955923,0.4806643935726963,0.4446948406936021,-0.6511765515408635,-0.021446837362261894,-0.021446837362261894,0.0625
1590500143.7396638,-0.016064743138634763,-4.382129486277269,8.688194229415904,0.4755555555555556,0.43666666666666665,-0.6555555555555556,0.01128606615059817,-0.0625,0.03790464461646728
1590500143.7496638,-0.01,-4.375836896690212,8.605794136407663,0.4755555555555556,0.43666666666666665,-0.6555555555555556,0.0520387913723452,0.010461208627654803,0.1094418129414822
1590500143.7596638,-0.017762351589429334,-4.376118824205285,8.579405878973573,0.4755555555555556,0.43666666666666665,-0.6555555555555556,0.04851469743393336,0.08675734871696668,0.09047060513213329
1590500143.7696638,-0.028829115982566836,-4.37,8.618196188122031,0.4755555555555556,0.43666666666666665,-0.6555555555555556,0.13231802510895727,0.125,-0.047863949782085476
1590500143.7796638,-0.015729088495064367,-4.37,8.68854182300987,0.4812501042288031,0.4390393952805198,-0.6555555555555556,0.10742040928245684,0.1516931969058477,0.03580680309415228
1590500143.7896638,-0.005476897250598809,-4.379046205498803,8.704523102749402,0.4888888888888889,0.44222222222222224,-0.6555555555555556,-0.028269392183757448,0.07442243126497021,0.056538784367514895
1590500143.7996638,0.0,-4.39,8.660736200298372,0.4888888888888889,0.44222222222222224,-0.6555555555555556,-0.03171012518648245,-0.0625,0.03263037555944737
1590500143.8096638,0.0,-4.3838593910525825,8.646843653684504,0.4888888888888889,0.44222222222222224,-0.6555555555555556,0.15351522368543943,0.014257611842719717,-0.13925761184271973
1590500143.8196638,-0.004731354954015713,-4.389462709908032,8.67,0.4888888888888889,0.44222222222222224,-0.6555555555555556,0.1908580630748036,0.0625,-0.1283580630748036
1590500143.8296638,-0.01,-4.388380365659778,8.685492845786964,0.4867371047518106,0.44007043808514396,-0.6499609167991521,0.0523772853736089,-0.05853785771065184,0.03433028616852146
