time,acc_x,acc_y,acc_z,mag_x,mag_y,mag_z,gyr_x,gyr_y,gyr_z
1590505995.862254,0.02,-4.4,8.76,0.4933333333333334,0.3244444444444444,-0.6622222222222223,-0.0625,0.1875,0.0625
1590505995.872254,0.002592411536870605,-4.395184823073741,8.754075884631293,0.4933333333333334,0.3244444444444444,-0.6622222222222223,0.09259485578911744,0.032405144210882565,0.013892283683676156
1590505995.882254,0.02281779416849141,-4.416408897084246,8.699226691252738,0.4933333333333334,0.3244444444444444,-0.6622222222222223,-0.04005560677653567,0.04488878644692866,-0.04488878644692866
1590505995.8922539,0.018703199846713932,-4.408703199846714,8.715648400076644,0.4933333333333334,0.3244444444444444,-0.6622222222222223,0.008105000958037928,0.0,-0.07060500095803793
1590505995.9022539,0.006369950924877312,-4.403630049075123,8.730890147225368,0.4933333333333334,0.32202441172769597,-0.6573821567887254,0.0398121932804832,-0.0680634201585504,-0.1023121932804832
1590505995.9122539,0.003468049090139653,-4.41346804909014,8.73959585272958,0.4933333333333334,0.31777777777777777,-0.6488888888888888,0.04335061362674566,-0.14414938637325433,-0.0625
1590505995.9222538,0.01465379213483146,-4.410692415730337,8.678115870786517,0.4933333333333334,0.31777777777777777,-0.6488888888888888,0.15408620084269664,0.08293100421348315,-0.0043275983146067384
1590505995.9322538,0.010855846894521149,-4.4,8.643716229658219,0.4933333333333334,0.31777777777777777,-0.6488888888888888,0.1589245215453786,0.2214245215453786,0.00534904309075717
1590505995.9422538,-0.005012486495102815,-4.410024972990206,8.690074918970618,0.4933333333333334,0.31777777777777777,-0.6488888888888888,0.09367195940560741,0.1561719594056074,-0.09382804059439259
1590505995.9522538,-0.004758717724455261,-4.42,8.72,0.4933333333333334,0.3212719659614743,-0.6366592302459512,0.029741985777845384,0.125,-0.09224198577784538
1590505995.9622538,0.0,-4.4064883726268915,8.740267441059663,0.4933333333333334,0.3244444444444444,-0.6255555555555555,0.16889534216386218,0.08277616445903446,-0.020276164459034456
1590505995.9722538,0.006113516959398563,-4.412227033918797,8.713318898243609,0.4933333333333334,0.3244444444444444,-0.6255555555555555,0.21179051900375898,-0.09033792398496407,0.03820948099624102
1590505995.9822538,0.01573065022792225,-4.42,8.71292260091169,0.4933333333333334,0.3244444444444444,-0.6255555555555555,0.08005030822645787,-0.29494969177354213,-0.009133127849028075
1590505995.9922538,0.02,-4.41614843384382,8.73770313231236,0.4933333333333334,0.3244444444444444,-0.6255555555555555,-0.024072288476124387,-0.4231445769522488,0.009716865428373161
1590505996.0022538,0.016936628138700678,-4.41153168593065,8.74846831406935,0.4933333333333334,0.323423320490678,-0.6301506133475046,-0.08164607413312076,-0.48085392586687925,0.08670785173375847
1590505996.0122538,0.006031884818279851,-4.407936230363441,8.69777680627204,0.4933333333333334,0.31777777777777777,-0.6555555555555556,-0.07440215965725278,-0.33730071988575094,-0.125
1590505996.0222538,0.003999576360940478,-4.4060004236390595,8.639997881804701,0.4933333333333334,0.31777777777777777,-0.6555555555555556,-0.07500529548824401,-0.350002647744122,-0.012492056767633972
1590505996.0322537,0.011602435097605151,-4.41,8.637403652646407,0.4933333333333334,0.31777777777777777,-0.6555555555555556,-0.1612576096800161,-0.4475152193600322,-0.01001521936003219
1590505996.0422537,0.010161877861108405,-4.4050809389305545,8.689352488555567,0.4933333333333334,0.31777777777777777,-0.6555555555555556,-0.24898826336807248,-0.43851173663192755,-0.03175586831596376
1590505996.0522537,0.0,-4.4,8.744530795483177,0.4933333333333334,0.31777777777777777,-0.6555555555555556,-0.24438689617261045,-0.3295912641150736,0.022704367942463183
1590505996.0622537,0.004546009706553531,-4.404546009706554,8.77,0.4933333333333334,0.31777777777777777,-0.6555555555555556,-0.15341256066595957,-0.16476231800212132,0.0625
1590505996.0722537,0.018143872692884627,-4.41,8.737424509228461,0.4933333333333334,0.31777777777777777,-0.6555555555555556,-0.16205039783473554,-0.011600795669471073,0.0625
1590505996.0822537,0.025842638082477297,-4.4120786809587615,8.702472085752568,0.4933333333333334,0.31777777777777777,-0.6555555555555556,-0.06004122003870775,0.07549175599225845,0.07549175599225845
1590505996.0922537,0.01706638848035024,-4.416466805759825,8.753533194240175,0.4933333333333334,0.31777777777777777,-0.6555555555555556,0.23166492800218902,0.1912473920032835,0.08083507199781098
1590505996.1022537,0.02668672765206227,-4.41,8.75834336382603,0.4922289092173541,0.31667335366179855,-0.6544511314395763,0.3228539760873054,0.3332079521746108,0.020707952174610814
1590505996.1122537,0.004964402219206134,-4.41,8.75,0.4866666666666667,0.3111111111111111,-0.6488888888888888,0.31205502774007665,0.343082541610115,0.09352751387003833
1590505996.1222537,0.010669431729091324,-4.404665284135454,8.680648693760906,0.4866666666666667,0.3111111111111111,-0.6488888888888888,0.25,0.2833419741534104,0.0625
1590505996.1322536,0.02,-4.405573848270627,8.647869241353133,0.4866666666666667,0.3111111111111111,-0.6488888888888888,0.2848365516914172,0.24282689661716564,0.09733655169141718
1590505996.1422536,0.024490146168382892,-4.405509853831617,8.674490146168383,0.4866666666666667,0.3111111111111111,-0.6488888888888888,0.34056341355239306,0.21556341355239308,0.125
1590505996.1522536,0.01764325323475046,-4.408237831176833,8.696475662353667,0.48941261039227774,0.3138570548367221,-0.6488888888888888,0.3235135551447936,0.1470271102895872,0.0992567775723968
1590505996.1622536,0.0054169432065990335,-4.409166113586802,8.714583056793401,0.4933333333333334,0.31777777777777777,-0.6488888888888888,0.21614410495875605,0.06771179008248791,0.09635589504124395
1590505996.1722536,0.004478446696788375,-4.4110431066064235,8.67687068018073,0.4933333333333334,0.31777777777777777,-0.6488888888888888,0.15299029185492735,0.055980583709854675,0.055980583709854675
1590505996.1822536,0.0,-4.41462999613276,8.6768500193362,0.4933333333333334,0.31777777777777777,-0.6488888888888888,0.15856252417024955,0.0,0.033562524170249554
1590505996.1922536,0.0,-4.401327924164525,8.734688303341901,0.4933333333333334,0.31777777777777777,-0.6488888888888888,0.16039976301413883,0.08130071095758355,-0.04590094794344472
1590505996.2022536,0.0,-4.400895467160037,8.772736355226641,0.4933333333333334,0.3153565628533251,-0.645660602322952,0.056903330249768735,0.14210222016651247,-0.05130666049953747
1590505996.2122536,0.009826850551931072,-4.42,8.750173149448068,0.4933333333333334,0.3111111111111111,-0.64,0.029626723924353796,0.0010821840504308053,0.033955460126077
1590505996.2222536,0.012664665978930258,-4.41266466597893,8.703323329894651,0.4933333333333334,0.3111111111111111,-0.64,0.125,0.006268756447528834,-0.056231243552471166
1590505996.2322536,0.0,-4.399465859853579,8.64267070073211,0.4933333333333334,0.3111111111111111,-0.64,0.13167675183027044,0.13167675183027044,0.059161624084864785
1590505996.2422535,0.0052934330309455865,-4.392646716515473,8.695293433030946,0.4933333333333334,0.3111111111111111,-0.64,0.2830839564434099,0.18383208711318016,0.03308395644340991
1590505996.2522535,0.01866747445115827,-4.39933373722558,8.70866747445116,0.4933333333333334,0.3111111111111111,-0.64,0.3666717153197392,0.01665656936052165,0.11667171531973917
1590505996.2622535,0.013566705216024672,-4.400700115648074,8.732166473919877,0.4933333333333334,0.2977777777777777,-0.6344444444444445,0.1652080923998458,0.017916184799691606,0.0668757228004626
1590505996.2722535,0.015202350488105393,-4.42,8.656821154392947,0.4933333333333334,0.2977777777777777,-0.6344444444444445,0.1849706188986826,-0.0625,0.06755876220263482
1590505996.2822535,0.01,-4.409458333333333,8.634597222222222,0.4933333333333334,0.2977777777777777,-0.6344444444444445,0.27196180555555555,-0.08446180555555556,0.0033854166666666685
1590505996.2922535,0.008584363524234015,-4.388584363524234,8.685662545903064,0.4933333333333334,0.2977777777777777,-0.6344444444444445,0.29480454405292517,-0.09845681607938778,0.10730454405292518
1590505996.3022535,0.0,-4.384834094888329,8.734502284664988,0.4933333333333334,0.2977777777777777,-0.6408899042955498,0.1723934534739719,0.0625,-0.030213093052056196
1590505996.3122535,0.0,-4.40228757472246,8.766274551665242,0.4933333333333334,0.2977777777777777,-0.6611111111111111,0.11070265798462853,0.03390531596925704,-0.11070265798462853
1590505996.3222535,0.005160666089524876,-4.404839333910475,8.678714671283801,0.4933333333333334,0.2977777777777777,-0.6611111111111111,-0.034262489178591427,-0.0625,-0.0625
1590505996.3322535,0.025386731065942175,-4.389742179289372,8.645128910355314,0.4933333333333334,0.2977777777777777,-0.6611111111111111,-0.09294431027928714,-0.030444310279287137,-0.030444310279287137
1590505996.3422534,0.03238995847489619,-4.391415062287655,8.691855228388071,0.4933333333333334,0.2977777777777777,-0.6611111111111111,-0.11006275953189884,0.047562759531898834,0.023781379765949417
1590505996.3522534,0.014624631703005304,-4.41,8.757312315851502,0.4954237543377202,0.30136135664244085,-0.6578261638185032,-0.20429802592810842,0.07460592221567472,0.04570197407189157
1590505996.3622534,0.0,-4.39631022170113,8.76368977829887,0.5011111111111111,0.3111111111111111,-0.6488888888888888,-0.13591851417608186,0.023061114367938604,0.0
1590505996.3722534,0.009838087190847018,-4.389838087190848,8.720971476854917,0.5011111111111111,0.3111111111111111,-0.6488888888888888,-0.030744022471396928,0.125,0.09223206741419077
1590505996.3822534,0.01044884696525134,-4.4,8.669551153034748,0.5011111111111111,0.3111111111111111,-0.6488888888888888,-0.0625,0.125,0.09795794029923131
1590505996.3922534,0.002874739275043689,-4.405749478550088,8.694373696375218,0.5011111111111111,0.3111111111111111,-0.6488888888888888,-0.026565759061953888,0.14296712046902305,0.017967120469023056
1590505996.4022534,0.008785867298043858,-4.417571734596088,8.723929336490219,0.5011111111111111,0.3111111111111111,-0.6488888888888888,0.047323341225548224,0.1799116706127741,0.05491167061277411
1590505996.4122534,0.0027955652941753606,-4.407204434705825,8.72440886941165,0.4866666666666667,0.3111111111111111,-0.6622222222222223,-0.107527716911404,0.045027716911403996,0.0
1590505996.4222534,0.006380259929110243,-4.40361974007089,8.688281559574662,0.4866666666666667,0.3111111111111111,-0.6622222222222223,-0.08512337544306098,-0.04524675088612196,0.02262337544306098
1590505996.4322534,0.0013256093308017204,-4.4073487813383965,8.653976827992405,0.4866666666666667,0.3111111111111111,-0.6622222222222223,-0.11671494168248925,-0.125,0.05421494168248925
1590505996.4422534,0.009451892897275932,-4.391096214205448,8.678355678691828,0.4866666666666667,0.3111111111111111,-0.6622222222222223,-0.0659256693920254,-0.125,0.0034256693920254114
1590505996.4522533,0.017194427339901477,-4.4171944273399015,8.738416717980297,0.4866666666666667,0.3111111111111111,-0.6591049192665572,-0.0625,-0.08880224368842364,0.008767414562807881
1590505996.4622533,0.0010525708128078827,-4.4010525708128085,8.786842287561576,0.4866666666666667,0.3111111111111111,-0.6411695231253421,-0.0625,-0.2401321486299261,0.05921071620997537
1590505996.4722533,0.02383211209667052,-4.4061678879033295,8.766076616531688,0.4866666666666667,0.3111111111111111,-0.64,0.03854929939580923,-0.11040140120838154,0.023950700604190772
1590505996.4822533,0.018109652551281705,-4.415945173724359,8.710274131378204,0.4866666666666667,0.3111111111111111,-0.64,0.09965733577724467,0.011814671554489342,-0.011814671554489342
1590505996.4922533,0.015608423490248578,-4.402804211745124,8.743597894127438,0.4866666666666667,0.3111111111111111,-0.64,0.040013161703513406,-0.040013161703513406,0.040013161703513406
1590505996.5022533,-0.005519409513395298,-4.394480590486604,8.754480590486605,0.4839285280359638,0.30812405078670796,-0.6419913735496021,0.014001845270639694,0.04200553581191908,-0.014001845270639694
1590505996.5122533,0.005563986070431955,-4.401127972140864,8.730075874633886,0.4744444444444445,0.2977777777777777,-0.6488888888888888,0.0625,0.13204982588039943,-0.0070498258803994365
1590505996.5222533,0.0,-4.402247324886007,8.651422908599317,0.4744444444444445,0.2977777777777777,-0.6488888888888888,0.0625,0.0625,0.11353052035836217
1590505996.5322533,0.003543054364791488,-4.405827782540834,8.627715271823957,0.4744444444444445,0.2977777777777777,-0.6488888888888888,0.0182118204401064,0.08464408977994681,0.1210677306601596
1590505996.5422533,0.008057212623249776,-4.3838855747535,8.66582836213025,0.4744444444444445,0.2977777777777777,-0.6488888888888888,-0.0867848422093778,0.125,-0.0121424211046889
1590505996.5522532,0.0015751244088647101,-4.396849751182271,8.685274626773406,0.4744444444444445,0.2977777777777777,-0.6488888888888888,-0.1678109448891911,0.125,-0.05265547244459555
1590505996.5622532,0.008095663265306122,-4.41,8.758095663265307,0.4811111111111111,0.3033333333333333,-0.6622222222222223,-0.03869579081632653,-0.11309789540816326,-0.0267936862244898
1590505996.5722532,0.0,-4.41,8.722384297444071,0.4811111111111111,0.3033333333333333,-0.6622222222222223,0.08167757121939466,-0.08167757121939466,0.10582242878060534
1590505996.5822532,0.002208293856132935,-4.408895853071933,8.6633124407842,0.4811111111111111,0.3033333333333333,-0.6622222222222223,0.09739632679833832,-0.11119816339916916,0.06940091830041542
1590505996.5922532,0.017519852821312965,-4.402480147178688,8.70116066230409,0.4811111111111111,0.3033333333333333,-0.6622222222222223,-0.10174862019980904,0.007750459933396987,0.11724954006660301
1590505996.6022532,0.0016885194724108328,-4.416622961055178,8.780844259736204,0.4811111111111111,0.3033333333333333,-0.6610965425739483,0.04667012994614844,0.05722337664871615,0.0625
1590505996.6122532,0.018055880746117227,-4.383888238507765,8.789027940373058,0.4811111111111111,0.3033333333333333,-0.6501849683914773,-0.106773881994849,0.00607537266838367,0.0625
1590505996.6222532,0.007980518157743663,-4.4,8.723746736050668,0.4811111111111111,0.3033333333333333,-0.6488888888888888,0.125,0.08713471545769366,0.04987823848589788
1590505996.6322532,0.0002131520954091748,-4.4,8.622770977240318,0.4811111111111111,0.3033333333333333,-0.6488888888888888,0.125,-0.05850339821107797,0.0013322005963073355
1590505996.6422532,0.0055034593941022366,-4.391006918788205,8.69275172969705,0.4811111111111111,0.3033333333333333,-0.6488888888888888,0.0,-0.09689662121313898,-0.07969831060656948
1590505996.6522532,0.019590582387317795,-4.419181164774636,8.699795291193658,0.4811111111111111,0.3033333333333333,-0.6488888888888888,0.0,-0.18494113992073621,-0.12372056996036811
1590505996.6622531,0.004685621565807427,-4.4,8.715314378434194,0.4933333333333334,0.3111111111111111,-0.6555555555555556,-0.0771425673931482,-0.1103574326068518,0.03321486521370358
1590505996.6722531,0.019841427534293684,-4.4,8.69952428260288,0.4933333333333334,0.3111111111111111,-0.6555555555555556,-0.12400892208933552,-0.06547323373199343,-0.05952676626800657
1590505996.6822531,0.013707088056796062,-4.4,8.673707088056796,0.4933333333333334,0.3111111111111111,-0.6555555555555556,-0.0625,-0.2268306996450246,0.10183069964502461
1590505996.692253,0.01728728691183917,-4.39728728691184,8.707127130881608,0.4933333333333334,0.3111111111111111,-0.6555555555555556,-0.07945445680100519,-0.13663662959698442,-0.00531782720402077
1590505996.702253,0.01,-4.3906295661401575,8.78,0.4925638636064742,0.31153082187121617,-0.6555555555555556,-0.125,-0.007869576751969308,-0.1796304232480307
1590505996.712253,0.01,-4.39918901269336,8.78,0.48210231781922736,0.31723711957335077,-0.6555555555555556,-0.125,-0.11486265866699319,-0.07263734133300681
1590505996.722253,0.011722886597938145,-4.391722886597938,8.774156701030929,0.4811111111111111,0.31777777777777777,-0.6555555555555556,-0.032304123711340206,0.051731958762886596,0.051731958762886596
1590505996.732253,0.020333964505829066,-4.399666035494171,8.652003787034975,0.4811111111111111,0.31777777777777777,-0.6555555555555556,-0.18958727816143164,0.0,0.0
1590505996.742253,0.02812021979653969,-4.39187978020346,8.698721318779238,0.4811111111111111,0.31777777777777777,-0.6555555555555556,-0.23825137372837307,0.0,0.0
1590505996.752253,0.01,-4.382394005735253,8.69718201720576,0.4811111111111111,0.31697977586602666,-0.6555555555555556,-0.06998126792266658,-0.0074812679226665835,-0.0074812679226665835
1590505996.762253,0.006983605080623368,-4.3969836050806235,8.743967210161246,0.4811111111111111,0.3111111111111111,-0.6555555555555556,-0.049590127015584184,-0.005942595261688131,-0.043647531753896046
1590505996.772253,0.0,-4.39,8.699955281303088,0.4811111111111111,0.3111111111111111,-0.6555555555555556,0.05671654841610872,0.09085827420805437,0.0
1590505996.782253,0.0,-4.395804382200136,8.637413146600405,0.4811111111111111,0.3111111111111111,-0.6555555555555556,-0.08872261124915293,0.0,0.018138694375423536
1590505996.792253,0.0,-4.408252296549777,8.69048622070134,0.4811111111111111,0.3111111111111111,-0.6555555555555556,0.02184629312779282,0.02184629312779282,0.02973056030831077
1590505996.802253,0.0,-4.401284905064869,8.732290569610791,0.4811111111111111,0.3111111111111111,-0.6555555555555556,0.10893868668914766,0.10893868668914766,-0.10090803003372151
1590505996.812253,0.0,-4.401269783761108,8.76492086495557,0.5011111111111111,0.31777777777777777,-0.6555555555555556,-0.03174459402768773,-0.007936148506921932,0.0625
1590505996.822253,0.0,-4.409267762480455,8.732928950078183,0.5011111111111111,0.31777777777777777,-0.6555555555555556,-0.23169406201136494,-0.057923515502841236,0.0625
1590505996.832253,0.02,-4.381992643750122,8.625977931250366,0.5011111111111111,0.31777777777777777,-0.6555555555555556,-0.17504597656173576,-0.26245402343826424,0.0
1590505996.842253,0.01976059062175677,-4.389760590621757,8.652633503160676,0.5011111111111111,0.31777777777777777,-0.6555555555555556,-0.1279926172280404,-0.31100369138597983,-0.002992617228040381
1590505996.852253,0.01,-4.380237627111478,8.760237627111477,0.5010187005677587,0.31777777777777777,-0.6553047269378848,-0.25,-0.24925741527663262,-0.12425741527663263
1590505996.862253,0.01,-4.397972135895647,8.777972135895647,0.4941219471516929,0.31777777777777777,-0.6365849676657059,-0.25,-0.19383707532610306,-0.06883707532610304
1590505996.872253,0.02,-4.402043266845292,8.76365386523767,0.4933333333333334,0.31777777777777777,-0.6344444444444445,-0.08668874665078893,-0.2486479110846482,-0.03831125334921107
1590505996.882253,0.02224867303004761,-4.407751326969953,8.704497346060094,0.4933333333333334,0.31777777777777777,-0.6344444444444445,0.03439158712440486,0.01405420643779757,-0.17344579356220244
1590505996.892253,0.02518176654359557,-4.3983939221811985,8.723212155637604,0.4933333333333334,0.31777777777777777,-0.6344444444444445,-0.09261395910252769,0.03238604089747231,-0.09488604089747231
1590505996.902253,0.0003566702375701052,-4.390178335118785,8.740535005356355,0.4933333333333334,0.31752018260619935,-0.6347020396160229,-0.25,-0.12722918898481317,0.0625
1590505996.912253,0.013401605031549284,-4.404398929978967,8.754603745073615,0.4933333333333334,0.3033333333333333,-0.6488888888888888,-0.23625334381572768,-0.22250668763145534,0.0625
1590505996.922253,-0.008983846884756347,-4.416951540654269,8.689838468847563,0.4933333333333334,0.3033333333333333,-0.6488888888888888,-0.18114904302972717,-0.13770191394054568,0.05614904302972716
1590505996.932253,0.0,-4.39,8.605136473546764,0.4933333333333334,0.3033333333333333,-0.6488888888888888,-0.16780394622303899,-0.2714019731115195,0.0
1590505996.9422529,0.0,-4.39,8.629477125447336,0.4933333333333334,0.3033333333333333,-0.6488888888888888,-0.37064271206112775,-0.3728213560305639,0.0
1590505996.9522529,0.0292481649523719,-4.399749388317457,8.756742048126945,0.4933333333333334,0.3033333333333333,-0.6488888888888888,-0.49686735396821624,-0.49686735396821624,0.0
1590505996.9622529,0.02,-4.401307068695776,8.778692931304224,0.4811111111111111,0.3111111111111111,-0.67,-0.29616164130280187,-0.4754924619542028,-0.07066917934859906
1590505996.9722528,0.02,-4.408763867159721,8.771236132840277,0.4811111111111111,0.3111111111111111,-0.67,-0.20295166050348457,-0.33567749075522685,-0.11727416974825772
1590505996.9822528,0.013701536865081495,-4.398425384216271,8.699447694702377,0.4811111111111111,0.3111111111111111,-0.67,-0.4143653945932407,-0.4571826972966203,-0.009841348648310164
1590505996.9922528,-0.01631510207002666,-4.390921224482493,8.74447265310504,0.4811111111111111,0.3111111111111111,-0.67,-0.6019693879376666,-0.5509846939688333,-0.05674234698441666
1590505997.0022528,-0.029745980451884618,-4.380254019548115,8.75,0.4811111111111111,0.3111111111111111,-0.67,-0.38135048870288457,-0.7452371334728366,-0.001587622175721136
1590505997.0122528,-0.1378300199057626,-4.325266460049891,8.74,0.4811111111111111,0.2977777777777777,-0.64,-0.9773162496535389,-1.1955111245496006,0.15458462468818507
1590505997.0222528,-0.3275792716071752,-4.223038412755934,8.714624388476173,0.4811111111111111,0.2977777777777777,-0.64,-1.5792987860119587,-1.9542987860119587,0.9223704475448451
1590505997.0322528,-0.5555716615328863,-4.093842725131364,8.59302844718246,0.4811111111111111,0.2977777777777777,-0.64,-1.9592861025548107,-2.3342861025548105,2.3473228845805396
1590505997.0422528,-0.47879591719047343,-4.21869115583492,8.86738231166984,0.4811111111111111,0.2977777777777777,-0.64,-3.1452891028967955,-3.2513095169444286,6.813477932837399
1590505997.0522528,-0.35785998500663163,-4.154191992003537,8.738383984007074,0.4811111111111111,0.2977777777777777,-0.64,-1.8351498375718434,-2.5458499125386846,11.096625531015128
1590505997.0622528,-0.17911430660492322,-4.16772142334877,8.609114306604923,0.4933333333333334,0.3111111111111111,-0.6488888888888888,0.439865647087497,1.0095098098951987,16.90272514014136
1590505997.0722528,-0.21,-4.16,8.64,0.4933333333333334,0.3111111111111111,-0.6488888888888888,-0.1875,2.3125,19.75
1590505997.0822527,0.1243491976409272,-3.4913016047181458,8.110613770401866,0.4933333333333334,0.3111111111111111,-0.6488888888888888,-2.219135749554245,2.4285934714031,22.478196577972845
1590505997.0922527,0.010657743235463452,-3.7104879101899826,8.824087507196316,0.4933333333333334,0.3111111111111111,-0.6488888888888888,-7.139275690846286,1.4129245826137018,23.865761729994244
1590505997.1022527,-0.21649912626247667,-4.035273820454344,8.999824956313123,0.4933333333333334,0.3111111111111111,-0.6488888888888888,-9.90686735479667,2.9682733317536947,25.96717930871072
1590505997.1122527,-0.22901111353236,-4.18417781651776,8.93692220527348,0.48732592431176003,0.30410246725260887,-0.6548962979104622,-4.756109718893005,2.2115275659185007,25.774722161691
1590505997.1222527,-0.1671199226712055,-4.082099855008511,8.68633970035092,0.4866666666666667,0.3033333333333333,-0.6555555555555556,-1.583871798104604,-1.4611294101578096,25.01312409380319
1590505997.1322527,-0.031110444177671066,-3.68,8.589981992797119,0.4866666666666667,0.3033333333333333,-0.6555555555555556,-1.0275735294117647,-1.7848514405762306,24.215336134453782
1590505997.1422527,-0.03851511192712379,-3.68,8.789908022032343,0.4866666666666667,0.3033333333333333,-0.6555555555555556,-3.295253027681661,-0.3501970641197656,23.56742770637667
1590505997.1522527,-0.06981063861312788,-3.6998737590754187,8.919431915839384,0.4866666666666667,0.3033333333333333,-0.6555555555555556,-4.495265965328197,0.5585549711068306,22.00907356645429
1590505997.1622527,-0.07,-3.67644236197358,8.684423619735801,0.5128418200293553,0.29897080777288515,-0.6607905862280933,-1.9970009596928984,-1.2534012645365247,19.98778508524331
1590505997.1722527,-0.02574369602763385,-3.67686286701209,8.876303281519862,0.52,0.2977777777777777,-0.6622222222222223,-0.9803022452504317,-1.1851986183074266,17.004693436960277
1590505997.1822526,0.08778127233738385,-3.2824617583988562,8.662842030021444,0.52,0.2977777777777777,-0.6622222222222223,-1.582541100786276,-0.7129556826304503,14.77697462473195
1590505997.1922526,0.2368520698254364,-2.950682693266833,8.782465236907731,0.52,0.2977777777777777,-0.6622222222222223,-0.6609513715710723,-0.3595922693266833,13.348451371571072
1590505997.2022526,0.10296917705735661,-3.0594625436408975,8.807568279301746,0.52,0.2977777777777777,-0.6622222222222223,-1.0270374064837906,-0.20269825436408978,13.71453740648379
1590505997.2122526,0.0,-3.08,8.82,0.52,0.2977777777777777,-0.64,-0.3125,-0.9375,14.9375
1590505997.2222526,-0.006030931781639997,-3.08603093178164,8.80190720465508,0.52,0.2977777777777777,-0.64,-0.3125,-0.89980667636475,15.57828650179925
1590505997.2322526,-0.012287010700257348,-3.196188315499571,8.706098695200685,0.52,0.2977777777777777,-0.64,-0.8845292112510723,-1.278587633753217,17.105381450629825
1590505997.2422526,-0.04073791945702991,-3.1525827180996044,8.778155201357425,0.52,0.2977777777777777,-0.64,-0.9907760067871261,-1.6261529991516093,17.633070994061264
1590505997.2522526,-0.07102222061770068,-3.2585777721619524,8.702444448455747,0.52,0.2977777777777777,-0.64,-0.6122222422787416,-1.6734722197151572,17.9643055380061
1590505997.2622526,-0.10026067652309242,-3.2967535588410306,8.808317617979585,0.5117456503054068,0.3015297549116837,-0.636248022866094,-0.2467415434613448,-1.6452902572435575,18.52680717032087
1590505997.2722526,-0.12136435282798715,-3.2545425886880515,8.90409305848396,0.5077777777777778,0.3033333333333333,-0.6344444444444445,-0.6221904362244376,-1.5539727948250803,18.85654080776238
1590505997.2822526,-0.15217613273771538,-3.227392044245905,8.730414805360562,0.5077777777777778,0.3033333333333333,-0.6344444444444445,-0.21459529887258033,-1.453799723463093,19.353302488832163
1590505997.2922525,-0.14743570183086313,-3.2676928945074106,8.791925130775937,0.5077777777777778,0.3033333333333333,-0.6344444444444445,-0.40866118134263296,-1.5160268635571055,19.38220970466434
1590505997.3022525,-0.16187429968422126,-3.29,8.797085667719262,0.5077777777777778,0.3033333333333333,-0.6344444444444445,-0.9153572883773047,-1.6536429153509218,19.26692854232454
1590505997.3122525,-0.16350219042335432,-3.3419824766131656,8.82848028618981,0.5034459047266806,0.29178167186374104,-0.6380543386536921,-0.3908303521894668,-1.4844434507298223,19.209388690145964
1590505997.3222525,-0.17685696965374603,-3.403713939307492,8.801000606211888,0.5011111111111111,0.2855555555555556,-0.64,-0.7473143921834325,-1.533034090503869,19.082143939664086
1590505997.3322525,-0.20174571296153251,-3.41,8.659525722230804,0.5011111111111111,0.2855555555555556,-0.64,-0.46726788197126523,-1.6078035686698595,18.700071450641126
1590505997.3422525,-0.20026190339440586,-3.419738096605594,8.700261903394406,0.5011111111111111,0.2855555555555556,-0.64,-0.5649553443225547,-1.5641368962150364,18.12090775946241
1590505997.3522525,-0.2163218654873356,-3.4036781345126643,8.716321865487336,0.5011111111111111,0.2855555555555556,-0.64,-0.7155174889437712,-1.6645116592958475,17.86997085176038
1590505997.3622525,-0.22980354706684858,-3.3901964529331514,8.808231923601637,0.5272539032893739,0.2855555555555556,-0.6694106412005457,-0.5661834924965894,-1.2585948158253752,16.587056616643927
1590505997.3722525,-0.23,-3.4510911647020657,8.865417108251323,0.5277777777777778,0.2855555555555556,-0.67,-0.5625,-1.248636044122418,16.544768573591433
1590505997.3822525,-0.23,-3.4964496593489782,8.674911430734292,0.5277777777777778,0.2855555555555556,-0.67,-0.5625,-1.1919379258137774,15.807693035579106
1590505997.3922524,-0.24828933673952125,-3.527434005109282,8.751446683697607,0.5277777777777778,0.2855555555555556,-0.67,-0.9625792411770272,-0.9588832907559844,13.921066326047876
1590505997.4022524,-0.23447136519255313,-3.5377643174037234,8.791057269614894,0.5277777777777778,0.2855555555555556,-0.67,-0.5632571460405567,-1.0830809513198145,12.827987308307842
1590505997.4122524,-0.24902593671769196,-3.578051873435384,8.780974063282308,0.5277777777777778,0.27216693342088344,-0.67,-0.278950527352567,-0.9268131591907087,11.967939477572127
1590505997.4222524,-0.2655904307107423,-3.627952153553711,8.77,0.5277777777777778,0.2644444444444444,-0.67,-0.25738038388427836,-0.7775598080578608,10.926196161157216
1590505997.4322524,-0.2608455148174774,-3.631691029634955,8.751691029634955,0.5277777777777778,0.2644444444444444,-0.67,-0.08363787043693585,-0.8644310647815321,9.34512041696621
1590505997.4422524,-0.22282200284720763,-3.5184660085416226,8.65705500711802,0.5277777777777778,0.2644444444444444,-0.67,-0.12059062055123806,-0.7007281383462858,8.320550071180191
1590505997.4522524,-0.25143018654607124,-3.5807179197286603,8.728575466365179,0.5277777777777778,0.2644444444444444,-0.67,-0.812535330695308,-0.6383903335217637,7.611574335782928
1590505997.4622524,-0.30993891521853606,-3.6500610847814636,8.750122169562928,0.5133333333333333,0.27111111111111114,-0.6911111111111111,-0.06288177988414956,-0.49961822011585044,6.4344457609268035
1590505997.4722524,-0.29226940494997367,-3.6677305950500263,8.785461190100053,0.5133333333333333,0.27111111111111114,-0.6911111111111111,-0.17331621906266456,-0.3891837809373354,5.550970247498683
1590505997.4822524,-0.2410651019588595,-3.6781558163401904,8.683974387577528,0.5133333333333333,0.27111111111111114,-0.6911111111111111,-0.23847385212618805,-0.2220784436214359,4.6728922181071795
1590505997.4922523,-0.2857258687258687,-3.7171505791505792,8.743588803088803,0.5133333333333333,0.27111111111111114,-0.6911111111111111,-0.13390444015444014,0.21883445945945945,3.4551399613899614
1590505997.5022523,-0.29740169622205087,-3.742205088666153,8.809213569776407,0.5133333333333333,0.27111111111111114,-0.6911111111111111,0.01378180416345412,0.0186969930609098,2.449787972243639
1590505997.5122523,-0.21780029225523623,-3.576467283649943,8.69300048709206,0.5133333333333333,0.27111111111111114,-0.7043036567985423,0.6333313037830817,-0.4620819126481571,0.6979217405422959
1590505997.5222523,-0.2524270358834015,-3.5812135179417006,8.708284690588934,0.5133333333333333,0.27111111111111114,-0.7055555555555556,-0.4173707261302462,-0.23483102572874093,-0.36559140994940675
1590505997.5322523,-0.27,-3.5993329940750973,8.673335029624514,0.5133333333333333,0.27111111111111114,-0.7055555555555556,-3.180545963432646e-05,-0.008337574061284575,-2.0332866853258698
1590505997.5422523,-0.2926096433537525,-3.5924634522154157,8.730292382276673,0.5133333333333333,0.27111111111111114,-0.7055555555555556,0.01539657634634898,0.04710342365365102,-3.0199650494193695
1590505997.5522523,-0.286272287952008,-3.6311831361439757,8.743136143976004,0.5133333333333333,0.27111111111111114,-0.7055555555555556,0.0,0.620188301949675,-3.870188301949675
1590505997.5622523,-0.28,-3.670854657484596,8.767806209979462,0.5094713597250748,0.27651787416267304,-0.7101899238854658,-0.08689440618581612,0.9184472030929081,-5.167732874229793
1590505997.5722523,-0.2889938052011776,-3.6979876104023552,8.788993805201176,0.5077777777777778,0.2788888888888889,-0.7122222222222222,0.043633847522080466,0.7688661524779196,-7.086493345191364
1590505997.5822523,-0.24948228882833787,-3.643275204359673,8.75758583106267,0.5077777777777778,0.2788888888888889,-0.7122222222222222,0.6196185286103543,1.053882833787466,-8.465531335149864
1590505997.5922523,-0.23184596698230134,-3.6626161320707946,8.537995141539835,0.5077777777777778,0.2788888888888889,-0.7122222222222222,0.08748481731198254,1.0230745872787665,-10.227918484457884
1590505997.6022522,-0.2658265999210685,-3.6843306399684272,8.747951519431693,0.5077777777777778,0.2788888888888889,-0.7122222222222222,-0.15206649980267123,1.223916249506678,-11.816430997237397
1590505997.6122522,-0.23718436024694348,-3.6214949763951094,8.627358673284105,0.5020690258107036,0.2788888888888889,-0.7322028541069819,0.6688127950611307,1.0449022515433968,-13.81104739135698
1590505997.6222522,-0.2152806743307149,-3.6688773026771404,8.87702685055106,0.5011111111111111,0.2788888888888889,-0.7355555555555555,-0.10745785433031907,1.5059768198816754,-15.166449425196383
1590505997.6322522,-0.23647503992223842,-3.736331319863917,8.82114976046657,0.5011111111111111,0.2788888888888889,-0.7355555555555555,0.265743247934458,1.2738275012150246,-16.72078299659793
1590505997.6422522,-0.24148955381884982,-3.6834059843696485,8.833614907992652,0.5011111111111111,0.2788888888888889,-0.7355555555555555,-0.3324251953793941,1.5944028863218858,-18.74863779306909
1590505997.6522522,-0.19425297666156632,-3.689605867145043,8.706223640936352,0.5011111111111111,0.2788888888888889,-0.7355555555555555,0.48029335725215005,1.7283455565521728,-20.02113891380432
1590505997.6622522,-0.18993398058252428,-3.7199339805825242,8.782827184466019,0.4929898597626753,0.2737208198489752,-0.7451533980582524,0.294004854368932,2.1652912621359226,-21.891432038834953
1590505997.6722522,-0.16098775065783505,-3.724426821522548,8.793121858270574,0.4888888888888889,0.27111111111111114,-0.75,0.7386444061337447,2.7581560203248343,-23.677135695490428
1590505997.6822522,-0.11113872692586721,-3.6634161807776016,8.65040895289787,0.4888888888888889,0.27111111111111114,-0.75,1.5223536958916624,3.475090348496655,-25.77080030631163
1590505997.6922522,-0.08515233949945593,-3.6436289445048966,8.613019586507074,0.4888888888888889,0.27111111111111114,-0.75,0.8391594124047878,3.0588615342763874,-28.700489662676823
1590505997.7022521,-0.09770955858592387,-3.7431286757577715,8.73312867575777,0.4888888888888889,0.27111111111111114,-0.75,-0.32076439604472307,2.493949137206747,-31.961481289989013
1590505997.7122521,-0.08022828541781114,-3.6370957700054936,8.454419825428799,0.4683794855100476,0.28301979694398666,-0.7275058156490128,1.174658945248123,3.084931789049625,-34.625515015564915
1590505997.7222521,-0.08484308131241083,-3.73046362339515,9.001854493580598,0.4544444444444444,0.2911111111111111,-0.7122222222222222,-0.9999108416547786,2.2256151925820253,-38.171808131241086
1590505997.7322521,-0.09752881437897962,-3.754942371242041,8.760972837914082,0.4544444444444444,0.2911111111111111,-0.7122222222222222,0.4299790440880149,3.505762875795922,-39.86387724671556
1590505997.742252,-0.07597101527500405,-3.6859227074000107,8.910338155124954,0.4544444444444444,0.2911111111111111,-0.7122222222222222,0.12379230312516865,3.1489734576563935,-42.352536163437144
1590505997.752252,-0.05670052323791937,-3.6434010464758386,8.647513080947984,0.4544444444444444,0.2911111111111111,-0.7122222222222222,0.7477781625115419,3.14530432440751,-44.08026508156356
1590505997.762252,-0.04181942498832633,-3.6381805750116736,8.864487025548662,0.4662608305724175,0.3183796944833567,-0.7549430028387403,0.06267093589487027,4.42595765792809,-45.71007187645921
1590505997.772252,-0.04,-3.6791712292002146,8.730641116478797,0.4688888888888889,0.3244444444444444,-0.7644444444444445,0.6938526570048309,4.148895598497048,-47.16160091250671
1590505997.782252,-0.010579298561566346,-3.792972455034518,8.647934473921175,0.4688888888888889,0.3244444444444444,-0.7644444444444445,-0.16577630394126208,4.551638151970631,-48.603276303941264
1590505997.792252,0.0075370200983906465,-3.8375370200983907,8.602314899508047,0.4688888888888889,0.3244444444444444,-0.7644444444444445,0.19120200983906455,4.561574497540234,-50.036340263528714
1590505997.802252,0.02411006853545901,-3.9011436303203224,8.67936376739124,0.4688888888888889,0.3244444444444444,-0.7644444444444445,-0.0034396417330940787,4.52939597611554,-51.08050342677295
1590505997.812252,0.04719975713418337,-3.9747998380894556,8.763200566686905,0.47022217724707105,0.3292442825339,-0.7708442285637186,-0.24500860149767256,4.577499494029548,-52.264986844768266
1590505997.822252,0.08742764184830648,-3.9943569104620766,8.72307073138623,0.4744444444444445,0.34444444444444444,-0.7911111111111111,0.18127033456829594,4.625,-54.20799795008745
1590505997.832252,0.11819933372256758,-3.9877009994161488,8.711302331971014,0.4744444444444445,0.34444444444444444,-0.7911111111111111,-0.08189373905278705,4.7531145894151186,-55.81681878284164
1590505997.842252,0.14304448600100086,-3.911299812995496,8.624344298996498,0.4744444444444445,0.34444444444444444,-0.7911111111111111,0.04617990623436141,4.896735981246873,-57.75007243132194
1590505997.852252,0.181057102100804,-3.867577159159678,8.637268522520964,0.4744444444444445,0.34444444444444444,-0.7911111111111111,-0.10132137762600502,4.875,-58.63821377626005
1590505997.862252,0.2096351402016694,-3.961168972117529,8.684087850504174,0.49317943928102387,0.32838587744166214,-0.8253693873837133,-0.24543925252086746,5.145988318171952,-59.32664719695325
1590505997.872252,0.23971335177269298,-4.063428882742436,8.742855586287822,0.5133333333333333,0.3111111111111111,-0.8622222222222222,-0.6624863800184393,5.191083102841338,-60.59282017433576
1590505997.882252,0.2780634234533779,-4.003873153093244,8.626698738596454,0.5133333333333333,0.3111111111111111,-0.8622222222222222,-0.5055563059786787,5.237896396583612,-61.87698198291806
1590505997.892252,0.3169056502548345,-4.013632062818544,8.650716950764503,0.5133333333333333,0.3111111111111111,-0.8622222222222222,-0.7113206281854317,5.1863797644304634,-63.25896188455629
1590505997.902252,0.32415294720656074,-3.9949176832393647,8.76016463352127,0.5133333333333333,0.3111111111111111,-0.8622222222222222,-0.6191914402870322,5.015367760123014,-64.22507303946693
1590505997.912252,0.32642692034139403,-3.87359619487909,8.655753911806544,0.5176179468942627,0.29468675912754866,-0.8208042911332385,-0.2366587393314367,5.058004756401138,-64.68300475640113
1590505997.922252,0.3524796911042022,-3.894932303680674,8.757330759201686,0.52,0.2855555555555556,-0.7977777777777778,-1.2958172450105305,4.047848134590312,-64.98416344900211
1590505997.932252,0.3817920731291357,-3.8328317074834573,8.594815244332265,0.52,0.2855555555555556,-0.7977777777777778,-0.4616958864861176,4.36850228528549,-64.83549923823817
1590505997.942252,0.3828198665322387,-3.8430808008065678,8.574621201209851,0.52,0.2855555555555556,-0.7977777777777778,-0.7180133467761295,4.041614155744395,-64.34611749243842
1590505997.952252,0.3992193491924576,-3.8888290237886864,8.71051125785663,0.52,0.2855555555555556,-0.7977777777777778,-0.6696674357546344,4.022711631792506,-63.73704650330178
1590505997.962252,0.4039254211491231,-3.6949558960877233,8.550302327994743,0.5171422970931775,0.3130609460337227,-0.8045648221814814,1.6164494621052266,2.5018895499671383,-63.31027967069079
1590505997.972252,0.38998746754990604,-3.35324978366604,7.566913138185182,0.5111111111111111,0.3711111111111111,-0.8188888888888889,3.3972693432399366,2.518509608211739,-61.147269343239934
1590505997.982252,0.42385173122407044,-3.551184521732387,8.950177193594664,0.5111111111111111,0.3711111111111111,-0.8188888888888889,-5.799959288123764,7.840954693497732,-58.28565681826994
1590505997.9922519,0.49660602405601906,-3.5692424699299763,8.286440513284417,0.5111111111111111,0.3711111111111111,-0.8188888888888889,1.6632492377793415,4.1288864877542135,-58.0094691258753
1590505998.0022519,0.5535450836228488,-3.82177870243193,8.804459077320837,0.5111111111111111,0.3711111111111111,-0.8188888888888889,1.0876790114728934,4.1408812717136625,-57.326716136785976
1590505998.0122519,0.5603757762227267,-3.8637577622272667,9.236763972009081,0.5308942377643951,0.331544857804543,-0.8429494483320722,-1.3914402097442922,4.32235052436073,-56.8125
1590505998.0222518,0.6492726083936088,-3.777518695598872,8.612032610028198,0.5522222222222222,0.2888888888888889,-0.8688888888888889,1.4713206448449188,3.698461954967104,-56.55701902251645
1590505998.0322518,0.7098792339801803,-3.8557849791288277,8.502415320396393,0.5522222222222222,0.2888888888888889,-0.8688888888888889,0.8787002517286426,3.999245212376127,-56.438254787623876
1590505998.0422518,0.7212663789416385,-3.9370131031533107,8.623441035810101,0.5522222222222222,0.2888888888888889,-0.8688888888888889,0.27314436797698205,3.778002157937711,-56.73924676309343
1590505998.0522518,0.7445586939102564,-3.9001456330128206,8.683239182692308,0.5522222222222222,0.2888888888888889,-0.8688888888888889,1.003640825320513,4.004606119791666,-57.0625
1590505998.0622518,0.7980611970410222,-3.9016099529253534,8.74258507061197,0.4998954643951281,0.26738474183665845,-0.7577841291190316,0.8386474445191661,4.173398621385339,-57.26410137861466
1590505998.0722518,0.8360362300724986,-3.899818849637507,8.7,0.4711111111111111,0.25555555555555554,-0.6966666666666667,0.7206976788907906,4.326585065671814,-57.375
1590505998.0822518,0.8857746781115879,-3.85456962327134,8.628794945159752,0.4711111111111111,0.25555555555555554,-0.6966666666666667,0.9175473891273247,4.595363912732475,-57.56572782546495
1590505998.0922518,0.9598010839805554,-3.8657613007766667,8.679204335922222,0.4711111111111111,0.25555555555555554,-0.6966666666666667,1.3017405151701402,4.501243225121529,-58.048010839805556
1590505998.1022518,0.98,-3.89,8.781955486674763,0.4711111111111111,0.25555555555555554,-0.6966666666666667,1.262221791717262,4.292666924969643,-58.881220241899406
1590505998.1122518,0.998479654080766,-3.9216794069955987,8.775680642421435,0.454684751928208,0.27432853747887337,-0.6890401427603188,1.3385018531387538,4.368996602578951,-59.95149505829666
1590505998.1222517,1.0565310724786618,-3.9969378550426766,8.823683594530559,0.4088888888888889,0.32666666666666666,-0.6677777777777778,1.144138405983272,4.3851695641003685,-61.74879927778254
1590505998.1322517,1.0716820579181618,-3.9082255945728686,8.642994725800444,0.4088888888888889,0.32666666666666666,-0.6677777777777778,1.4065385859655315,4.636090033919573,-63.29817363684489
1590505998.1422517,1.1425879298372732,-3.950140687739637,8.654022582495546,0.4088888888888889,0.32666666666666666,-0.6677777777777778,1.093090526220451,4.882647631555113,-65.13440622830058
1590505998.1522517,1.2653782119576014,-3.807226746600697,9.058151465356904,0.4088888888888889,0.32666666666666666,-0.6677777777777778,1.4795172809187598,4.679096543816248,-66.81302592137814
1590505998.1622517,1.1314675077843828,-3.1477686117513852,8.593169558008816,0.399475963893045,0.37155907818530653,-0.6446075008649315,2.673435035787941,-0.7322703101621579,-69.64249211452142
1590505998.1722517,1.1581198068834049,-3.4148552661569385,8.506957584799322,0.3944444444444444,0.3955555555555556,-0.6322222222222222,3.7337614740680882,6.23537380079153,-69.21997705186382
1590505998.1822517,1.2420559175607924,-3.6632335505364755,8.922315744778142,0.3944444444444444,0.3955555555555556,-0.6322222222222222,0.9746715414890663,11.507236702431696,-68.534930103049
1590505998.1922517,1.2486603229754807,-3.6556117976862637,8.92941959174004,0.3944444444444444,0.3955555555555556,-0.6322222222222222,-1.1845979587002013,9.02392950211237,-69.96710279543571
1590505998.2022517,1.2812015273967523,-3.70826870319567,8.52698524505079,0.3944444444444444,0.3955555555555556,-0.6322222222222222,1.6847010083784384,3.603802504263365,-73.39708492437161
1590505998.2122517,1.4136887293162659,-3.883314080549485,8.92337183890103,0.3628946820688937,0.4169452249627086,-0.6279442883407916,1.4254312363409305,6.368336325320012,-74.55277279113331
1590505998.2222517,1.45,-3.81451575340932,8.71451575340932,0.3288888888888889,0.44,-0.6233333333333333,1.8631247620753746,5.887993483664375,-76.93055959871913
1590505998.2322516,1.4804768283511938,-3.7560953656702387,8.534188052265463,0.3288888888888889,0.44,-0.6233333333333333,2.0089405315848845,6.0380960354389925,-78.88216916948674
1590505998.2422516,1.5461104334686595,-3.769222086693732,8.52916565020299,0.3288888888888889,0.44,-0.6233333333333333,2.0579907699029656,6.379509230097034,-80.43679454386572
1590505998.2522516,1.6159917814304754,-3.777715459795646,8.623707241226121,0.3288888888888889,0.44,-0.6233333333333333,1.9302323967125723,6.75,-81.69801615948467
1590505998.2622516,1.670257421836473,-3.770514843672946,8.669914192721176,0.32877447918378977,0.44024788769438145,-0.6235335503172568,2.7478548180293916,6.753217772955913,-83.01716145576486
1590505998.2722516,1.742969458846403,-3.87774384316267,8.72206699611147,0.31555555555555553,0.4688888888888889,-0.6466666666666666,2.5,7.244359607906675,-86.01455666720673
1590505998.2822516,1.8453339049252169,-3.8746660950747835,8.637831761455654,0.31555555555555553,0.4688888888888889,-0.6466666666666666,2.716148066114128,7.375,-88.37865878346194
1590505998.2922516,1.886302957195599,-3.8601893482472494,8.576113608948349,0.31555555555555553,0.4688888888888889,-0.6466666666666666,2.850710055927185,7.502366853090616,-89.38328398581716
1590505998.3022516,1.9715694875361078,-3.8913722049855566,8.65608066759388,0.31555555555555553,0.4688888888888889,-0.6466666666666666,2.9191144217395957,7.919114421739596,-92.31132181448594
1590505998.3122516,2.017278569956342,-3.8684809533624387,8.73575952331878,0.30275661484715427,0.4842476177389704,-0.6441068785249864,2.7225074481440537,7.866495531113568,-94.57694190447639
1590505998.3222516,2.06,-3.820845275686179,8.746807545947696,0.27111111111111114,0.5222222222222223,-0.6377777777777778,2.5199528378268967,8.049882094567241,-96.72153317545138
1590505998.3322515,2.1123423601502274,-3.7828108321802727,8.684636621203136,0.27111111111111114,0.5222222222222223,-0.6377777777777778,2.515953416353693,8.3125,-99.79099130262898
1590505998.3422515,2.21293603592669,-3.8941279281466197,8.61174414370676,0.27111111111111114,0.5222222222222223,-0.6377777777777778,2.3002665169721244,8.336966966055751,-101.73243617752964
1590505998.3522515,2.274140873464139,-3.8468281746928277,8.740484524078484,0.27111111111111114,0.5222222222222223,-0.6377777777777778,2.2728521836603464,8.541161954084913,-104.77119792843364
1590505998.3622515,2.3502020923490607,-3.8514982563757822,8.776599302550313,0.26242043985079994,0.5282679065772213,-0.6368331395973091,2.4375,8.574390256711903,-106.94634154027142
1590505998.3722515,2.4192475007047904,-3.81,8.764811875176198,0.22,0.5577777777777778,-0.6322222222222222,2.55779687940494,8.99764843970247,-110.38811723375187
1590505998.3822515,2.478182781376763,-3.8045453169461765,8.682725071138826,0.22,0.5577777777777778,-0.6322222222222222,2.7897753072591875,9.232958845431979,-113.25003783980142
1590505998.3922515,2.563705624252094,-3.7597207818109295,8.668181092939768,0.22,0.5577777777777778,-0.6322222222222222,2.6232548863183087,9.514858396489828,-115.6468388512166
1590505998.4022515,2.6353386087596613,-3.6939841737210157,8.713306956201693,0.22,0.5577777777777778,-0.6322222222222222,2.562747285609128,9.754232609495768,-117.76319239970556
1590505998.4122515,2.6733921818614,-3.65,8.7101765455842,0.21046985183424452,0.5703402458144555,-0.6343881649871667,3.006331438943752,9.98623371221125,-120.75964166864749
1590505998.4222515,2.748375066098479,-3.6286805188341784,8.811472207533672,0.1955555555555556,0.59,-0.6377777777777778,2.9181428660300477,10.142448054371831,-123.50347405829108
1590505998.4322515,2.8,-3.5311616099978034,8.713952012497254,0.1955555555555556,0.59,-0.6377777777777778,2.810553406233982,10.321706656252289,-125.72627321877518
1590505998.4422514,2.805643922798441,-3.4630682316046766,8.672575691193765,0.1955555555555556,0.59,-0.6377777777777778,2.684421622431803,10.198627412548712,-126.52414710494155
1590505998.4522514,2.791532915423284,-3.4038322885582106,8.72693416915343,0.1955555555555556,0.59,-0.6377777777777778,2.615306623139933,10.0625,-126.3700969838377
1590505998.4622514,2.8470027362660493,-3.35,8.801707009050725,0.17592740709558224,0.6141577211815056,-0.6483467807946864,2.5106688065670384,9.836021363923384,-125.83014102294254
1590505998.4722514,2.94,-3.3266327554654755,8.79326551093095,0.15222222222222226,0.6433333333333333,-0.6611111111111111,2.4871184989865993,9.737754334008933,-125.65420905566816
1590505998.4822514,2.959362649379052,-3.2883824103725687,8.701274701241896,0.15222222222222226,0.6433333333333333,-0.6611111111111111,2.381126493790518,9.98590662344763,-126.0021430524096
1590505998.4922514,3.001411331983304,-3.228158449394553,8.704664214572055,0.15222222222222226,0.6433333333333333,-0.6611111111111111,2.6875,10.157594433194198,-126.61886804149275
1590505998.5022514,3.0238675141105884,-3.140662429447059,8.81,0.15222222222222226,0.6433333333333333,-0.6611111111111111,2.6270700920220595,10.167468220852943,-126.75207009202207
1590505998.5122514,3.0374340562482818,-3.072829718758592,8.81,0.15222222222222226,0.6433333333333333,-0.6611111111111111,2.4150928711205992,9.658722890689438,-126.54009287112059
1590505998.5222514,3.012408203977308,-2.965863932007564,8.752748373958399,0.11333333333333333,0.7888888888888889,-0.6888888888888889,2.424574787523637,10.0,-125.36224362570913
1590505998.5322514,3.0555410197809127,-2.9173008117266925,8.805814484986996,0.11333333333333333,0.7888888888888889,-0.6888888888888889,2.4307372527385924,9.962841831507605,-123.41981243596817
1590505998.5422513,3.04760108703178,-2.737040434812712,8.740248044035173,0.11333333333333333,0.7888888888888889,-0.6888888888888889,2.5079850533130235,9.639993206051374,-119.44841575503705
1590505998.5522513,3.0742269889546985,-2.7312377141027695,8.92948615335361,0.11333333333333333,0.7888888888888889,-0.6888888888888889,2.1887846166159757,9.25709340483432,-116.40530054426125
1590505998.5622513,3.0850168635727107,-2.610996627285458,8.744042721050867,0.09365929666081536,0.8989301109555148,-0.7322384612181658,2.7499297351137058,8.300042158931776,-111.82446598686417
1590505998.5722513,3.206545640875485,-2.5687270331600907,8.91072615474709,0.04777777777777778,1.1555555555555554,-0.8333333333333334,2.1647710636117417,8.532954212722348,-107.1261208915892
1590505998.5822513,3.2708772382475875,-2.5072514921650586,8.658889175568055,0.04777777777777778,1.1555555555555554,-0.8333333333333334,1.8914482171422673,8.006942652699658,-100.91994878476702
1590505998.5922513,3.317301397205589,-2.5258502994011978,8.772199600798404,0.04777777777777778,1.1555555555555554,-0.8333333333333334,2.164683133732535,7.34750499001996,-97.12996506986028
1590505998.6022513,3.4373139441160667,-2.5061163353036,8.8277673293928,0.04777777777777778,1.1555555555555554,-0.8333333333333334,1.9496364521762493,7.521439246372918,-93.96965886955938
1590505998.6122513,3.4088579374691608,-2.3907280312205628,8.920156999955143,0.11697124657964383,1.2370085278388332,-0.9426299236930378,2.105683398376172,7.23019277351635,-93.12955019512852
1590505998.6222513,3.3113841533592288,-2.249983635448137,8.809918177240684,0.4177777777777778,1.5911111111111111,-1.4177777777777778,1.7767711030786937,7.580415587685225,-91.33968021687527
1590505998.6322513,3.4351543191451257,-2.2778765446838993,8.928166676616321,0.4177777777777778,1.5911111111111111,-1.4177777777777778,1.9072144946570355,7.191242313891708,-89.93931332457764
1590505998.6422513,3.45789676943438,-2.2136903083031396,8.8005161528281,0.4177777777777778,1.5911111111111111,-1.4177777777777778,2.125,6.801505445748628,-88.35755353539737
1590505998.6522512,3.4467089254202654,-2.1298098356088047,8.87658214915947,0.4177777777777778,1.5911111111111111,-1.4177777777777778,1.915346080616699,7.1463615677533205,-86.97586520154175
1590505998.6622512,3.470081477183866,-2.073360492394622,8.86680246197311,0.41927132995316535,1.3495290467421739,-1.2165216221443047,1.7730400070630377,7.207484612668062,-85.85348769013444
1590505998.6722512,3.4463069866308667,-2.0100911786093865,8.869414890641607,0.4222222222222222,0.8722222222222222,-0.8188888888888889,2.2578837332885833,7.054616266711417,-85.63288373328858
1590505998.6822512,3.39,-1.92,8.83,0.4222222222222222,0.8722222222222222,-0.8188888888888889,2.1875,7.125,-85.5625
1590505998.6922512,3.3624950741470494,-1.8833267655293995,8.793326765529399,0.4222222222222222,0.8722222222222222,-0.8188888888888889,2.0728961422793737,7.067698071139687,-85.5625
1590505998.7022512,3.3507766061680586,-1.806212849344469,8.817670181495824,0.4222222222222222,0.8722222222222222,-0.8188888888888889,2.004853788550366,7.235438634348901,-85.27426894275183
1590505998.7122512,3.33,-1.7667377178808403,8.89,0.2904050301203669,0.7896824851117147,-0.7934288704766925,1.9375,6.7567964210815825,-84.47281431567367
1590505998.7222512,3.3397751459687774,-1.7002248540312228,8.914437864921943,0.06555555555555556,0.6488888888888888,-0.75,1.9069526688475713,6.813905337695143,-83.75562135078057
1590505998.7322512,3.35,-1.674134093626414,8.864636944725467,0.06555555555555556,0.6488888888888888,-0.75,1.9493714361261842,6.725209521291272,-83.3264666490389
1590505998.7422512,3.3726569188591218,-1.6160146217113174,8.795313837718243,0.06555555555555556,0.6488888888888888,-0.75,2.0861009571449185,6.593096171420326,-82.5432789428118
1590505998.7522511,3.3913477579299802,-1.55378258597666,8.88554353505835,0.06555555555555556,0.6488888888888888,-0.75,1.9307058117706257,6.359782324708251,-81.14347627295776
1590505998.7622511,3.341759617573412,-1.5193990439335305,8.899399043933531,0.03419632243215217,0.6342393201305107,-0.7470243063459544,1.6673827680400637,6.123122012292283,-79.75724163441839
1590505998.7722511,3.3024194455257128,-1.44,8.8806444357943,-0.08666666666666667,0.5777777777777777,-0.7355555555555555,1.957161509017776,6.372473887375113,-78.65978304355347
1590505998.7822511,3.29,-1.405706339853877,8.920765496111242,-0.08666666666666667,0.5777777777777777,-0.7355555555555555,1.4529401366957342,6.9341945557388645,-77.80514965826066
1590505998.792251,3.2986634179510426,-1.3328878059836808,8.821765865820488,-0.08666666666666667,0.5777777777777777,-0.7355555555555555,1.6430487873980055,6.2486584882139615,-77.17646333862194
1590505998.802251,3.324457195898907,-1.332571340168488,8.901485731966302,-0.08666666666666667,0.5777777777777777,-0.7355555555555555,1.71535747436817,5.99321494873634,-76.62249922647428
1590505998.812251,3.3421539175562214,-1.3030768040729646,8.907384639185407,-0.08666666666666667,0.5777777777777777,-0.7355555555555555,1.8259619847263828,6.214423969452766,-76.36442203563844
1590505998.822251,3.3324906254687265,-1.2287171891405428,8.98879218539073,-0.15086770661466925,0.542759028715231,-0.7608468743229505,1.765566409179541,6.093632818359082,-75.42924806884656
1590505998.832251,3.383124232404346,-1.1468757675956542,8.853437883797827,-0.16,0.5377777777777778,-0.7644444444444445,1.6230396787907417,6.0429735474728385,-74.77246693434105
1590505998.842251,3.4140846285394315,-1.1179576857302844,8.848169257078862,-0.16,0.5377777777777778,-0.7644444444444445,1.8239421432571092,5.9132933925571685,-74.49867767907139
1590505998.852251,3.4267798174856607,-1.1116100912571698,8.873559634971322,-0.16,0.5377777777777778,-0.7644444444444445,1.6652522814292416,6.0323107889280685,-74.30031535178655
1590505998.862251,3.3432532071241745,-1.0234935857516503,8.931386224934611,-0.16741008289395387,0.5363319079448112,-0.7664325154647735,1.6031650890521858,6.008663905841325,-73.64833727736954
1590505998.872251,3.370994691730788,-0.9753404110256161,8.960680822051232,-0.20555555555555555,0.5288888888888889,-0.7766666666666666,1.789594392227525,6.214660745592676,-72.7585102756404
1590505998.882251,3.392414896359308,-0.9451702072813841,8.914829792718615,-0.20555555555555555,0.5288888888888889,-0.7766666666666666,1.6594413865259519,5.952593102245674,-71.88351036406921
1590505998.892251,3.3987748108386784,-0.9324503783226433,8.927549621677356,-0.20555555555555555,0.5288888888888889,-0.7766666666666666,1.420944593549561,5.99234256774174,-71.24751891613217
1590505998.902251,3.293635129215944,-0.8763648707840561,8.90817564607972,-0.20555555555555555,0.5288888888888889,-0.7766666666666666,1.6363597787998247,5.8693413272010515,-69.48872508760402
1590505998.912251,3.2962700183119695,-0.8508466788746463,8.980846678874647,-0.20640308528938459,0.527871853208294,-0.7768361726134324,1.6493611619776927,5.5529652904944236,-68.05506284334943
1590505998.922251,3.257185104052574,-0.7946878422782038,8.924687842278203,-0.2111111111111111,0.5222222222222223,-0.7777777777777778,1.4541004928806134,5.533200985761226,-66.1269852135816
1590505998.932251,3.351766960891695,-0.7811761484440436,8.911176148444044,-0.2111111111111111,0.5222222222222223,-0.7777777777777778,1.4963245361123638,5.617649072224728,-64.86026391662908
1590505998.942251,3.34,-0.7244225867913789,8.885098359438794,-0.2111111111111111,0.5222222222222223,-0.7777777777777778,1.5378529186152972,5.287852918615297,-62.30704692796872
1590505998.952251,3.329945011783189,-0.6974312647289866,8.944972505891593,-0.2111111111111111,0.5222222222222223,-0.7777777777777778,1.3596327572663,5.1096327572663,-60.497250589159464
1590505998.962251,3.2877399182233624,-0.6561687244448008,8.935363785777279,-0.21136652948145773,0.5158367629635568,-0.7711369001487658,1.4808436222240038,5.240421811112002,-58.83717078890403
1590505998.972251,3.153231780646196,-0.6141349314519362,8.99421109596729,-0.2141687823476487,0.4457804413087825,-0.6982783256278005,1.270674657259681,5.1353373286298405,-57.050734586707286
1590505998.982251,11.61208784491792,6.309045581557807,9.191033007334962,-0.21444444444444444,0.4388888888888889,-0.6911111111111111,3.6013742141110723,-22.086584221096754,-22.690719961578765
1590505998.992251,28.499146114726308,10.922564116585553,3.8190137802810744,-0.21444444444444444,0.4388888888888889,-0.6911111111111111,16.241433463662712,-143.9014532181331,120.63814971017663
1590505999.002251,0.22252461519913197,-0.5450492303982639,1.266390306635052,-0.21444444444444444,0.4388888888888889,-0.6911111111111111,20.760318289595304,-192.33658270706908,134.02136749989955
1590505999.012251,0.42188510623500364,-1.0067041068261642,2.68647946586918,-0.22380081371492158,0.4342599483024423,-0.6929823849652066,-5.960674792224502,-172.4680077894078,-112.14005937684738
1590505999.022251,0.019235382650734288,-1.0242928486728085,3.613997993250023,-0.32,0.38666666666666666,-0.7122222222222222,-14.015429740946821,-122.15511122639788,-106.56843473501779
1590505999.032251,0.16116217355720341,-1.2451362813422286,3.535652637583393,-0.32,0.38666666666666666,-0.7122222222222222,-11.54940663674016,-25.931036246620867,-90.57980487835123
1590505999.0422509,0.47,-1.14,2.55,-0.32,0.38666666666666666,-0.7122222222222222,-2.0625,20.3125,-81.75
1590505999.0522509,0.5220723489336493,-1.184633441943128,3.063284582345972,-0.32,0.38666666666666666,-0.7122222222222222,-7.50220073681872,84.98449764884478,-69.1503512848045
1590505999.0622509,0.6306939409632315,-1.0715169169687555,3.38359873985845,-0.32,0.38666666666666666,-0.7122222222222222,-8.099616455204558,165.87040663300536,-52.53102882789574
1590505999.0722508,3.37505225199993,-3.897527964010013,13.031869868888617,-0.3955555555555556,0.3911111111111111,-0.6555555555555556,-6.648040768813345,251.00055577922873,-34.55585471843437
1590505999.0822508,0.4675955327603414,-0.23383881527123762,1.725093738512438,-0.3955555555555556,0.3911111111111111,-0.6555555555555556,-15.550291455879007,206.90229335515605,-35.47361252122464
1590505999.0922508,0.5989272696685919,-1.3469006897325184,7.508120338697919,-0.3955555555555556,0.3911111111111111,-0.6555555555555556,1.9669468120899456,11.043178377165928,-51.5662675937868
1590505999.1022508,3.687871362081534,-3.84000785061403,19.64437783883811,-0.3955555555555556,0.3911111111111111,-0.6555555555555556,5.788927129479055,-9.144717658273986,-51.22326936017495
1590505999.1122508,7.78809850926672,1.3776976228847704,9.915404915390813,-0.3893053541051124,0.388101754857194,-0.6586806562807772,10.255182312651089,-64.06104074335214,-47.505031224818694
1590505999.1222508,1.1214935535858181,-1.3176724415793717,6.958102336825141,-0.33860873847255796,0.3636922732563345,-0.6840289640970544,3.706869460112812,-24.507118755036267,-2.934256647864622
1590505999.1322508,1.446017705199828,-1.61952797593468,9.000914310270735,-0.33555555555555555,0.3622222222222222,-0.6855555555555556,-4.6251815642458105,35.12739686291362,97.07300816501933
1590505999.1422508,1.402758917060593,-1.9583884830253546,10.024705629565965,-0.33555555555555555,0.3622222222222222,-0.6855555555555556,-24.542248603351958,34.361355822948,101.93962183068328
1590505999.1522508,2.883749847467968,-0.40973764490543013,8.516403904820013,-0.33555555555555555,0.3622222222222222,-0.6855555555555556,3.808740085417938,-26.089505796217207,94.45360738255033
1590505999.1622508,2.2513084665482537,-0.42748470495362145,6.969206631142688,-0.3363932197443151,0.3635834265289564,-0.6875450080038594,9.23991637063351,-23.068772202486677,97.49139653641208
1590505999.1722507,2.36,-0.98,8.98,-0.34444444444444444,0.37666666666666665,-0.7066666666666667,-5.875,-9.3125,121.4375
1590505999.1822507,1.1009702994011974,-1.1130898203592814,8.25599137724551,-0.34444444444444444,0.37666666666666665,-0.7066666666666667,-1.4331272455089819,-13.621282934131738,95.16889670658682
1590505999.1922507,-1.7309296241795717,-1.3426790927989163,6.936041389297643,-0.34444444444444444,0.37666666666666665,-0.7066666666666667,8.831909992292061,-18.35337105552052,1.3761328334851548
1590505999.2022507,0.31905749831294444,-0.9022158392884951,9.15045316906892,-0.34444444444444444,0.37666666666666665,-0.7066666666666667,0.7054411866489025,5.90759802225183,-50.64847278217085
1590505999.2122507,1.4004180437077154,-0.6699773328949873,10.478567127506793,-0.34444444444444444,0.37666666666666665,-0.7066666666666667,-9.77250705102694,23.370845085044902,-20.348605151142877
1590505999.2222507,2.378221797957998,-0.6672594006806675,8.897520710550344,-0.32666666666666666,0.4011111111111111,-0.7,-9.251234747239977,12.171725325807255,8.131413422428821
1590505999.2322507,2.4200011621150495,-0.6533329459616503,8.681660662405578,-0.32666666666666666,0.4011111111111111,-0.7,-1.635204822777455,-7.281791109819871,14.83351975595584
1590505999.2422507,10.715175690244303,-0.3445617336963473,9.14458091983847,-0.32666666666666666,0.4011111111111111,-0.7,3.2046544667166117,-2.8804783287956583,32.097568384892284
1590505999.2522507,2.407354687814058,-0.12996857127194983,8.67707438741389,-0.32666666666666666,0.4011111111111111,-0.7,1.7676466826246642,-5.562892859100627,19.21239858753449
1590505999.2622507,3.805884618628581,-0.9152315218308077,9.731890129044954,-0.32666666666666666,0.4011111111111111,-0.7,0.0006694734178640527,7.251555076049369,-8.676118951896314
1590505999.2722507,4.302590288880615,-0.8169320396854947,8.972721040758667,-0.30892427195806593,0.4030824883009556,-0.7059141315695335,0.1038349503931317,1.1036570008103546,-0.21346284412711647
1590505999.2822506,3.5950406057945568,-0.6630081211589114,8.997439091308165,-0.30666666666666664,0.4033333333333333,-0.7066666666666667,-0.10619924275680422,-0.8335882627304654,-0.009400378621597892
1590505999.2922506,3.6717581211589114,-0.6783516242317823,8.882362818261631,-0.30666666666666664,0.4033333333333333,-0.7066666666666667,-0.010302348551360849,0.6528135974539069,-0.057348825724319576
1590505999.3022506,3.8661579616384296,-0.743078980819215,9.00463184655372,-0.30666666666666664,0.4033333333333333,-0.7066666666666667,-0.15505772259007,0.3125,0.10337181506004667
1590505999.3122506,3.802498245081485,-0.7112491225407426,8.74999298032594,-0.30666666666666664,0.4033333333333333,-0.7066666666666667,-0.005855261909730791,0.3125,0.0039035079398205275
1590505999.3222506,3.7610358425462995,-0.7218393070910499,9.24137455108795,-0.3144444444444445,0.41,-0.7144444444444444,-0.05100433068093796,-0.5955346454475037,0.028012992042813885
1590505999.3322506,3.805338708541652,-0.7292231180902753,9.086314520104219,-0.3144444444444445,0.41,-0.7144444444444444,-0.004855511935779162,-0.2263440954862333,-0.11043346419266248
1590505999.3422506,3.883089002633802,-0.7158813298215971,8.779406649107987,-0.3144444444444445,0.41,-0.7144444444444444,-0.05606457784624559,-0.17277493415494707,-0.07537084430750882
1590505999.3522506,3.9037670735871606,-0.6849863411302715,8.618698779238517,-0.3144444444444445,0.41,-0.7144444444444444,-0.015582316032098345,0.4922088419839508,-0.16412652595185248
1590505999.3622506,3.85682601489121,-0.7202441527006761,8.761231024231103,-0.31425454789947416,0.409701591143618,-0.7139290109652392,-0.125,0.435974045620774,0.0
1590505999.3722506,3.7315097503415724,-0.7307548751707862,9.197167122096635,-0.30666666666666664,0.3977777777777778,-0.6933333333333334,-0.125,0.31366639237361815,-0.00943593963482797
1590505999.3822505,3.744533908831201,-0.7372669544156005,9.08646177493479,-0.30666666666666664,0.3977777777777778,-0.6933333333333334,-0.125,-0.21544004626754443,-0.09083693019500683
1590505999.3922505,3.979331039285568,-0.6801745114907214,8.661105239441236,-0.30666666666666664,0.3977777777777778,-0.6933333333333334,-0.125,-0.3128635656056696,-0.06268178280283479
1590505999.4022505,3.952103930712858,-0.6869740173217854,8.673948034643571,-0.30666666666666664,0.3977777777777778,-0.6933333333333334,-0.08141239173884077,-0.2689123917388408,-0.0625
1590505999.4122505,3.8168847665174086,-0.7117262176733985,8.926230466965183,-0.30666666666666664,0.3977777777777778,-0.6933333333333334,-0.01723704651375308,0.38368134880745675,-0.0625
1590505999.4222505,3.790570096151327,-0.7488598076973461,9.067149519243365,-0.3144444444444445,0.4177777777777778,-0.6933333333333334,0.06071844952710315,0.30359224763551573,0.0017815504728968536
1590505999.4322505,3.814329185495181,-0.7110822963737952,8.953765554393073,-0.3144444444444445,0.4177777777777778,-0.6933333333333334,0.013528704672439508,-0.04058611401731852,0.0625
1590505999.4422505,3.8490705254839983,-0.7190705254839984,8.819535262741999,-0.3144444444444445,0.4177777777777778,-0.6933333333333334,0.11919078427499012,-0.3459539213749506,0.047976960687475305
1590505999.4522505,3.832392425304084,-0.7,8.814784850608168,-0.3144444444444445,0.4177777777777778,-0.6933333333333334,-0.003738164537630931,0.25,-0.2275710127742144
1590505999.4622505,3.8625352593470956,-0.7,8.875070518694193,-0.3144444444444445,0.4177777777777778,-0.6933333333333334,-0.05083634272983704,0.25,0.05501805637902224
1590505999.4722505,3.8417884319013678,-0.7109123964554035,8.994561982277018,-0.32,0.3977777777777778,-0.7,0.005702477846272395,0.46008265507609325,0.01140495569254479
1590505999.4822505,3.764839080988996,-0.7190321838022008,9.026450573230811,-0.32,0.3977777777777778,-0.7,0.0625,0.02620689258253143,0.10080459505502096
1590505999.4922504,3.81,-0.7105704599056604,8.89942954009434,-0.32,0.3977777777777778,-0.7,0.0625,-0.32319612323113206,-0.11786925117924528
1590505999.5022504,3.81,-0.7194027964959568,8.890597203504043,-0.32,0.3977777777777778,-0.7,0.0625,-0.48880243429919135,-0.007465043800539084
1590505999.5122504,3.843145036550482,-0.7117137408623795,8.906572518275242,-0.32,0.3977777777777778,-0.7,-0.041078239220256385,-0.13747616272910268,0.0
1590505999.5222504,3.8282613813916653,-0.6955075875944435,8.931738618608334,-0.32483080413518545,0.40663425202561776,-0.6951691958648145,-0.0625,0.2092327326041823,0.04528878876736371
1590505999.5322504,3.8012587275051626,-0.7392447634969024,9.082699380470055,-0.32666666666666666,0.41,-0.6933333333333334,0.001573409381453437,0.42333931556691906,-0.003146818762906874
1590505999.5422504,3.842504671059101,-0.7144971973645392,8.843472907857214,-0.32666666666666666,0.41,-0.6933333333333334,0.05313083882387649,-0.04067754941488838,-0.10626167764775298
1590505999.5522504,3.8026724399459444,-0.7194655120108111,8.932517168151355,-0.32666666666666666,0.41,-0.6933333333333334,-0.05581890013513886,-0.06584054993243058,-0.006681099864861137
1590505999.5622504,3.86543982333456,-0.6954600662495399,8.85002024291498,-0.32666666666666666,0.41,-0.6933333333333334,-0.0625,-0.11362486198012514,0.0
1590505999.5722504,3.7817007080903084,-0.7288661946064611,8.95,-0.32666666666666666,0.4033333333333333,-0.7022222222222222,-0.0625,0.35728429072595397,0.1179137162903816
1590505999.5822504,3.808782256849536,-0.7108118287669758,8.95,-0.32666666666666666,0.4033333333333333,-0.7022222222222222,-0.0625,0.07518482448399799,0.005073929793599205
1590505999.5922503,3.7676497330443515,-0.7311751334778241,8.957058377825941,-0.32666666666666666,0.4033333333333333,-0.7022222222222222,-0.10661486141213371,-0.11395944564853483,0.08822972282426741
1590505999.6022503,3.8332384615384614,-0.7215025641025641,8.886010256410257,-0.32666666666666666,0.4033333333333333,-0.7022222222222222,-0.18280448717948716,-0.36091346153846154,0.009391025641025647
1590505999.6122503,3.832392104510346,-0.72,8.933255268427576,-0.32666666666666666,0.4033333333333333,-0.7022222222222222,-0.1399506531896634,-0.3274506531896634,0.0
1590505999.6222503,3.839624828128069,-0.72,8.901875859359654,-0.31490298784347115,0.4097498854187127,-0.7064999236124752,-0.125,0.16874140640345714,0.06015517580043214
1590505999.6322503,3.7998377318116976,-0.7203245363766049,8.989350927246791,-0.3144444444444445,0.41,-0.7066666666666667,0.0,0.24797164764621968,-0.0625
1590505999.6422503,3.7904888106276746,-0.7390223787446505,8.951955242510698,-0.3144444444444445,0.41,-0.7066666666666667,0.0,0.13111013284593437,-0.0625
1590505999.6522503,3.8277331624661826,-0.74,8.959433290616547,-0.3144444444444445,0.41,-0.7066666666666667,0.0,-0.11083226541364088,-0.003541933646589779
1590505999.6622503,3.8155885889168215,-0.7327942944584107,8.923971472292054,-0.3144444444444445,0.41,-0.7066666666666667,0.0,-0.125,0.0
1590505999.6722503,3.837068219972529,-0.7096988350206033,8.889698835020605,-0.3144444444444445,0.4152632649946584,-0.6976439266758238,-0.08458818741415271,0.044176374828305415,0.08458818741415271
1590505999.6822503,3.792040182406979,-0.7289799087965104,8.957279756790696,-0.3144444444444445,0.4177777777777778,-0.6933333333333334,-0.125,0.30612442997819045,0.004250380014539701
1590505999.6922503,3.8080855343131836,-0.73,8.923828931373633,-0.3144444444444445,0.4177777777777778,-0.6933333333333334,-0.06848270527130071,0.19946541054260142,0.1130345894573986
1590505999.7022502,3.780581916779643,-0.7398060277401188,8.969030138700594,-0.3144444444444445,0.4177777777777778,-0.6933333333333334,-0.0625,-0.18022604025445826,-0.12015069350297217
1590505999.7122502,3.819025291275931,-0.7087797669792555,8.923169650468884,-0.3144444444444445,0.4177777777777778,-0.6933333333333334,0.08384484228473998,-0.23628161409491333,0.021344842284739984
1590505999.7222502,3.839819505094614,-0.7196390101892285,8.949278020378456,-0.32644606178230634,0.4035940481966683,-0.7020617823063238,0.06362809315866085,-0.3727438136826783,-0.12161572052401745
1590505999.7322502,3.8089726913200757,-0.7044863456600379,8.934486345660037,-0.32666666666666666,0.4033333333333333,-0.7022222222222222,0.014019830187618314,0.3037223773733436,-0.028039660375236627
1590505999.7422502,3.805387020829215,-0.7161610624876444,8.908451916683141,-0.32666666666666666,0.4033333333333333,-0.7022222222222222,0.0,0.3989933594522222,0.0336688801825926
1590505999.7522502,3.7865176928903796,-0.73,8.91348230710962,-0.32666666666666666,0.4033333333333333,-0.7022222222222222,0.0,0.16573558056487392,0.02580889514121848
1590505999.7622502,3.7962198529727873,-0.7168900735136065,8.93,-0.32666666666666666,0.4033333333333333,-0.7022222222222222,-0.0409685202699798,-0.060405560809939376,-0.0819370405399596
1590505999.7722502,3.8272256563642406,-0.7186128281821202,8.955838484546362,-0.31613987666629745,0.4033333333333333,-0.7060501458587202,0.09899052841475572,-0.17883017613825192,0.19798105682951145
1590505999.7822502,3.843319814498069,-0.7266599072490345,8.940020278252897,-0.3144444444444445,0.4033333333333333,-0.7066666666666667,-0.041497681225864474,0.0206221015323306,0.0418778984676694
1590505999.7922502,3.8137865071243016,-0.73,8.902839880343226,-0.3144444444444445,0.4033333333333333,-0.7066666666666667,-0.011832834763441713,0.29475074785483746,0.16383433047311657
1590505999.8022501,3.8010650606765948,-0.7389349393234051,8.93573975729362,-0.3144444444444445,0.4033333333333333,-0.7066666666666667,-0.05584337077128201,0.256656629228718,0.019969887686153986
1590505999.8122501,3.8,-0.74,8.976070688084949,-0.3144444444444445,0.4033333333333333,-0.7066666666666667,-0.017411639893812857,-0.06561852074330998,0.04508836010618714
1590505999.8222501,3.8236000171225544,-0.722299987158084,8.954599974316167,-0.3177222246003549,0.3961222169903305,-0.7027333304795742,0.0368750267539917,-0.1506249732460083,0.0256249732460083
1590505999.83225,3.8229534318309333,-0.7185232840845334,8.921476715915466,-0.32,0.3911111111111111,-0.7,-0.044041051056667294,-0.125,0.1065410510566673
1590505999.84225,3.8056316297010606,-0.7056316297010607,8.848158148505304,-0.32,0.3911111111111111,-0.7,-0.10740115718418515,0.14440694310511087,0.08009884281581485
1590505999.85225,3.7844556816549346,-0.7155443183450654,8.913265910070391,-0.32,0.3911111111111111,-0.7,-0.07642400517167074,0.25,0.11107599482832926
1590505999.86225,3.807233008742059,-0.7131917478144851,8.95361650437103,-0.32,0.3911111111111111,-0.7,-0.019948423840532088,0.12234527152159627,-0.04520630463787165
1590505999.87225,3.8027978758712244,-0.7186010620643877,8.985803186193163,-0.3152216321864514,0.4140472766161449,-0.7057340413762584,-0.053756637902422834,-0.15252655160969134,-0.07124336209757717
1590505999.88225,3.831444585668743,-0.7042777071656283,8.95069426791407,-0.3144444444444445,0.4177777777777778,-0.7066666666666667,-0.013367834892588505,-0.08923566978517701,-0.0625
1590505999.89225,3.8275217142969686,-0.7,8.87136942863333,-0.3144444444444445,0.4177777777777778,-0.7066666666666667,0.038994642821972306,0.015489285643944611,0.13247321410986154
1590505999.90225,3.82,-0.7,8.900116957070276,-0.3144444444444445,0.4177777777777778,-0.7066666666666667,-0.034884662597606295,0.2572693251952126,-0.042153987792818925
1590505999.91225,3.8046882735593806,-0.7153117264406194,8.965935179321859,-0.3144444444444445,0.4177777777777778,-0.7066666666666667,-0.12629886016924757,0.18490227966150483,-0.125
1590505999.92225,3.7992902091068985,-0.7269032636310337,8.997613054524136,-0.32029383536360284,0.41536920504635966,-0.7025376848413785,-0.14879079538792261,0.004436193081883914,-0.06693619308188392
1590505999.93225,3.824983478028857,-0.724983478028857,8.925148697740287,-0.3333333333333333,0.41,-0.6933333333333334,-0.0002065246392874004,-0.125,0.0625
1590505999.94225,3.823551821966766,-0.73,8.84775910983383,-0.3333333333333333,0.41,-0.6933333333333334,0.022198887292288416,0.07650556353855789,-0.018102225415423168
1590505999.95225,3.82,-0.73,8.88226458850178,-0.3333333333333333,0.41,-0.6933333333333334,-0.03629485312623593,0.26008970625247185,-0.026205146873764067
1590505999.96225,3.8096887805958577,-0.73,8.956089267914498,-0.3333333333333333,0.41,-0.6933333333333334,-0.1269451212758888,0.2480548787241112,0.0644451212758888
1590505999.97225,3.806528949898515,-0.73,8.996528949898515,-0.3333333333333333,0.4056473667343232,-0.6839026279243671,-0.10588812626856105,0.10588812626856105,0.04338812626856105
1590505999.98225,3.81,-0.73,8.975588789250274,-0.3333333333333333,0.4033333333333333,-0.6788888888888889,-0.0625,-0.14092675624771597,0.10171337812385799
1590505999.99225,3.816213011505577,-0.7362130115055768,8.876804827416347,-0.3333333333333333,0.4033333333333333,-0.6788888888888889,-0.0625,-0.10983735618028923,0.047337356180289225
1590506000.00225,3.82,-0.74,8.85376050003307,-0.3333333333333333,0.4033333333333333,-0.6788888888888889,0.021901250082677418,0.021901250082677418,0.08440125008267742
1590506000.01225,3.82,-0.7333607539994212,8.923113968004628,-0.3333333333333333,0.4033333333333333,-0.6788888888888889,0.10399528750361706,0.18698586251085114,0.0420094249927659
1590506000.02225,3.791393406103809,-0.73,8.985758242370238,-0.31982466399346554,0.4033333333333333,-0.7043169723521695,-0.05379121185119182,0.02651098518601025,0.044697802962797954
1590506000.03225,3.7956724568209332,-0.7143275431790664,8.992163771589533,-0.3144444444444445,0.4033333333333333,-0.7144444444444444,0.021929282696251634,-0.16045285513083443,0.013523572434582784
1590506000.04225,3.8142714000043,-0.7242714000043005,8.890100199969897,-0.3144444444444445,0.4033333333333333,-0.7144444444444444,-0.02669625002687767,-0.2766962500268777,0.0
1590506000.05225,3.82,-0.707298540609137,8.895402918781725,-0.3144444444444445,0.4033333333333333,-0.7144444444444444,-0.015205292935702198,-0.07602646467851101,-0.0472947070642978
1590506000.06225,3.815207909488752,-0.7191683620449921,8.919584181022495,-0.3144444444444445,0.4033333333333333,-0.7144444444444444,-0.029950565695300267,0.0,-0.09245056569530027
1590506000.07225,3.8047242265903627,-0.7347242265903624,8.948465206933731,-0.3144444444444445,0.4033333333333333,-0.7088755725120492,-0.013039624284647923,0.03297358381023472,-0.09202641618976529
1590506000.0822499,3.797574524048096,-0.7275745240480962,8.954552855711423,-0.3144444444444445,0.4033333333333333,-0.6933333333333334,0.0776592246993988,-0.01702232590180361,-0.0473407753006012
1590506000.0922499,3.8135637791527843,-0.73,8.892526772965255,-0.3144444444444445,0.4033333333333333,-0.6933333333333334,0.020113190147548782,-0.10488680985245122,-0.0625
1590506000.1022499,3.82,-0.73,8.87,-0.3144444444444445,0.4033333333333333,-0.6933333333333334,-0.03663414856517676,0.02153659426070703,-0.09913414856517676
1590506000.1122499,3.808621044322721,-0.7243105221613605,8.938273734063673,-0.3144444444444445,0.4033333333333333,-0.6933333333333334,-0.026940763508503357,0.16055923649149664,-0.125
1590506000.1222498,3.8,-0.7152856551642591,8.999428689671483,-0.32334931802306616,0.40071425286903284,-0.6933333333333334,0.029464655223380563,0.15803534477661943,-0.0366060343298583
1590506000.1322498,3.8,-0.7158794712286158,9.015879471228615,-0.3333333333333333,0.3977777777777778,-0.6933333333333334,0.09924669517884914,0.05150660964230172,0.09924669517884914
1590506000.1422498,3.8,-0.7305529837555761,8.93557612995539,-0.3333333333333333,0.3977777777777778,-0.6933333333333334,0.125,-0.06595614847235082,0.026065777291473774
1590506000.1522498,3.8219381345553667,-0.7235463990834748,8.903876269110732,-0.3333333333333333,0.3977777777777778,-0.6933333333333334,-0.012113340971042552,-0.15927833524276064,0.006056670485521276
1590506000.1622498,3.834538669434948,-0.7154613305650516,8.934538669434948,-0.3333333333333333,0.3977777777777778,-0.6933333333333334,-0.056733367936854545,-0.05096673587370909,0.09663331603157273
1590506000.1722498,3.812017131704496,-0.7259942894318346,8.941988578863668,-0.32534094742422054,0.40510413152779784,-0.6933333333333334,0.0,0.17489292684689894,0.050071382102067366
1590506000.1822498,3.8120969796750357,-0.7179030203249642,8.931854530487445,-0.32,0.41,-0.6933333333333334,-0.03780306148448678,0.21219693851551322,0.03780306148448678
1590506000.1922498,3.8136652610149775,-0.7163347389850225,8.888326305074887,-0.32,0.41,-0.6933333333333334,-0.022907881343609132,0.0687236440308274,0.022907881343609132
1590506000.2022498,3.8167827172480755,-0.7132172827519245,8.876782717248076,-0.32,0.41,-0.6933333333333334,0.0423919828004716,0.0,-0.0423919828004716
1590506000.2122498,3.824483873032126,-0.7144838730321259,8.893451619096378,-0.32,0.41,-0.6933333333333334,0.0064515870984257,-0.08407261935236145,-0.0064515870984257
1590506000.2222497,3.8275650727379475,-0.7224349272620523,8.924609563572314,-0.3186472626321932,0.4083767151586318,-0.6949566181747016,-0.0625,-0.14184511383651902,0.0625
1590506000.2322497,3.826249791673611,-0.7175004166527782,8.97,-0.3144444444444445,0.4033333333333333,-0.7,0.054683593880203996,0.078122395920136,0.0625
1590506000.2422497,3.83,-0.7160966985817011,8.92122641134639,-0.3144444444444445,0.4033333333333333,-0.7,0.010686901593103176,0.08689563386436772,-0.013708732271264554
1590506000.2522497,3.8233094237695076,-0.7066188475390156,8.869928271308524,-0.3144444444444445,0.4033333333333333,-0.7,0.02113220288115246,-0.06294830432172868,-0.02068389855942377
1590506000.2622497,3.825890781601311,-0.7058907816013109,8.913017034411798,-0.3144444444444445,0.4033333333333333,-0.7,-0.011134770016386575,-0.1618173850081933,0.0
1590506000.2722497,3.8226463370624324,-0.7210304944063515,8.957353662937567,-0.3189383495729581,0.401290649184009,-0.7,-0.0625,-0.026638623240707315,0.02298019667989895
1590506000.2822497,3.8044208611279564,-0.74,8.98394784718011,-0.32666666666666666,0.3977777777777778,-0.7,-0.04506519102486355,0.21513038204972712,0.0625
1590506000.2922497,3.8021530473357865,-0.7359489842214044,8.963285779099662,-0.32666666666666666,0.3977777777777778,-0.7,-0.05063769723244443,0.04904345415133336,0.03718115138377778
1590506000.3022497,3.822625451625853,-0.73,8.88787635487756,-0.32666666666666666,0.3977777777777778,-0.7,-0.05936370935367323,-0.09531814532316338,0.016409072661581692
1590506000.3122497,3.825543013802231,-0.7255430138022311,8.918913972395538,-0.32666666666666666,0.3977777777777778,-0.7,0.2085684912081679,-0.15964383626394404,0.03464383626394403
1590506000.3222497,3.82,-0.72,8.93913372156111,-0.32362209281296345,0.40335949650956704,-0.7030445738537032,0.16978560060766087,-0.039371360364596514,0.028542879878467826
1590506000.3322496,3.8150735617039966,-0.729852876592007,8.945073561703996,-0.32,0.41,-0.7066666666666667,0.03079023935002196,0.09329023935002195,0.03170976064997804
1590506000.3422496,3.8046612842658654,-0.7346612842658655,8.913306421329327,-0.32,0.41,-0.7066666666666667,0.0625,0.09163302666165979,0.0
1590506000.3522496,3.8,-0.7432847470589559,8.903284747058956,-0.32,0.41,-0.7066666666666667,0.10401483455923702,0.0625,0.08302966911847402
1590506000.3622496,3.8311591249855828,-0.7292272500096113,8.930772749990389,-0.32,0.41,-0.7066666666666667,0.125,-0.0024148437199646294,0.125
1590506000.3722496,3.840607968857339,-0.7148480077856652,8.969392031142661,-0.330234683103071,0.4067679948095565,-0.7104373393888507,0.03409985401877719,-0.0928000486604076,0.0643999026791848
1590506000.3822496,3.8140446699497588,-0.72,8.972134009849277,-0.3411111111111111,0.4033333333333333,-0.7144444444444444,-0.09972081281400785,0.02388325125603144,0.07444162562801572
1590506000.3922496,3.816455107580937,-0.7393653227428112,8.927724462095314,-0.3411111111111111,0.4033333333333333,-0.7144444444444444,-0.003966732857430114,0.003966732857430114,0.08465557761914337
1590506000.4022496,3.800676954399278,-0.7306769543992782,8.929323045600722,-0.3411111111111111,0.4033333333333333,-0.7144444444444444,0.0625,-0.02224365499849617,0.0625
1590506000.4122496,3.800133343507373,-0.7250666717536864,8.945066671753686,-0.3411111111111111,0.4033333333333333,-0.7144444444444444,0.030833301539459373,0.0,0.09416669846054063
1590506000.4222496,3.813499586543065,-0.7334995865430648,8.953499586543064,-0.33372309507575204,0.39905606089180967,-0.709389486104462,0.0,0.021872415894155024,0.10312758410584498
1590506000.4322495,3.82,-0.7311710064365126,8.96,-0.32,0.3911111111111111,-0.7,0.0,0.09009060488589818,0.034909395114101814
1590506000.4422495,3.80767882717095,-0.7241070576096832,8.927143539122534,-0.32,0.3911111111111111,-0.7,0.07700733018156058,0.125,0.0
1590506000.4522495,3.792646222510168,-0.731323111255084,8.885292445020337,-0.32,0.3911111111111111,-0.7,0.16269166396717416,0.10846110931144945,0.02480833603282583
1590506000.4622495,3.815799382214274,-0.7342006177857259,8.928699073321411,-0.32,0.3911111111111111,-0.7,-0.01812306941960657,0.03624613883921314,0.11500772232157372
1590506000.4722495,3.8294371646886685,-0.7205628353113315,8.949155747033002,-0.32,0.3911111111111111,-0.7,-0.0607411396520891,0.1214822793041782,-0.05546455860835639
1590506000.4822495,3.8069102863202544,-0.7330897136797455,8.957641145281018,-0.32666666666666666,0.3977777777777778,-0.6933333333333334,-0.129567868504772,-0.03862142099681866,-0.04318928950159067
1590506000.4922495,3.803921001926782,-0.7360789980732177,8.902552986512523,-0.32666666666666666,0.3977777777777778,-0.6933333333333334,-0.02450626204238921,-0.051481213872832374,0.0
1590506000.5022495,3.8042610260272824,-0.73,8.88295589589087,-0.32666666666666666,0.3977777777777778,-0.6933333333333334,0.009237174658967284,0.09836858732948364,0.03586858732948364
1590506000.5122495,3.8131045023888572,-0.721263665074095,8.926209004777716,-0.32666666666666666,0.3977777777777778,-0.6933333333333334,0.00789790671309417,0.09769895335654709,0.00789790671309417
1590506000.5222495,3.82696388650043,-0.71,8.94785554600172,-0.32464259100028664,0.39946450749976115,-0.6953574089997134,-0.04352429062768702,0.0625,-0.024548581255374034
