time,acc_x,acc_y,acc_z,mag_x,mag_y,mag_z,gyr_x,gyr_y,gyr_z
1590504451.7655535,0.01,-4.57,8.66,0.4566666666666666,0.3288888888888889,-0.6255555555555555,0.1875,0.3125,0.125
1590504451.7755535,0.01,-4.5795292513915715,8.650470748608429,0.46301950092771404,0.3288888888888889,-0.6520256983099196,0.2470578211973191,0.4316156423946382,0.06544217880268091
1590504451.7855535,-0.0027282260298365714,-4.555456452059673,8.599989513671797,0.4633333333333333,0.3288888888888889,-0.6533333333333333,0.19320565074591428,0.3920514126864786,0.04544858731352143
1590504451.7955534,-0.01210436686534485,-4.572104366865345,8.532626201192068,0.4633333333333333,0.3288888888888889,-0.6533333333333333,0.3618477070915947,0.4111954141831894,0.013152292908405304
1590504451.8055534,-0.016729019579299804,-4.5734580391585995,8.606167843365602,0.4633333333333333,0.3288888888888889,-0.6533333333333333,0.3125,0.2716127447412475,0.021612744741247546
1590504451.8155534,-0.010623335031661693,-4.561246670063323,8.655013319746706,0.4633333333333333,0.3288888888888889,-0.6533333333333333,0.3125,0.19529168789577117,-0.05470831210422884
1590504451.8255534,0.002494930854578179,-4.582494930854578,8.752494930854578,0.4511111111111111,0.3211111111111111,-0.6111111111111112,-0.09368663568222724,0.0,-0.04690668215888638
1590504451.8355534,0.01,-4.586510293490482,8.728592641414338,0.4511111111111111,0.3211111111111111,-0.6111111111111112,-0.0784466715775598,0.02181066568448804,-0.04362133136897608
1590504451.8455534,0.01,-4.584359303232516,8.665640696767484,0.4511111111111111,0.3211111111111111,-0.6111111111111112,0.1794912904064477,0.08974564520322385,-0.0705087095935523
1590504451.8555534,0.017242070116861435,-4.585171953255426,8.66,0.4511111111111111,0.3211111111111111,-0.6111111111111112,0.25,0.125,-0.030175292153589314
1590504451.8655534,0.027069576454894113,-4.567413915290979,8.66,0.4580073370018342,0.3211111111111111,-0.6093870546384303,0.23383697056861763,0.14116302943138237,-0.09267394113723529
1590504451.8755534,-0.005383668296215825,-4.564616331703784,8.653075502444324,0.4777777777777778,0.3211111111111111,-0.6044444444444445,0.20192603657432556,0.07209170740539561,-0.028852073148651097
1590504451.8855534,0.004556402839863267,-4.58,8.586451222718907,0.4777777777777778,0.3211111111111111,-0.6044444444444445,0.21597751774914542,-0.2784775177491454,-0.15902248225085458
1590504451.8955534,-0.005476815592737629,-4.58,8.571907262370951,0.4777777777777778,0.3211111111111111,-0.6044444444444445,0.1875,-0.14730970763616946,-0.1532699025453898
1590504451.9055533,0.0023784433881220996,-4.58,8.623009182368326,0.4777777777777778,0.3211111111111111,-0.6044444444444445,0.26486527117576314,-0.08828842372525438,-0.15078842372525436
1590504451.9155533,0.002999117548610899,-4.5765998235097225,8.683600705961112,0.4777777777777778,0.3188443267842593,-0.6116225948128087,0.3537488969357636,-0.03999558774305449,-0.14499779387152725
1590504451.9255533,-0.01683152009015647,-4.5787789866065625,8.71,0.4777777777777778,0.3144444444444445,-0.6255555555555555,0.3125,0.125,-0.0625
1590504451.9355533,0.0,-4.59,8.668202198437951,0.4777777777777778,0.3144444444444445,-0.6255555555555555,0.16736874457622217,0.09597374891524443,-0.0625
1590504451.9455533,0.004383571896342035,-4.5724657124146315,8.637534287585368,0.4777777777777778,0.3144444444444445,-0.6255555555555555,0.0,0.0625,-0.08989732435213771
1590504451.9555533,0.008224848547995774,-4.555325454356012,8.66,0.4777777777777778,0.3144444444444445,-0.6255555555555555,-0.03328408972507926,0.01812121369989432,-0.125
1590504451.9655533,0.0019817513359034287,-4.57405474599229,8.66,0.4777777777777778,0.3144444444444445,-0.6255555555555555,-0.15034216245181073,-0.1379562166024143,-0.125
1590504451.9755533,0.0,-4.583213292595008,8.656786707404992,0.4711111111111111,0.3144444444444445,-0.6177777777777778,-0.23995846064059873,-0.375,-0.17745846064059873
1590504451.9855533,0.0,-4.591784154416945,8.598920772084723,0.4711111111111111,0.3144444444444445,-0.6177777777777778,-0.21317451744704832,-0.5033725872352417,-0.09932548255295168
1590504451.9955533,-0.003206965458178704,-4.576793034541821,8.56244875820725,0.4711111111111111,0.3144444444444445,-0.6177777777777778,-0.3101306023408507,-0.7476306023408507,-0.0825435341136169
1590504452.0055532,-0.00314652336038605,-4.57,8.628847060758938,0.4711111111111111,0.3144444444444445,-0.6177777777777778,-0.4375,-0.8321657710024128,-0.1035828855012064
1590504452.0155532,0.02756649571229833,-4.574867008575404,8.72,0.46624410253570775,0.3160667806362456,-0.6177777777777778,-0.3310341874130521,-0.5033247856149167,-0.015209401798135421
1590504452.0255532,0.017757672087052208,-4.5877576720870525,8.713273016261157,0.4511111111111111,0.3211111111111111,-0.6177777777777778,0.0,0.00113094510331338,-0.0625
1590504452.0355532,0.01,-4.567125756355257,8.647085854517524,0.4511111111111111,0.3211111111111111,-0.6177777777777778,0.0,0.3570359772203593,0.017964022779640695
1590504452.0455532,0.01,-4.553626762790109,8.600880288370329,0.4511111111111111,0.3211111111111111,-0.6177777777777778,0.022667267438183772,0.25,0.07966546512363246
1590504452.0555532,0.002752885606892193,-4.574494228786215,8.616376442803446,0.4511111111111111,0.3211111111111111,-0.6177777777777778,-0.005441697435385695,0.25,-0.022647232478461895
1590504452.0655532,-0.01,-4.594724631317012,8.61395652651224,0.45184380120597045,0.3211111111111111,-0.6188035439105809,-0.14148552713433601,0.18405789146265597,-0.0625
1590504452.0755532,-0.006678939885530969,-4.56,8.633357879771062,0.4566666666666666,0.3211111111111111,-0.6255555555555555,-0.27075662571543146,-0.39529638000802014,-0.08325662571543145
1590504452.0855532,0.0,-4.563914054712592,8.61412891793111,0.4566666666666666,0.3211111111111111,-0.6255555555555555,-0.32473142097685237,-0.7241942629305571,-0.125
1590504452.0955532,0.01235690786112757,-4.58,8.627070723583383,0.4566666666666666,0.3211111111111111,-0.6255555555555555,-0.3235128839119684,-0.8235128839119684,-0.07351288391196845
1590504452.1055532,0.03188430485570316,-4.58,8.689421524278515,0.4566666666666666,0.3211111111111111,-0.6255555555555555,-0.21466928395556573,-0.6911154732592762,0.011776905348144755
1590504452.1155531,0.037888513513513515,-4.58,8.719442567567567,0.4566666666666666,0.3211111111111111,-0.6255555555555555,-0.10209037162162163,-0.5034839527027026,0.04930320945945946
1590504452.1255531,0.028999345588672735,-4.568999345588673,8.7489928014754,0.4711111111111111,0.33555555555555555,-0.6255555555555555,0.012508180141590814,-0.21247545957522757,-0.006254090070795407
1590504452.1355531,0.014773880580332193,-4.570452238839335,8.626482462611495,0.4711111111111111,0.33555555555555555,-0.6255555555555555,0.0923367536270762,0.20665811593230948,-0.0461683768135381
1590504452.145553,0.0019076507534995391,-4.6,8.563815301506999,0.4711111111111111,0.33555555555555555,-0.6255555555555555,0.023845634418744238,0.4494228172093721,-0.023845634418744238
1590504452.155553,0.009021310365754032,-4.599021310365754,8.58489344817123,0.4711111111111111,0.33555555555555555,-0.6255555555555555,0.1678176714982611,0.5244672408561492,-0.1188831897859627
1590504452.165553,0.0,-4.588041668318598,8.630652777227136,0.4711111111111111,0.3341774702982727,-0.6241774702982728,0.5584201423304127,0.7296007116520636,-0.0625
1590504452.175553,0.0,-4.563098362605558,8.638967212464815,0.4711111111111111,0.31662477368539305,-0.6066247736853929,0.5064549220949134,0.46977461047456687,-0.0625
1590504452.185553,0.058319403964562144,-4.598319403964562,8.686904977899593,0.4711111111111111,0.3144444444444445,-0.6044444444444445,0.6963401629060588,0.4220055878322299,-0.0625
1590504452.195553,0.009846137706752457,-4.550076931146624,8.550846242612863,0.4711111111111111,0.3144444444444445,-0.6044444444444445,1.2471150820016086,0.8730767213344057,-0.0625
1590504452.205553,-0.007283431455004205,-4.557283431455004,8.676299411269975,0.4711111111111111,0.3144444444444445,-0.6044444444444445,0.7391715727502103,0.506150126156434,-0.07947855340622371
1590504452.215553,0.0,-4.548165261493875,8.725504215518377,0.46968409227301333,0.31709462228662605,-0.606890762452612,0.3291315373468581,0.21043423132657094,-0.11353288433671453
1590504452.225553,-0.0058797312122874385,-4.548819596818431,8.744120268787713,0.4633333333333333,0.3288888888888889,-0.6177777777777778,0.125,0.2573775198848053,-0.0625
1590504452.235553,-0.019695237328394864,-4.570304762671605,8.724819034582714,0.4633333333333333,0.3288888888888889,-0.6177777777777778,0.125,0.13071430009259632,-0.0644047666975321
1590504452.245553,-0.0056784418098233735,-4.58,8.568643116380354,0.4633333333333333,0.3288888888888889,-0.6177777777777778,0.15200973868860393,0.2854902613113961,-0.09799026131139608
1590504452.255553,0.0,-4.57375107818763,8.60499568724948,0.4633333333333333,0.3288888888888889,-0.6177777777777778,0.1289163580090314,0.25,-0.023444238672687606
1590504452.265553,0.0,-4.560320759877663,8.661283039510655,0.46418869300710314,0.3288888888888889,-0.6180272576826272,0.004009498470795932,0.2439857522938061,0.056485752293806105
1590504452.275553,-0.000957217214675638,-4.5709572172146755,8.696171131141297,0.49,0.3288888888888889,-0.6255555555555555,0.125,0.05651739240827726,-0.11901739240827726
1590504452.285553,-0.006647391640288129,-4.5766473916402886,8.636531741482017,0.49,0.3288888888888889,-0.6255555555555555,0.0830923955036016,-0.041907604496398396,-0.0625
1590504452.295553,0.0,-4.57,8.599538769009774,0.49,0.3288888888888889,-0.6255555555555555,0.04471297973331668,-0.13990432657777221,-0.09230865315554446
1590504452.305553,0.0,-4.57,8.625734315960404,0.49,0.3288888888888889,-0.6255555555555555,0.16750460606439121,-0.18083486868813042,-0.17416973737626082
1590504452.315553,0.001085775513656785,-4.579457112243172,8.69,0.4885522993151243,0.3281047176845812,-0.6259174807267744,0.059106951519822544,0.0,0.0
1590504452.325553,0.016854709852059325,-4.571572645073971,8.69,0.46752705353058754,0.3167160428846239,-0.6311737921729087,0.009829031712314598,0.0,0.0
1590504452.335553,0.00929534015262218,-4.579295340152623,8.672953401526222,0.4633333333333333,0.3144444444444445,-0.6322222222222222,-0.12059587595388861,-0.05369175190777724,-0.125
1590504452.345553,0.000782797532066894,-4.570782797532067,8.58782797532067,0.4633333333333333,0.3144444444444445,-0.6322222222222222,-0.06739248457541808,0.05271503084916383,-0.125
1590504452.355553,0.0,-4.56,8.609863432450673,0.4633333333333333,0.3144444444444445,-0.6322222222222222,-0.025512128309976574,0.21301212830997657,-0.11267070943665886
1590504452.365553,0.0,-4.5605190096343104,8.651557028902932,0.46373700749335267,0.3147904508673182,-0.6326258963822415,0.125,0.06898762042888221,-0.0625
1590504452.375553,0.0,-4.567546904632891,8.675093809265782,0.4711111111111111,0.3211111111111111,-0.64,0.125,0.1721681539555676,-0.047168153955567595
1590504452.385553,0.0,-4.560444662693037,8.660889325386075,0.4711111111111111,0.3211111111111111,-0.64,0.125,0.12777914183148198,-0.0027791418314819794
1590504452.3955529,-0.014916947051531787,-4.57,8.627790685319638,0.4711111111111111,0.3211111111111111,-0.64,0.07838454046396316,0.125,-0.0625
1590504452.4055529,-6.197981228971139e-05,-4.57,8.679783070656987,0.4711111111111111,0.3211111111111111,-0.64,0.12480631308659465,0.125,-0.0625
1590504452.4155529,0.01972933613497826,-4.57,8.690541327730044,0.4707201521949686,0.32093066853443,-0.6393985247443962,0.0,0.05742505253084237,0.12161670168722824
1590504452.4255528,0.011003391099923024,-4.57,8.707993217800155,0.45811600936655544,0.3151133718443932,-0.6200075357776067,0.0,-0.10618641687644328,0.012542388749037792
1590504452.4355528,0.0,-4.582845626389918,8.625852483320978,0.4566666666666666,0.3144444444444445,-0.6177777777777778,-0.08942967012601927,-0.11635934025203855,-0.08028516493699037
1590504452.4455528,0.0,-4.583569601116409,8.552860797767181,0.4566666666666666,0.3144444444444445,-0.6177777777777778,0.0,0.0089133426367407,-0.08481000697755553
1590504452.4555528,0.00032333624213475406,-4.560646672484269,8.601616681210674,0.4566666666666666,0.3144444444444445,-0.6177777777777778,0.0,-0.1875,0.058458296973315574
1590504452.4655528,0.009955219767602077,-4.579910439535205,8.64977609883801,0.4566666666666666,0.3144444444444445,-0.6177777777777778,0.0,-0.1875,-0.06194024709502595
1590504452.4755528,-0.003719601867047465,-4.568140199066477,8.681859800933523,0.4566666666666666,0.3088888888888889,-0.6255555555555555,0.11337624416547668,-0.2035049766619067,0.0
1590504452.4855528,-0.017879618896836393,-4.562120381103163,8.683638856690509,0.4566666666666666,0.3088888888888889,-0.6255555555555555,0.06912619094738627,0.0,-0.006626190947386277
1590504452.4955528,-0.0019322712892416557,-4.578067728710758,8.631932271289243,0.4566666666666666,0.3088888888888889,-0.6255555555555555,0.08876991332671896,0.012076695557760347,-0.0866533911155207
1590504452.5055528,-0.009783971994983058,-4.570216028005017,8.639783971994984,0.4566666666666666,0.3088888888888889,-0.6255555555555555,-0.05844947490593236,0.061149824968644115,-0.18479964993728823
1590504452.5155528,-0.0023315974506965464,-4.57,8.66300520764791,0.4566666666666666,0.3088888888888889,-0.6255555555555555,0.03335503186629317,0.0625,0.1000650955988795
1590504452.5255527,0.0,-4.5894235172103395,8.68855879302585,0.4711111111111111,0.3144444444444445,-0.6111111111111112,-0.0625,-0.1856984912823122,-0.11779396512924878
1590504452.5355527,0.0,-4.573008433947127,8.647521084867817,0.4711111111111111,0.3144444444444445,-0.6111111111111112,-0.0625,-0.13440135608476997,0.0873945756609201
1590504452.5455527,-0.0011058676876502538,-4.58,8.562211735375302,0.4711111111111111,0.3144444444444445,-0.6111111111111112,-0.10426498085655775,-0.2013233460956282,-0.0694116730478141
1590504452.5555527,-0.008575015581871607,-4.58,8.577150031163743,0.4711111111111111,0.3144444444444445,-0.6111111111111112,0.035781542160092605,-0.29468769477339507,-0.11609384738669754
1590504452.5655527,0.0,-4.57,8.660116026922752,0.47118201645279284,0.3144444444444445,-0.6111497867520285,-0.0010877524007997972,-0.5635877524007998,-0.0625
1590504452.5755527,0.0016031289987686811,-4.571603128998769,8.686412515995075,0.4833333333333333,0.3144444444444445,-0.6177777777777778,-0.20753911248460852,-0.7299608875153915,-0.07251955624230426
1590504452.5855527,0.01164262949120675,-4.578357370508793,8.701931075596725,0.4833333333333333,0.3144444444444445,-0.6177777777777778,-0.29196713135991564,-0.6557993029601266,-0.11473356567995781
1590504452.5955527,0.018715214442729527,-4.57,8.616423927786352,0.4833333333333333,0.3144444444444445,-0.6177777777777778,-0.21961963893176184,-0.796440180534119,-0.07855981946588092
1590504452.6055527,0.01185829275563947,-4.57,8.66092914637782,0.4833333333333333,0.3144444444444445,-0.6177777777777778,-0.4258856702772533,-0.6816928351386267,-0.1758856702772533
1590504452.6155527,0.028530458113882537,-4.57,8.669265229056942,0.4833333333333333,0.3144444444444445,-0.6177777777777778,-0.3216846367882341,-0.6295923183941171,-0.07168463678823413
1590504452.6255527,0.02,-4.58,8.702653224391101,0.4977777777777778,0.3211111111111111,-0.6111111111111112,-0.4724495914666251,-0.35663306097775005,-0.08086693902224995
1590504452.6355526,0.02,-4.58,8.661757961038202,0.4977777777777778,0.3211111111111111,-0.6111111111111112,-0.3190923538932548,-0.25439490259550324,-0.1831050974044968
1590504452.6455526,0.0,-4.577945172441515,8.578219310233942,0.4977777777777778,0.3211111111111111,-0.6111111111111112,-0.1810786638797331,-0.2628426722405338,-0.0753426722405338
1590504452.6555526,0.0,-4.561085698207251,8.645657207170995,0.4977777777777778,0.3211111111111111,-0.6111111111111112,-0.12839280689766058,-0.36821438620467883,-0.18071438620467883
1590504452.6655526,-0.006684951108991176,-4.56,8.65,0.4977777777777778,0.3211111111111111,-0.6111111111111112,0.0003428332935845324,-0.24965716670641547,-0.1039381111376103
1590504452.6755526,0.006322189553159824,-4.57632218955316,8.690805473882898,0.4642266103629492,0.3156703812600579,-0.634687607132342,-0.1415273694144978,-0.2895136847072489,-0.0625
1590504452.6855526,0.01,-4.572007239152109,8.7,0.4566666666666666,0.3144444444444445,-0.64,-0.23745475529931942,-0.3125,-0.16240951059863887
1590504452.6955526,0.009225150944621178,-4.577675452833864,8.613874245276893,0.4566666666666666,0.3144444444444445,-0.64,-0.07218561319223528,-0.19718561319223527,-0.11047158021164709
1590504452.7055526,0.0024175485295072387,-4.557252645588521,8.647912257352464,0.4566666666666666,0.3144444444444445,-0.64,-0.15728064338115952,-0.28228064338115955,0.017170965071739264
1590504452.7155526,0.0,-4.5757902933604555,8.67719352890697,0.4566666666666666,0.3144444444444445,-0.64,-0.026310666497155383,-0.15131066649715538,-0.20614888917140767
1590504452.7255526,0.008067067927773001,-4.58,8.663865864144453,0.4683190981178943,0.30996274004012614,-0.6166951370975448,0.050419174548581254,0.02625752364574377,-0.19958082545141875
1590504452.7355525,0.0,-4.568811051342996,8.663354718801937,0.4711111111111111,0.3088888888888889,-0.6111111111111112,0.022292787318834103,-0.0625,-0.1027072126811659
1590504452.7455525,0.0,-4.5613154743821145,8.558416641349607,0.4711111111111111,0.3088888888888889,-0.6111111111111112,0.16283485533534678,-0.0625,0.03783485533534678
1590504452.7555525,0.0,-4.560649088669511,8.612596354678043,0.4711111111111111,0.3088888888888889,-0.6111111111111112,-0.08278402092222004,-0.324670412553332,-0.11688639163111199
1590504452.7655525,0.0,-4.568136637092311,8.642546548369245,0.4711111111111111,0.3088888888888889,-0.6111111111111112,-0.31676990913472697,-0.4650619454808362,-0.023292036346109227
1590504452.7755525,0.01,-4.61,8.734696777354625,0.4566666666666666,0.3211111111111111,-0.6255555555555555,-0.30421371461660096,-0.8418548584664038,-0.008286285383399034
1590504452.7855525,0.01076036456878824,-4.606198177156059,8.692396354312116,0.4566666666666666,0.3211111111111111,-0.6255555555555555,-0.2452477214450735,-0.625,-0.04349088578029399
1590504452.7955525,0.017325138587611474,-4.56,8.608024584237166,0.4566666666666666,0.3211111111111111,-0.6255555555555555,-0.17914105808628586,-0.6082821161725717,0.17914105808628586
1590504452.8055525,-0.007461049723756906,-4.558341988950276,8.662487016574586,0.4566666666666666,0.3211111111111111,-0.6255555555555555,-0.13536256906077349,-0.47927486187845303,0.14054385359116023
1590504452.8155525,-0.059600138121546964,-4.5467555248618785,8.679866712707183,0.4566666666666666,0.3211111111111111,-0.6255555555555555,-0.20777796961325967,-0.33444406077348066,0.2491669544198895
1590504452.8255525,-0.10888892889288929,-4.508518451845185,8.671111071107111,0.4657613361336133,0.3211111111111111,-0.6164608860886088,-0.0925922592259226,-0.1712961296129613,0.7060193519351935
1590504452.8355525,-0.12,-4.49,8.666137500484703,0.4711111111111111,0.3211111111111111,-0.6111111111111112,-0.03835937802939238,-0.20171875605878475,1.4745312924114933
1590504452.8455524,-0.1116599757612483,-4.49,8.586599757612483,0.4711111111111111,0.3211111111111111,-0.6111111111111112,0.041750302984396304,-0.6670012119375852,2.9071281813361614
1590504452.8555524,-0.054977110419337116,-4.524389305987914,8.583755722395166,0.4711111111111111,0.3211111111111111,-0.6111111111111112,0.10548663248489287,-0.9219465299395715,3.812786119758286
1590504452.8655524,-0.03709020479079438,-4.504548976046029,8.604180409581588,0.4711111111111111,0.3211111111111111,-0.6111111111111112,-0.05225511976985958,-0.9113724401150702,4.523824019482184
1590504452.8755524,-0.05373314576344551,-4.49,8.651199437290336,0.47568882636559295,0.3211111111111111,-0.6065333958566292,-0.38249648306460343,-0.875,5.202492966129207
1590504452.8855524,-0.16306167701439586,-4.433784539810329,8.726215460189671,0.4777777777777778,0.3211111111111111,-0.6044444444444445,-0.9684621682472538,-0.875,6.725770962679948
1590504452.8955524,-0.23020459109934868,-4.392372130562907,8.654744261125815,0.4777777777777778,0.3211111111111111,-0.6044444444444445,-1.0470348367963662,-1.1101741839818309,8.082440593501886
1590504452.9055524,-0.3192984147799591,-4.28154973579666,8.73619894318664,0.4777777777777778,0.3211111111111111,-0.6044444444444445,-1.177814151270876,-1.759685848729124,11.141360840050913
1590504452.9155524,-0.416362479268716,-4.297727079878119,8.800908319512478,0.4777777777777778,0.3211111111111111,-0.6044444444444445,-1.0767057507617541,-1.8607942492382459,13.92184185405176
1590504452.9255524,-0.4891035649461645,-4.076850406188873,8.723930956702556,0.4633333333333333,0.3211111111111111,-0.6255555555555555,-0.40028768040601265,-1.8195411211165349,20.125150889033783
1590504452.9355524,-0.5556246145170669,-3.9807644456975697,8.679583590321956,0.4633333333333333,0.3211111111111111,-0.6255555555555555,-0.5850683736585194,-2.3276880275609284,24.236521313902056
1590504452.9455523,-0.6488934874445136,-3.965758368537302,8.659631162481505,0.4633333333333333,0.3211111111111111,-0.6255555555555555,-1.994236913773508,-2.8853735552076856,31.85923996954946
1590504452.9555523,-0.5949278407994338,-3.75889005639783,8.641642613599812,0.4633333333333333,0.3211111111111111,-0.6255555555555555,-1.7131658374970513,-3.3913014925053075,40.23515804258787
1590504452.9655523,-0.5580414229713017,-3.5881967591136825,8.687937865543047,0.4633333333333333,0.3211111111111111,-0.6255555555555555,-1.7374352766073413,-4.136593872502778,47.74126234199107
1590504452.9755523,-0.5151443654384831,-3.4802887308769663,8.727884507649213,0.4687553209317915,0.3125908448849625,-0.6201335679570974,-2.011417259211377,-4.573917259211377,54.40442792501616
1590504452.9855523,-0.4751975629822338,-3.3631914704378185,8.77720365552665,0.4711111111111111,0.3088888888888889,-0.6177777777777778,-2.16375380784026,-5.0750380784025975,60.24411174482467
1590504452.9955523,-0.33109794043562013,-3.18109794043562,8.60664691065343,0.4711111111111111,0.3088888888888889,-0.6177777777777778,-2.0148633130834197,-5.542682249222107,67.39137279596977
1590504453.0055523,0.029310840788864256,-3.1020784476243874,8.745249262572829,0.4711111111111111,0.3088888888888889,-0.6177777777777778,-2.1819327295775333,-5.077346054459911,73.270481887326
1590504453.0155523,-0.06855244369133523,-3.1620299678236203,8.78101498391181,0.4711111111111111,0.3088888888888889,-0.6177777777777778,-2.235960912362203,-5.5471091236220325,80.17356681834625
1590504453.0255523,-0.2528760097448391,-3.255272684532205,8.829041330085055,0.4711111111111111,0.3022222222222222,-0.6255555555555555,-1.8244833739368296,-7.023966747873659,91.53842640082061
1590504453.0355523,-0.30665598153609436,-3.3538692994828394,8.811114672821303,0.4711111111111111,0.3022222222222222,-0.6255555555555555,-2.0485665897337264,-7.472133179467453,99.26929734581357
1590504453.0455523,-0.343269897657109,-3.353346020468578,8.763422143280048,0.4711111111111111,0.3022222222222222,-0.6255555555555555,-2.0209126279286136,-8.040635836928022,104.86524676478051
1590504453.0555522,-0.38732012984344827,-3.1860792209393103,8.803746969634712,0.4711111111111111,0.3022222222222222,-0.6255555555555555,-1.6015814397830463,-9.109337120433906,113.81219696347125
1590504453.0655522,-0.44204004187385504,-3.27408008374771,8.76539424982241,0.4711111111111111,0.3022222222222222,-0.6255555555555555,-1.376642707593375,-9.605678907914907,119.59503986428385
1590504453.0755522,-0.46899665231946436,-3.4179598278335726,8.938929698708753,0.49510218396301614,0.26623561294436476,-0.6255555555555555,-3.1680595408895265,-9.918687230989956,126.2107006217121
1590504453.0855522,-0.4840909833832743,-3.43,8.88249959139199,0.4977777777777778,0.26222222222222225,-0.6255555555555555,-3.022725415418142,-10.509946199945519,129.6122309997276
1590504453.0955522,-0.5162560081813533,-3.465008010908471,8.674959945457644,0.4977777777777778,0.26222222222222225,-0.6255555555555555,-1.5074995738878472,-10.367099880688597,133.8757009544912
1590504453.1055522,-0.6380926391723222,-3.47,8.668168098334203,0.4977777777777778,0.26222222222222225,-0.6255555555555555,-2.334455531298942,-10.596376536471928,136.2428604480091
1590504453.1155522,-0.692359156887826,-3.42058098363087,8.775897892219565,0.4977777777777778,0.26222222222222225,-0.6255555555555555,-3.5847271657119553,-11.507482435163043,137.58472716571197
1590504453.1255522,-0.7533416417414424,-3.382663343303423,8.767990029910269,0.5208933200398804,0.21021225213249145,-0.6313344411210812,-3.358198321701562,-11.549937686939183,140.77135260884015
1590504453.1355522,-0.9199527250206442,-3.3401418249380677,8.750189099917424,0.5244444444444445,0.20222222222222225,-0.6322222222222222,-3.0041365606936417,-11.627363748967795,144.6468646779521
1590504453.1455522,-0.9112939719240297,-3.366118084227911,8.78482411230388,0.5244444444444445,0.20222222222222225,-0.6322222222222222,-3.761777456647399,-12.060301403798514,148.65153798513626
1590504453.1555521,-0.963475067452783,-3.423475067452783,8.745437443789347,0.5244444444444445,0.20222222222222225,-0.6322222222222222,-2.5381233136804235,-12.013593609473368,153.5948492305386
1590504453.1655521,-0.97,-3.43,8.674329140461216,0.5244444444444445,0.20222222222222225,-0.6322222222222222,-2.0557666550197995,-11.6807666550198,156.99810010482182
1590504453.1755521,-1.0456372962575506,-3.4489093240643878,8.876911888772653,0.5423032505052551,0.1465447680326363,-0.652182064290187,-3.473882580231499,-13.394340768737557,160.78071533425572
1590504453.1855521,-1.0758103812429332,-3.415586158342756,8.846982697928444,0.5433333333333333,0.14333333333333334,-0.6533333333333333,-3.347413489642225,-12.747197213747787,164.1100260277772
1590504453.195552,-1.1282238570677876,-3.423778244876511,8.667771939043615,0.5433333333333333,0.14333333333333334,-0.6533333333333333,-2.7097017866526536,-12.754171045717289,167.25147792958487
1590504453.205552,-1.1937388374052231,-3.526225442291491,8.738712047177758,0.5433333333333333,0.14333333333333334,-0.6533333333333333,-3.148256107834878,-13.085867733782646,171.38987152485257
1590504453.215552,-1.2338849788146862,-3.519669012711188,8.719338025422376,0.5433333333333333,0.14333333333333334,-0.6533333333333333,-3.0805751059265694,-13.717987129257008,173.84559872888116
1590504453.225552,-1.2753040144819507,-3.476261314024066,8.7,0.548019261941102,0.10022279014186158,-0.6355268046238124,-2.894566606325205,-13.630983122138218,176.7103010861463
1590504453.235552,-1.3343661053775122,-3.503978815860945,8.733978815860945,0.5488888888888889,0.09222222222222222,-0.6322222222222222,-3.384682237914177,-13.987235198261814,177.48723519826183
1590504453.245552,-1.4707159398545289,-3.456733748654555,8.726275155745459,0.5488888888888889,0.09222222222222222,-0.6322222222222222,-3.9215605531817737,-14.385207035454515,177.24265917022734
1590504453.255552,-1.4546568314658364,-3.2223527910360144,8.710931366293169,0.5488888888888889,0.09222222222222222,-0.6322222222222222,-3.4898893539906584,-14.097426235993773,175.48131014063657
1590504453.265552,-1.5492689755288263,-3.259561385317296,8.729853795105766,0.5488888888888889,0.09222222222222222,-0.6322222222222222,-2.9825171954928797,-13.64887926862989,173.49256878197153
1590504453.275552,-1.6,-3.219750900853755,8.58612102091775,0.5429418752045507,0.06285884215580242,-0.6489481982094234,-2.45729542022398,-12.789368430495955,170.05360360191983
1590504453.285552,-1.6,-3.0880538568502267,8.297641781671924,0.5317929190984318,0.007810871381840723,-0.6803046372578825,-1.9085577368759439,-11.574306417368161,165.35013774465094
1590504453.295552,-1.6,-3.08,8.28,0.5311111111111111,0.004444444444444445,-0.6822222222222222,-1.875,-11.5,165.0625
1590504453.305552,-1.7461464543108818,-3.2261464543108818,8.993538571047246,0.5311111111111111,0.004444444444444445,-0.6822222222222222,-5.5286613577720445,-13.810403505649969,156.1432678619094
1590504453.315552,-1.6992330884078641,-3.0441326208228774,8.788332220035745,0.5311111111111111,0.004444444444444445,-0.6822222222222222,-3.752700122763626,-12.82041193515192,151.99353234279937
1590504453.325552,-1.832065002820079,-3.0082113649182176,8.69603250141004,0.5406702779344488,-0.04595843516951808,-0.6822222222222222,-1.557622144670051,-10.69380111393119,146.638313857163
1590504453.335552,-1.9562434708453256,-2.9995026116618697,8.849613900437054,0.5433333333333333,-0.06,-0.6822222222222222,-2.8850215861848416,-10.789021692783285,140.7019787336105
1590504453.345552,-1.9877077077077077,-2.8975075075075076,8.812922922922922,0.5433333333333333,-0.06,-0.6822222222222222,-3.3268268268268266,-11.274712212212211,134.08114364364366
1590504453.355552,-2.09143254950495,-2.743209313118812,8.781547287541253,0.5433333333333333,-0.06,-0.6822222222222222,-2.6785465655940595,-10.001434225453796,126.53994237314356
1590504453.365552,-2.1392353993818123,-2.7053823003090938,8.823853099072718,0.5433333333333333,-0.06,-0.6822222222222222,-2.592953541022721,-9.810907082045443,121.56990029011442
1590504453.375552,-2.1832113579116097,-2.682450652621937,8.868112663155484,0.5383004350812916,-0.07384047019311503,-0.6849483754420782,-2.6014082894435537,-9.686266315548432,115.94294710327456
1590504453.385552,-2.2633811977689,-2.62194256267732,8.84597128133866,0.5166666666666667,-0.13333333333333333,-0.6966666666666667,-2.3246410167332523,-8.378149547410882,105.5674613513983
1590504453.395552,-2.278525651270577,-2.555576953811731,8.79557695381173,0.5166666666666667,-0.13333333333333333,-0.6966666666666667,-1.981570640882212,-7.382211922646635,96.71354582867188
1590504453.405552,-2.2878389169867286,-2.518107388675514,8.77,0.5166666666666667,-0.13333333333333333,-0.6966666666666667,-1.6520135376658933,-7.025335589610982,88.56728429098376
1590504453.415552,-2.333203229219375,-2.5005133630801786,8.803203229219376,0.5166666666666667,-0.13333333333333333,-0.6966666666666667,-1.5889372211233268,-6.229210750264501,81.5803452320714
1590504453.425552,-2.40211575670901,-2.473942121645495,8.861410504472673,0.5101245680777944,-0.14760700298178214,-0.7127245450211716,-1.3864147808530327,-5.475361739715655,73.09289910546535
1590504453.435552,-2.460563503297895,-2.437077372526579,8.841795620877631,0.5044444444444445,-0.16,-0.7266666666666667,-0.9817335782911183,-4.70290146974671,63.59658765774177
1590504453.4455519,-2.47,-2.422508071778427,8.762572646005843,0.5044444444444445,-0.16,-0.7266666666666667,-0.7502017944606734,-4.250201794460674,55.86578197412638
1590504453.4555519,-2.507968952134541,-2.4048124191461837,8.81593790426908,0.5044444444444445,-0.16,-0.7266666666666667,-0.734961190168176,-3.6654269081500646,47.70504527813713
1590504453.4655519,-2.526240524443069,-2.381278426670792,8.846240524443068,0.5044444444444445,-0.16,-0.7266666666666667,-0.75,-3.1489705000773514,40.67957389000619
1590504453.4755518,-2.584946584457603,-2.349395030828399,8.877473292228801,0.49833926839359965,-0.16839461706991163,-0.7266666666666667,-0.5353649044624871,-2.5511568280324766,31.82985242048715
1590504453.4855518,-2.617922730682671,-2.347922730682671,8.897922730682671,0.4955555555555556,-0.17222222222222222,-0.7266666666666667,-0.5365341335333833,-1.7312781320330082,22.75028132033008
1590504453.4955518,-2.6678026596284643,-2.295368388996041,8.797565729367577,0.4955555555555556,-0.17222222222222222,-0.7266666666666667,-0.2210524312252563,-1.0503286468378845,15.556657953507258
1590504453.5055518,-2.69,-2.276986014171598,8.777944056686392,0.4955555555555556,-0.17222222222222222,-0.7266666666666667,-0.018837411427509887,-0.3758741142750988,7.6731641941562065
1590504453.5155518,-2.7007221482156627,-2.2907221482156626,8.83288859286265,0.4955555555555556,-0.17222222222222222,-0.7266666666666667,-0.20104027904367947,0.013540279043679465,1.488221271822197
1590504453.5255518,-2.704238114738841,-2.2942381147388407,8.87576188526116,0.4801905281924641,-0.1805449453772301,-0.7471533698174553,-0.30297643423550874,0.43958248017571944,-5.8723078999292655
1590504453.5355518,-2.738552955276604,-2.299638238819151,8.846266164132972,0.4688888888888889,-0.18666666666666668,-0.7622222222222222,0.08131445940831389,0.8960754667886204,-11.523254667886205
1590504453.5455518,-2.78355578156783,-2.320667344703489,8.79577687372868,0.4688888888888889,-0.18666666666666668,-0.7622222222222222,0.481947269597872,1.454183617587232,-16.348732592708497
1590504453.5555518,-2.7718373714143087,-2.344540657146423,8.792703285732113,0.4688888888888889,-0.18666666666666668,-0.7622222222222222,0.4773626785045729,2.0510164286605694,-22.167965894706814
1590504453.5655518,-2.753180234844654,-2.3563604696893083,8.83590117422327,0.4688888888888889,-0.18666666666666668,-0.7622222222222222,0.41475293555817744,2.2868823388954436,-26.57024095454801
1590504453.5755517,-2.751897073662967,-2.365948536831483,8.853794147325933,0.4738406772059648,-0.1884673169637852,-0.7703251485592556,0.6772515136226034,2.77853809283552,-31.78598007063572
1590504453.5855517,-2.7179947066304613,-2.376503970027154,8.857506616711925,0.4811111111111111,-0.19111111111111112,-0.7822222222222223,0.8687334582201904,3.4281828962293335,-37.388194754752
1590504453.5955517,-2.649751850239443,-2.39,8.839801480191555,0.4811111111111111,-0.19111111111111112,-0.7822222222222223,0.7182847191989552,3.719215280801045,-42.4822431432303
1590504453.6055517,-2.609063061231405,-2.4081261224628108,8.777342346921488,0.4811111111111111,-0.19111111111111112,-0.7822222222222223,0.7099661990444242,4.0673985971332725,-47.59487563959202
1590504453.6155517,-2.63615909660182,-2.4838636553394005,8.83618184854304,0.4811111111111111,-0.19111111111111112,-0.7822222222222223,0.711505646238624,4.341335215412875,-53.496165828254156
1590504453.6255517,-2.68053905119601,-2.554431240956808,8.885568759043192,0.4770392376183098,-0.2046840227537823,-0.7876513868792907,0.4341309300249361,5.0378024659052425,-59.3454480035711
1590504453.6355517,-2.679047482837529,-2.6119050343249426,8.814126620900076,0.4744444444444445,-0.21333333333333332,-0.7911111111111111,1.1418704710144927,6.0674640064836005,-64.8422840389016
1590504453.6455517,-2.5808466203085856,-2.5957102385802253,8.73513638172836,0.4744444444444445,-0.21333333333333332,-0.7911111111111111,1.3285511929011262,6.355362201774718,-69.74147614197747
1590504453.6555517,-2.6006456566420186,-2.6608608755226912,8.743692031467788,0.4744444444444445,-0.21333333333333332,-0.7911111111111111,1.33423007866947,6.585575196673675,-74.51324298943986
1590504453.6655517,-2.635595839465415,-2.7391708762579055,8.765595839465414,0.4744444444444445,-0.21333333333333332,-0.7911111111111111,1.409973996658844,7.177135953223818,-78.47570576946025
1590504453.6755517,-2.6343006016639317,-2.7984969916803406,8.80419639001641,0.4674785131448056,-0.22029926463297222,-0.7898445781475404,1.2950150415982957,7.8474699168034086,-84.82765495005326
1590504453.6855516,-2.593260697036348,-2.8444928686424342,8.811630348518175,0.4622222222222222,-0.2255555555555556,-0.7888888888888889,1.1875,8.0625,-88.1875
1590504453.6955516,-2.54941976765857,-2.885725290426788,8.753694477231782,0.4622222222222222,-0.2255555555555556,-0.7888888888888889,1.2196566130334845,8.319752904267876,-90.08474016897559
1590504453.7055516,-2.5132688133140375,-2.949039435600579,8.715577062228656,0.4622222222222222,-0.2255555555555556,-0.7888888888888889,1.2848566389290883,9.015636306078148,-95.46523380969609
1590504453.7155516,-2.50531886262579,-3.017232038380529,8.73595658787737,0.4622222222222222,-0.2255555555555556,-0.7888888888888889,1.1462855429440675,9.47472867423356,-99.80843011350339
1590504453.7255516,-2.4928645111991976,-3.0542838722002004,8.784270977601604,0.45889032162206617,-0.22031971175531043,-0.7788931870884208,1.0,9.535725798748746,-102.24951645255265
1590504453.7355516,-2.441023239345951,-3.06579535213081,8.80102323934595,0.4544444444444444,-0.21333333333333332,-0.7655555555555555,1.1086628524526845,9.75354665572293,-105.27127993433758
1590504453.7455516,-2.4243403116969,-3.139444987150393,8.736596883031003,0.4544444444444444,-0.21333333333333332,-0.7655555555555555,1.0247383113662665,9.883246103788755,-107.51433182043614
1590504453.7555516,-2.4212360378053273,-3.2352583773168035,8.687011169755738,0.4544444444444444,-0.21333333333333332,-0.7655555555555555,0.8125,9.757725236283294,-109.39437829876027
1590504453.7655516,-2.3574008837990914,-3.246440530279455,8.715480176759819,0.4544444444444444,-0.21333333333333332,-0.7655555555555555,0.9254955810045434,9.69774226675795,-112.12571575278521
1590504453.7755516,-2.3042094073877224,-3.2970555407919213,8.740948711134733,0.4790887884961762,-0.19212773496323854,-0.7518005728290076,1.0947382407653468,9.84078527770396,-114.34807666755249
1590504453.7855515,-2.28,-3.3844255528036236,8.73946805899547,0.5022222222222222,-0.17222222222222222,-0.7388888888888889,1.3158246312783095,9.635505221233014,-116.46795300890287
1590504453.7955515,-2.21781134949854,-3.4,8.676467944648978,0.5022222222222222,-0.17222222222222222,-0.7388888888888889,1.5929716262536497,9.484764186873175,-117.98009394439508
1590504453.8055515,-2.163169563233647,-3.416830436766353,8.633169563233647,0.5022222222222222,-0.17222222222222222,-0.7388888888888889,1.3018024907710815,9.507626819859803,-119.27139501845784
1590504453.8155515,-2.1295059974747477,-3.4668892045454545,8.685580808080807,0.5022222222222222,-0.17222222222222222,-0.7388888888888889,1.076852509469697,9.408794981060606,-120.05432252209596
1590504453.8255515,-2.1160595341386905,-3.552119068277381,8.800074417673363,0.5182817563609128,-0.15794708076560843,-0.756286717539137,1.3882441767336315,9.463523243008744,-120.23722093372488
1590504453.8355515,-2.0988178788472847,-3.588233679670653,8.741752597529896,0.5422222222222223,-0.13666666666666666,-0.7822222222222223,1.9448882572044697,9.61761174279553,-119.83084199176632
1590504453.8455515,-2.07,-3.614730641723893,8.650230878522377,0.5422222222222223,-0.13666666666666666,-0.7822222222222223,1.6288479753729577,9.189423987686478,-119.19086697845134
1590504453.8555515,-1.9568958387180149,-3.612298612906005,8.657701387093994,0.5422222222222223,-0.13666666666666666,-0.7822222222222223,1.419542086671836,8.760774747996898,-118.07255320065478
1590504453.8655515,-1.8740399251403619,-3.653186525265128,8.748933250155957,0.5422222222222223,-0.13666666666666666,-0.7822222222222223,1.8723331253898938,8.807166250779789,-116.45616812227074
1590504453.8755515,-1.8707646559048428,-3.7092279099405268,8.71999256584537,0.5093986594921175,-0.13666666666666666,-0.7644427924100822,2.0,8.985569774851317,-114.3700815101954
1590504453.8855515,-1.7907194672374838,-3.702320133190629,8.713120466167203,0.4888888888888889,-0.13666666666666666,-0.7533333333333333,1.4224937566892615,8.321493340468546,-112.70099001070282
1590504453.8955514,-1.7408840967610788,-3.71,8.770585445182274,0.4888888888888889,-0.13666666666666666,-0.7533333333333333,1.3253436695351675,8.176448790486516,-111.19309971710258
1590504453.9055514,-1.7018646080760094,-3.716101543942993,8.775255344418053,0.4888888888888889,-0.13666666666666666,-0.7533333333333333,1.9788078978622328,8.676903948931116,-109.11548025534442
1590504453.9155514,-1.6261571397987582,-3.713694283879255,8.648227146221366,0.4888888888888889,-0.13666666666666666,-0.7533333333333333,2.354366035110255,8.63176782273603,-105.77892849496895
1590504453.9255514,-1.4117883395428457,-3.490146007451415,8.6414416138019,0.48127129042243333,-0.10561030368804006,-0.7187611556778811,1.951186100761924,8.527372201523848,-103.05656949619038
1590504453.9355514,-1.4102773290817932,-3.612244435587069,8.597534666135223,0.4744444444444445,-0.07777777777777778,-0.6877777777777778,1.5299500199290943,7.246533386477585,-100.88867502989365
1590504453.9455514,-1.4809638491001627,-3.785156618920195,8.720337373419381,0.4744444444444445,-0.07777777777777778,-0.6877777777777778,0.48177698200325303,6.10888556587439,-98.44533094600976
1590504453.9555514,-1.4237068621185491,-3.728891596101614,8.727413724237099,0.4744444444444445,-0.07777777777777778,-0.6877777777777778,1.2614697335836396,6.965210097459658,-95.24322475635086
1590504453.9655514,-1.3711225678050432,-3.7264284050729395,8.656224513561009,0.4744444444444445,-0.07777777777777778,-0.6877777777777778,2.0918385170756495,7.5459192585378245,-92.09248295610934
1590504453.9755514,-1.3195711416318332,-3.735951902719722,8.687452907008305,0.48541549801253403,-0.04599955364951837,-0.6779416607856975,1.3909193311980892,6.780498479995657,-88.8322770207915
1590504453.9855514,-1.2845796672636196,-3.7478543434815332,8.787478003581718,0.5066666666666667,0.015555555555555557,-0.6588888888888889,1.452712567157206,6.150720885566716,-84.95201017415454
1590504453.9955513,-1.153993740374584,-3.599373540662725,8.78338293010085,0.5066666666666667,0.015555555555555557,-0.6588888888888889,4.416454493516817,4.14027025684336,-81.3441660663719
1590504454.0055513,-0.9530730575956707,-3.259114804793197,7.832371472748357,0.5066666666666667,0.015555555555555557,-0.6588888888888889,8.863439795129494,0.9134132199458832,-77.86458735987631
1590504454.0155513,-0.87566931878768,-3.4848287741459214,7.987609810113604,0.5066666666666667,0.015555555555555557,-0.6588888888888889,1.7933242422999633,5.2900163536070215,-74.121886919165
1590504454.0255513,-1.0333039618609239,-3.883325990465231,9.543237876048003,0.5066666666666667,0.05888154602078653,-0.6438451421995726,-8.710817031070196,7.7557475752096,-71.05224395857307
1590504454.0355513,-1.1074360746371803,-3.7809191430545956,8.804554250172771,0.5066666666666667,0.09555555555555556,-0.6311111111111111,0.40048375950241955,7.065566689702834,-66.69739115411195
1590504454.0455513,-1.0159487537852319,-3.6349359422315395,8.213737013743303,0.5066666666666667,0.09555555555555556,-0.6311111111111111,3.4117414977870957,5.828287328208711,-63.37696395294666
1590504454.0555513,-0.9476484730189713,-3.6277434481445336,8.719691033300803,0.5066666666666667,0.09555555555555556,-0.6311111111111111,-0.2897857108852443,3.2445073909214255,-60.978623158220465
1590504454.0655513,-0.9467850426119517,-3.782445909083208,9.098007997153555,0.5066666666666667,0.09555555555555556,-0.6311111111111111,0.3099129970688399,3.7451934480947457,-57.998765269988645
1590504454.0755513,-0.9816172496479275,-3.950660373767746,9.151981121303239,0.5080637917253454,0.1078968269072178,-0.6280840068173071,1.9700976287443384,4.961842956647509,-54.74629372359456
1590504454.0855513,-0.9359117823165458,-3.830607854877697,8.61806887987049,0.5133333333333333,0.15444444444444444,-0.6166666666666667,0.5566163262590647,3.8456495464928038,-50.73137460359701
1590504454.0955513,-0.9288310797570056,-3.9038952576915538,8.56220605526161,0.5133333333333333,0.15444444444444444,-0.6166666666666667,1.2256546394277876,3.481334509112287,-47.60553228493043
1590504454.1055512,-0.9219246111360256,-4.005481152784006,8.825188472159935,0.5133333333333333,0.15444444444444444,-0.6166666666666667,0.9296563362994783,3.11898559019992,-44.587860245002005
1590504454.1155512,-0.8879739191880259,-3.9959913063960086,8.719652255840346,0.5133333333333333,0.15444444444444444,-0.6166666666666667,1.1745653198004327,2.8617936446757026,-41.797663593927325
1590504454.1255512,-0.861794675912323,-3.948973379561615,8.574361227008286,0.5169801440389675,0.1731343493108199,-0.6280629501217737,1.1826996532878886,2.272433448904037,-39.0849095757184
1590504454.1355512,-0.8693874927979435,-4.006324956787661,8.71,0.5222222222222223,0.2,-0.6444444444444445,1.5644140850064265,2.1855859149935735,-36.16710987014138
1590504454.1455512,-0.89,-4.107303106972979,8.653257767432446,0.5222222222222223,0.2,-0.6444444444444445,1.239931434065378,1.989931434065378,-33.87522391458354
1590504454.1555512,-0.8834331588336795,-4.079850261749481,8.573133682332642,0.5222222222222223,0.2,-0.6444444444444445,1.099799301026526,1.6856282718685112,-31.472995203696662
1590504454.1655512,-0.8663655341479297,-4.096365534147929,8.658151453633124,0.5222222222222223,0.2,-0.6444444444444445,1.5739229421228023,1.7784921189719232,-28.455091067529782
1590504454.1755512,-0.8510874516929849,-4.087771862923246,8.755543725846492,0.5162805233508788,0.20445627415350753,-0.6414735950087728,1.5281844240268216,1.5139258567297111,-25.998336447163002
1590504454.1855512,-0.8138445177071147,-4.0707667765606725,8.709222588535575,0.4955555555555556,0.22,-0.6311111111111111,1.6585464745294056,1.466320589173668,-22.88917765606721
1590504454.1955512,-0.8151534925813904,-4.091672104598824,8.628634880563958,0.4955555555555556,0.22,-0.6311111111111111,0.9157413251089571,1.1789680035247327,-19.818052049346257
1590504454.2055511,-0.8335948794572547,-4.140784638371764,8.645228162985099,0.4955555555555556,0.22,-0.6311111111111111,1.0073559847352906,0.9824359932156846,-17.266763921980374
1590504454.2155511,-0.8226594275066662,-4.106648568766666,8.721329713753335,0.4955555555555556,0.22,-0.6311111111111111,0.6748642657499919,0.8125,-14.863721608250072
1590504454.2255511,-0.8361342243068718,-4.14033556076718,8.728067112153436,0.4955555555555556,0.22,-0.6311111111111111,0.9275167057538471,0.8125,-12.589849648215376
1590504454.235551,-0.8204288038132708,-4.026003253385791,8.70399674661421,0.5244444444444445,0.2466666666666667,-0.6444444444444445,1.1446196186729212,0.6446196186729213,-8.67849880835288
1590504454.245551,-0.8283623363849587,-4.137072709389423,8.592927290610577,0.5244444444444445,0.2466666666666667,-0.6444444444444445,0.3512663615041235,-0.1487336384958765,-6.1992698797003865
1590504454.255551,-0.7723971290901394,-4.104794258180278,8.537978468176044,0.5244444444444445,0.2466666666666667,-0.6444444444444445,0.25491925566016815,-0.6324910284066854,-1.5830741819721377
1590504454.265551,-0.7893092881191912,-4.138618576238382,8.664819660893933,0.5244444444444445,0.2466666666666667,-0.6444444444444445,0.730573728352251,-0.6853415253724723,1.7993576238382287
1590504454.275551,-0.8165208469359201,-4.255178854584461,8.77,0.5251932862813378,0.2464170527210356,-0.6444444444444445,0.3476019611043746,-0.9030815688834997,6.171223533252495
1590504454.285551,-0.6979080730701237,-3.9692516205067765,8.761938715380083,0.5311111111111111,0.24444444444444444,-0.6444444444444445,0.6333971714790807,-1.1417943429581614,9.869475545079553
1590504454.295551,-0.6593770638107987,-3.9605800981704595,8.625187862561358,0.5311111111111111,0.24444444444444444,-0.6444444444444445,0.7253625613565373,-1.193206157965194,12.836869701026327
1590504454.305551,-0.751775318887352,-4.1079889349930845,8.457517442753957,0.5311111111111111,0.24444444444444444,-0.6444444444444445,0.6072287536499155,-1.2455797602581835,14.237430843706777
1590504454.315551,-0.7675772860717593,-4.177886430358797,8.70608200500463,0.5311111111111111,0.24444444444444444,-0.6444444444444445,-1.0760250625578784,-2.7767348728154,15.189116899493627
1590504454.325551,-0.7563418217433888,-4.144877571008815,8.612193927522037,0.5373435629557078,0.24769615845032103,-0.6471542061160083,0.16616674828599415,-1.7027424094025465,16.684439275220374
1590504454.335551,-0.7404507281151745,-4.193934304153566,8.77315509680622,0.5822222222222222,0.27111111111111114,-0.6666666666666666,-0.5028170507198412,-1.8995894009597882,17.80199585263942
1590504454.345551,-0.7460643921191735,-4.194915905814512,8.781792407496395,0.5822222222222222,0.27111111111111114,-0.6666666666666666,-0.39854637193656894,-1.9928219605958675,18.47645362806343
1590504454.355551,-0.7134111166979019,-4.1777556337706265,8.531866800749645,0.5822222222222222,0.27111111111111114,-0.6666666666666666,-0.0043753142569822046,-1.8977779174475478,19.12645843808566
1590504454.365551,-0.7356909823315917,-4.249078690224544,8.723997128385115,0.5822222222222222,0.27111111111111114,-0.6666666666666666,-0.27693136042755157,-2.0298104534758505,19.266344773262073
1590504454.375551,-0.7756512884087488,-4.185651288408749,8.809128221021872,0.5938187864655587,0.2696615405806941,-0.6673914519318752,0.1223075135039405,-1.7948079009120694,19.33967944744532
1590504454.385551,-0.7464619817512406,-4.15430798783416,8.738308948295183,0.6888888888888889,0.2577777777777778,-0.6733333333333333,1.0206659196414278,-0.7394309268448855,19.495187690091242
1590504454.395551,-0.8448061216981826,-4.208728570377456,8.959720403208006,0.6888888888888889,0.2577777777777778,-0.6733333333333333,-1.154362261790891,-2.825969391509087,18.122576521227284
1590504454.405551,-0.8036041758379977,-4.134416703351991,8.661777875605308,0.6888888888888889,0.2577777777777778,-0.6733333333333333,-1.2446190491164077,-2.6802087918998807,17.727473901012516
1590504454.415551,-0.7838209861015031,-4.055283944406012,8.450757185082699,0.6888888888888889,0.2577777777777778,-0.6733333333333333,0.8985598390038363,-1.6910493050751525,17.851118836865606
1590504454.425551,-0.8073681328709619,-4.190130498266107,8.756710166088702,0.7114059743262152,0.2589474965017947,-0.6780122082294011,-0.8717033217740464,-2.0337139532761452,17.296050830443512
1590504454.435551,-0.7767472166453733,-4.07530206242015,8.718434020806717,0.9733849242562509,0.27255679260205634,-0.7324493926304476,-0.10618041613433105,-1.6987976820587698,17.104670104033584
1590504454.445551,-0.70743853782726,-3.897666527339742,8.624649086142037,1.0311111111111109,0.27555555555555555,-0.7444444444444445,-0.052302219097921494,-1.8343204962571722,16.476754569289813
1590504454.455551,-0.7711889653075958,-4.04907379260554,8.664493103317247,1.0311111111111109,0.27555555555555555,-0.7444444444444445,-0.5005474123190333,-1.485685345974085,16.277534483413763
1590504454.465551,-0.7045341101694915,-3.9639129237288135,8.763146610169493,1.0311111111111109,0.27555555555555555,-0.7444444444444445,0.5223874470338983,-0.9219703389830508,15.769539194915254
1590504454.475551,-0.6432056265037942,-3.8172916281078413,8.207923375902276,1.0770862552354314,0.25217670567106065,-0.7773117815205545,2.261424979949411,1.309392158677278,15.314894503053859
1590504454.4855509,-0.8097808908710699,-4.150398430704887,8.541992153524436,1.5533333333333332,0.01,-1.1177777777777778,-0.5933769916908784,-1.8279384958454392,12.06274867220608
1590504454.4955509,-0.9094770834097832,-4.31905875013761,9.37912333492349,1.5533333333333332,0.01,-1.1177777777777778,-4.003018237862831,-3.52654948442259,9.751960937213314
1590504454.5055509,-0.8711473335566223,-4.238360500167467,8.511636336571025,1.5533333333333332,0.01,-1.1177777777777778,0.8760385266644337,-0.47335417364444937,9.327880196122214
1590504454.5155509,-0.8916388423822053,-4.253159052858168,8.906436737622577,1.5533333333333332,0.01,-1.1177777777777778,-0.943733556565415,-1.3369947381009328,7.616981583353264
1590504454.5255508,-0.79,-4.1729293108024414,8.639040520215872,1.5045114866259695,0.007233428686582716,-1.0932041149350713,0.5,-0.8658459037423692,5.816918074847385
1590504454.5355508,-0.789877733212576,-4.209850562815371,8.879782636822359,0.8866666666666667,-0.027777777777777776,-0.7822222222222223,0.4990660175960668,-0.7499150925087333,3.4966886078406003
1590504454.5455508,-0.7053003567409677,-4.115901070222903,8.65904589747887,0.8866666666666667,-0.027777777777777776,-0.7822222222222223,0.14377229631048433,-0.4887366222137094,0.48277348145665233
1590504454.5555508,-0.7125688512944208,-4.158142212823606,8.540160253762659,0.8866666666666667,-0.027777777777777776,-0.7822222222222223,0.8534989426555866,-0.007167019114804482,-1.7752255117381752
1590504454.5655508,-0.6848512283368303,-4.151212807084208,8.727254208726395,0.8866666666666667,-0.027777777777777776,-0.7822222222222223,0.07394079697335154,-0.26701973434221615,-4.200517520527351
1590504454.5755508,-0.7789391816544191,-4.219257427158093,8.750106081834558,0.8866666666666667,-0.027777777777777776,-0.7822222222222223,0.43219590827209564,0.18219590827209564,-7.902360392302633
1590504454.5855508,-0.7549566265060241,-4.178261044176707,8.716608835341367,0.6659139669790273,0.12433752788933512,-0.7210050870147255,0.3853263052208835,0.23967369477911646,-10.75487951807229
1590504454.5955508,-0.6947281609497294,-4.089456321899459,8.695815517150812,0.6222222222222222,0.15444444444444444,-0.7088888888888889,0.575748323440318,0.8223503353119364,-15.344418106844566
1590504454.6055508,-0.7167605189893366,-4.133521037978673,8.62971844303199,0.6222222222222222,0.15444444444444444,-0.7088888888888889,0.34624459386107753,0.8682510812277845,-17.823058386300364
1590504454.6155508,-0.735261531284623,-4.181579489571792,8.648953874861508,0.6222222222222222,0.15444444444444444,-0.7088888888888889,0.4078845705288938,1.2697436196474041,-21.713975061713995
1590504454.6255507,-0.710803545396233,-4.1897321515345896,8.746785818415068,0.6222222222222222,0.15444444444444444,-0.7088888888888889,0.2550221587264564,1.3716518941823623,-24.108819513285518
1590504454.6355507,-0.6892753836348482,-4.112339559739177,8.755403735843506,0.5544444444444444,0.22,-0.7088888888888889,0.7258022013041133,1.5428310535863117,-27.195522013041135
1590504454.6455507,-0.6282392556280044,-4.0735214887439914,8.712392556280044,0.5544444444444444,0.22,-0.7088888888888889,0.8714720860501642,2.1139953476750275,-29.829718659273713
1590504454.6555507,-0.621611660318369,-4.081941698408155,8.63161166031837,0.5544444444444444,0.22,-0.7088888888888889,0.6229372619388361,2.052427123010194,-32.73349809551069
1590504454.6655507,-0.63,-4.035123890063425,8.647314164904863,0.5544444444444444,0.22,-0.7088888888888889,0.9476585623678647,2.0355549682875265,-35.49888477801269
1590504454.6755507,-0.63,-3.9819192389006344,8.727121141649048,0.5544444444444444,0.22,-0.7088888888888889,1.0585015856236786,2.4235055496828752,-38.214538847780126
1590504454.6855507,-0.5908084528887165,-3.8918190189996125,8.818180981000388,0.5468238658394726,0.246127698074189,-0.7088888888888889,0.8787896229158588,2.4987367923613806,-41.068155656262114
1590504454.6955507,-0.5374344793833354,-3.9202620824666585,8.68845515722501,0.5466666666666666,0.2466666666666667,-0.7088888888888889,1.2339654961458462,2.9936207634895386,-44.125172825156
1590504454.7055507,-0.5124047590433842,-3.997595240956616,8.622658734927693,0.5466666666666666,0.2466666666666667,-0.7088888888888889,1.1329117093298082,3.3591765813403835,-46.48735127989424
1590504454.7155507,-0.46199855786564115,-4.048001442134359,8.706669070223931,0.5466666666666666,0.2466666666666667,-0.7088888888888889,1.1854181688899572,3.2541636622200856,-48.06254506669871
1590504454.7255507,-0.42448754683711704,-4.032243773418559,8.727756226581443,0.5466666666666666,0.2466666666666667,-0.7088888888888889,1.4649410403350231,3.860370288737051,-49.73415803394313
1590504454.7355506,-0.38553797527539324,-4.057569619779685,8.564582281321888,0.5397742617217453,0.25126160329661423,-0.7196104076920999,1.8015427163403093,4.411352839963343,-50.75597308720941
1590504454.7455506,-0.40538896845635236,-4.193861389597234,8.976598316274846,0.5366666666666666,0.2533333333333333,-0.7244444444444444,0.38923263003458275,3.0767326300345825,-52.61797210675237
1590504454.7555506,-0.3322716550551319,-3.983881178342202,8.750285259750946,0.5366666666666666,0.2533333333333333,-0.7244444444444444,1.5565788030061989,3.8907681441658895,-53.386629820615504
1590504454.7655506,-0.37619593998234774,-3.947146954986761,8.763342894969108,0.5366666666666666,0.2533333333333333,-0.7244444444444444,0.8749103596646071,3.955331531332745,-55.29178618711386
1590504454.7755506,-0.3549892327570294,-3.983347689657294,8.611598474127852,0.5366666666666666,0.2533333333333333,-0.7244444444444444,1.594086476342829,4.510663415984741,-56.52132683196948
1590504454.7855506,-0.2528829363805611,-3.93,8.72,0.4833333333333333,0.22666666666666666,-0.6666666666666666,1.4756271265327086,4.275418084355139,-58.802926590485974
1590504454.7955506,-0.2057620209282917,-3.93,8.72,0.4833333333333333,0.22666666666666666,-0.6666666666666666,1.728060602169866,4.443707068113244,-59.98094947679271
1590504454.8055506,-0.1398425875166419,-3.9602623541389304,8.660026235413893,0.4833333333333333,0.22666666666666666,-0.6666666666666666,1.8121720573263371,4.6886477993578195,-62.56840296812593
1590504454.8155506,-0.0905713055055212,-4.042381157490798,8.66823811574908,0.4833333333333333,0.22666666666666666,-0.6666666666666666,1.7095235531365025,5.047917564022241,-64.41607604354296
1590504454.8255506,0.2570230179028133,-12.326976380321948,-10.550224462163383,0.4833333333333333,0.22666666666666666,-0.6666666666666666,-19.87206070407703,24.578166842184444,-116.48110237701218
1590504454.8355505,-10.83,-10.85,0.85,0.4388888888888889,0.3622222222222222,-0.6733333333333333,-112.25,75.9375,-765.9375
1590504454.8455505,1.5847307592518338,0.2589732764110668,0.9468655801118004,0.4388888888888889,0.3622222222222222,-0.6733333333333333,-167.26218099157958,49.00443280184919,-238.6188778097507
1590504454.8555505,-0.17959301760186713,-0.26953928814548284,-0.20325051055139548,0.4388888888888889,0.3622222222222222,-0.6733333333333333,-134.4547766945444,-21.89497988184382,-15.274043020033064
1590504454.8655505,0.5628602150537635,-0.32701075268817204,2.0880286738351255,0.4388888888888889,0.3622222222222222,-0.6733333333333333,-133.53767921146954,-13.459408602150537,-3.6694444444444443
1590504454.8755505,2.312193548387097,-1.3656774193548387,6.55247311827957,0.4388888888888889,0.3622222222222222,-0.6733333333333333,-113.77795698924731,-16.70524193548387,3.3916666666666675
1590504454.8855505,-0.04754255922021988,-0.2647462314405531,1.1741246741471156,0.38,0.48,-0.6377777777777778,63.946514790887456,-12.544330159809588,0.6532585288450641
1590504454.8955505,0.9099059519011151,-1.5050658336692195,8.161222625285504,0.38,0.48,-0.6377777777777778,115.64001970531595,3.206295624524161,3.355616574857808
1590504454.9055505,1.7518792155235032,-1.361306008093805,6.564326865207015,0.38,0.48,-0.6377777777777778,193.37876154404898,8.233674898827436,-0.9035540105842067
1590504454.9155505,7.018147763826917,-1.6398524437065476,21.28376507211788,0.38,0.48,-0.6377777777777778,254.58281233786448,4.751844453668154,-4.494191657154716
1590504454.9255505,1.4943252540696106,0.7307739005306235,2.3830710945228866,0.38,0.48,-0.6377777777777778,187.8086763085709,-29.16699596411548,-0.535884521989388
1590504454.9355505,0.5573556258070261,0.1941097110289861,-0.08444899594817229,0.38,0.5099860981244836,-0.6377777777777778,56.74309575225966,-25.288528540896746,11.471186384077653
1590504454.9455504,0.5921662063036202,-0.18625935207712147,1.7611579197687819,0.38,0.5155555555555555,-0.6377777777777778,8.22576577276968,-2.5863592295168942,21.1278307754221
1590504454.9555504,2.4740857530927647,-4.407906464520392,21.320725010095078,0.38,0.5155555555555555,-0.6377777777777778,-63.342865533570716,36.270901398627075,34.536144965309646
1590504454.9655504,0.2634273292430214,-1.546592174231035,5.060538986631993,0.38,0.5155555555555555,-0.6377777777777778,-78.57706792694324,-4.8908148287351185,34.517977225630815
1590504454.9755504,0.7746987119580676,-4.767601885335825,16.453369631465602,0.38,0.5155555555555555,-0.6377777777777778,0.8297687009873584,-0.25741792288001264,34.091917740034944
1590504454.9855504,0.23574517558677988,-2.615378699048035,6.880132559572312,0.38689795584880743,0.4543361973973894,-0.661058378767503,47.926574269133695,4.476113937635391,37.65159265258263
1590504454.9955504,0.19854274113903217,-2.1327462599217233,4.539275394125608,0.3888888888888889,0.43666666666666665,-0.6677777777777778,20.028002578733677,-0.9814619225282564,39.98125845861224
1590504455.0055504,0.1755300120706683,-2.8077863125937306,8.15994476754819,0.3888888888888889,0.43666666666666665,-0.6677777777777778,-21.970227971030397,-7.59762152968287,41.65926995318044
1590504455.0155504,0.22103896103896103,-2.884935064935065,8.369253246753246,0.3888888888888889,0.43666666666666665,-0.6677777777777778,-15.413352272727273,-3.927150974025974,48.58421266233766
1590504455.0255504,0.13411646863774523,-3.029805885603758,8.362009705719812,0.3888888888888889,0.43666666666666665,-0.6677777777777778,10.889756104932303,-2.6142591617159434,52.43234383634982
1590504455.0355504,0.1382501391723882,-3.717749118574875,10.745579884950825,0.4088888888888889,0.4244444444444445,-0.6911111111111111,5.8687256448320655,-0.5922017071812953,57.1937511597699
1590504455.0455503,0.5820782868570659,-3.5401909983596616,8.566163629418241,0.4088888888888889,0.4244444444444445,-0.6911111111111111,-8.163908893782441,-8.804612891265757,58.04306310810507
1590504455.0555503,6.007911441802383,-8.708690358499402,6.27995733388834,0.4088888888888889,0.4244444444444445,-0.6911111111111111,-4.102385660023935,-6.792919766897342,60.25211704563193
1590504455.0655503,5.241056274218735,-19.124520444949972,9.693531645813652,0.4088888888888889,0.4244444444444445,-0.6911111111111111,-11.849358263769737,-3.0691631643885793,-6.619865869175454
1590504455.0755503,0.6401102735632627,-3.8742846677334164,9.620757455996607,0.4088888888888889,0.4244444444444445,-0.6911111111111111,-22.108497522700546,1.0749226446376587,-160.55749238495497
1590504455.0855503,1.910135526085859,0.45505523950061155,11.865494825544143,0.4219977477040172,0.41442002299758157,-0.6911111111111111,4.1783112148806865,11.837226714948644,-90.0130890433567
1590504455.0955503,0.8578711330332343,0.7932267024231396,5.211484532132936,0.42777777777777776,0.41,-0.6911111111111111,42.37662520352457,10.670152523704626,-24.26809572837851
1590504455.1055503,1.1128188392186324,-1.3919477836213374,7.412201352366642,0.42777777777777776,0.41,-0.6911111111111111,-0.834710743801653,-10.548213279489106,-0.829061208677686
1590504455.1155503,-0.1812275597375263,-3.137838925343568,9.823753869010773,0.42777777777777776,0.41,-0.6911111111111111,-42.5651850934753,6.4061339296768605,10.528808654203294
1590504455.1255503,-1.6612021790268665,-7.300808468490777,7.158068589822954,0.42777777777777776,0.41,-0.6911111111111111,-10.109601337130123,-1.0045576946886223,14.856219821715984
1590504455.1355503,-0.9216634997044169,-5.639250907862511,8.236101258339668,0.4155555555555556,0.43,-0.6911111111111111,9.64427624356051,0.9047377755257158,42.91601743940546
1590504455.1455503,1.4781661177265433,-6.560218731526053,8.537186892998903,0.4155555555555556,0.43,-0.6911111111111111,-5.188618993328268,-9.05765454775779,75.23844586605861
1590504455.1555502,-0.4457600421488659,-3.0523207310648033,9.29243827553004,0.4155555555555556,0.43,-0.6911111111111111,-2.0868945642497687,-4.4864764820231455,32.17420811910688
1590504455.1655502,-2.713750367683106,-4.701902539464653,6.770505539758799,0.4155555555555556,0.43,-0.6911111111111111,14.09569688204726,10.19702912050201,-33.67569124423963
1590504455.1755502,-1.0276409451907047,-4.241306794783802,9.328456907539955,0.4155555555555556,0.43,-0.6911111111111111,-0.9661952152171782,2.4861628591038336,-9.514976958525345
1590504455.1855502,0.4675315582186017,-5.495128925842394,8.638077894099034,0.43,0.4177777777777778,-0.6911111111111111,-6.2086808243848255,-6.92864791968223,20.352016149392398
1590504455.1955502,-0.45019658666307605,-4.542103544619113,8.609840105025752,0.43,0.4177777777777778,-0.6911111111111111,-1.9288909179654627,-2.2076425589928306,7.159674066718283
1590504455.2055502,0.13828990615919592,-4.531881103224885,8.531881103224883,0.43,0.4177777777777778,-0.6911111111111111,3.3723026723193446,0.9850366788929643,-6.118536535988187
1590504455.2155502,0.040670867456468154,-4.638255744613183,8.64040252047388,0.43,0.4177777777777778,-0.6911111111111111,-0.3741614156794148,0.11996849407648882,1.4182125606265406
1590504455.2255502,0.08235708038482945,-4.529871590999443,8.665414248230897,0.43,0.4177777777777778,-0.6911111111111111,-0.3220536495189632,-0.1926781028862209,0.21973393893615345
1590504455.2355502,0.09,-4.729449243344748,8.639731138849001,0.42411438810952784,0.4118921658873056,-0.6953151196043055,-0.643565668839059,-0.15540980890312606,-0.14188528664531094
1590504455.2455502,0.061053648556490106,-4.49105364855649,8.609297567629007,0.4222222222222222,0.41,-0.6966666666666667,-0.239024494203228,0.0,-0.0646951011593544
1590504455.2555501,0.08965764946578768,-4.519657649465787,8.590228233689475,0.4222222222222222,0.41,-0.6966666666666667,0.058933848601955,0.0,-0.12428676972039099
1590504455.2655501,0.09650606003516704,-4.552530300175835,8.668072720422005,0.4222222222222222,0.41,-0.6966666666666667,0.5504545026375283,-0.08132575043958803,-0.003011374340617934
1590504455.2755501,0.08772032682592154,-4.5945593463481575,8.697720326825921,0.4222222222222222,0.41,-0.6966666666666667,0.428760213310048,-0.04825204266200961,-0.014247957337990391
1590504455.28555,0.10646742860553252,-4.698224762018442,8.654710095192623,0.4290841481569899,0.41686192593476773,-0.6711795131946724,-0.19848333383068245,-0.05514047626152607,-0.007359523738473928
1590504455.29555,0.09325865221509924,-4.576069217720794,8.599775956645297,0.43,0.4177777777777778,-0.6677777777777778,-0.25,0.09445013548344458,-0.05231671182781486
1590504455.30555,0.09585542372881356,-4.6261205084745765,8.554867457627118,0.43,0.4177777777777778,-0.6677777777777778,0.07936758474576272,-0.05798199152542374,-0.0625
1590504455.31555,0.09274905683843954,-4.549483023091912,8.617011317938726,0.43,0.4177777777777778,-0.6677777777777778,0.5390919737987645,-0.2781367895195058,-0.01718160524024709
1590504455.32555,0.07643359329978101,-4.5474824234507665,8.670349610050328,0.43,0.4177777777777778,-0.6677777777777778,0.4130248953090784,-0.14291991624726266,-0.042395020938184334
1590504455.33555,0.07,-4.602618531344056,8.671845367163986,0.43,0.4177777777777778,-0.6967720278613836,-0.24813100747597017,-0.16443291045017638,-0.0625
1590504455.34555,0.07656325835778188,-4.6493795501466915,8.630620449853309,0.43,0.4177777777777778,-0.7033333333333334,-0.5390814589445471,-0.14647963526386323,0.019540729472273533
1590504455.35555,0.07186813965016642,-4.613076977551165,8.561208837900999,0.43,0.4177777777777778,-0.7033333333333334,-0.2184069825083209,-0.07417587281354011,-0.08997238155937964
1590504455.36555,0.07,-4.579420601661304,8.625457793908554,0.43,0.4177777777777778,-0.7033333333333334,0.13224247923370502,-0.0625,-0.039252506922098335
1590504455.37555,0.07603352759191309,-4.606201165551479,8.690167637959567,0.43,0.4177777777777778,-0.7033333333333334,0.3254190948989136,-0.024790452550543206,0.0
1590504455.38555,0.08574803149606298,-4.584015748031496,8.704251968503938,0.43,0.4248031496062992,-0.6911986001749781,0.05167322834645671,-0.0718503937007874,-0.0718503937007874
1590504455.39555,0.09611586622285624,-4.5989269297828494,8.62049373910287,0.43,0.43,-0.6822222222222222,-0.1875,0.027896655571405915,-0.1632241638928515
1590504455.40555,0.07895820995442492,-4.6159721399696165,8.541944279939234,0.43,0.43,-0.6822222222222222,-0.05598881221515564,0.08116293740505189,-0.05598881221515564
1590504455.41555,0.07,-4.640175508377666,8.612982648038582,0.43,0.43,-0.6822222222222222,0.18859692736041364,0.01535076815989659,-0.09429846368020682
1590504455.42555,0.07,-4.577129545454546,8.673122933884297,0.43,0.43,-0.6822222222222222,0.4156146694214876,-0.041403667355371904,0.040614669421487615
1590504455.43555,0.07,-4.569487260688067,8.69,0.4349145434480111,0.4152563696559666,-0.692870399692913,0.22355693104937385,-0.016426155174895637,0.032852310349791275
1590504455.44555,0.07706726109711184,-4.622403566582671,8.668798216708664,0.43666666666666665,0.41,-0.6966666666666667,-0.0958519092847451,0.08834076371389804,-0.04417038185694902
1590504455.45555,0.09112677992732987,-4.634436610036335,8.59323932043602,0.43666666666666665,0.41,-0.6966666666666667,-0.32658474909162327,0.020686438181282532,-0.09727118727290582
1590504455.46555,0.0857481590574374,-4.608622238586156,8.611259204712812,0.43666666666666665,0.41,-0.6966666666666667,-0.03666697349042708,-0.017962997054491905,-0.125
1590504455.47555,0.08,-4.593809368369512,8.67095315815244,0.43666666666666665,0.41,-0.6966666666666667,0.20238289538110005,-0.07738289538110005,-0.16369144769055002
1590504455.48555,0.07291136240520044,-4.59,8.69,0.43666666666666665,0.4202391431924883,-0.7029676778620441,0.028480075162513552,0.007911954902491886,-0.1875
1590504455.49555,0.07,-4.583971215737326,8.696028784262674,0.43666666666666665,0.4244444444444445,-0.7055555555555556,-0.17553970492514645,-0.012859803283430962,-0.07446029507485355
1590504455.50555,0.08341818059706504,-4.620254541791195,8.585945464924947,0.43666666666666665,0.4244444444444445,-0.7055555555555556,-0.04034092817085866,-0.10443181436582827,-0.20965907182914134
1590504455.51555,0.08260451418447876,-4.625209028368958,8.574372914893127,0.43666666666666665,0.4244444444444445,-0.7055555555555556,0.33983071808204685,0.05988714538803119,-0.17383464095897658
1590504455.52555,0.08626455004807397,-4.6137354499519265,8.627587300288443,0.43666666666666665,0.4244444444444445,-0.7055555555555556,0.5158068756009246,0.007539686598612996,-0.046693124399075345
1590504455.5355499,0.09,-4.580317405608648,8.68710324298919,0.4259479520253451,0.4137257298031229,-0.7039065225338138,0.28422567758107475,0.030258107472975096,0.04637905373648755
1590504455.5455499,0.09,-4.586090785422782,8.675863821865827,0.4222222222222222,0.41,-0.7033333333333334,-0.063918522230973,-0.1386348177847784,0.0122162955538054
1590504455.5555499,0.0702936711816908,-4.616275105091079,8.597743460999533,0.4222222222222222,0.41,-0.7033333333333334,-0.2481645551144325,-0.0643354448855675,0.0
1590504455.5655499,0.08995103021343435,-4.637487757553358,8.552512242446642,0.4222222222222222,0.41,-0.7033333333333334,-0.1253060611660353,-0.14039545412547352,-0.09359696941698235
1590504455.5755498,0.1,-4.614586961018447,8.632592376690047,0.4222222222222222,0.41,-0.7033333333333334,0.13603936704338176,-0.06837637977397093,0.033831493634705445
1590504455.5855498,0.09341009380753383,-4.580230281422602,8.706359624769865,0.4192933750255706,0.41,-0.6952790035425414,0.20881308629708642,-0.04118691370291359,0.08381308629708642
1590504455.5955498,0.09,-4.590289071575373,8.699710928424627,0.4177777777777778,0.41,-0.6911111111111111,-0.27745789026896617,0.02203779823072112,-0.06430669734608169
1590504455.6055498,0.08324599601446601,-4.593245996014466,8.62245996014466,0.4177777777777778,0.41,-0.6911111111111111,-0.37336242527123775,0.020287475090412573,0.04385009963834971
1590504455.6155498,0.08732925430210325,-4.6046585086042064,8.604658508604206,0.4177777777777778,0.41,-0.6911111111111111,-0.08346080305927345,-0.04580783938814531,-0.05823135755258124
1590504455.6255498,0.09,-4.6216221606648205,8.62743324099723,0.4177777777777778,0.41,-0.6911111111111111,0.10895775623268697,-0.09881925207756233,-0.052361495844875344
1590504455.6355498,0.09,-4.61701587622611,8.685444433208616,0.4206631386164201,0.41937742272558737,-0.7004885338366985,0.3903769339670341,-0.0844246132065932,0.0
1590504455.6455498,0.09500587320232388,-4.61,8.684970633988382,0.4222222222222222,0.4244444444444445,-0.7055555555555556,0.31227975491285437,-0.0625,-0.031286707514524274
1590504455.6555498,0.08888350715927171,-4.606294502386424,8.626650521477815,0.4222222222222222,0.4244444444444445,-0.7055555555555556,0.03236255966059749,-0.08565936008485063,-0.016181279830298746
1590504455.6655498,0.07491399140931947,-4.60491399140932,8.589655965637277,0.4222222222222222,0.4244444444444445,-0.7055555555555556,-0.125,-0.09428755369175336,0.0010751073835067113
1590504455.6755497,0.09276969027659254,-4.614256563425531,8.61425656342553,0.4222222222222222,0.4244444444444445,-0.7055555555555556,-0.018585914361728836,-0.08910352140956779,-0.0625
1590504455.6855497,0.09730236276425652,-4.594604725528513,8.649627820216734,0.4283358994098024,0.4244444444444445,-0.6994418783679754,0.1514534109077989,-0.0720931781844022,-0.009593178184402203
1590504455.6955497,0.08,-4.575679876951271,8.695226625650424,0.43666666666666665,0.4244444444444445,-0.6911111111111111,0.12216717936970252,0.06533282063029748,-0.035499230945446214
1590504455.7055497,0.07339920376402462,-4.596600796235975,8.620790445168295,0.43666666666666665,0.4244444444444445,-0.6911111111111111,-0.1437748823742309,0.001235070575461461,-0.08374502352515381
1590504455.7155497,0.08337735622523712,-4.620066034337856,8.600066034337855,0.43666666666666665,0.4244444444444445,-0.6911111111111111,-0.25,-0.10430423820386601,-0.020695761796133985
1590504455.7255497,0.09,-4.6349535489319775,8.619907097863955,0.43666666666666665,0.4244444444444445,-0.6911111111111111,-0.15712095752542493,-0.09404031917514163,0.0
1590504455.7355497,0.07989330894680689,-4.634946654473403,8.64516003657979,0.4231910785957425,0.4171451675726939,-0.683250351403072,0.0006668190824569431,0.0006668190824569431,0.0
1590504455.7455497,0.07,-4.608314488955447,8.68891401472607,0.41,0.41,-0.6755555555555556,0.15285629601896916,0.017321851990515412,-0.09035629601896918
1590504455.7555497,0.06283879806799182,-4.6071612019320085,8.62122677874791,0.41,0.41,-0.6755555555555556,0.14274248792494892,-0.13427253622515326,0.009272536225153255
1590504455.7655497,0.08092129347162905,-4.603026235509457,8.603947528981086,0.41,0.41,-0.6755555555555556,0.08141397193410616,-0.14391397193410616,0.0625
1590504455.7755497,0.09436147689905254,-4.608722953798105,8.618722953798105,0.41,0.41,-0.6755555555555556,0.007981538761843272,-0.07048153876184327,0.007981538761843272
1590504455.7855496,0.09712273114474805,-4.618561365572374,8.632877268855253,0.40904091038158263,0.41,-0.6819494863450043,-0.026534139309350627,-0.008991465172662343,-0.07149146517266235
1590504455.7955496,0.09091084736406294,-4.61,8.655455423682032,0.4033333333333333,0.41,-0.72,0.2556927960253933,-0.028403601987303337,-0.056807203974606674
1590504455.8055496,0.09346113636363636,-4.596922272727273,8.627305681818182,0.4033333333333333,0.41,-0.72,0.06729261363636363,0.0,0.04086789772727272
1590504455.8155496,0.10330676695474583,-4.59,8.616653383477372,0.4033333333333333,0.41,-0.72,-0.14566729346716145,-0.08316729346716147,0.0625
1590504455.8255496,0.08882798573975045,-4.616465017825312,8.635879010695186,0.4033333333333333,0.41,-0.72,-0.25366254456327986,-0.025756183155080214,0.02941872771836007
1590504455.8355496,0.0802335382274942,-4.629766461772506,8.653411179409165,0.4124298117577726,0.4149272591465713,-0.7120405813786156,-0.22722051477088173,0.0625,-0.021319871307279567
1590504455.8455496,0.09227320654508533,-4.61,8.66,0.43,0.4244444444444445,-0.6966666666666667,-0.014207540906783299,-0.009938688639825041,-0.0625
1590504455.8555496,0.08453938145757256,-4.61,8.632763711254565,0.43,0.4244444444444445,-0.6966666666666667,0.0625,-0.03988659767051453,-0.0057577317803430145
1590504455.8655496,0.08615859519408503,-4.61,8.611524214417745,0.43,0.4244444444444445,-0.6966666666666667,0.038491219963031426,0.038491219963031426,-0.009526340110905737
1590504455.8755496,0.08,-4.605211998409302,8.639576003181396,0.43,0.4244444444444445,-0.6966666666666667,-0.029925009941863766,-0.029925009941863766,-0.06514998011627246
1590504455.8855495,0.08,-4.610001387154945,8.655000693577472,0.43333379571831504,0.4244444444444445,-0.7011117276244201,8.669718407544602e-06,-0.12500866971840754,-0.1250173394368151
1590504455.8955495,0.09313749821028015,-4.61343125089486,8.64686250178972,0.43666666666666665,0.4244444444444445,-0.7055555555555556,0.18566404572137643,-0.14644531809287453,-0.16789063618574906
1590504455.9055495,0.1,-4.603991498637602,8.61596599455041,0.43666666666666665,0.4244444444444445,-0.7055555555555556,0.28755313351498635,-0.04989373297002725,-0.04989373297002725
1590504455.9155495,0.09416738652911123,-4.6,8.629163067354444,0.43666666666666665,0.4244444444444445,-0.7055555555555556,0.13023082903472616,-0.1093615025791643,0.0
1590504455.9255495,0.0860262611205379,-4.592052522241076,8.65,0.43666666666666665,0.4244444444444445,-0.7055555555555556,-0.14901520797982842,-0.13782826400672385,0.0
1590504455.9355495,0.07883462425353278,-4.5834961272394015,8.654661502985869,0.4349833461439918,0.4227611239217696,-0.7038722350328808,-0.3604328031691598,-0.0625,0.0
1590504455.9455495,0.07,-4.613749339302926,8.678751982091223,0.4222222222222222,0.41,-0.6911111111111111,-0.10939977614028543,-0.03906662935671423,-0.023433370643285763
1590504455.9555495,0.08297648992849929,-4.615674503357167,8.61674503357167,0.4222222222222222,0.41,-0.6911111111111111,0.09796564598229317,-0.05406870803541366,-0.008431291964586342
1590504455.9655495,0.10862985685071574,-4.6056850715746425,8.603149284253579,0.4222222222222222,0.41,-0.6911111111111111,0.08946830265848671,-0.1519683026584867,-0.018404907975460114
1590504455.9755495,0.1019768707232049,-4.604505782319198,8.664505782319198,0.4222222222222222,0.41,-0.6911111111111111,0.012355442020030624,-0.15933886050500765,-0.040516581515022965
1590504455.9855494,0.08,-4.61731993736952,8.665120041753653,0.4257466365112503,0.4086444560426815,-0.6911111111111111,-0.10975013048016702,-0.125,0.03200026096033403
1590504455.9955494,0.08,-4.64,8.653226705851324,0.43666666666666665,0.4044444444444445,-0.6911111111111111,-0.04233308842922271,-0.1048330884292227,-0.0625
1590504456.0055494,0.0867552077971104,-4.629867188304334,8.639601564913002,0.43666666666666665,0.4044444444444445,-0.6911111111111111,0.14694009746388004,-0.06333007309791001,-0.08361002436597001
1590504456.0155494,0.09641152939495679,-4.61,8.58598078434174,0.43666666666666665,0.4044444444444445,-0.6911111111111111,0.29754803914565325,-0.17254803914565325,-0.11004803914565325
1590504456.0255494,0.07290445560351343,-4.604191088792973,8.641617822414053,0.43666666666666665,0.4044444444444445,-0.6911111111111111,0.15119430495608216,-0.08065284752195892,0.01815284752195892
1590504456.0355494,0.07994860856859748,-4.590102782862805,8.66979443427439,0.43666666666666665,0.4044444444444445,-0.6911111111111111,0.06314239289253144,-0.12467880355373429,0.06217880355373428
1590504456.0455494,0.09188381599401232,-4.592174276008982,8.655651447982036,0.43,0.4244444444444445,-0.7111111111111111,-0.1503630750187115,-0.025363075018711496,-0.125
1590504456.0555494,0.08,-4.61,8.582672974867327,0.43,0.4244444444444445,-0.7111111111111111,-0.12084459797737059,-0.029172298988685293,-0.09167229898868529
1590504456.0655494,0.08493507318829835,-4.605064926811702,8.574675365941491,0.43,0.4244444444444445,-0.7111111111111111,-0.0008115851462706797,0.0,-0.0625
1590504456.0755494,0.08662081888878478,-4.596620818888785,8.623654267778507,0.43,0.4244444444444445,-0.7111111111111111,0.0625,0.0,-0.0625
1590504456.0855494,0.08234224977856511,-4.592342249778565,8.67468449955713,0.42817825017222716,0.42288294459206777,-0.704344611750812,0.003943755535872451,-0.029278122232063775,-0.033221877767936225
1590504456.0955493,0.09,-4.604736817578116,8.675789547265651,0.4222222222222222,0.4177777777777778,-0.6822222222222222,-0.21710510986322437,-0.15460510986322437,0.0625
1590504456.1055493,0.0977070101738109,-4.617707010173811,8.625318454217851,0.4222222222222222,0.4177777777777778,-0.6822222222222222,-0.17774677962052282,-0.04299355924104564,0.038415593206840945
1590504456.1155493,0.10263136876435155,-4.615262737528703,8.59579020932477,0.4222222222222222,0.4177777777777778,-0.6822222222222222,-0.03947302738859862,0.11841908216579587,0.0
1590504456.1255493,0.08570996245166353,-4.594290037548336,8.657160150193347,0.4222222222222222,0.4177777777777778,-0.6822222222222222,0.05362546935420597,-0.05362546935420597,0.0
1590504456.1355493,0.07786379511059371,-4.602136204889406,8.68,0.4238837149139827,0.41920191437071536,-0.6822222222222222,0.11164871944121071,-0.09829743888242143,0.02670256111757858
1590504456.1455493,0.07002422064223768,-4.61,8.679830455504336,0.43,0.4244444444444445,-0.6822222222222222,0.062348620986014534,0.0003027580279709352,0.1245458629580436
1590504456.1555493,0.08,-4.61,8.592188890899221,0.43,0.4244444444444445,-0.6822222222222222,-0.01855323864664375,0.125,-0.04394676135335625
1590504456.1655493,0.08256271581312144,-4.608718642093439,8.558969505345926,0.43,0.4244444444444445,-0.6822222222222222,-0.03847453925198652,0.125,0.016016973832008986
1590504456.1755493,0.09272140813318304,-4.6,8.634557183733634,0.43,0.4244444444444445,-0.6822222222222222,0.125,0.011272002080985,0.079508800832394
1590504456.1855493,0.07811224672763134,-4.6018877532723685,8.665663259817107,0.4335657561811408,0.4231859422628654,-0.6849489769489769,0.10140308409539178,-0.14030616819078356,0.011798457952304105
1590504456.1955492,0.07346142132889057,-4.613461421328891,8.679615736013329,0.4488888888888889,0.4177777777777778,-0.6966666666666667,-0.04326776661113201,0.019232233388867988,0.019232233388867988
1590504456.2055492,0.08176489658302535,-4.61647020683395,8.644115930752772,0.4488888888888889,0.4177777777777778,-0.6966666666666667,-0.125,-0.040438792712183105,-0.05146939635609155
1590504456.2155492,0.08586061061061061,-4.6,8.598975725725726,0.4488888888888889,0.4177777777777778,-0.6966666666666667,-0.09912881631631631,0.036628816316316315,0.05174236736736737
