time,acc_x,acc_y,acc_z,mag_x,mag_y,mag_z,gyr_x,gyr_y,gyr_z
1590504617.8077762,0.04,-4.54,8.62,0.4633333333333333,0.3144444444444445,-0.6255555555555555,0.0,0.375,0.0
1590504617.8177762,0.04,-4.5476814460743915,8.67377012252074,0.4633333333333333,0.3144444444444445,-0.6255555555555555,-0.09601807592989396,0.23097288610515906,0.09601807592989396
1590504617.8277762,0.04,-4.54035728398314,8.699642716016859,0.47083322356866875,0.306944554209109,-0.6598407680599461,-0.06473302489462593,0.12723302489462593,0.24553395021074814
1590504617.8377762,0.04,-4.525865707268135,8.692932853634067,0.4711111111111111,0.30666666666666664,-0.6611111111111111,-0.15083932957415158,0.125,0.07332134085169681
1590504617.8477762,0.05865676099454939,-4.566641902486373,8.58738781452998,0.4711111111111111,0.30666666666666664,-0.6611111111111111,-0.24580237810796685,0.06669762189203315,-0.1166047562159337
1590504617.8577762,0.042865313613761016,-4.544297970420642,8.657106088738075,0.4711111111111111,0.30666666666666664,-0.6611111111111111,-0.19645410504300317,0.008954105043003181,-0.017908210086006363
1590504617.8677762,0.032376603985891414,-4.562870188042326,8.700493584056435,0.4711111111111111,0.30666666666666664,-0.6611111111111111,-0.33043867526453596,-0.04764622508817865,0.0
1590504617.8777761,0.04885314117527656,-4.557431239216482,8.71,0.46622325969529865,0.30666666666666664,-0.6387666474959685,0.01777377448492845,-0.14105475489698568,0.03927737744849284
1590504617.8877761,0.052324577069195057,-4.542324577069195,8.663947462415171,0.4633333333333333,0.30666666666666664,-0.6255555555555555,0.20202860668246908,-0.13952860668246908,0.0625
1590504617.8977761,0.04080785391506567,-4.54,8.548886393065722,0.4633333333333333,0.30666666666666664,-0.6255555555555555,0.1875,-0.010098173938320867,-0.05240182606167913
1590504617.907776,0.022289123701949354,-4.55771087629805,8.610843505192202,0.4633333333333333,0.30666666666666664,-0.6255555555555555,0.02146053470577519,0.11069297686281654,-0.0071535115685917305
1590504617.917776,0.04278452106649111,-4.56,8.665569042132981,0.4633333333333333,0.30666666666666664,-0.6255555555555555,0.04746775222185648,0.03006449555628704,-0.04746775222185648
1590504617.927776,0.02132602445420366,-4.540884016302803,8.6704420081514,0.47713932155908717,0.2949846766294904,-0.6457335383470418,0.18197489810748474,-0.11947489810748475,-0.0027625509462576234
1590504617.937776,0.028685518423307625,-4.566056555269923,8.713427592116538,0.4777777777777778,0.29444444444444445,-0.6466666666666666,0.07893101970865468,-0.07071550985432734,-0.05428449014567266
1590504617.947776,0.049588610191744854,-4.540617084712383,8.641645559233021,0.4777777777777778,0.29444444444444445,-0.6466666666666666,0.12371440684920265,-0.0625,-0.12371440684920265
1590504617.957776,0.0686270830035951,-4.549313541501798,8.658627083003596,0.4777777777777778,0.29444444444444445,-0.6466666666666666,0.125,-0.0625,-0.06679036561376535
1590504617.967776,0.052509515389456654,-4.561660323073696,8.68332064614739,0.4777777777777778,0.29444444444444445,-0.6466666666666666,0.015684471184104057,-0.026061490394701348,-0.1353770192105973
1590504617.977776,0.05041002949852508,-4.559589970501475,8.694794985250736,0.4777777777777778,0.30485447394296955,-0.643196656833825,-0.029968657817109147,0.03253134218289085,-0.15496865781710914
1590504617.987776,0.054044615479595826,-4.55,8.70191076904081,0.4777777777777778,0.3144444444444445,-0.64,-0.11166345975757826,-0.08638461301010433,-0.08777884674747391
1590504617.997776,0.04065568272334717,-4.559344317276652,8.597868192680165,0.4777777777777778,0.3144444444444445,-0.64,-0.1875,-0.012294051062759381,-0.004098017020919803
1590504618.007776,0.03264217642449753,-4.545284352848995,8.626789117877513,0.4777777777777778,0.3144444444444445,-0.64,-0.14151360265310958,0.0,-0.04598639734689043
1590504618.017776,0.04930158953439302,-4.552867726356261,8.652867726356263,0.4777777777777778,0.3144444444444445,-0.64,0.11626986917991278,-0.16084657945327518,-0.022288355136681204
1590504618.027776,0.06,-4.55467680911227,8.686615954438649,0.4665399303481266,0.3037980626689855,-0.6358597404206549,0.21673005695169062,-0.1501901708550719,0.06653988609661875
1590504618.037776,0.046838990302338845,-4.55,8.69683899030234,0.4566666666666666,0.29444444444444445,-0.6322222222222222,0.06411553408442669,-0.1447563106103822,0.0427436893896178
1590504618.047776,0.031982156133828994,-4.5660356877323425,8.60982156133829,0.4566666666666666,0.29444444444444445,-0.6322222222222222,0.050111524163568774,-0.1875,-0.10022304832713755
1590504618.057776,0.05448721956380599,-4.553675186957463,8.622649626085074,0.4566666666666666,0.29444444444444445,-0.6322222222222222,0.0625,-0.1875,-0.022969918484141677
1590504618.067776,0.053168764438779575,-4.55683123556122,8.670987413367323,0.4566666666666666,0.29444444444444445,-0.6322222222222222,0.0625,-0.10210955548474468,0.0
1590504618.077776,0.042034759194663734,-4.536104277583991,8.713895722416009,0.4522415328859243,0.29444444444444445,-0.6552329178820826,0.012717244966648313,-0.0625,-0.04978275503335169
1590504618.087776,0.06079647234443747,-4.543864314896291,8.713067842551855,0.4511111111111111,0.29444444444444445,-0.6611111111111111,-0.12997795215273414,-0.019174015949088623,-0.0625
1590504618.097776,0.04511438835318586,-4.55,8.610457553412743,0.4511111111111111,0.29444444444444445,-0.6611111111111111,-0.08380995147160775,0.10369004852839225,-0.010654975735803873
1590504618.107776,0.04673096764684207,-4.556730967646842,8.637116773527895,0.4511111111111111,0.29444444444444445,-0.6611111111111111,0.02163709558552583,0.08293145220723708,-0.12620564337828874
1590504618.117776,0.05,-4.548869981143357,8.676695028284964,0.4511111111111111,0.29444444444444445,-0.6611111111111111,-0.007062617854021985,-0.14618785356206596,-0.013593455364945023
1590504618.127776,0.04290572063750509,-4.547094279362494,8.682905720637505,0.46529966983610094,0.3031152303319382,-0.6508638186986184,-0.0625,-0.1794822619532204,-0.008017738046779604
1590504618.137776,0.04,-4.55,8.669132257527865,0.4711111111111111,0.30666666666666664,-0.6466666666666666,-0.09646169522542006,-0.023114914323739813,-0.0625
1590504618.147776,0.04,-4.544150121065376,8.624900726392251,0.4711111111111111,0.30666666666666664,-0.6466666666666666,-0.1981234866828087,-0.010623486682808728,0.010623486682808728
1590504618.1577759,0.05209258799488169,-4.546046293997441,8.618138881992323,0.4711111111111111,0.30666666666666664,-0.6466666666666666,-0.25,-0.024710662515994727,0.024710662515994727
1590504618.1677759,0.06,-4.55,8.66134277703999,0.4711111111111111,0.30666666666666664,-0.6466666666666666,-0.21735127391667897,0.06529745216664208,0.0
1590504618.1777759,0.04015507974270861,-4.559922460128646,8.69,0.4711111111111111,0.3033591799571181,-0.6395004454626447,-0.2495153758040356,0.1560076879020178,-0.0310076879020178
1590504618.1877759,0.03367345475405134,-4.563163272622974,8.69,0.4711111111111111,0.3,-0.6322222222222222,-0.3979590922128209,0.14477045389358956,-0.10522954610641044
1590504618.1977758,0.04,-4.575658093797276,8.611709531013615,0.4711111111111111,0.3,-0.6322222222222222,-0.2907053706505295,0.22286308623298035,-0.02713691376701967
1590504618.2077758,0.055654687948007264,-4.548690624103986,8.644791407818026,0.4711111111111111,0.3,-0.6322222222222222,-0.25,0.1032373004874319,-0.0978417996750454
1590504618.2177758,0.05357230907703446,-4.5464276909229655,8.685710763691862,0.4711111111111111,0.3,-0.6322222222222222,-0.1696538634629307,-0.09819227307413858,-0.04465386346293071
1590504618.2277758,0.0287715472171601,-4.564152301855227,8.7,0.46560743816741185,0.29135137108847264,-0.6275047882704801,-0.21345188659516626,-0.05482217010725063,0.04422594329758313
1590504618.2377758,0.03846489549039124,-4.557690069673073,8.724619860653855,0.4633333333333333,0.2877777777777778,-0.6255555555555555,-0.25,-0.03846853227164842,0.0625
1590504618.2477758,0.05,-4.563870026020181,8.64290981785873,0.4633333333333333,0.2877777777777778,-0.6255555555555555,-0.25,-0.0625,0.01915616868693279
1590504618.2577758,0.03386042093685947,-4.56193021046843,8.640348947657852,0.4633333333333333,0.2877777777777778,-0.6255555555555555,-0.35087236914462827,0.1392447382892566,0.0
1590504618.2677758,0.03595002955802066,-4.530249852209897,8.661900059116041,0.4633333333333333,0.2877777777777778,-0.6255555555555555,-0.4121876847376291,0.0759369457871127,0.0
1590504618.2777758,0.04,-4.51,8.689871430600936,0.46848518571135417,0.300289419267257,-0.6351232814004515,-0.4375,-0.0827976275039068,-0.0413988137519534
1590504618.2877758,0.03171405216236238,-4.501714052162362,8.675142156487087,0.4711111111111111,0.30666666666666664,-0.64,-0.4375,-0.07321282601476486,-0.0625
1590504618.2977757,0.05413880515209646,-4.532185073536128,8.613676121311775,0.4711111111111111,0.30666666666666664,-0.64,-0.38721082259979905,0.038078354800401934,-0.5151025966018087
1590504618.3077757,0.04341985036085545,-4.551053433092763,8.616580149639145,0.4711111111111111,0.30666666666666664,-0.64,-0.16774812951069323,0.13158395682976892,-0.9358778057339602
1590504618.3177757,0.0489393506617157,-4.583674188327144,8.667878701323433,0.4711111111111111,0.30666666666666664,-0.64,-0.02959273540893078,0.1875,-1.305870941635723
1590504618.3277757,0.07,-4.60466914779537,8.720661704409261,0.4634109912599788,0.30666666666666664,-0.6322998801488677,0.03745347883681323,0.12086434744212453,-1.4041821737210622
1590504618.3377757,0.04543163004916911,-4.593857907512292,8.742284184975416,0.4566666666666666,0.30666666666666664,-0.6255555555555555,0.2785523121926931,0.0625,-1.2214476878073068
1590504618.3477757,0.05757082602366466,-4.567943339181068,8.661773356724273,0.4566666666666666,0.30666666666666664,-0.6255555555555555,0.3060729349408383,0.0625,-0.7114376096450301
1590504618.3577757,0.06798107255520505,-4.55,8.61403785488959,0.4566666666666666,0.30666666666666664,-0.6255555555555555,0.21244085173501576,-0.05017744479495269,-0.2998817034700315
1590504618.3677757,0.06,-4.55,8.635462212366862,0.4566666666666666,0.30666666666666664,-0.6255555555555555,0.22163882729288598,0.011555309171543848,-0.14758351812134213
1590504618.3777757,0.06,-4.55,8.659158516400844,0.47014858561540773,0.31589113752633163,-0.6347800264152205,0.13025927249473368,0.08508642416491122,-0.0625
1590504618.3877757,0.06,-4.55,8.639119992360216,0.4777777777777778,0.3211111111111111,-0.64,0.20725003581148832,-0.03400002387432556,-0.01424998806283722
1590504618.3977757,0.06,-4.55,8.599279719284935,0.4777777777777778,0.3211111111111111,-0.64,0.1059986841481341,-0.1585008772345773,-0.1440013158518659
1590504618.4077756,0.06,-4.542361157299634,8.612916528101097,0.4777777777777778,0.3211111111111111,-0.64,0.25347106750914533,-0.2829855337545727,-0.09201446624542733
1590504618.4177756,0.06,-4.551533443851809,8.666133775407236,0.4777777777777778,0.3211111111111111,-0.64,0.24041597592619288,-0.34854201203690355,-0.026457987963096438
1590504618.4277756,0.06,-4.56,8.711822754797987,0.47383685951178184,0.3171701928451152,-0.6314613437570087,0.2613922174874243,-0.26416167376886357,-0.03694610874371215
1590504618.4377756,0.05503302015250545,-4.569933959694989,8.715033020152505,0.4711111111111111,0.3144444444444445,-0.6255555555555555,0.1572818797657952,-0.15645637595315903,-0.09354362404684097
1590504618.4477756,0.05,-4.566439061814993,8.66027655998831,0.4711111111111111,0.3144444444444445,-0.6255555555555555,0.05650390910419407,-0.011992181791611864,-0.06849609089580594
1590504618.4577756,0.05,-4.557116557935606,8.64269934761364,0.4711111111111111,0.3144444444444445,-0.6255555555555555,0.08052151290245899,0.125,-0.08895697419508201
1590504618.4677756,0.05,-4.554413454093667,8.671173091812665,0.4711111111111111,0.3144444444444445,-0.6255555555555555,0.30691138340205626,0.15991591191457946,-0.09008408808542054
1590504618.4777756,0.05,-4.537695782601023,8.673847891300511,0.4786303550771523,0.3055580652118503,-0.6296569613552144,0.4615493206281983,0.1875,-0.0625
1590504618.4877756,0.03635244460077383,-4.536823777699613,8.697295110798454,0.4833333333333333,0.3,-0.6322222222222222,0.3522027787548364,0.10220277875483644,-0.01985138937741822
1590504618.4977756,0.045076492844217796,-4.529949004770521,8.619541042934694,0.4833333333333333,0.3,-0.6322222222222222,0.24968127981575916,-0.0003187201842408255,-0.03140936009212041
1590504618.5077755,0.06,-4.525465578029319,8.59012135832251,0.4833333333333333,0.3,-0.6322222222222222,-0.017459176099461876,-0.0625,-0.09665986268324364
1590504618.5177755,0.06518236340179226,-4.540364726803585,8.665911817008961,0.4833333333333333,0.3,-0.6322222222222222,-0.21988977126120157,0.002279542522403144,-0.18977954252240314
1590504618.5277755,0.07,-4.544586517364001,8.711653930543996,0.4725063680613351,0.2933835212226678,-0.6286132337982229,-0.25,0.09633426647499432,-0.1146629341000227
1590504618.5377755,0.07539534631251357,-4.556186038937541,8.71381396106246,0.4633333333333333,0.2877777777777778,-0.6255555555555555,-0.21627908554679018,0.15872091445320982,0.0
1590504618.5477755,0.07482930499388696,-4.559658609987774,8.643122354932757,0.4633333333333333,0.2877777777777778,-0.6255555555555555,-0.1875,0.21981684378820654,-0.032316843788206526
1590504618.5577755,0.057409920060725386,-4.5248198401214506,8.602590079939274,0.4633333333333333,0.2877777777777778,-0.6255555555555555,-0.1875,0.2893439998102332,-0.023156000189766823
1590504618.5677755,0.040462664396217526,-4.533843339009456,8.633843339009456,0.4633333333333333,0.2877777777777778,-0.6255555555555555,-0.2769125212854607,0.37210834752364047,0.0
1590504618.5777755,0.020543914884377373,-4.555271957442188,8.674184127673433,0.46701069976718657,0.30038589126527465,-0.6287075839274298,-0.375,0.28974867006839644,0.0
1590504618.5877755,0.039933081111815774,-4.555986616222363,8.695986616222363,0.4711111111111111,0.3144444444444445,-0.6322222222222222,-0.1879182430511514,0.05016729722046055,-0.037416351389769724
1590504618.5977755,0.06,-4.56,8.635479497548301,0.4711111111111111,0.3144444444444445,-0.6322222222222222,-0.0048924085252691,-0.02880379573736545,-0.0048924085252691
1590504618.6077754,0.06921382233926392,-4.56,8.60606911169632,0.4711111111111111,0.3144444444444445,-0.6322222222222222,0.0625,-0.09129319481019976,0.0625
1590504618.6177754,0.06572266585928926,-4.550481777239526,8.683795556901185,0.4711111111111111,0.3144444444444445,-0.6322222222222222,0.032755553873519284,-0.09525555387351928,0.003011107747038569
1590504618.6277754,0.05,-4.550084943724782,8.720084943724784,0.46382754064321274,0.30435950071966217,-0.6322222222222222,0.03151544913994479,0.0005308982798895856,-0.09401544913994479
1590504618.6377754,0.04340618877900253,-4.56,8.683843321453018,0.4566666666666666,0.29444444444444445,-0.6322222222222222,-0.18476792078740528,0.10371132013123421,-0.20742264026246843
1590504618.6477754,0.05000964144730858,-4.549990358552691,8.629971075658075,0.4566666666666666,0.29444444444444445,-0.6322222222222222,-0.40634038856851795,0.15628012952283932,-0.12487948190864273
1590504618.6577754,0.05532970044819914,-4.544670299551801,8.609340599103602,0.4566666666666666,0.29444444444444445,-0.6322222222222222,-0.5291893721987554,0.24587874439751073,-0.058378744397510715
1590504618.6677754,0.05,-4.557483840570107,8.649935362280429,0.4566666666666666,0.29444444444444445,-0.6322222222222222,-0.6794350089079317,0.33588700178158637,-0.0782259964368273
1590504618.6777754,0.05,-4.569835092833901,8.6993403713356,0.4566666666666666,0.29444444444444445,-0.6322222222222222,-0.8724233255296907,0.37448466510593814,-0.0010306697881237448
1590504618.6877754,0.06704687099803637,-4.55,8.704093741996074,0.4511111111111111,0.3144444444444445,-0.6177777777777778,-0.9005858874754546,0.375,-0.0625
1590504618.6977754,0.04986681297060047,-4.55,8.6596004389118,0.4511111111111111,0.3144444444444445,-0.6177777777777778,-0.770278387377502,0.29055677475500397,-0.0625
1590504618.7077754,-0.00015864901549472385,-4.519841350984505,8.62585027058471,0.4511111111111111,0.3144444444444445,-0.6177777777777778,-0.714427365192406,0.098072634807594,0.045209460769623996
1590504618.7177753,-0.06011929879398817,-4.454850876507515,8.672574561746243,0.4511111111111111,0.3144444444444445,-0.6177777777777778,-0.75,0.031063595634393475,0.20321820218280326
1590504618.7277753,-0.1336502932740756,-4.3663497067259245,8.71341257331852,0.4552820340559675,0.3167194933234571,-0.6299113717991783,-0.7073428335185137,-0.0625,0.5272715821296607
1590504618.7377753,-0.14095298749421029,-4.368570518758685,8.710476493747105,0.4633333333333333,0.3211111111111111,-0.6533333333333333,-0.5059561718388143,-0.15178287112088928,1.3898705274432608
1590504618.7477753,-0.08337355741805258,-4.462788187283339,8.652908859537495,0.4633333333333333,0.3211111111111111,-0.6533333333333333,-0.40770218087673876,-0.1191912764930449,2.27323489402782
1590504618.7577753,-0.05984031936127745,-4.510159680638722,8.619840319361277,0.4633333333333333,0.3211111111111111,-0.6533333333333333,-0.468250998003992,-0.09225299401197604,3.426521956087824
1590504618.7677753,-0.06171212270179924,-4.495856061350899,8.638287877298202,0.4633333333333333,0.3211111111111111,-0.6533333333333333,-0.4482007668862452,-0.2651988496706322,4.72069118080818
1590504618.7777753,-0.06090958019375673,-4.49,8.68272874058127,0.46858609416736435,0.3114137064944385,-0.6456562213451341,-0.5113697524219591,-0.375,6.107979009687837
1590504618.7877753,-0.10522649019559963,-4.45972821176528,8.7147735098044,0.4777777777777778,0.29444444444444445,-0.6322222222222222,-0.8130662254889991,-0.5326655637224976,7.535496691167493
1590504618.7977753,-0.12203509223667029,-4.410087730591676,8.650175461183352,0.4777777777777778,0.29444444444444445,-0.6322222222222222,-0.8501096632395946,-0.9861840411248644,8.27379370436446
1590504618.8077753,-0.12642686705367,-4.3668585063570635,8.612997613875137,0.4777777777777778,0.29444444444444445,-0.6322222222222222,-0.853567167634175,-1.6839030058050501,8.872302254353787
1590504618.8177752,-0.16,-4.320744457571756,8.669627771214122,0.4777777777777778,0.29444444444444445,-0.6322222222222222,-1.077904996872611,-2.267731426784349,9.209884286607826
1590504618.8277752,-0.16,-4.285765237334075,8.687117381332962,0.4777777777777778,0.29444444444444445,-0.6322222222222222,-1.3329618111057058,-2.413478177774689,9.137010911112656
1590504618.8377752,-0.11280357720073268,-4.282803577200733,8.722803577200732,0.49,0.30666666666666664,-0.6322222222222222,-1.2774552849908416,-2.429910569981683,8.78621646374313
1590504618.8477752,-0.12673237634451598,-4.289380223119677,8.724478787636452,0.49,0.30666666666666664,-0.6322222222222222,-1.0625,-1.9642603662681435,8.619894338038307
1590504618.8577752,-0.10618852633823843,-4.137622947323523,8.590471315845596,0.49,0.30666666666666664,-0.6322222222222222,-1.1636782896139901,-1.4360271379825122,8.613089144806995
1590504618.8677752,-0.16273601194642776,-4.044169583275001,8.66309440477857,0.49,0.30666666666666664,-0.6322222222222222,-1.5784800970647255,-1.25,8.892100074665173
1590504618.8777752,-0.24693860857585673,-3.904830377131049,8.721054115722405,0.4805896619023018,0.30886241222279626,-0.628144409046553,-2.1955775357327365,-1.3735106875322887,9.418366303599104
1590504618.8877752,-0.19011225082252756,-3.5680272240500615,8.672365653828786,0.4566666666666666,0.3144444444444445,-0.6177777777777778,-2.270950261273466,-1.6181335075156442,9.652816753757822
1590504618.8977752,-0.01922243314030324,-3.0839183506740033,8.584187711752408,0.4566666666666666,0.3144444444444445,-0.6177777777777778,-2.410892784198765,0.5289154672369465,10.354936083811904
1590504618.9077752,-0.11003335757818966,-3.224883248476336,8.979599709061723,0.4566666666666666,0.3144444444444445,-0.6177777777777778,-4.6503081813849665,3.2483321210905167,12.74499636327155
1590504618.9177752,-0.09567647986127532,-3.2383823993063765,8.879500472925042,0.4566666666666666,0.3144444444444445,-0.6177777777777778,-4.140629926302514,1.2099319184992514,14.97959402340979
1590504618.9277751,0.015976633698867537,-3.0608477007201125,8.754852541309349,0.4649529055155493,0.3113916196053825,-0.6212667204509915,-0.8551520901186243,-1.4871776675531119,17.016891639525504
1590504618.9377751,0.1360612632149634,-2.878820818650041,8.956297099484955,0.4777777777777778,0.30666666666666664,-0.6266666666666667,-1.535968419625915,-0.6830780699376524,21.61674911900244
1590504618.9477751,0.08051287937168998,-2.9426494941710803,8.814615914345211,0.4777777777777778,0.30666666666666664,-0.6266666666666667,-1.8969066143074982,-1.349356031415501,26.76280763744282
1590504618.957775,0.059168933675619755,-2.971108088432507,8.632308517567724,0.4777777777777778,0.30666666666666664,-0.6266666666666667,-0.1921170351354458,-2.377308517567723,31.30540442162535
1590504618.967775,-0.03481255422912366,-3.0948125542291236,8.858343505968945,0.4777777777777778,0.30666666666666664,-0.6266666666666667,-0.8679707835921371,-2.7753923196601145,38.46817778924692
1590504618.977775,-0.04736169703497592,-3.107361697034976,8.801872363342607,0.4777777777777778,0.30666666666666664,-0.6266666666666667,-1.3385636388115967,-3.1675530323429975,41.64467956197828
1590504618.987775,-0.06536207732396072,-3.178212640892013,8.808212640892014,0.4711111111111111,0.3,-0.6266666666666667,-0.7143679553993455,-3.5960129832747545,47.37345662646952
1590504618.997775,-0.1017379954117554,-3.17,8.761851514911795,0.4711111111111111,0.3,-0.6266666666666667,-1.1433406178308678,-3.970087413970414,51.82123398069773
1590504619.007775,-0.128407081913449,-3.171592918086551,8.674778754259654,0.4711111111111111,0.3,-0.6266666666666667,-1.2273229521637756,-4.5,54.75774264008814
1590504619.017775,-0.12209599669451841,-3.1611360297493345,8.691616013221926,0.4711111111111111,0.3,-0.6266666666666667,-1.3327001652740795,-4.5392999380222205,58.092498967037
1590504619.027775,-0.14881348212252335,-3.136178547028012,8.707888863584605,0.47320149801361366,0.2979096130974974,-0.6291371239150788,-1.0123263493509451,-4.8157737417444775,60.99007913914826
1590504619.037775,-0.24376294083703878,-3.365644411255558,8.913659414140728,0.4833333333333333,0.2877777777777778,-0.6411111111111111,-1.6337021825464173,-5.4727775703472386,63.48583084416686
1590504619.047775,-0.2697223970226002,-3.3867592009924667,8.728702421834265,0.4833333333333333,0.2877777777777778,-0.6411111111111111,-2.2031151674787393,-5.503470037217498,66.1834647332746
1590504619.057775,-0.297286221686101,-3.3916579546977617,8.600401420721083,0.4833333333333333,0.2877777777777778,-0.6411111111111111,-1.089823331322879,-5.2591077771076264,68.40074219273556
1590504619.067775,-0.35636128518850096,-3.4534554859245996,8.7363612851885,0.4833333333333333,0.2877777777777778,-0.6411111111111111,-1.5567740972843929,-5.455661245399384,71.46580622699692
1590504619.077775,-0.40634963065160534,-3.4516783076082893,8.772335661521657,0.4882641743235,0.27869464963799706,-0.6429277367390672,-2.1291084619585523,-5.8813809605932565,74.20751595240148
1590504619.087775,-0.4562519932291539,-3.486251993229154,8.791244020312538,0.5044444444444445,0.2488888888888889,-0.6488888888888888,-1.9375,-6.3125,78.375
1590504619.097775,-0.4633938271856117,-3.4699546296107915,8.746379320868344,0.5044444444444445,0.2488888888888889,-0.6488888888888888,-2.0421392748875915,-6.3334278549775185,79.1702584891457
1590504619.107775,-0.49922187328647627,-3.4615273416080954,8.64305468321619,0.5044444444444445,0.2488888888888889,-0.6488888888888888,-2.3076367080404765,-6.519091770101191,81.81627909874882
1590504619.117775,-0.5400314113987134,-3.508359509498928,8.726687607599143,0.5044444444444445,0.2488888888888889,-0.6488888888888888,-2.4164049050107224,-7.0522469343682985,85.73027915370443
1590504619.127775,-0.5780358814823764,-3.5400299012353136,8.75202392098825,0.5044444444444445,0.2488888888888889,-0.6488888888888888,-2.0997009876468633,-7.25018688272071,87.07627080250083
1590504619.137775,-0.602087895772243,-3.55,8.693131843658364,0.5044444444444445,0.2411111111111111,-0.6766666666666666,-2.125,-7.5668497828588395,89.43807185145317
1590504619.147775,-0.6487932890390112,-3.55,8.763189933558516,0.5044444444444445,0.2411111111111111,-0.6766666666666666,-2.125,-7.66415268549794,90.84896393972014
1590504619.157775,-0.6887933115487651,-3.516482675380494,8.609345285407283,0.5044444444444445,0.2411111111111111,-0.6766666666666666,-1.8269414760516942,-7.551508360564044,93.31530770702699
1590504619.167775,-0.72454111385073,-3.491811670776095,8.721835544597079,0.5044444444444445,0.2411111111111111,-0.6766666666666666,-2.033968827051779,-7.568236076865876,94.85823940354585
1590504619.177775,-0.714753727343114,-3.466197018125509,8.78380298187449,0.507507957621118,0.23677993730960717,-0.6778286889060945,-1.6368843183577853,-7.7262313632844295,95.89569022850449
1590504619.187775,-0.7563878025054098,-3.4328897579956723,8.817110242004327,0.5343388060590418,0.19884666882840438,-0.6880059072791002,-1.7409695062635246,-7.518060987472951,96.62428654384468
1590504619.197775,-0.8071722628252657,-3.445379197118949,8.692069342936836,0.5366666666666666,0.1955555555555556,-0.6888888888888889,-1.8603398739540302,-7.618533303322388,97.01120666066448
1590504619.2077749,-0.836789888076828,-3.467592416057621,8.618025279807929,0.5366666666666666,0.1955555555555556,-0.6888888888888889,-2.8321682025209194,-7.849921000600219,97.05748420012004
1590504619.2177749,-0.9230037720112971,-3.528669181340865,8.751330818659135,0.5366666666666666,0.1955555555555556,-0.6888888888888889,-2.3020440415489887,-7.866682383380405,96.9593632124647
1590504619.2277749,-0.9706492826473976,-3.5593507173526024,8.721514992843929,0.5365464291393708,0.19468984535902542,-0.6889369838998072,-1.8206160330924703,-8.066558016546235,96.8003259503613
1590504619.2377748,-1.0090424310684658,-3.5089009941735796,8.79,0.5311111111111111,0.15555555555555556,-0.6911111111111111,-2.1121464077627845,-8.193484805822088,96.06161601940696
1590504619.2477748,-1.0410581092801388,-3.4754813529921944,8.783365134431916,0.5311111111111111,0.15555555555555556,-0.6911111111111111,-2.0757263660017347,-7.951918907198612,95.34854726799654
1590504619.2577748,-1.0857067438692098,-3.53,8.74287976839237,0.5311111111111111,0.15555555555555556,-0.6911111111111111,-2.3841642540871932,-7.5149438010899186,94.08966280653951
1590504619.2677748,-1.1190430532054898,-3.52095694679451,8.673617221282196,0.5311111111111111,0.15555555555555556,-0.6911111111111111,-1.7041267155480353,-7.289892366986275,92.55849313780786
1590504619.2777748,-1.15087338069369,-3.462507312996239,8.68847889678228,0.5326322143288295,0.15251334912011888,-0.6909420996424758,-1.953170706226494,-7.130458629335562,90.99190346844965
1590504619.2877748,-1.072269686052496,-3.2887236232629955,8.624822439526506,0.5511111111111111,0.11555555555555555,-0.6888888888888889,-0.625,-6.410608594956253,88.89095470921256
1590504619.2977748,-1.18009566797819,-3.4181148015738283,8.53923465617448,0.5511111111111111,0.11555555555555555,-0.6888888888888889,-1.2811619964449061,-6.683912450817871,86.39455551339152
1590504619.3077748,-1.1427679950571517,-3.36944640098857,8.86055359901143,0.5511111111111111,0.11555555555555555,-0.6888888888888889,-3.7748802903923386,-8.094080166821131,83.3233202038925
1590504619.3177748,-1.223659114467644,-3.376829557233822,8.934914006473313,0.5511111111111111,0.11555555555555555,-0.6888888888888889,-0.9849736096126589,-6.199472192253179,80.71383882295699
1590504619.3277748,-1.3242590056677699,-3.404739624938187,9.037810300886303,0.5494526016373558,0.11045244948246204,-0.6924610631400544,-0.7652701700330937,-5.178237570847123,78.28054034006618
1590504619.3377748,-1.2843725512571798,-3.229239225531591,8.327831412377801,0.537929848140963,0.07499782333971539,-0.717279301439977,0.4313234622846056,-4.679656890714748,75.8873530754308
1590504619.3477747,-1.2792752634119546,-3.2248188158529887,8.686425087803984,0.5366666666666666,0.07111111111111111,-0.72,-4.620775213476039,-8.118510411638397,70.6810104116384
1590504619.3577747,-1.3630537476904638,-3.245763436922616,8.714351249230155,0.5366666666666666,0.07111111111111111,-0.72,-2.7008516154268687,-6.460394576959569,69.02289457695957
1590504619.3677747,-1.3327026698818591,-3.18,8.573423138976112,0.5366666666666666,0.07111111111111111,-0.72,0.1554080720989539,-4.55630562253873,66.16160244956022
1590504619.3777747,-1.354531686414656,-3.18,8.762607948927016,0.5366666666666666,0.07111111111111111,-0.72,-1.6181995211907778,-5.011076800305328,63.93322367850389
1590504619.3877747,-1.4638650306748466,-3.2540490797546013,8.883190184049079,0.5511111111111111,0.06333333333333334,-0.7477777777777778,-1.3914877300613497,-4.548312883435583,60.084739263803684
1590504619.3977747,-1.4256871347690738,-3.154786550399592,8.654122808614442,0.5511111111111111,0.06333333333333334,-0.7477777777777778,-1.1051535107680546,-4.071089184613424,57.88951024922175
1590504619.4077747,-1.4055151157339074,-3.1393090694403445,8.694484884266092,0.5511111111111111,0.06333333333333334,-0.7477777777777778,-1.4956816840021532,-4.682121368664155,54.150909895987084
1590504619.4177747,-1.4783467328830158,-3.1830080397298093,8.621653267116983,0.5511111111111111,0.06333333333333334,-0.7477777777777778,-1.7688002483113094,-4.363483043636806,52.512198510132144
1590504619.4277747,-1.5314218403547672,-3.1709478935698447,8.791579822616407,0.5510760039418576,0.0627189578713969,-0.7484623675782213,-2.477290049889135,-4.549663941241685,49.725315271618626
1590504619.4377747,-1.6120812920062042,-3.215746325611167,8.866243876018613,0.5488888888888889,0.024444444444444446,-0.7911111111111111,-1.0130080750387749,-3.6609145350697947,47.83115814027918
1590504619.4477746,-1.5817938748913989,-3.1534787141615985,8.74,0.5488888888888889,0.024444444444444446,-0.7911111111111111,-0.8237117180712424,-3.176969754561251,45.432048218940054
1590504619.4577746,-1.6429469389946052,-3.223929251992807,8.739017687001798,0.5488888888888889,0.024444444444444446,-0.7911111111111111,-1.1629421750449556,-3.0881632625674333,42.624387731823184
1590504619.4677746,-1.67,-3.261624484074449,8.742995872595593,0.5488888888888889,0.024444444444444446,-0.7911111111111111,-0.9984181527918387,-2.658622770812242,39.354032006853046
1590504619.4777746,-1.67,-3.2697903200685303,8.808322560548245,0.5488888888888889,0.024444444444444446,-0.7911111111111111,-1.3046370025698932,-2.19929449614516,37.36360948329569
1590504619.4877746,-1.7062782522237807,-3.255488699110488,8.730187845107682,0.5343775879993766,-0.009415257631084212,-0.7854678274318563,-1.1311087388810965,-2.096804369440548,36.2695002485663
1590504619.4977746,-1.7584956941971586,-3.2884956941971586,8.853982776788634,0.5288888888888889,-0.022222222222222227,-0.7833333333333333,-1.1827990443661205,-1.8219019112677592,35.45395334471858
1590504619.5077746,-1.7886365306872474,-3.340113928702683,8.666703417861081,0.5288888888888889,-0.022222222222222227,-0.7833333333333333,-1.1875,-1.857244579198824,35.616478316795295
1590504619.5177746,-1.8,-3.3958377474212433,8.742310426540284,0.5288888888888889,-0.022222222222222227,-0.7833333333333333,-1.5794753624198494,-1.9309964803456927,36.63944016587678
1590504619.5277746,-1.7792277340348008,-3.4415445319303983,8.794620443275333,0.5288888888888889,-0.022222222222222227,-0.7833333333333333,-1.3653466754350105,-1.6778466754350105,38.09154217691911
1590504619.5377746,-1.75393361374678,-3.44393361374678,8.77786722749356,0.5119299256216012,-0.07577684306628844,-0.7895813724318077,-0.9487552577521275,-1.4118776288760637,40.59538336756986
1590504619.5477746,-1.7578814414888948,-3.44,8.691185585111052,0.5077777777777778,-0.08888888888888889,-0.7911111111111111,-1.1705540558335528,-1.769072074444737,41.555090093055924
1590504619.5577745,-1.7640395215808633,-3.412052695441151,8.712052695441152,0.5077777777777778,-0.08888888888888889,-0.7911111111111111,-1.9751646732535968,-1.6374176633732016,39.109666970012135
1590504619.5677745,-1.7204170566822672,-3.35388940890969,8.65388940890969,0.5077777777777778,-0.08888888888888889,-0.7911111111111111,-1.7934044028427805,-1.7282977985786099,35.33814135898769
1590504619.5777745,-1.71,-3.366492504287216,8.77246252143608,0.5077777777777778,-0.08888888888888889,-0.7911111111111111,-2.7434689107705923,-0.25979663384411134,27.97995207999115
1590504619.5877745,-1.668258444375581,-3.3115618221258134,8.756606755500465,0.5003570567778811,-0.111151051888579,-0.7669937678614468,-1.9879919429810968,0.19838472265261853,19.08975054229935
1590504619.5977745,-1.7112311888458678,-3.374440099944687,8.647164355604723,0.4988888888888889,-0.11555555555555555,-0.7622222222222222,-1.6951949302866733,1.895055694367621,5.2975988956493545
1590504619.6077745,-1.7672309218180777,-3.446439756623243,8.58316466077934,0.4988888888888889,-0.11555555555555555,-0.7622222222222222,-2.045193261362986,1.9950552175322818,-3.5023591428407954
1590504619.6177745,-1.71,-3.3635677503352053,8.671595188589418,0.4988888888888889,-0.11555555555555555,-0.7622222222222222,-1.4096269505062087,2.539022269291308,-14.8998707759274
1590504619.6277745,-1.71,-3.3961695264374963,8.777550960921863,0.4988888888888889,-0.11555555555555555,-0.7622222222222222,-1.1549255747070597,2.895604195410116,-21.98056902314374
1590504619.6377745,-1.7556744602638503,-3.31567446026385,8.760920863577839,0.5344444444444445,-0.13333333333333333,-0.7555555555555555,0.5611623220316844,3.467209979287567,-30.07453910171484
1590504619.6477745,-1.7948069638558715,-3.354806963855871,8.698308857830606,0.5344444444444445,-0.13333333333333333,-0.7555555555555555,0.1209216566214476,4.103113162657909,-34.03670509040697
1590504619.6577744,-1.8189309070723543,-3.3726206047149025,8.702620604714904,0.5344444444444445,-0.13333333333333333,-0.7555555555555555,-0.5685302357451386,3.5959091539889325,-37.99372690686419
1590504619.6677744,-1.7710206483363646,-3.3357654862522734,8.746862094789773,0.5344444444444445,-0.13333333333333333,-0.7555555555555555,-0.33849095966620313,3.618620947897721,-43.68620947897721
1590504619.6777744,-1.7970120334489088,-3.337629512543341,8.707111462369978,0.5344444444444445,-0.13333333333333333,-0.7555555555555555,0.09536890679176013,3.97036890679176,-48.268805450744445
1590504619.6877744,-1.7501565380997177,-3.3566536218250236,8.796418814675446,0.5359230270722274,-0.1296368767638758,-0.7740378384028431,0.333170272812794,4.166585136406397,-54.6794285042333
1590504619.6977744,-1.6834292720183301,-3.3666426819954176,8.72714636009165,0.5366666666666666,-0.12777777777777774,-0.7833333333333333,0.873201149656309,4.810251437070386,-61.35836063432086
1590504619.7077744,-1.7281629412483206,-3.3588518382802004,8.738162941248321,0.5366666666666666,-0.12777777777777774,-0.7833333333333333,0.6350464150482472,5.203287223647246,-71.33102021497496
1590504619.7177744,-1.6696129752743896,-3.3222581095464934,8.67961297527439,0.5366666666666666,-0.12777777777777774,-0.7833333333333333,0.9552415414681812,5.7064509937357135,-75.90523630668831
1590504619.7277744,-1.7523076489010525,-3.435917106339757,8.785917106339758,0.5366666666666666,-0.12777777777777774,-0.7833333333333333,1.0133136303360324,6.612795544959512,-81.27403683378947
1590504619.7377744,-1.7192993293328627,-3.416886913166255,8.766886913166255,0.5054732664627211,-0.15222665901870808,-0.7335925059810958,1.4268015906283091,6.859922398958701,-85.01557674064595
1590504619.7477744,-1.6,-3.3922392305608233,8.680815948704055,0.4955555555555556,-0.16,-0.7177777777777777,1.8967025647972546,7.098197755802402,-88.70398717601373
1590504619.7577744,-1.5935142459532705,-3.525985009399643,8.684749627676457,0.4955555555555556,-0.16,-0.7177777777777777,1.472245110964623,7.488418296345126,-91.07721135769916
1590504619.7677743,-1.3891478801197286,-3.4063908991020346,8.531077558443526,0.4955555555555556,-0.16,-0.7177777777777777,2.509242507483045,7.164943119387717,-93.63048085666654
1590504619.7777743,-1.3732561664077596,-3.5255787519418025,8.737669836699125,0.4955555555555556,-0.16,-0.7177777777777777,1.516010400484977,7.909867199636267,-96.06389951881181
1590504619.7877743,-1.2447706964035152,-3.706880769514807,8.920550550180932,0.5044444444444445,-0.0811111111111111,-0.6822222222222222,2.4919722970977034,7.784403616793442,-101.32798076212983
1590504619.7977743,-0.9969721586293478,-3.54426297910051,8.502390517687024,0.5044444444444445,-0.0811111111111111,-0.6822222222222222,3.3147408795509934,8.026394376338528,-105.39342552248726
1590504619.8077743,-1.1440046739794092,-3.6314230372444576,8.679409015306229,0.5044444444444445,-0.0811111111111111,-0.6822222222222222,2.111051750636882,9.425058424742616,-112.02925711097544
1590504619.8177743,-0.993883403162305,-3.269365854685559,8.767715645198644,0.5044444444444445,-0.0811111111111111,-0.6822222222222222,1.3935603827610166,7.548542539528812,-116.99650504242373
1590504619.8277743,-1.2646817855862316,-3.754427214055217,8.834092416636787,0.5044444444444445,-0.0811111111111111,-0.6822222222222222,1.4894507439942632,9.388437275905343,-120.27239545984224
1590504619.8377743,-1.2178650906953308,-3.735880080618072,8.655655231776956,0.5258177509050871,-0.016991191729182994,-0.6590678068898592,2.3014989922741016,9.261937877897212,-123.01709066383944
1590504619.8477743,-1.225652967369881,-3.7891305934739763,8.866958902109644,0.5311111111111111,-0.0011111111111111113,-0.6533333333333333,2.0407534309073654,10.048915523030878,-125.61412101248267
1590504619.8577743,-1.1491090590554054,-3.7738218118110813,8.637327177166217,0.5311111111111111,-0.0011111111111111113,-0.6533333333333333,2.7583525713555734,9.809715809548143,-126.52307992371706
1590504619.8677742,-1.1363298471440064,-3.8079790828640387,8.68760740144811,0.5311111111111111,-0.0011111111111111113,-0.6533333333333333,2.3045152855993565,9.512630732099758,-126.86868463395012
1590504619.8777742,-1.070750121773015,-3.8069167072576717,8.73461113817178,0.5311111111111111,-0.0011111111111111113,-0.6533333333333333,2.6107627049845754,9.759721545705471,-126.16805690858905
1590504619.8877742,-1.060510617886888,-3.935271878951729,8.576836872628963,0.5311111111111111,0.10222222222222224,-0.6466666666666666,3.4341015131033883,10.049320302620677,-124.54252332882746
1590504619.8977742,-0.9774710642423283,-3.9783742555843538,8.547471064242329,0.5311111111111111,0.10222222222222224,-0.6466666666666666,2.893063826840512,9.945402924242725,-123.2808883030291
1590504619.9077742,-0.8612923649170013,-3.9036879488752154,8.431292364917002,0.5311111111111111,0.10222222222222224,-0.6466666666666666,3.722911679164276,10.308461359634371,-121.82865456146251
1590504619.9177742,-0.8100428508963708,-3.8500571345284946,8.929257251129572,0.5311111111111111,0.10222222222222224,-0.6466666666666666,1.7530352718262647,7.816160180731671,-120.43910690861391
1590504619.9277742,-0.8029775214978964,-3.899157349514726,8.79657290846003,0.5311111111111111,0.10222222222222224,-0.6466666666666666,2.978933737868146,9.041433737868147,-118.50631841192148
1590504619.9377742,-0.6954679731969162,-3.92,9.001330067007709,0.5262716654257832,0.14287356597897702,-0.6466666666666666,3.064449888320484,8.909174832480726,-116.10863084516176
1590504619.9477742,-0.6485925380160046,-3.9121481345040015,8.56103620474407,0.5255555555555556,0.14888888888888888,-0.6466666666666666,3.981483186999857,8.95972247804998,-114.69722017560017
1590504619.9577742,-0.6594537581193938,-4.046176306835756,8.682898855552118,0.5255555555555556,0.14888888888888888,-0.6466666666666666,2.4870031704299413,7.966519099907207,-113.09834712341478
1590504619.9677742,-0.5434846765039728,-4.0888384411653425,8.466678963299282,0.5255555555555556,0.14888888888888888,-0.6466666666666666,3.0443506432084755,8.362295450245933,-110.99920781309119
1590504619.9777741,-0.5452608117013167,-4.100521623402633,8.6178243510395,0.5255555555555556,0.14888888888888888,-0.6466666666666666,3.2269003656661455,8.375,-109.65517714780407
1590504619.9877741,-0.538452259102208,-4.115773870448896,8.758075376517034,0.5244863202872415,0.16150586505499503,-0.6466666666666666,3.146450961397865,8.3389133096944,-107.9947863357216
1590504619.9977741,-0.43774070417900623,-4.087740704179006,8.717337940111879,0.52,0.21444444444444444,-0.6466666666666666,3.0448790720631784,8.473293024021059,-103.95610398157288
1590504620.007774,-0.3899653383234806,-4.086712882235359,8.746747543911878,0.52,0.21444444444444444,-0.6466666666666666,2.8739168226087695,8.374566729043508,-101.60185588823204
1590504620.017774,-0.370366181718364,-4.090366181718363,8.659211089761186,0.52,0.21444444444444444,-0.6466666666666666,2.5323943178698873,7.918837496568762,-99.76337839692562
1590504620.027774,-0.3449152730091926,-4.105141211651346,8.635536604275114,0.52,0.21444444444444444,-0.6466666666666666,2.4057204563074537,7.499646970871636,-96.9286742717909
1590504620.037774,-0.2999186591077151,-4.13501355681538,8.73,0.5149864431846192,0.24842521841535892,-0.6500090378769205,2.3125,7.37483053980774,-93.55758565442446
1590504620.047774,-0.24544969539670525,-4.125269817238023,8.73491006092066,0.51,0.2822222222222222,-0.6533333333333333,2.4045636422623553,7.159060596229407,-89.7552877509823
1590504620.057774,-0.1613476480154189,-4.051347648015419,8.647832018309945,0.51,0.2822222222222222,-0.6533333333333333,2.290527314340782,6.319213771607541,-84.2312006866229
1590504620.067774,-0.15876717584710198,-4.057534351694204,8.68260305508261,0.51,0.2822222222222222,-0.6533333333333333,2.3047948490443875,5.803936056689288,-79.45288632167095
1590504620.077774,-0.07992736280105106,-4.06,8.708478300892065,0.51,0.2822222222222222,-0.6533333333333333,2.1585141592327903,5.5575176990409885,-75.6412973438886
1590504620.087774,-0.04185915844674741,-4.042211262329879,8.72,0.5106588421359304,0.3013286441642042,-0.6493802805177509,1.9142605194156574,5.066901298539143,-70.21549194656012
1590504620.097774,-0.06226782682512734,-4.011598259762309,8.701598259762308,0.5111111111111111,0.3144444444444445,-0.6466666666666666,1.8125,4.467467370543294,-64.88471721137522
1590504620.107774,-0.003268539641863799,-3.836878652457889,8.549122472577269,0.5111111111111111,0.3144444444444445,-0.6466666666666666,1.5807935404231381,4.064634832338511,-60.12683990124691
1590504620.117774,-0.04770050519013748,-3.915401010380275,8.686176389272878,0.5111111111111111,0.3144444444444445,-0.6466666666666666,1.1297628622414355,4.0528910196797945,-56.63912207504964
1590504620.127774,-0.017246509407693227,-3.9613767452961537,8.698623254703847,0.5111111111111111,0.3144444444444445,-0.6466666666666666,0.8398255698317356,3.973430227932694,-54.18343012848562
1590504620.137774,0.012663703157749269,-3.9763318515788746,8.715327406315499,0.566690697192344,0.34328954608154,-0.6508879010525831,1.264462940783564,3.9770740723679663,-51.43587045396964
1590504620.147774,0.027752614797818764,-3.840452933639262,8.79977353318037,0.5988888888888889,0.36,-0.6533333333333333,1.2717769450817964,3.7092769450817964,-47.502177135790696
1590504620.157774,0.014262317580859146,-3.9180326181435565,8.63901665217988,0.5988888888888889,0.36,-0.6533333333333333,0.8432381970812937,3.1823776819616634,-43.34324248593257
1590504620.167774,0.04532481593763535,-3.9558874693229393,8.637099754583513,0.5988888888888889,0.36,-0.6533333333333333,0.8971867330734806,2.804923217121409,-39.67774875487224
1590504620.177774,0.032349125221151964,-3.9492426072060436,8.691514785587914,0.5988888888888889,0.36,-0.6533333333333333,0.8991494425566571,2.3896820326321997,-35.127885506473085
1590504620.187774,0.013777998017839443,-3.894073339940535,8.755926660059465,0.7203393899350292,0.4156222882942407,-0.6732348860257681,0.869908325074331,2.015275024777007,-30.549962834489595
1590504620.197774,0.008108147767709746,-3.8137297773212517,8.757459554642503,0.8633333333333333,0.4811111111111111,-0.6966666666666667,0.8554055541289116,1.511487031806009,-25.760138853222788
1590504620.207774,-0.005512680962229238,-3.8524365951888537,8.69,0.8633333333333333,0.4811111111111111,-0.6966666666666667,0.44818085337977576,0.913726597365843,-21.193357461630566
1590504620.217774,0.02625478734126184,-3.8974904253174762,8.673745212658739,0.8633333333333333,0.4811111111111111,-0.6966666666666667,0.260456561177182,0.619771719411409,-17.09315158234227
1590504620.227774,0.05987089786634897,-3.8964945304884653,8.673247265244232,0.8633333333333333,0.4811111111111111,-0.6966666666666667,0.375,0.43830688833531894,-13.222319397812196
1590504620.237774,0.05353110257131253,-3.811186615427875,8.696468897428687,1.40680694848002,0.49026049857149306,-1.0040860853354996,0.375,0.42646530446464836,-9.088547036585748
1590504620.247774,0.057759675005345304,-3.813279025016036,8.715519350010691,1.5233333333333334,0.4922222222222222,-1.07,0.13251015608295916,0.14651218729955096,-4.800152341244387
1590504620.2577739,0.11564524278712546,-3.788202718407357,8.576912232833106,1.5233333333333334,0.4922222222222222,-1.07,0.16186650497700977,-0.5336990298620585,1.069275491384973
1590504620.2677739,0.13,-3.8646996118831716,8.648899500992648,1.5233333333333334,0.4922222222222222,-1.07,0.2253123267335587,-0.7631246534671174,6.018108019888752
1590504620.2777739,0.14618418907905462,-3.92,8.730789459386036,1.5233333333333334,0.4922222222222222,-1.07,-0.08717060581363756,-1.1496706058136374,11.741771936973649
1590504620.2877738,0.18935972744360902,-3.949359727443609,8.769359727443609,1.1650359187900308,0.38620098423141186,-0.9297257466583124,-0.09975255521616544,-1.7433304942042607,16.97856090421366
1590504620.2977738,0.2316851449408818,-3.9624722825886773,8.747416847766033,0.7911111111111111,0.27555555555555555,-0.7833333333333333,-0.06811254558178936,-2.135532155880511,21.727480754355593
1590504620.3077738,0.28522582140824887,-3.9629216632595,8.658313346962002,0.7911111111111111,0.27555555555555555,-0.7833333333333333,-0.007718813884381115,-2.429781186115619,25.533410872726506
1590504620.3177738,0.3239968463036824,-3.9793312308691218,8.667324923476487,0.7911111111111111,0.27555555555555555,-0.7833333333333333,0.06667980706798998,-2.649980289398015,28.120524533902234
1590504620.3277738,0.3526277488749162,-3.9647445022501677,8.68895375187514,0.7911111111111111,0.27555555555555555,-0.7833333333333333,0.1578468609364527,-2.802615620312151,30.581965545306566
1590504620.3377738,0.37,-3.9449122807017547,8.771842105263158,0.6146491228070174,0.3385185185185185,-0.7344541910331384,-0.41721491228070173,-3.4342105263157894,32.93092105263158
1590504620.3477738,0.37,-3.969158830859862,8.707819568747404,0.5544444444444444,0.36,-0.7177777777777777,-0.6875,-3.385514614251728,33.432242692874134
1590504620.3577738,0.37,-3.918802565547594,8.65611974344524,0.5544444444444444,0.36,-0.7177777777777777,-0.6110032069344926,-3.020509620803478,33.38525481040174
1590504620.3677738,0.3645537412809131,-3.7765210843373493,8.610983671528219,0.5544444444444444,0.36,-0.7177777777777777,-0.15403059606848446,-2.977117350982879,33.07422618103995
1590504620.3777738,0.34235794859867424,-3.72087358995232,8.631747179904641,0.5544444444444444,0.36,-0.7177777777777777,0.07723717874171415,-2.979802884056286,32.57177724153971
1590504620.3877738,0.30121946104645064,-3.785040718604732,8.835203593023662,0.5141010644701532,0.36486902861758685,-0.7323848636305383,-0.6885179651183111,-3.148882859739261,31.365851420782217
1590504620.3977737,0.315474959638623,-3.723575121084131,8.752055250240538,0.49,0.36777777777777776,-0.7411111111111112,-0.26640751129303175,-2.8666882063240977,30.461031905872378
1590504620.4077737,0.3614860019557423,-3.6929720039114846,8.634377603129188,0.49,0.36777777777777776,-0.7411111111111112,0.3657124877766108,-2.3569274926659665,29.55220745355112
1590504620.4177737,0.39485129629629634,-3.7597025925925927,8.684851296296296,0.49,0.36777777777777776,-0.7411111111111112,0.005576388888888867,-2.613847222222222,27.904740740740742
1590504620.4277737,0.4,-3.778080692630797,8.677878961053805,0.49,0.36777777777777776,-0.7411111111111112,-0.08649134211503844,-2.747478355287596,25.864913421150383
1590504620.4377737,0.3865055357638074,-3.7270258335644346,8.709479702199372,0.4909995899434217,0.35428331354158515,-0.753605985403882,-0.07806733579367281,-2.4031134671587346,22.71630543763466
1590504620.4477737,0.35212944864466167,-3.6797842522588975,8.716388345933984,0.4922222222222222,0.3377777777777778,-0.7688888888888888,-0.10107873870551354,-2.065196846763784,18.639832657200813
1590504620.4577737,0.326762946504871,-3.6933814732524355,8.68,0.4922222222222222,0.3377777777777778,-0.7688888888888888,-0.37229212955050417,-1.6056710391386089,14.43712613228508
1590504620.4677737,0.33373678396717693,-3.655658040082058,8.68,0.4922222222222222,0.3377777777777778,-0.7688888888888888,-0.26200785071800536,-1.3712176503077167,9.909223607385197
1590504620.4777737,0.3455120017617265,-3.6455120017617264,8.718584012332085,0.4922222222222222,0.3377777777777778,-0.7688888888888888,0.2884001321294869,-0.8301998458489319,6.191849262277032
1590504620.4877737,0.3558936335142058,-3.6441063664857944,8.82072360217047,0.47978010702556556,0.29586749501009213,-0.7165010354292819,0.5144943716086414,-0.21648874321728287,2.0287170132452563
1590504620.4977736,0.3669190885840502,-3.591566379911648,8.717780051150894,0.4711111111111111,0.26666666666666666,-0.68,1.259141769355964,0.672653162055336,-2.2868911299697743
1590504620.5077736,0.4384210805225087,-3.7524562147266898,8.779239818764738,0.4711111111111111,0.26666666666666666,-0.68,0.7222218542168993,0.38230968972735224,-6.8260247476219496
1590504620.5177736,3.303994938962956,-11.378571897185969,1.6059640572646972,0.4711111111111111,0.26666666666666666,-0.68,0.2929880620445653,0.3320119379554347,-11.150603926989854
1590504620.5277736,5.3648108782994255,-6.840442591199398,-2.032776079266243,0.4711111111111111,0.26666666666666666,-0.68,-88.60878299425352,29.49056792534375,-27.213620283962673
1590504620.5377736,3.932325581395349,-0.6982945736434109,2.5587596899224816,0.435968992248062,0.3252368647717485,-0.6876141257536607,-243.99903100775194,-48.42296511627906,-35.54021317829457
1590504620.5477736,0.5974023776933606,-1.0996251980129497,4.847974961935375,0.4044444444444445,0.37777777777777777,-0.6944444444444444,-304.8877862536719,-113.70744355669707,-26.34256240291598
1590504620.5577736,-0.07774879755992647,-1.2206358268486295,2.885799867047276,0.4044444444444445,0.37777777777777777,-0.6944444444444444,-283.4826354944668,-58.322791616157666,-19.920118386579595
1590504620.5677736,0.5706349593099751,-0.886460698796355,4.375316017737927,0.4044444444444445,0.37777777777777777,-0.6944444444444444,-231.83890892256713,6.700224769748061,-12.49216960674431
1590504620.5777736,-0.22701981997210835,-1.4222063981743651,4.607691755060643,0.4044444444444445,0.37777777777777777,-0.6944444444444444,-199.3332628998859,41.41757701897477,-6.683120800405696
1590504620.5877736,-0.5722120743414107,-2.011692813827306,6.166013110407306,0.40252420351411294,0.43538500568772354,-0.6579598667681454,-107.01574046794825,75.90166427291253,-0.1189051336819621
1590504620.5977736,0.8403292158068303,-0.5410178301939522,4.109550053099324,0.4011111111111111,0.4777777777777778,-0.6311111111111111,21.118540746744173,3.330990442121731,-2.450285758202448
1590504620.6077735,1.0275213969036725,-1.0701711752293794,5.444793143507432,0.4011111111111111,0.4777777777777778,-0.6311111111111111,113.70343580336186,-17.803495222741176,-3.407297618483131
1590504620.6177735,1.0921577088124423,-1.5872616704995375,5.98177173474952,0.4011111111111111,0.4777777777777778,-0.6311111111111111,187.2583157495436,-5.124834040636333,-2.941170369141042
1590504620.6277735,1.2353915059877387,-2.0724152663511326,6.891994536387027,0.4011111111111111,0.4777777777777778,-0.6311111111111111,242.5274391696579,0.9370860598456212,-5.28415949302754
1590504620.6377735,1.182670650681118,-2.599576853123492,7.425536913997253,0.40804923515995856,0.487799512515002,-0.6141512523250394,305.10479148880887,3.752544912957945,-10.626023068928399
1590504620.6477735,0.35123878579328993,-0.6438377780508784,1.5039363401745112,0.4211111111111111,0.5066666666666667,-0.5822222222222222,378.39485068206955,0.0972747941501777,-18.492741489492442
1590504620.6577735,0.011007268951194187,0.0026652821045344277,-0.9894288681204568,0.4211111111111111,0.5066666666666667,-0.5822222222222222,228.7618985808238,-17.75038940809969,-14.04408965039806
1590504620.6677735,0.2077903160114042,-0.227275210235032,-0.3724672368767819,0.4211111111111111,0.5066666666666667,-0.5822222222222222,60.244158640599906,-25.163974340544815,-5.991923021634443
1590504620.6777735,0.22693283881315157,-0.21686347233360065,1.1483454290296713,0.4211111111111111,0.5066666666666667,-0.5822222222222222,-3.346651964715317,-4.76930758821171,1.575811948676824
1590504620.6877735,0.16506259882319396,-0.8371074937141969,3.665174836050701,0.4244583552940431,0.4492056415263342,-0.6296415148137587,-55.72585959978227,31.67786716866689,10.801725031753026
1590504620.6977735,2.226565399171543e-05,-2.313004626308107,8.28583112738428,0.42777777777777776,0.3922222222222223,-0.6766666666666666,-67.00250488607406,18.355693822518,11.68018325870216
1590504620.7077734,-0.07394207014608906,-3.254018518878752,11.104018518878751,0.42777777777777776,0.3922222222222223,-0.6766666666666666,-14.180884898943724,-2.552694671931838,11.06916251677787
1590504620.7177734,0.04008128979813034,-2.5180896897439373,7.8880598834846225,0.42777777777777776,0.3922222222222223,-0.6766666666666666,37.70858454139005,8.22910174773066,16.129572551144832
1590504620.7277734,0.09071341391393362,-3.015597464467105,10.109899011772118,0.42777777777777776,0.3922222222222223,-0.6766666666666666,14.783958029843689,1.5277446946730198,15.62968768455451
1590504620.7377734,0.043763977819307014,-3.5345553138690606,11.784546735700498,0.4159057286507426,0.3853489306223598,-0.668543685685011,-18.24505414968904,-4.434650822585093,14.304425415887994
1590504620.7477734,0.0,-2.97,9.29,0.4066666666666667,0.38,-0.6622222222222223,-21.5,-1.125,15.125
1590504620.7577734,0.0920328528620486,-2.4435729127933685,7.45094468382948,0.4066666666666667,0.38,-0.6622222222222223,6.7283104398608895,-0.5542867844878496,16.854722598919487
1590504620.7677734,0.07748674010607916,-2.6019724787656244,7.671930195467527,0.4066666666666667,0.38,-0.6622222222222223,7.223885890731056,1.0025847520492563,18.012791624939727
1590504620.7777734,0.02369106118625404,-3.1820162045786975,9.850103867076438,0.4066666666666667,0.38,-0.6622222222222223,-4.9708942100678755,-1.8456302282774828,18.23095530593127
1590504620.7877734,0.0921877998629198,-2.404594928032899,7.030867717614805,0.40731490366308737,0.3804861777473155,-0.663842814713274,-3.01817169294037,-3.7466929403701164,18.758490404386567
1590504620.7977734,0.14394360746371804,-3.066972771250864,8.741482239115411,0.4155555555555556,0.38666666666666666,-0.6844444444444444,0.7786126468555632,-1.7433914996544577,21.661530753282655
1590504620.8077734,0.16,-2.79,7.75,0.4155555555555556,0.38666666666666666,-0.6844444444444444,-0.25,-3.625,21.9375
1590504620.8177733,0.09992051675060215,-3.2805828771622507,9.178477118458506,0.4155555555555556,0.38666666666666666,-0.6844444444444444,-0.9398182614407707,-2.248344098970878,24.60289714254434
1590504620.8277733,0.16,-2.9575915679843776,8.168510878001152,0.4155555555555556,0.38666666666666666,-0.6844444444444444,0.2030315073980422,-2.711276068397466,26.100266317001726
1590504620.8377733,0.17359981807615535,-3.1582012279859515,8.73700432069131,0.4178221919015815,0.3844000303206408,-0.6919998989311974,-1.461248010207949,-1.7912360714556435,27.522498862975972
1590504620.8477733,0.18150933473573494,-3.1510386536944517,8.613870628451222,0.4222222222222222,0.38,-0.7066666666666667,-1.172166710491717,-2.5990500920326056,28.38089994740994
1590504620.8577733,5.232998506913638,-8.42299850691364,6.286591218921083,0.4222222222222222,0.38,-0.7066666666666667,0.48684082401055984,-1.9833393742020644,29.219333574968083
1590504620.8677733,-1.3704543123782162,-16.209783611937237,6.409423648856528,0.4222222222222222,0.38,-0.7066666666666667,-12.425392267459747,-5.034752845861963,-41.669963337093634
1590504620.8777733,-6.495083552848205,-9.646784244320052,5.9184483042476135,0.4222222222222222,0.38,-0.7066666666666667,-29.252803959499506,13.418926983865656,-161.5272820114422
1590504620.8877733,2.394966015818092,0.46393042511122107,10.29690682155215,0.44144861866315155,0.368250535508321,-0.7189501977261493,14.609506302521012,28.72209049060801,-120.92223415101334
1590504620.8977733,3.47,-0.85,19.51,0.4622222222222222,0.3555555555555556,-0.7322222222222222,65.375,18.5625,-16.4375
1590504620.9077733,1.452357121705656,0.18133635094547146,4.203358010068108,0.4622222222222222,0.3555555555555556,-0.7322222222222222,55.55526619146326,15.628180654850036,-14.724676382249672
1590504620.9177732,1.3902561445069588,-0.9453528068023183,6.749498075214687,0.4622222222222222,0.3555555555555556,-0.7322222222222222,-24.23340004864842,-8.214158805364018,-0.8074038136130959
1590504620.9277732,0.9131894744451674,-3.2063890696161357,12.257622352345841,0.4622222222222222,0.3555555555555556,-0.7322222222222222,-16.541183221282438,12.726803657919469,9.20900202414516
1590504620.9377732,0.12952588589326292,-2.3630172572621753,7.494655161825217,0.4416043999535985,0.3717552730523314,-0.7130771015442144,4.715650525087514,-0.2823266597064422,11.059402444267027
1590504620.9477732,-0.38289036446367963,-4.015061287406068,7.809280558478709,0.4155555555555556,0.3922222222222223,-0.6888888888888889,-3.1212529087432745,0.6750248262164846,15.939342512857756
1590504620.9577732,-1.4645844758333457,-6.812546058189687,8.443377106522997,0.4155555555555556,0.3922222222222223,-0.6888888888888889,-6.423839096473936,-4.531405163853028,20.79608690657932
1590504620.9677732,1.2150393752604907,-12.366884418803606,8.334089981793054,0.4155555555555556,0.3922222222222223,-0.6888888888888889,-2.527015651391844,-8.009974060587448,88.17093414789304
1590504620.9777732,7.3435492200674535,-10.830856871838112,7.070964903035414,0.4155555555555556,0.3922222222222223,-0.6888888888888889,4.4979118360033725,-5.8992444403457,75.3134452729764
1590504620.9877732,-0.6111139855506831,-1.587878663595924,9.640700381739597,0.42644281092146824,0.3872322301795123,-0.6947861522120916,1.5715880051739912,3.4457953434078945,-21.980733586774775
1590504620.9977732,-1.12,-1.15,10.12,0.44222222222222224,0.38,-0.7033333333333334,9.375,13.875,-42.0625
1590504621.0077732,-2.095143851267138,-4.139827845866224,6.86338751557956,0.44222222222222224,0.38,-0.7033333333333334,-1.7793577326547574,3.4106025394682185,-28.148301178853345
1590504621.0177732,0.9521434213991046,-3.7148266479417185,8.952065303256385,0.44222222222222224,0.38,-0.7033333333333334,-1.9961379794610727,-6.20451154217502,23.73528153251997
1590504621.0277731,2.0221481433811697,-5.272342493081923,8.285923804620632,0.44222222222222224,0.38,-0.7033333333333334,0.6114695282836733,-1.5300212368878308,13.914404884484203
1590504621.0377731,0.13496907747809658,-5.053275210444941,8.98988747637863,0.4371462520758175,0.38369161465193075,-0.7093322071427208,-1.2711733379144476,0.512309955334135,-8.64241002405085
1590504621.0477731,0.17699098477757522,-4.704096260899552,8.600481304497759,0.43,0.3888888888888889,-0.7177777777777777,-0.8930704714517956,0.41339166954037143,-1.1821764618946746
1590504621.057773,0.31752000817355175,-4.686106154003338,8.537787691993325,0.43,0.3888888888888889,-0.7177777777777777,-0.3711250127711746,-0.6941346252085958,3.0221058389810302
1590504621.067773,0.02203469631668538,-4.640337546629966,8.561017348158343,0.43,0.3888888888888889,-0.7177777777777777,0.18008674079171344,-0.27118494440621493,0.27118494440621493
1590504621.077773,0.09106273073499585,-4.485104551224993,8.638728166815017,0.43,0.3888888888888889,-0.7177777777777777,0.2260455122499307,-0.10638068903124134,0.08776137806248267
1590504621.087773,0.07270184296157944,-4.454503071602632,8.718292013833157,0.43,0.3888888888888889,-0.7177777777777777,-0.07996928397367614,-0.06812883950329049,0.011257679006580965
1590504621.097773,0.09180727229089164,-4.6892763710548415,8.598916356654266,0.4355555555555555,0.37333333333333335,-0.7322222222222222,-0.4435227409096364,-0.11370454818192728,-0.13629545181807273
1590504621.107773,0.09887731746395056,-4.55636186770428,8.719147402151522,0.4355555555555555,0.37333333333333335,-0.7322222222222222,-0.16411078049897002,-0.055483234149691,-0.185161078049897
1590504621.117773,0.07725717139692949,-4.636542528935311,8.534343228160083,0.4355555555555555,0.37333333333333335,-0.7322222222222222,0.4828573212308093,0.05696401815378602,-0.10232133938459534
1590504621.127773,0.0822661811635709,-4.544136731855004,8.697422060387856,0.4355555555555555,0.37333333333333335,-0.7322222222222222,0.4336030193928484,-0.014163632272318143,-0.04638787742410605
1590504621.137773,0.06632213753245665,-4.6620671748052604,8.697902671915571,0.43889223925324095,0.3724552586760477,-0.7290611534559939,0.01310830052768238,0.10524332021107295,-0.009878339894463522
1590504621.147773,0.0941266163390388,-4.489366918304806,8.710633081695194,0.4566666666666666,0.36777777777777776,-0.7122222222222222,-0.3234172957620151,0.0,-0.09920864788100756
1590504621.157773,0.08300324782925697,-4.602045469609598,8.585941539073374,0.4566666666666666,0.36777777777777776,-0.7122222222222222,-0.4624594021342878,-0.0750811957314244,-0.1687297010671439
1590504621.167773,0.07977357551629759,-4.666764120427968,8.493235879572033,0.4566666666666666,0.36777777777777776,-0.7122222222222222,-0.19923332918636474,-0.1701060587210749,-0.09304242348842995
1590504621.177773,0.05474739501105147,-4.565252604988949,8.613736975055257,0.4566666666666666,0.36777777777777776,-0.7122222222222222,0.2679931717713925,0.0031575623618566515,0.0
1590504621.187773,0.07,-4.543691959590809,8.688948659931802,0.4558489577247345,0.36976364235104153,-0.7105868043383579,0.0921456228687976,-0.17435824914751905,-0.013141750852480958
1590504621.197773,0.07349088436744561,-4.566799456083803,8.666036462530217,0.4488888888888889,0.38666666666666666,-0.6966666666666667,-0.2747721091861402,-0.0625,-0.0377278908138598
1590504621.207773,0.08,-4.678306939954379,8.616230204965785,0.4488888888888889,0.38666666666666666,-0.6966666666666667,-0.38797959367871737,-0.04599319789290579,0.04246598946452894
1590504621.217773,0.08,-4.595710816088747,8.554283112066562,0.4488888888888889,0.38666666666666666,-0.6966666666666667,-0.25892315013866785,-0.0029743833795559393,-0.17262808310222033
1590504621.227773,0.07819989004311467,-4.59,8.618001099568852,0.4488888888888889,0.38666666666666666,-0.6966666666666667,0.2725013744610666,0.03999862553893342,-0.09124793830840013
1590504621.237773,0.07213157209409995,-4.59,8.678684279059,0.4488888888888889,0.38666666666666666,-0.6966666666666667,0.3483553488237507,-0.03585534882375069,0.022533023235626032
1590504621.247773,0.08977896775663666,-4.589557935513273,8.74867380653982,0.4355555555555555,0.36777777777777776,-0.7122222222222222,0.1167112908738749,0.06388145152102084,-0.06111854847897915
1590504621.257773,0.08181440127606243,-4.5736288025521254,8.700886407656375,0.4355555555555555,0.36777777777777776,-0.7122222222222222,-0.18195995214765864,0.11365999202460977,-0.01134000797539022
1590504621.267773,0.08783758746427515,-4.576487237607175,8.56144160835715,0.4355555555555555,0.36777777777777776,-0.7122222222222222,-0.4149748694195329,0.11598994776781314,-0.05799497388390657
1590504621.277773,0.06303636542820537,-4.650890903715384,8.577975756381196,0.4355555555555555,0.36777777777777776,-0.7122222222222222,-0.15662880654380607,0.012651522617522407,-0.006325761308761203
1590504621.287773,0.05084839680398465,-4.59,8.662545190411954,0.43531988977667085,0.3682962424913239,-0.7122222222222222,0.184848759987548,0.05984875998754799,-0.0053024800249040155
1590504621.297773,0.06825754902978107,-4.59,8.714772647089344,0.43048401415839416,0.3789351688515329,-0.7122222222222222,0.1304451592819342,0.00544515928193421,-0.11410968143613158
1590504621.3077729,0.07826426675201928,-4.598678666239904,8.639171201024231,0.43,0.38,-0.7122222222222222,-0.34504499839963854,-0.1141516672001205,-0.021696665599759007
1590504621.3177729,0.07036733003219552,-4.638163349839022,8.544407960386346,0.43,0.38,-0.7122222222222222,-0.49311256189633423,-0.06479581270122192,-0.12040837459755617
1590504621.3277729,0.0647943986233905,-4.607602800688305,8.583971993116952,0.43,0.38,-0.7122222222222222,-0.12757001720761882,0.15753500860380942,-0.1725175043019047
1590504621.3377728,0.0789764561547,-4.6010235438453,8.6661412630718,0.43125099803314443,0.3793176374364667,-0.7137006744432111,0.09448574516562482,0.0625,-0.11860285096687503
1590504621.3477728,0.07255963658775995,-4.59976145364896,8.72,0.44222222222222224,0.37333333333333335,-0.7266666666666667,0.31100908530600135,0.09449545734699934,-0.07849772867349966
1590504621.3577728,0.0777725626608215,-4.5744548746783575,8.693270751929859,0.44222222222222224,0.37333333333333335,-0.7266666666666667,0.06931406652053751,0.11789258315067187,-0.11107851663013438
1590504621.3677728,0.07217057152172901,-4.596511714565187,8.604341143043458,0.44222222222222224,0.37333333333333335,-0.7266666666666667,-0.11143392798919372,-0.08430178396758117,-0.0625
1590504621.3777728,0.08,-4.621167094250747,8.623501282752239,0.44222222222222224,0.37333333333333335,-0.7266666666666667,-0.033322643731337004,0.05520566093283425,-0.0625
1590504621.3877728,0.08,-4.627047146401985,8.641141439205956,0.44222222222222224,0.37333333333333335,-0.7266666666666667,0.11367866004962779,0.018455334987593053,-0.0625
1590504621.3977728,0.06382335851249274,-4.581470075537478,8.658088320743754,0.44761443605139134,0.37333333333333335,-0.7311601781909742,0.28860400929692037,0.20220801859384077,-0.0625
1590504621.4077728,0.07867168403447833,-4.597343368068956,8.656716840344783,0.4488888888888889,0.37333333333333335,-0.7322222222222222,0.17528222693940565,-0.125,-0.05419802521548951
1590504621.4177728,0.0704450378282154,-4.581780151312862,8.571335113484647,0.4488888888888889,0.37333333333333335,-0.7322222222222222,-0.3208444592790387,-0.11943702714730753,-0.0027814864263462392
1590504621.4277728,0.07816758557100653,-4.62,8.6,0.4488888888888889,0.37333333333333335,-0.7322222222222222,-0.46564222945637246,0.02290518036241838,-0.0625
1590504621.4377728,0.07027510678734736,-4.62,8.6,0.4488888888888889,0.37333333333333335,-0.7322222222222222,-0.31765825226276273,0.12156116515815818,-0.0625
1590504621.4477727,0.08673667672716748,-4.603263323272833,8.658578368545086,0.4433099966464997,0.3686842564646757,-0.7024681302628133,0.0013126886343903799,-0.03190634431719519,-0.0625
1590504621.4577727,0.06141768037264167,-4.6085823196273585,8.690076237391509,0.44222222222222224,0.36777777777777776,-0.6966666666666667,0.17863949767098958,0.07136050232901042,-0.008860502329010422
1590504621.4677727,0.06844542743205657,-4.601554572567943,8.640882007975605,0.44222222222222224,0.36777777777777776,-0.6966666666666667,0.13471607854964646,0.11528392145035354,-0.052783921450353544
1590504621.4777727,0.07135473780717998,-4.647290524385641,8.609483164650259,0.44222222222222224,0.36777777777777776,-0.6966666666666667,-0.16209866611537563,-0.00846711129487479,0.16209866611537563
1590504621.4877727,0.07889478131123376,-4.632210437377532,8.662263469178637,0.44222222222222224,0.36777777777777776,-0.6966666666666667,-0.02072285041436714,-0.05559238319521096,0.02072285041436714
1590504621.4977727,0.07199339858866378,-4.614019804234009,8.671960391531982,0.44222222222222224,0.37333333333333335,-0.7266666666666667,0.3125,0.0,-0.024917482358297292
1590504621.5077727,0.08164952975001219,-4.59,8.700205642999855,0.44222222222222224,0.37333333333333335,-0.7266666666666667,0.2609521953121193,-0.020619121875152285,-0.09407131718727157
1590504621.5177727,0.08662196974701103,-4.593378030252989,8.6,0.44222222222222224,0.37333333333333335,-0.7266666666666667,-0.04222537816236211,-0.10388731091881895,0.04138731091881895
1590504621.5277727,0.07065533071013679,-4.611310661420274,8.601310661420273,0.44222222222222224,0.37333333333333335,-0.7266666666666667,-0.25409581693835487,0.008191633876709762,-0.054308366123290236
1590504621.5377727,0.07720442195990257,-4.624408843919805,8.614408843919804,0.44222222222222224,0.37333333333333335,-0.7266666666666667,-0.2950276372493911,0.0900552744987821,0.027555274498782104
1590504621.5477726,0.07116505568010585,-4.621165055680106,8.66417472159947,0.44811218510215167,0.3851132590931922,-0.7139050804268195,-0.2572815980006615,0.125,-0.047936803998676905
1590504621.5577726,0.060781423689736096,-4.592344271069208,8.655311457861584,0.4488888888888889,0.38666666666666666,-0.7122222222222222,-0.04296440775659764,0.0,-0.05273220387829882
1590504621.5677726,0.06941557906871423,-4.618246737206142,8.603506525587715,0.4488888888888889,0.38666666666666666,-0.7122222222222222,0.17288947671785582,0.0,0.05519473835892791
1590504621.5777726,0.08890192318538154,-4.602196153629237,8.641098076814618,0.4488888888888889,0.38666666666666666,-0.7122222222222222,0.028185099543172977,-0.006862980091365405,0.055637019908634594
1590504621.5877726,0.08101686312108736,-4.617966273757825,8.648983136878913,0.4488888888888889,0.38666666666666666,-0.7122222222222222,-0.21822302746601996,-0.05614460549320399,0.006355394506796008
1590504621.5977726,0.08,-4.627418522955713,8.657418522955712,0.4389975249479381,0.37677530272571597,-0.6949123353255584,-0.01817115763396754,0.03023153694641298,0.0
1590504621.6077726,0.07155754921855531,-4.607663676172168,8.665327352344335,0.4355555555555555,0.37333333333333335,-0.6888888888888889,0.24513265869201467,0.05763265869201467,-0.0625
1590504621.6177726,0.08648972907543878,-4.585265406386842,8.620530812773683,0.4355555555555555,0.37333333333333335,-0.6888888888888889,0.1984695966392538,0.0109695966392538,-0.0625
1590504621.6277726,0.07,-4.5911340687461095,8.65773186250778,0.4355555555555555,0.37333333333333335,-0.6888888888888889,0.019972422020886643,-0.00708792966318556,-0.00708792966318556
1590504621.6377726,0.07,-4.5983861262881245,8.64322774742375,0.4355555555555555,0.37333333333333335,-0.6888888888888889,-0.25197973580468913,-0.052413289300781526,-0.052413289300781526
1590504621.6477726,0.06291399871462236,-4.61,8.63854300064269,0.44222222222222224,0.38,-0.7055555555555556,-0.23178750803361026,0.04428750803361024,-0.08857501606722049
1590504621.6577725,0.07722822602802455,-4.608614113014013,8.620298791098087,0.44222222222222224,0.38,-0.7055555555555556,-0.1163382063375767,-0.0798235873248466,0.1076764126751534
1590504621.6677725,0.06198702911549606,-4.598012970884503,8.567948116461984,0.44222222222222224,0.38,-0.7055555555555556,-0.05008106802814958,-0.16887160204222437,0.0
1590504621.6777725,0.07943897518660481,-4.58112204962679,8.64112204962679,0.44222222222222224,0.38,-0.7055555555555556,0.04496797458140004,0.0,-0.010519215251159977
1590504621.6877725,0.07097760742384507,-4.598044785152309,8.65804478515231,0.44222222222222224,0.38,-0.7055555555555556,-0.21944976800484167,0.0,-0.169169860802905
1590504621.6977725,0.09,-4.618531798452539,8.66,0.43,0.3922222222222223,-0.7033333333333334,-0.2941474806567277,-0.07911870164181922,0.009176259671636157
1590504621.7077725,0.09,-4.61,8.64828529119419,0.43,0.3922222222222223,-0.7033333333333334,-0.1289264559709516,0.16553492098910685,0.04053492098910684
1590504621.7177725,0.09,-4.61,8.563203034667424,0.43,0.3922222222222223,-0.7033333333333334,0.2964848266628801,0.0060056900014199555,-0.11899430999858004
1590504621.7277725,0.08884958449316292,-4.600575207753418,8.641150415506837,0.43,0.3922222222222223,-0.7033333333333334,0.22842970924680497,0.12140495154113416,0.0625
1590504621.7377725,0.07180547371843063,-4.609097263140785,8.65819452628157,0.43,0.3922222222222223,-0.7033333333333334,-0.09114736777942584,0.0681421053700957,0.0625
1590504621.7477725,0.07652957461997877,-4.603470425380021,8.66,0.4379805912021963,0.3798885812733735,-0.7091373996622033,-0.125,0.0625,0.021690158625132773
1590504621.7577724,0.08,-4.6,8.668056806119834,0.44222222222222224,0.37333333333333335,-0.7122222222222222,-0.074644961751034,0.0625,0.100710076497932
1590504621.7677724,0.08,-4.6,8.615890737219134,0.44222222222222224,0.37333333333333335,-0.7122222222222222,-0.0625,0.0625,0.08272713845244908
1590504621.7777724,0.07042137476459512,-4.6,8.618735875706214,0.44222222222222224,0.37333333333333335,-0.7122222222222222,0.236832038606403,0.0625,-0.1170992231638418
1590504621.7877724,0.09294979784366578,-4.5923500673854445,8.642949797843666,0.44222222222222224,0.37333333333333335,-0.7122222222222222,0.0587516846361186,-0.0331241576819407,-0.17281207884097036
1590504621.7977724,0.08038954176530268,-4.6111686252959085,8.66844183293879,0.44222222222222224,0.36777777777777776,-0.6822222222222222,-0.3100653639668583,0.1801960919005749,-0.1225653639668583
1590504621.8077724,0.08925473452823808,-4.637764203584714,8.63298106188705,0.44222222222222224,0.36777777777777776,-0.6822222222222222,-0.254657909198512,0.013973727595536029,-0.067157909198512
1590504621.8177724,0.07059091920765637,-4.628227242377031,8.552363676830627,0.44222222222222224,0.36777777777777776,-0.6822222222222222,-0.055113509904295574,-0.18011350990429556,0.0073864900957044295
1590504621.8277724,0.07992610727798799,-4.600221678166036,8.589704429111952,0.44222222222222224,0.36777777777777776,-0.6822222222222222,0.061576340974849764,-0.06342365902515024,0.12407634097484976
1590504621.8377724,0.08,-4.608026968112811,8.678296649240918,0.44222222222222224,0.36777777777777776,-0.6822222222222222,0.2631742028202705,-0.012331449294932385,-0.025505652115202837
1590504621.8477724,0.07281913689263235,-4.61,8.707180863107368,0.42786049600748693,0.38134163031391666,-0.7141371693660785,0.13297842231580853,0.04488039442104787,-0.017619605578952133
1590504621.8577724,0.07121037326595796,-4.6193948133670215,8.68394813367021,0.4222222222222222,0.38666666666666666,-0.7266666666666667,-0.058717583543881395,0.12121758354388139,0.0
1590504621.8677723,0.08820526776628725,-4.609401755922096,8.592991220389521,0.4222222222222222,0.38666666666666666,-0.7266666666666667,0.0037390254869015785,0.05876097451309842,0.0
1590504621.8777723,0.06084024364788705,-4.599579878176056,8.641260365471831,0.4222222222222222,0.38666666666666666,-0.7266666666666667,0.0677515227992941,-0.007877284198941157,0.0
1590504621.8877723,0.07675819275508075,-4.591620903622459,8.665137289132621,0.4222222222222222,0.38666666666666666,-0.7266666666666667,0.16723870471925462,-0.15710805707888195,0.0
1590504621.8977723,0.08,-4.590030706022272,8.669953940966591,0.44222222222222224,0.38666666666666666,-0.7177777777777777,0.062116174721591526,-0.12471213104119364,-0.0625
1590504621.9077723,0.08,-4.608170180560061,8.64274472915991,0.44222222222222224,0.38666666666666666,-0.7177777777777777,-0.16462725700075684,0.04534544275056762,-0.0625
1590504621.9177723,0.09891795630690511,-4.628917956306905,8.56432817477238,0.44222222222222224,0.38666666666666666,-0.7177777777777777,-0.12838138654092152,0.0625,0.05573722691815697
1590504621.9277723,0.09081621347121555,-4.639183786528784,8.56,0.44222222222222224,0.38666666666666666,-0.7177777777777777,-0.125,0.0051013341950971805,-0.05229733160980564
1590504621.9377723,0.09,-4.622915542243706,8.611253373268884,0.44222222222222224,0.38666666666666666,-0.7177777777777777,0.08855572195367872,0.0,-0.026907379674386882
1590504621.9477723,0.08519916688362406,-4.600398333767248,8.674004165581879,0.44542277763313953,0.3775984263357343,-0.71511064826868,0.1899895860453007,-0.030005206977349652,-0.060010413954699304
1590504621.9577723,0.07250455666345021,-4.6049908866731,8.69250455666345,0.4488888888888889,0.36777777777777776,-0.7122222222222222,0.031306958293127476,-0.10934652085343627,-0.031306958293127476
1590504621.9677722,0.07017445161290323,-4.610348903225807,8.570872258064517,0.4488888888888889,0.36777777777777776,-0.7122222222222222,-0.1820483870967742,0.0625,-0.06140967741935484
1590504621.9777722,0.07739045161290323,-4.6247809032258065,8.606952258064515,0.4488888888888889,0.36777777777777776,-0.7122222222222222,0.0434516129032258,0.0625,-0.016309677419354837
1590504621.9877722,0.0730447319201995,-4.595223659600998,8.661731608478803,0.4488888888888889,0.36777777777777776,-0.7122222222222222,0.125,0.0625,-0.13041127649625936
1590504621.9977722,0.07,-4.598612662177698,8.692408441451798,0.4282081531358917,0.37949686137114286,-0.6977457071951242,0.04744724092626047,-0.015052759073739527,-0.032394481852520945
1590504622.0077722,0.07,-4.596588322754046,8.679882484131069,0.4155555555555556,0.38666666666666666,-0.6888888888888889,0.12573447418082004,-0.14632298278721334,0.10441149139360667
1590504622.0177722,0.0771304347826087,-4.604260869565217,8.598695652173912,0.4155555555555556,0.38666666666666666,-0.6888888888888889,-0.0798913043478261,-0.05380434782608695,0.08043478260869566
1590504622.0277722,0.08897199649578588,-4.61,8.61485998247893,0.4155555555555556,0.38666666666666666,-0.6888888888888889,-0.019275065704014743,0.05607497809866176,0.006425021901338243
1590504622.0377722,0.0747453937342912,-4.61,8.63525460626571,0.4155555555555556,0.38666666666666666,-0.6888888888888889,-0.04767064458034,-0.03284128916068001,-0.14301193374102
1590504622.0477722,0.09597918473547268,-4.601340271754842,8.683298641225788,0.4386481642093091,0.37512036233978996,-0.7033217692974849,-0.11662330153223474,-0.0625,-0.1875
1590504622.0577722,0.0913981692836227,-4.617203661432755,8.655592677134491,0.44222222222222224,0.37333333333333335,-0.7055555555555556,0.09004576790943256,0.15254576790943256,-0.07997711604528372
1590504622.0677722,0.09,-4.610589608413985,8.57471686731188,0.44222222222222224,0.37333333333333335,-0.7055555555555556,-0.051444842237784255,0.011055157762215745,-0.0036850525874052506
1590504622.0777721,0.08122005706575833,-4.618779942934242,8.587559885868483,0.44222222222222224,0.37333333333333335,-0.7055555555555556,-0.0625,0.10974928667802084,0.05487464333901042
1590504622.0877721,0.08522700530922657,-4.62,8.631816042473812,0.44222222222222224,0.37333333333333335,-0.7055555555555556,0.002837566365332181,0.05966243363466782,-0.002837566365332181
1590504622.0977721,0.08293907101602538,-4.612939071016025,8.677060928983975,0.4351612932382476,0.3713719641711182,-0.7024173648960113,0.10663080614984138,-0.02206540307492069,-0.08456540307492069
1590504622.107772,0.07,-4.609240843270869,8.699240843270868,0.4222222222222222,0.36777777777777776,-0.6966666666666667,0.3030105408858603,0.05301054088586031,-0.06724472955706984
1590504622.117772,0.07880911807015603,-4.592381763859688,8.611908819298439,0.4222222222222222,0.36777777777777776,-0.6966666666666667,-0.017841927630850962,0.0625,-0.0625
1590504622.127772,0.08620599517941406,-4.608617985538242,8.624823980717656,0.4222222222222222,0.36777777777777776,-0.6966666666666667,-0.14007493974267576,-0.015074939742675764,-0.023712530128662118
1590504622.137772,0.08439408246773686,-4.62,8.651211835064526,0.4222222222222222,0.36777777777777776,-0.6966666666666667,-0.11742603084671074,-0.09753698457664463,-0.07007396915328926
1590504622.147772,0.07443040891570304,-4.631139182168594,8.682278364337188,0.4265541263988976,0.3782981164925609,-0.6923347624899913,0.007119888553712081,-0.09019005572314395,0.014239777107424162
1590504622.157772,0.07,-4.625856346075364,8.650497211263774,0.43,0.38666666666666666,-0.6888888888888889,0.0625,-0.018301081485512176,-0.007596755543463479
1590504622.167772,0.07,-4.62,8.604318238727199,0.43,0.38666666666666666,-0.6888888888888889,0.02237224801124872,0.0,-0.10262775198875128
1590504622.177772,0.09358383253685132,-4.612138722487717,8.61358383253685,0.43,0.38666666666666666,-0.6888888888888889,-0.049132984451773574,0.049132984451773574,-0.02673403109645285
1590504622.187772,0.08719026707940393,-4.603595133539702,8.62,0.43,0.38666666666666666,-0.6888888888888889,-0.10253041537686272,0.0625,0.0
1590504622.197772,0.08,-4.622497951659156,8.657496586098594,0.4441653769705798,0.38166712185352086,-0.7063872957348991,-0.03125853475351632,0.10937073262324185,0.0
1590504622.207772,0.07378603482319153,-4.617572069646383,8.676213965176808,0.4488888888888889,0.38,-0.7122222222222222,0.1553491294202118,0.08616271764494704,0.0
1590504622.217772,0.07,-4.6024356974424085,8.61948557953927,0.4488888888888889,0.38,-0.7122222222222222,0.10816932704516599,0.15705378196988934,0.047276890984944676
1590504622.227772,0.08446597955077403,-4.607232989775387,8.614465979550774,0.4488888888888889,0.38,-0.7122222222222222,0.017293813903831154,0.09708762780766231,0.017293813903831154
1590504622.237772,0.09,-4.61,8.636499637733662,0.4488888888888889,0.38,-0.7122222222222222,0.025780683958846543,0.0625,0.0
1590504622.247772,0.08886624255439847,-4.61,8.66,0.44851096974035504,0.37962208085146615,-0.7125371548460004,0.05541401596499048,0.05895700798249524,0.003542992017504761
1590504622.257772,0.07688036866359448,-4.61,8.701282211981567,0.44222222222222224,0.37333333333333335,-0.7177777777777777,-0.0625,-0.043002304147465434,-0.023504608294930868
1590504622.267772,0.08,-4.61,8.613693112061302,0.44222222222222224,0.37333333333333335,-0.7177777777777777,-0.0625,0.026089073282248854,-0.0625
1590504622.277772,0.07391186001296177,-4.616088139987038,8.600440699935191,0.44222222222222224,0.37333333333333335,-0.7177777777777777,-0.024449125081011013,-0.013601749837977975,-0.0625
1590504622.287772,0.07576281431334624,-4.602711557059961,8.643051257253385,0.44222222222222224,0.37333333333333335,-0.7177777777777777,-0.03601758945841393,-0.0625,-0.09851758945841393
1590504622.297772,0.07544482790784442,-4.603665516276466,8.664555172092156,0.4366547896651432,0.37333333333333335,-0.7081613033610048,-0.09096982557597239,-0.11943965115194477,-0.125
1590504622.307772,0.07506813937780604,-4.614931860622194,8.659863721244388,0.43,0.37333333333333335,-0.6966666666666667,0.03337935555643848,-0.06079651555484922,-0.029972386666136913
1590504622.317772,0.09548870997351237,-4.602255645013243,8.58804516010595,0.43,0.37333333333333335,-0.6966666666666667,0.28430443733445226,-0.13110887466890456,0.01409778133277386
1590504622.327772,0.0737003805880381,-4.606574904852991,8.596299619411962,0.43,0.37333333333333335,-0.6966666666666667,0.18922053400642858,-0.1875,0.12327946599357141
1590504622.337772,0.06606241519674355,-4.616062415196744,8.640312075983717,0.43,0.37333333333333335,-0.6966666666666667,0.08710990502035279,-0.03593962008141113,0.03593962008141113
1590504622.347772,0.07,-4.612364747715184,8.675270504569632,0.450360672759509,0.3784235015232106,-0.7085437257763803,0.0625,0.014779673219900674,-0.11022032678009933
1590504622.3577719,0.07,-4.615735946119742,8.668528107760517,0.4566666666666666,0.38,-0.7122222222222222,0.02665033675161607,0.03584966324838393,-0.05330067350323214
1590504622.3677719,0.08349206349206349,-4.606507936507937,8.612777777777778,0.4566666666666666,0.38,-0.7122222222222222,0.0,-0.06398809523809523,0.08432539682539682
1590504622.3777719,0.08309716475408166,-4.6069028352459185,8.624514176229592,0.4566666666666666,0.38,-0.7122222222222222,0.08628544057397933,0.004428160860968977,0.03871455942602067
1590504622.3877718,0.07473588916004094,-4.61,8.64526411083996,0.4566666666666666,0.38,-0.7122222222222222,0.0591986145005117,0.0625,0.03290069274974415
1590504622.3977718,0.07,-4.613909943796882,8.653909943796881,0.45362559926909213,0.382606629197921,-0.7061400874270732,-0.02443714873050933,0.0625,0.0625
1590504622.4077718,0.07,-4.62,8.644669905376501,0.4488888888888889,0.38666666666666666,-0.6966666666666667,-0.03056230286770837,0.03056230286770837,0.09443769713229164
1590504622.4177718,0.062844569618025,-4.60568913923605,8.572756556944201,0.4488888888888889,0.38666666666666666,-0.6966666666666667,0.08944287977468755,0.0,0.03555712022531245
1590504622.4277718,0.06734362638153006,-4.60734362638153,8.59406175828918,0.4488888888888889,0.38666666666666666,-0.6966666666666667,0.125,0.04589766488456283,0.0
1590504622.4377718,0.07,-4.61,8.62756107275624,0.4488888888888889,0.38666666666666666,-0.6966666666666667,0.08841443175783324,0.025914431757833242,0.03658556824216676
1590504622.4477718,0.07684248185628131,-4.623684963712563,8.681054891137688,0.4488888888888889,0.37754335752495827,-0.7073105273319931,-0.0230310232035163,0.0855310232035163,-0.0230310232035163
1590504622.4577718,0.07365797799041206,-4.610973933971236,8.674631911961647,0.4488888888888889,0.37333333333333335,-0.7122222222222222,-0.0625,0.125,-0.0625
1590504622.4677718,0.08439586125222052,-4.6,8.602416554991118,0.4488888888888889,0.37333333333333335,-0.7122222222222222,0.027474132826378297,-0.009961199239567425,0.027474132826378297
1590504622.4777718,0.09662791399320152,-4.606627913993202,8.626395397952411,0.4488888888888889,0.37333333333333335,-0.7122222222222222,0.1039244624575095,0.06177338737252852,0.1039244624575095
1590504622.4877717,0.0843052756249091,-4.61,8.660463149583395,0.4488888888888889,0.37333333333333335,-0.7122222222222222,0.05960531510378789,0.026907972655681858,0.09230265755189394
1590504622.4977717,0.06408562976802118,-4.61,8.67,0.4488888888888889,0.37333333333333335,-0.7155079834622105,0.07392962789973533,-0.025535186050132337,0.0625
1590504622.5077717,0.06494136606775477,-4.605058633932245,8.674941366067754,0.4488888888888889,0.37333333333333335,-0.7177777777777777,0.0014658483061308486,-0.030883537923467288,0.03161646207653271
1590504622.5177717,0.07,-4.614684167027431,8.616368609547798,0.4488888888888889,0.37333333333333335,-0.7177777777777777,-0.15559201464048172,-0.031907985359518276,0.03059201464048172
1590504622.5277717,0.07,-4.61358924491607,8.582821510167859,0.4488888888888889,0.37333333333333335,-0.7177777777777777,-0.15331092690847983,0.0,0.028310926908479826
1590504622.5377717,0.07,-4.6043290492151145,8.635974295290685,0.4488888888888889,0.37333333333333335,-0.7177777777777777,-0.016773769622145607,0.0,0.0
1590504622.5477717,0.07,-4.6061963253509495,8.68141102394715,0.446353105789522,0.3712201807505276,-0.7122835810624828,0.125,0.0,0.04754593311312964
1590504622.5577717,0.07,-4.604943633952255,8.68022546419098,0.44222222222222224,0.36777777777777776,-0.7033333333333334,0.03230686339522547,-0.03089771220159151,0.06320457559681697
1590504622.5677717,0.0629920833136987,-4.61,8.60393666650959,0.44222222222222224,0.36777777777777776,-0.7033333333333334,0.025098958578766303,0.025098958578766303,-0.04379947928938315
1590504622.5777717,0.07264332036316472,-4.603678339818417,8.58,0.44222222222222224,0.36777777777777776,-0.7033333333333334,0.02298962386511024,0.0625,0.056031128404669256
1590504622.5877717,0.0749525159461375,-4.605047484053863,8.630474840538625,0.44222222222222224,0.36777777777777776,-0.7033333333333334,0.03154677533664068,0.0625,-0.001187101346562719
1590504622.5977716,0.07,-4.604073684924078,8.697778945227766,0.4461730989395035,0.3750210517594601,-0.7204537991082188,0.0625,-0.048618407673535785,0.023157876898047713
1590504622.6077716,0.07579372301496641,-4.6,8.71,0.4488888888888889,0.38,-0.7322222222222222,0.026289231156459945,-0.016367693469379857,0.125
1590504622.6177716,0.07401497883425595,-4.611970042331488,8.632194724845327,0.4488888888888889,0.38,-0.7322222222222222,0.0,0.025093617714099646,0.05018723542819929
1590504622.6277716,0.08080751727946077,-4.61459624136027,8.612422551838383,0.4488888888888889,0.38,-0.7322222222222222,0.0,0.06754698299662978,0.0
1590504622.6377716,0.08217406593406594,-4.61,8.651738901098902,0.4488888888888889,0.38,-0.7322222222222222,0.0,0.05163186813186814,0.0
1590504622.6477716,0.07,-4.600036366179453,8.67,0.4422464663418576,0.38332121127351565,-0.7189373771281597,-0.062272711378418076,-0.0625,0.031136355689209038
1590504622.6577716,0.07460480640854474,-4.585395193591455,8.646975967957276,0.4355555555555555,0.38666666666666666,-0.7055555555555556,-0.125,-0.09128004005340454,0.004939919893190918
