time,acc_x,acc_y,acc_z,mag_x,mag_y,mag_z,gyr_x,gyr_y,gyr_z
1590506333.0018961,-0.14,-4.34,8.81,0.44,0.32,-0.6433333333333333,-0.1875,-0.1875,0.125
1590506333.0118961,-0.12005743871855028,-4.329971280640725,8.819856403203625,0.44,0.32,-0.6433333333333333,-0.06214100800906076,-0.18714100800906075,0.062320504004530375
1590506333.0218961,-0.13165605095541402,-4.315828025477707,8.79920382165605,0.44,0.32,-0.6433333333333333,0.0625,0.01572452229299362,0.0
1590506333.031896,-0.12,-4.317143947305004,8.84,0.44,0.32,-0.6433333333333333,0.08482483532813881,0.16964967065627762,0.04464967065627761
1590506333.041896,-0.1233406194303393,-4.33,8.83331876113932,0.4418558996835218,0.3155458407595476,-0.6377656342827678,0.16675774287924136,0.20824225712075864,0.14587887143962067
1590506333.051896,-0.13991335885553094,-4.320086641144469,8.790259923433407,0.4455555555555555,0.30666666666666664,-0.6266666666666667,0.1880415071529317,0.06304150715293169,0.03260376788232924
1590506333.061896,-0.15441102301383555,-4.323233069041507,8.720300792875479,0.4455555555555555,0.30666666666666664,-0.6266666666666667,0.09743110616352772,0.0827066815094168,-0.09743110616352772
1590506333.071896,-0.15575720506923718,-4.34,8.682728384792288,0.4455555555555555,0.30666666666666664,-0.6266666666666667,-0.0435698732690708,0.0549126584136615,-0.0890174683172677
1590506333.081896,-0.15,-4.336589355513977,8.7,0.4455555555555555,0.30666666666666664,-0.6266666666666667,-0.14486694392471425,-0.125,-0.08236694392471425
1590506333.091896,-0.14771920406556438,-4.3277192040655645,8.718246367475484,0.43820632421126293,0.30970772791258083,-0.6256529795846953,-0.03399005081955479,-0.125,0.0
1590506333.101896,-0.13637808433477921,-4.32,8.794487662660883,0.4133333333333333,0.32,-0.6222222222222222,0.03986302709237005,-0.057089081277110154,0.0
1590506333.111896,-0.13224313928545012,-4.324486278570901,8.8020548857164,0.4133333333333333,0.32,-0.6222222222222222,-0.014019620534063172,0.02044113839781049,-0.014019620534063172
1590506333.121896,-0.14798811496485917,-4.347988114964859,8.771952459859437,0.4133333333333333,0.32,-0.6222222222222222,-0.0625,-0.0750742814696303,-0.03753714073481515
1590506333.131896,-0.16,-4.351197547827925,8.824401226086037,0.4133333333333333,0.32,-0.6222222222222222,-0.04874616848113307,0.013753831518866928,-0.013753831518866928
1590506333.141896,-0.1571491903034068,-4.32,8.83928729757585,0.4156298189222556,0.3194456758923291,-0.6216678981145514,-0.00445439015092688,0.044682439396292475,-0.0625
1590506333.151896,-0.13346228239845262,-4.32,8.833365570599613,0.4347109391790242,0.31483988824414355,-0.6170621104663658,-0.0414651837524178,-0.10336073500967119,-0.0625
1590506333.161896,-0.12452591055670825,-4.32,8.762111341649376,0.4455555555555555,0.31222222222222223,-0.6144444444444445,0.0789347048971327,-0.1875,-0.03421305902057346
1590506333.171896,-0.1347186911487759,-4.324718691148776,8.713030838041432,0.4455555555555555,0.31222222222222223,-0.6144444444444445,0.3679672787193974,-0.275975459039548,-0.02949181967984934
1590506333.181896,-0.14,-4.3192207098520985,8.75,0.4455555555555555,0.31222222222222223,-0.6144444444444445,0.45508629105041165,-0.41991370894958835,-0.0625
1590506333.191896,-0.14230212588042326,-4.30690637764127,8.75690637764127,0.4473460979069958,0.31222222222222223,-0.6193044879697824,0.3174468529894188,-0.5,-0.0625
1590506333.201896,-0.15,-4.33,8.776156571477355,0.4533333333333333,0.31222222222222223,-0.6355555555555555,0.028914286933879707,-0.3318500021342895,-0.08652142826653007
1590506333.211896,-0.15,-4.332715980257974,8.75370411845216,0.4533333333333333,0.31222222222222223,-0.6355555555555555,-0.19289950644933848,-0.1473743830616731,-0.10802512338766537
1590506333.221896,-0.1411021207177814,-4.337775530179445,8.727795758564438,0.4533333333333333,0.31222222222222223,-0.6355555555555555,-0.40280587275693314,-0.38890293637846657,-0.02079119086460033
1590506333.231896,-0.11,-4.33,8.806755481543158,0.4533333333333333,0.31222222222222223,-0.6355555555555555,-0.4650927467850865,-0.35023186696271624,0.0900927467850865
1590506333.241896,-0.11,-4.33,8.84555925617541,0.4533333333333333,0.31222222222222223,-0.6355555555555555,-0.3842515496345638,-0.14812887408640946,0.009251549634563802
1590506333.251896,-0.11224169796697073,-4.34,8.837758302033029,0.44,0.32666666666666666,-0.6433333333333333,-0.1454681631192989,-0.2844787754128659,0.0625
1590506333.261896,-0.12590423909728576,-4.34,8.819175561654976,0.44,0.32666666666666666,-0.6433333333333333,0.0,-0.17519950188065467,0.056349750940327334
1590506333.271896,-0.16821508846752348,-4.34,8.731784911532477,0.44,0.32666666666666666,-0.6433333333333333,0.07365569707797821,-0.0993278485389891,0.0
1590506333.2818959,-0.13736027276171234,-4.337360272761712,8.762639727238287,0.44,0.32666666666666666,-0.6433333333333333,0.2664982952392979,-0.19574914761964896,-0.008249147619648945
1590506333.2918959,-0.12228580051305266,-4.32,8.782285800513051,0.43847613299129823,0.3251427996579649,-0.6395236658115789,0.3464274935868417,-0.23571374679342086,-0.0625
1590506333.3018959,-0.12237851543418084,-4.316189257717091,8.767135546302542,0.43333333333333335,0.32,-0.6266666666666667,0.20236572146363024,-0.1875,-0.038682860731815115
1590506333.3118958,-0.11710444027517199,-4.3171044402751715,8.705134459036898,0.43333333333333335,0.32,-0.6266666666666667,0.08059724828017512,-0.09869449656035022,0.0
1590506333.3218958,-0.13,-4.33,8.691099407182401,0.43333333333333335,0.32,-0.6266666666666667,0.021596810543334476,0.08409681054333448,0.0
1590506333.3318958,-0.13,-4.33,8.76479211190985,0.43333333333333335,0.32,-0.6266666666666667,-0.02995069943656499,0.10650986011268701,-0.018490139887312997
1590506333.3418958,-0.13,-4.331713049227625,8.810278295365752,0.4367594317885837,0.32,-0.6245729398329026,-0.217880326982028,0.07320655767265732,-0.05179344232734267
1590506333.3518958,-0.13,-4.34,8.847399482614986,0.4533333333333333,0.32,-0.6144444444444445,-0.0625,0.125,-0.019688308414083394
1590506333.3618958,-0.12351950569420887,-4.342160164768597,8.804878846619822,0.4533333333333333,0.32,-0.6144444444444445,-0.008495880785073906,0.16550308941119457,-0.048998970196268476
1590506333.3718958,-0.10308583308583309,-4.345885555885555,8.754114444114444,0.4533333333333333,0.32,-0.6144444444444445,0.1875,0.3125,-0.006428818928818929
1590506333.3818958,-0.1327442119944212,-4.31,8.795488423988841,0.4533333333333333,0.32,-0.6144444444444445,0.2389539748953975,0.3125,-0.0625
1590506333.3918958,-0.14193702195291547,-4.311937021952915,8.810968510976458,0.4525800470183106,0.32064567398430516,-0.6144444444444445,0.38710638720572166,0.28223403198569585,-0.0625
1590506333.4018958,-0.15061882375515687,-4.33,8.82,0.4455555555555555,0.32666666666666666,-0.6144444444444445,0.4853419121174326,-0.0293161757651348,-0.0771580878825674
1590506333.4118958,-0.12379161469826346,-4.33,8.82,0.4455555555555555,0.32666666666666666,-0.6144444444444445,0.44342439796603667,-0.1131512040679267,-0.11907560203396335
1590506333.4218957,-0.13585080881103834,-4.31207459559448,8.704522169161365,0.4455555555555555,0.32666666666666666,-0.6144444444444445,0.4847026652069688,-0.125,-0.1615675550689896
1590506333.4318957,-0.12001698786311557,-4.319991506068442,8.759940542479095,0.4455555555555555,0.32666666666666666,-0.6144444444444445,0.187818522433417,-0.125,-0.06260617414447235
1590506333.4418957,-0.11143526833277526,-4.321435268332776,8.812870536665551,0.44475818425956926,0.32570982111148317,-0.618590775183573,0.1875,-0.10705914584030927,0.08911829168061855
1590506333.4518957,-0.12647790184855026,-4.33,8.82352209815145,0.44,0.32,-0.6433333333333333,0.16725655672328046,-0.06073032983015859,-0.125
1590506333.4618957,-0.14248315797441527,-4.32503368405117,8.790134736204678,0.44,0.32,-0.6433333333333333,0.10948026265990463,-0.15646052531980925,-0.09396052531980925
1590506333.4718957,-0.14847112273697252,-4.311528877263027,8.730764438631514,0.44,0.32,-0.6433333333333333,0.06727774144696083,-0.08638870723480416,-0.009555482893921663
1590506333.4818957,-0.12734688860795057,-4.324693777215901,8.758571779744347,0.44,0.32,-0.6433333333333333,0.1747458386009271,-0.39158194620030906,-0.14158194620030903
1590506333.4918957,-0.11996195426978566,-4.309885862809357,8.81,0.44002113651678576,0.3200253638201429,-0.6432699237829761,0.3122622141861604,-0.4375,-0.18702442837232078
1590506333.5018957,-0.12106875863054141,-4.294758344840722,8.80631041378982,0.4455555555555555,0.32666666666666666,-0.6266666666666667,0.22694008618637207,-0.46055991381362793,-0.08555991381362793
1590506333.5118957,-0.13678896792711845,-4.323211032072882,8.77752277548983,0.4455555555555555,0.32666666666666666,-0.6266666666666667,0.1272931486334706,-0.4197241981779608,-0.1049310495444902
1590506333.5218956,-0.1252339967724583,-4.322850995158688,8.741915008068855,0.4455555555555555,0.32666666666666666,-0.6266666666666667,-0.07446880043033889,-0.25,-0.0625
1590506333.5318956,-0.11188699953624981,-4.305660998608749,8.791321997217498,0.4455555555555555,0.32666666666666666,-0.6266666666666667,-0.3596749884062452,-0.2971749884062452,-0.050706252898438706
1590506333.5418956,-0.11837069098778791,-4.325112072963364,8.830224145926728,0.4455555555555555,0.32666666666666666,-0.6266666666666667,-0.5217672746946977,-0.4592672746946978,-0.01018318132632555
1590506333.5518956,-0.14,-4.302000515301595,8.804998711746014,0.4455555555555555,0.32,-0.6222222222222222,-0.43124838968251694,-0.375,-0.05624838968251696
1590506333.5618956,-0.1380260413730906,-4.323947917253819,8.754078124119271,0.4455555555555555,0.32,-0.6222222222222222,-0.4120117242545516,-0.4120117242545516,0.0
1590506333.5718956,-0.13014542584972663,-4.339709148300547,8.730436277549181,0.4455555555555555,0.32,-0.6222222222222222,-0.5597732653176258,-0.5597732653176258,0.0
1590506333.5818956,-0.11191634578163519,-4.31383269156327,8.747665383126542,0.4455555555555555,0.32,-0.6222222222222222,-0.6010456777295601,-0.69947716113522,-0.02395432227043987
1590506333.5918956,-0.12,-4.33,8.781393232635828,0.4446783350070706,0.32,-0.6222222222222222,-0.5058051359826204,-0.7587077039739307,-0.125
1590506333.6018956,-0.12,-4.33,8.80718156292911,0.4284412381557464,0.32,-0.6222222222222222,-0.6132565122046195,-0.9198847683069292,-0.125
1590506333.6118956,-0.11798672949655244,-4.324026541006895,8.783893835972421,0.4266666666666667,0.32,-0.6222222222222222,-0.5499170593534528,-0.7374170593534528,-0.14975117806035826
1590506333.6218956,-0.11072034926024739,-4.338559301479505,8.72576279408198,0.4266666666666667,0.32,-0.6222222222222222,-0.5045021828765462,-0.6920021828765462,-0.013506548629638598
1590506333.6318955,-0.0921213612297518,-4.3342427224595035,8.81060680614876,0.4266666666666667,0.32,-0.6222222222222222,-0.13446596925620485,-0.21969044619835848,0.07575850768594879
1590506333.6418955,-0.10058211678832117,-4.349417883211679,8.85058211678832,0.42776622060016223,0.31954724249797245,-0.6222222222222222,0.0697764598540146,0.1359146897810219,0.1213617700729927
1590506333.6518955,-0.11,-4.334977810312486,8.852466715468728,0.4455555555555555,0.31222222222222223,-0.6222222222222222,0.2659717138674109,0.3909717138674109,0.04680565722651782
1590506333.6618955,-0.11447719093473398,-4.317761404532633,8.803136854391596,0.4455555555555555,0.31222222222222223,-0.6222222222222222,0.5,0.6389912216710437,0.013991221671043674
1590506333.6718955,-0.12801103108941927,-4.31,8.719944844552904,0.4455555555555555,0.31222222222222223,-0.6222222222222222,0.524862111382259,0.6875,0.0749310556911295
1590506333.6818955,-0.11926751070651283,-4.310732489293486,8.761831223233719,0.4455555555555555,0.31222222222222223,-0.6222222222222222,0.6295780580842948,0.6875,0.12042194191570522
1590506333.6918955,-0.10121550591327201,-4.328541392904073,8.807325886990801,0.44574463425317556,0.31257336837494526,-0.6223302671922909,0.75303876478318,0.68901938239159,0.0030387647831800263
1590506333.7018955,-0.13543887748426536,-4.289414830020979,8.72912224503147,0.4533333333333333,0.32666666666666666,-0.6266666666666667,0.7233216404610977,0.6438251483227684,0.09466432809221954
1590506333.7118955,-0.0932842319989016,-4.348357884000549,8.79865249200714,0.4533333333333333,0.32666666666666666,-0.6266666666666667,0.22947355000686503,0.26118387501716256,0.010263224996567483
1590506333.7218955,-0.10973795186630839,-4.340131024066846,8.691703312868995,0.4533333333333333,0.32666666666666666,-0.6266666666666667,0.12663780083557263,0.004094502088931584,0.061681099582213676
1590506333.7318954,-0.13185771053033776,-4.313256915787864,8.742798410515055,0.4533333333333333,0.32666666666666666,-0.6266666666666667,0.6351778618370778,0.46072138162922205,-0.05232213816292221
1590506333.7418954,-0.09179294666055327,-4.329282821335779,8.85497974935045,0.4533333333333333,0.32666666666666666,-0.6266666666666667,0.6852588166743084,-0.04008816674308424,-0.0022411833256915786
1590506333.7518954,-0.12045860105362526,-4.3,8.869312098419561,0.4455555555555555,0.31222222222222223,-0.6355555555555555,0.9503981546332105,-0.6178343585371052,-0.43893312829257897
1590506333.7618954,-0.14471837503191218,-4.287417666581567,8.803825791422007,0.4455555555555555,0.31222222222222223,-0.6355555555555555,1.5,-0.24369036411794742,-0.48034010403369926
1590506333.7718954,-0.16479576206280316,-4.233877967832525,8.649899157518508,0.4455555555555555,0.31222222222222223,-0.6355555555555555,1.5,0.049104863415879496,-0.39668432473832016
1590506333.7818954,-0.0771354831226076,-4.351278853961258,8.88414337083865,0.4455555555555555,0.31222222222222223,-0.6355555555555555,0.2976344101612342,-0.3551792135483123,-0.047634410161234195
1590506333.7918954,-0.15011367590766733,-4.26208328500174,8.721969609094073,0.4455555555555555,0.31222222222222223,-0.6355555555555555,0.14559650852569309,-0.15246201136759077,0.10440349147430691
1590506333.8018954,-0.11199681397987014,-4.32,8.81602230214091,0.44,0.32666666666666666,-0.6144444444444445,0.3626194757548695,0.25009956312905796,-0.05001991262581159
1590506333.8118954,-0.11808693190479301,-4.32,8.750434659523965,0.44,0.32666666666666666,-0.6144444444444445,0.13424005357026197,0.011956675595043662,-0.023913351190087324
1590506333.8218954,-0.11117315436241611,-4.317653691275168,8.708826845637585,0.44,0.32666666666666666,-0.6144444444444445,0.4888255033557047,0.025838926174496644,-0.13966442953020133
1590506333.8318954,-0.11821307011572497,-4.298213070115725,8.706254254594961,0.44,0.32666666666666666,-0.6144444444444445,0.8694158441116405,-0.24441584411164058,-0.24441584411164058
1590506333.8418953,-0.10523485364193329,-4.285234853641933,8.751678012253233,0.44,0.32666666666666666,-0.6144444444444445,0.8288589176310415,-0.20385891763104153,-0.20385891763104153
1590506333.8518953,-0.11991603096891722,-4.299832061937834,8.879580154844588,0.4133333333333333,0.30666666666666664,-0.6222222222222222,0.373425580667198,0.061975193555732666,0.0
1590506333.8618953,-0.11277849462365591,-4.282778494623656,8.818886021505376,0.4133333333333333,0.30666666666666664,-0.6222222222222222,0.17013440860215054,0.026048387096774192,-0.00868279569892473
1590506333.8718953,-0.1291784946236559,-4.299178494623655,8.753286021505376,0.4133333333333333,0.30666666666666664,-0.6222222222222222,0.06763440860215053,0.1797983870967742,-0.059932795698924735
1590506333.8818953,-0.1387692068308243,-4.31,8.838769206830824,0.4133333333333333,0.30666666666666664,-0.6222222222222222,0.1798075426926518,0.25,0.047115085385303616
1590506333.8918953,-0.1306113120939822,-4.31,8.830611312093982,0.4133333333333333,0.30666666666666664,-0.6222222222222222,0.12882070058738865,0.25,-0.054858598825222704
1590506333.9018953,-0.09380174927113702,-4.319049562682216,8.820950437317785,0.425399416909621,0.31169420149011984,-0.6282552640103661,0.125,0.25,0.0506195335276968
1590506333.9118953,-0.019347386941222466,-4.35803157174508,8.811642121725532,0.4266666666666667,0.31222222222222223,-0.6288888888888889,0.1875,-0.01230267659324906,-0.14651313860289328
1590506333.9218953,0.1036445979408315,-4.405861788088101,8.702315912941483,0.4266666666666667,0.31222222222222223,-0.6288888888888889,0.1875,0.2866361755506321,-0.2746297895216995
1590506333.9318953,0.10352008109535843,-4.387643665852857,8.684712668294285,0.4266666666666667,0.31222222222222223,-0.6288888888888889,0.11395468368527006,0.31986354420981994,-1.1582260747276596
1590506333.9418952,0.03764823460544538,-4.363690267129252,8.732619465741495,0.4266666666666667,0.31222222222222223,-0.6288888888888889,0.0016731271683728122,0.3947179152210848,-2.1313328978741026
1590506333.9518952,-0.09208476685454946,-4.323690066612985,8.77973245004026,0.44420662225800944,0.31222222222222223,-0.6245038999910533,-0.021390729082790425,0.6019370836688382,-3.468576147426982
1590506333.9618952,-0.17928234550493508,-4.28,8.848803909174892,0.4533333333333333,0.31222222222222223,-0.6222222222222222,-0.18600488646861477,0.8735048864686148,-4.247009772937229
1590506333.9718952,-0.12,-4.280573974808639,8.751147949617277,0.4533333333333333,0.31222222222222223,-0.6222222222222222,-0.06429367127699469,0.7464126574460106,-3.996412657446011
1590506333.9818952,-0.12,-4.299078375576291,8.78815675115258,0.4533333333333333,0.31222222222222223,-0.6222222222222222,-0.12211992367590938,0.6307601526481812,-3.880760152648181
1590506333.9918952,-0.12910553131211588,-4.318211062624232,8.83552765656058,0.4533333333333333,0.31222222222222223,-0.6222222222222222,-0.125,0.4542712878978272,-3.4766330050949303
1590506334.0018952,-0.16066959695142852,-4.296997802286429,8.84,0.44736980059277776,0.3232973544546825,-0.6111470899897619,0.01876373570982115,0.38957875476339293,-3.3416575095267858
1590506334.0118952,-0.1797134633834346,-4.299713463383434,8.84,0.4455555555555555,0.32666666666666666,-0.6077777777777778,0.12320914614646626,0.07145426926766868,-3.1910817077070677
1590506334.0218952,-0.2011018277984507,-4.268347258302324,8.710550913899226,0.4455555555555555,0.32666666666666666,-0.6077777777777778,0.05905678812984156,-0.05561357625968312,-2.7190110931685743
1590506334.0318952,-0.22030921532666786,-4.240309215326668,8.72154607663334,0.4455555555555555,0.32666666666666666,-0.6077777777777778,0.0019325957916740619,0.0625,-2.160443658916563
1590506334.0418952,-0.22858052811138063,-4.248580528111381,8.762902640556902,0.4455555555555555,0.32666666666666666,-0.6077777777777778,0.053628300696128894,0.0625,-1.4367037902541955
1590506334.0518951,-0.1779750630107691,-4.2620249369892305,8.798785037806462,0.4455555555555555,0.32,-0.6144444444444445,0.057437657526922786,0.23481297258076836,-0.48734414381730695
1590506334.0618951,-0.13793171923928815,-4.302068280760712,8.774759031543573,0.4455555555555555,0.32,-0.6144444444444445,-0.04267070190177957,-0.06551210570533872,-0.23707324524555107
1590506334.0718951,-0.12,-4.32,8.72015826076316,0.4455555555555555,0.32,-0.6144444444444445,-0.3120054351151266,-0.2509891297697469,0.0
1590506334.081895,-0.12,-4.32,8.75437440091367,0.4455555555555555,0.32,-0.6144444444444445,-0.20507999714478004,-0.46484000571043993,0.0
1590506334.091895,-0.11420643710842576,-4.32,8.783174251566297,0.4455555555555555,0.32,-0.6144444444444445,-0.1875,-0.6448390722893558,-0.03620976807233895
1590506334.101895,-0.09751315142111039,-4.313756575710555,8.81248684857889,0.43376242078660426,0.31514400333043185,-0.6054261649152464,-0.22652140180903002,-0.9841284108541801,-0.10152140180903
1590506334.111895,-0.09,-4.300783026743818,8.792349080231453,0.4266666666666667,0.31222222222222223,-0.6,-0.3652121657022771,-1.5282425799579697,-0.4130304142556928
1590506334.121895,-0.09920490014315553,-4.290795099856845,8.725565698997912,0.4266666666666667,0.31222222222222223,-0.6,-1.0078368848419421,-2.1378062589472204,-0.1498468705263899
1590506334.131895,-0.1070475441899574,-4.311142632569872,8.790475441899574,0.4266666666666667,0.31222222222222223,-0.6,-1.3267829071234027,-1.967264244063831,0.007141453561701427
1590506334.141895,-0.1384362854543951,-4.32,8.834218142727197,0.4266666666666667,0.31222222222222223,-0.6,-1.2153415198875384,-1.519546431820061,0.28465848011246175
1590506334.151895,-0.14398738411545448,-4.307974768230909,8.846012615884545,0.43468348784606076,0.32090711183323245,-0.6173697792220205,-1.0498423014431808,-1.1119480550511325,0.6380519449488675
1590506334.161895,-0.13167370956913235,-4.3,8.833347419138265,0.44,0.32666666666666666,-0.6288888888888889,-0.583685478456617,-0.5732247936495399,1.0206572607716915
1590506334.171895,-0.07931505629979083,-4.339771685433264,8.740456629133472,0.44,0.32666666666666666,-0.6288888888888889,-0.3728595509368463,-0.37071910187369267,1.566067415105256
1590506334.181895,-0.02331389914993992,-4.3211046330499805,8.777790733900039,0.44,0.32666666666666666,-0.6288888888888889,-0.19785593484356223,-0.020711869687124462,1.857740108594063
1590506334.191895,0.0044068530430479945,-4.344406853043048,8.796271235362033,0.44,0.32666666666666666,-0.6288888888888889,-0.03495716848095001,0.10169522101269998,1.6716095579746
1590506334.201895,0.0006198323544505911,-4.3406198323544505,8.818760335291099,0.42749310980593414,0.32041322156963375,-0.6153397578453176,-0.23450419113873525,0.30087814335405144,1.2146176655072134
1590506334.211895,-0.027261447765286537,-4.358174298510192,8.847261447765286,0.4266666666666667,0.32,-0.6144444444444445,-0.5339734142217347,0.7668574627547756,1.0171159514669592
1590506334.221895,-0.08907529448393958,-4.36,8.800770587930051,0.4266666666666667,0.32,-0.6144444444444445,-0.43942646982512584,1.0586470603497484,0.7538529396502517
1590506334.231895,-0.09764730904383208,-4.344705381912336,8.792352690956168,0.4266666666666667,0.32,-0.6144444444444445,-0.10293022933234697,0.7757259108562974,0.5110215923802478
1590506334.241895,-0.128375006068845,-4.3068958262530135,8.775812496965576,0.4266666666666667,0.32,-0.6144444444444445,-0.2660156818954217,0.6875,0.4670572979883802
1590506334.251895,-0.1759320161461653,-4.27,8.775932016146166,0.43419011873568913,0.32265533602436086,-0.6201976724972263,-0.8114377522838325,0.3140933715742511,0.5497875504567665
1590506334.261895,-0.30175859805462174,-4.197069003242297,8.787152746006802,0.4455555555555555,0.32666666666666666,-0.6288888888888889,-1.321397668728741,-0.6838362540528713,1.336576044795417
1590506334.271895,-0.47696258428977784,-3.905062359517037,8.503489149245121,0.4455555555555555,0.32666666666666666,-0.6288888888888889,-2.2078464086089946,-0.3188279493962962,3.735202046824339
1590506334.281895,-0.6701003547697917,-3.7766206707305123,8.81022579823203,0.4455555555555555,0.32666666666666666,-0.6288888888888889,-4.834875242556695,0.41708481154079846,9.02386488367079
1590506334.291895,-0.75,-3.642381683064055,8.99,0.4455555555555555,0.32666666666666666,-0.6288888888888889,-5.311589869723501,0.9377275325691248,17.35091727592743
1590506334.301895,-0.756608429359455,-3.497656700889264,8.930524135764905,0.4330729667654738,0.32226104709369663,-0.6274203490312322,-4.195143646571524,0.21524901356471215,24.021005918611728
1590506334.311895,-0.062234794908062274,-2.348623653574149,8.9805113698183,0.4266666666666667,0.32,-0.6266666666666667,-4.924124143183549,-0.24341067348493092,32.69949543031226
1590506334.321895,-0.18438715468235764,-2.4438525979854395,9.243050762940062,0.4266666666666667,0.32,-0.6266666666666667,-4.758352448389349,-1.709908247731126,42.50109703799741
1590506334.3318949,-0.250957301742873,-2.4587081859632676,8.797174329910087,0.4266666666666667,0.32,-0.6266666666666667,0.4204854156901181,-3.8726203285464695,50.47851504239996
1590506334.3418949,-0.30260776629853936,-2.5594181213632585,8.70159482246764,0.4266666666666667,0.32,-0.6266666666666667,-0.8985052250326566,-4.276266179788624,57.350418596366225
1590506334.3518949,-0.34,-2.78,9.07,0.4455555555555555,0.31222222222222223,-0.6,-2.4375,-4.9375,66.8125
1590506334.3618948,-0.34,-2.78,9.07,0.4455555555555555,0.31222222222222223,-0.6,-2.4375,-4.9375,66.8125
1590506334.3718948,-0.35974372116863146,-2.91820604818042,8.823203485392106,0.4455555555555555,0.31222222222222223,-0.6,-1.88220784213224,-6.109783444387494,78.41193618657098
1590506334.3818948,-0.379580449316104,-2.998321797264416,9.006014268502987,0.4455555555555555,0.31222222222222223,-0.6,-1.5078665753230491,-6.798077945241076,82.90691219201058
1590506334.3918948,-0.4194334946980175,-3.055206892577224,8.939019709543569,0.4455555555555555,0.31222222222222223,-0.6,-1.2042487897648686,-7.058959341862609,85.85892836560627
1590506334.4018948,-0.423282094704618,-3.0565641894092357,8.960307431772293,0.4589913661463196,0.3002792794748764,-0.6238858854946916,-1.5448690809613757,-7.29294763238455,88.43043704813391
1590506334.4118948,-0.4289277156549521,-2.9875059904153356,8.819301118210863,0.4655555555555556,0.29444444444444445,-0.6355555555555555,-1.3036142172523961,-7.542394668530352,91.26543779952077
1590506334.4218948,-0.4558260521576736,-3.0833042086306945,8.84304342026279,0.4655555555555556,0.29444444444444445,-0.6355555555555555,-2.5413026078836793,-7.23967434802908,93.1141282598546
1590506334.4318948,-0.49444963605120384,-3.1137798544204816,8.822440291159037,0.4655555555555556,0.29444444444444445,-0.6355555555555555,-2.104069324039928,-7.618120450640048,94.2793029463441
1590506334.4418948,-0.5549874374984453,-3.145707107141969,8.829280330356477,0.4655555555555556,0.29444444444444445,-0.6355555555555555,-1.5313285156347174,-7.651830580362695,95.20967561382123
1590506334.4518948,-0.58,-3.14480663287792,8.91090237990304,0.4655555555555556,0.2809392292248176,-0.6428708804661868,-1.7548341780520054,-7.594152848171,95.721569937197
1590506334.4618948,-0.608243101379724,-3.1412972405518893,8.934811037792443,0.4655555555555556,0.2677777777777778,-0.65,-1.9837844931013797,-7.55439224655069,95.9375
1590506334.4718947,-0.6095555555555555,-3.109111111111111,8.838666666666667,0.4655555555555556,0.2677777777777778,-0.65,-1.9069444444444446,-7.627777777777778,95.71388888888889
1590506334.4818947,-0.6220992691407081,-3.074585609877244,8.80292804938622,0.4655555555555556,0.2677777777777778,-0.65,-1.9375,-7.635359753068899,95.09875913574115
1590506334.4918947,-0.710870093658397,-3.1626639021948955,8.912663902194895,0.4655555555555556,0.2677777777777778,-0.65,-2.056726782011868,-7.539742260670622,93.94938156859942
1590506334.5018947,-0.7737518987341773,-3.235313924050633,8.934686075949367,0.4880568213783404,0.23308832630098453,-0.6621881856540084,-1.7558386075949368,-7.720712025316455,91.9276424050633
1590506334.5118947,-0.7884166117037004,-3.206333553185199,8.854250494666697,0.4922222222222222,0.22666666666666666,-0.6644444444444444,-1.4770847074074915,-7.3291694148149835,89.94167765925994
1590506334.5218947,-0.79,-3.1831127953848757,8.764007579231938,0.4922222222222222,0.22666666666666666,-0.6644444444444444,-1.5430450288445292,-6.880592399044148,87.61964445195395
1590506334.5318947,-0.8044276888057882,-3.1222892447768475,8.757213844402894,0.4922222222222222,0.22666666666666666,-0.6644444444444444,-1.517413472481912,-6.632153889927648,85.44653889927648
1590506334.5418947,-0.8411840070686989,-3.1249472056549594,8.822368014137398,0.4922222222222222,0.22666666666666666,-0.6644444444444444,-1.616940026507621,-6.679440026507621,83.07385962005743
1590506334.5518947,-0.8849404201630184,-3.154964252097811,8.89990467226083,0.4955476115772913,0.21114818300967741,-0.657239434175128,-1.718675525203773,-6.687648949592454,81.34546292031322
1590506334.5618947,-0.9457376241109781,-3.181912541370326,8.904262375889022,0.4988888888888889,0.1955555555555556,-0.65,-1.75,-6.476093232870925,79.95491954791916
1590506334.5718946,-0.9880716743799691,-3.147832759780072,8.837832759780072,0.4988888888888889,0.1955555555555556,-0.65,-1.6747013567501285,-6.11145474862545,79.04820814050078
1590506334.5818946,-1.010112286713125,-3.14022457342625,8.845393003495937,0.4988888888888889,0.1955555555555556,-0.65,-1.530197312064455,-5.9058991040214845,78.21278476836524
1590506334.5918946,-1.053934183056807,-3.1543443028238656,8.823443028238655,0.4988888888888889,0.1955555555555556,-0.65,-1.2961075705966376,-6.0517405367542025,77.08658217503572
1590506334.6018946,-1.1028751532130976,-3.1728751532130977,8.87150061285239,0.5146473277690228,0.17979711667542173,-0.65,-1.4448454736473473,-6.073124233934513,76.05312116967256
1590506334.6118946,-1.13,-3.1785190749934675,8.915557224980404,0.5333333333333333,0.16111111111111112,-0.65,-1.4367365103214005,-5.982251927096943,74.81560091128821
1590506334.6218946,-1.1365692053760905,-3.113723178495638,8.760584767743458,0.5333333333333333,0.16111111111111112,-0.65,-1.4498054704079226,-5.775097264796039,72.53971645838246
1590506334.6318946,-1.2007140710464625,-3.1789282923604016,8.788571256837171,0.5333333333333333,0.16111111111111112,-0.65,-1.939731472020196,-5.58705370559596,70.62277228466671
1590506334.6418946,-1.2566348063555115,-3.1634607745779544,8.842179741807348,0.5333333333333333,0.16111111111111112,-0.65,-1.4386947616683217,-5.527844153426018,69.15403891509433
1590506334.6518946,-1.3058393070489844,-3.1315035842293906,8.910175029868578,0.5381119076065313,0.1348289526085225,-0.6651321518651268,-0.7583034647550777,-5.455200866188769,67.77381645758662
1590506334.6618946,-1.3339075855273024,-3.084369657890791,8.909138621709047,0.54,0.12444444444444445,-0.6711111111111111,-0.9482672286369187,-5.35057759045436,66.65519831408925
1590506334.6718946,-1.3754686420511246,-3.0741874568204497,8.8148752590773,0.54,0.12444444444444445,-0.6711111111111111,-1.1955074076917171,-5.223828394872188,65.55879135641361
1590506334.6818945,-1.3848294225047335,-3.0955117324857993,8.831705774952665,0.54,0.12444444444444445,-0.6711111111111111,-1.1853677813091696,-5.0905516719637545,64.70062614112794
1590506334.6918945,-1.3881251328777524,-3.089687167805619,8.875937433561123,0.54,0.12444444444444445,-0.6711111111111111,-1.175782080485953,-5.050782080485953,63.60350607441154
1590506334.7018945,-1.3950041271611824,-3.020033017289459,8.865004127161182,0.5427754849104542,0.11722818367726344,-0.682213050752928,-1.1875515895147797,-5.000103179029559,61.906946458449525
1590506334.7118945,-1.4373888002220525,-3.040928457428353,8.8464603427937,0.5455555555555556,0.11,-0.6933333333333334,-1.0403771424606203,-4.7903771424606205,59.87777999444869
1590506334.7218945,-1.4390217927014806,-3.028043585402961,8.846992735766174,0.5455555555555556,0.11,-0.6933333333333334,-1.0874091970771638,-4.575181605845673,57.69542985407247
1590506334.7318945,-1.444352789920288,-2.988470815119568,8.756706865518128,0.5455555555555556,0.11,-0.6933333333333334,-0.5867703779892004,-4.051475314991,55.5647210079712
1590506334.7418945,-1.5095205597954593,-3.0097602798977294,8.88070551144774,0.5455555555555556,0.11,-0.6933333333333334,-1.0818066475710797,-4.433005248082432,53.474785655241355
1590506334.7518945,-1.569250952439474,-3.03,8.925830158535087,0.5248786066390835,0.09360104051452214,-0.6990373192413256,-1.1614384908442914,-4.210907736266437,51.31452777436402
1590506334.7618945,-1.585856267043147,-3.0475688011294406,8.919281335215734,0.5133333333333333,0.08444444444444445,-0.7022222222222222,-0.7544916549016574,-3.875,49.51624659137061
1590506334.7718945,-1.6321392523912917,-3.0479602136024884,8.933980106801243,0.5133333333333333,0.08444444444444445,-0.7022222222222222,-0.5873756675077754,-3.9126243324922245,47.44589702775659
1590506334.7818944,-1.6545085821545367,-3.0454914178454633,8.908034328618147,0.5133333333333333,0.08444444444444445,-0.7022222222222222,-0.35657183079513133,-3.5256436615902627,45.56103779244151
1590506334.7918944,-1.6750299829947193,-3.0416566723350935,8.906686655329812,0.5133333333333333,0.08444444444444445,-0.7022222222222222,-0.5003747874339927,-3.1875,43.566365345028196
1590506334.8018944,-1.6930036355859708,-2.984676361562589,8.93,0.5164808082248201,0.0737430298133891,-0.7097761619617906,-0.795863629883091,-3.081272722412318,40.58363629883091
1590506334.8118944,-1.7103526294333469,-2.95,8.909764913711102,0.5188888888888888,0.06555555555555556,-0.7155555555555555,-0.655882677673597,-2.905148033020791,38.330159073923085
1590506334.8218944,-1.7553701120102045,-2.985863594690477,8.879753258659864,0.5188888888888888,0.06555555555555556,-0.7155555555555555,-0.7851053334396301,-2.748457866624148,36.16282586598637
1590506334.8318944,-1.760128916503306,-2.9706445825165297,8.795966873774795,0.5188888888888888,0.06555555555555556,-0.7155555555555555,-0.598181504801143,-2.533264320364156,34.16954451440343
1590506334.8418944,-1.7639910861468955,-2.975964344587582,8.828430917638439,0.5188888888888888,0.06555555555555556,-0.7155555555555555,-0.4248885768361927,-2.375,32.42544569265523
1590506334.8518944,-1.8164982242950667,-3.0270035514098668,8.906341619956356,0.509565439599884,0.06212060055434323,-0.7346931619908813,-0.2531582944675025,-2.0161698793376406,30.490146709597365
1590506334.8618944,-1.8345670313971234,-2.923989739926621,9.002071820513653,0.4977777777777778,0.057777777777777775,-0.7588888888888888,-0.5895605376797948,-2.076932286762557,28.915851569856166
1590506334.8718944,-1.7893405282590173,-2.900219823913661,8.943625106503834,0.4977777777777778,0.057777777777777775,-0.7588888888888888,-0.38220675944334004,-1.987634904856575,27.740382703777335
1590506334.8818944,-1.806328095055577,-2.91,8.690885396703719,0.4977777777777778,0.057777777777777775,-0.7588888888888888,-0.14897949405902644,-1.7270505940973553,26.894260252970486
1590506334.8918943,-1.947895378860268,-2.942631792953423,8.828772643178075,0.4977777777777778,0.057777777777777775,-0.7588888888888888,-1.277414509931486,-2.271931607945189,26.194076941061663
1590506334.9018943,-2.0241704022473255,-2.952511206741976,8.890852011236626,0.501664176279561,0.04158445068701479,-0.762775287390672,-1.307455098320483,-2.099215154503616,25.9375
1590506334.9118943,-2.02,-2.93447216132409,8.9252783867591,0.5044444444444445,0.03,-0.7655555555555555,-1.228646975173313,-1.6743040331022496,25.9375
1590506334.9218943,-1.9462058823529411,-2.8959411764705885,8.879176470588236,0.5044444444444445,0.03,-0.7655555555555555,-0.9931985294117647,-1.7044117647058823,25.192463235294117
1590506334.9318943,-1.9159995705389734,-2.9284990337126904,8.926998067425382,0.5044444444444445,0.03,-0.7655555555555555,-1.5218622503757784,-1.0406377496242216,23.406270130985614
1590506334.9418943,-1.9153520597239377,-2.923380149309845,8.927746253826736,0.5044444444444445,0.03,-0.7655555555555555,-1.4568644596917129,-0.7852118467694291,21.765841512702078
1590506334.9518943,-1.8928250711638648,-2.867062677909662,8.832006552446426,0.5044444444444445,0.03,-0.7655555555555555,-0.7176976475643162,-1.031600784145228,20.25230946882217
1590506334.9618943,-1.91,-2.940847153948638,8.897965727936784,0.5044444444444445,-0.03555555555555556,-0.7866666666666666,-1.1038125373271466,-0.27648217485183996,16.8326336886112
1590506334.9718943,-1.8959105199516324,-3.0294328899637244,8.882627569528417,0.5044444444444445,-0.03555555555555556,-0.7866666666666666,-1.1072778113663846,-0.1662333736396614,14.005040810157194
1590506334.9818943,-1.8617292968687564,-3.0017292968687563,8.71684238287806,0.5044444444444445,-0.03555555555555556,-0.7866666666666666,-0.7067675782810927,0.5108081054297269,12.15554321244186
1590506334.9918942,-1.862631506613984,-2.9954135028345648,8.84721800377942,0.5044444444444445,-0.03555555555555556,-0.7866666666666666,-1.0902250472427417,0.4938906545267136,11.030546727366431
1590506335.0018942,-1.92,-3.0405644129934353,8.921128825986871,0.501588275973134,-0.058976137020301064,-0.7723858243101145,-2.046242220138119,0.5250767328843039,8.20766902549237
1590506335.0118942,-1.907780154924382,-3.066109922537809,8.856131316857248,0.4988888888888889,-0.0811111111111111,-0.7588888888888888,-1.989694762080413,1.1526143489487275,4.802462191073404
1590506335.0218942,-1.9296002538071066,-3.1114403553299494,8.872880710659897,0.4988888888888889,-0.0811111111111111,-0.7588888888888888,-1.6990006345177666,1.5764990482233503,1.4164815989847712
1590506335.0318942,-1.901173546133646,-2.9874173316676442,8.630937970068581,0.4988888888888889,-0.0811111111111111,-0.7588888888888888,-0.567484320424241,1.004106327919843,-1.9316376870713612
1590506335.0418942,-1.9135811086952967,-2.863851334782822,8.675337986954602,0.4988888888888889,-0.0811111111111111,-0.7588888888888888,-1.0654568749897828,1.7770277173824198,-4.21452771738242
1590506335.0518942,-1.9885906683901096,-2.8640828920485344,8.989295334195056,0.5040529634416971,-0.0793897529268417,-0.7427081219567564,-2.881152795730309,2.606541612809073,-6.573898699078514
1590506335.0618942,-2.017800706272371,-2.9339003531361856,8.9673024719533,0.5155555555555555,-0.07555555555555556,-0.7066666666666667,-2.05444783433829,1.5412367573930381,-9.488078650875634
1590506335.0718942,-2.0212341039199404,-2.9805534676397327,8.883829480400298,0.5155555555555555,-0.07555555555555556,-0.7066666666666667,-1.0744671262509287,2.0385657474981427,-11.018090667744614
1590506335.0818942,-2.038650144274477,-3.0373002885489546,8.796749278627614,0.5155555555555555,-0.07555555555555556,-0.7066666666666667,-0.42389768370291314,1.7718659828451717,-13.082989940313846
1590506335.0918941,-2.0388472044243606,-3.0644611182302555,8.813608450799219,0.5155555555555555,-0.07555555555555556,-0.7066666666666667,-0.09852486173871988,1.341319889390976,-15.33552176772105
1590506335.1018941,-2.0034868820395224,-3.078605247184191,9.046986578539151,0.5155555555555555,-0.07555555555555556,-0.7066666666666667,-1.203534936264922,2.2253279490119375,-17.19193869292507
1590506335.1118941,-1.9155191859998393,-3.203205426667737,8.972167054668057,0.5433333333333333,-0.07555555555555556,-0.7655555555555555,-0.006489824997993096,1.5934677791603116,-20.926918599983946
1590506335.1218941,-1.945278089677371,-3.0471973950145967,8.760479826334306,0.5433333333333333,-0.07555555555555556,-0.7655555555555555,-0.2795119395164309,2.5325108541058463,-23.500954412755444
1590506335.131894,-2.002522682703621,-3.1986322395084326,8.826109556804811,0.5433333333333333,-0.07555555555555556,-0.7655555555555555,0.024315269969930664,1.8565727546084456,-27.159957183945615
1590506335.141894,-1.866810636892459,-3.063621273784918,8.856947433466154,0.5433333333333333,-0.07555555555555556,-0.7655555555555555,0.23519635209136813,1.830723562250964,-29.898353433764463
1590506335.151894,-1.803928651059086,-2.9572451027233635,8.70306099697404,0.5174829325264108,-0.097097556227991,-0.7477834050007963,1.3976409460105113,1.6951524924351011,-32.40880315336837
1590506335.161894,-1.9147430584334852,-3.124743058433485,8.904311023622046,0.49,-0.12,-0.7288888888888889,0.21933278077082474,3.2727090240364687,-33.57520462080398
1590506335.171894,-1.9524644709130488,-3.121161177282622,8.92562217935331,0.49,-0.12,-0.7288888888888889,-0.202014716032777,4.337196697520485,-33.98663345309099
1590506335.181894,-1.9,-3.044791381242994,8.636550006227425,0.49,-0.12,-0.7288888888888889,0.9301723958982023,2.9954202474363765,-34.15846981774401
1590506335.191894,-1.8714154648568826,-3.1956847959279857,9.137054387783957,0.49,-0.12,-0.7288888888888889,-0.682861642630471,1.9509850127250448,-31.70026824708581
1590506335.201894,-1.815822887181561,-3.0774937323089366,8.78582288718156,0.4888861032484162,-0.11777220649683245,-0.7261041470099295,0.05221391023048928,2.302057217953902,-28.98109836231298
1590506335.211894,-1.7160768039907113,-2.906227315730627,8.693923196009289,0.4633333333333333,-0.06666666666666668,-0.6622222222222223,0.46536079814225506,1.6211404489550185,-19.35518351681431
1590506335.221894,-1.7005566867989645,-2.7866598792062125,9.077732528041414,0.4633333333333333,-0.06666666666666668,-0.6622222222222223,-1.1336345987920622,0.2587618636755824,-7.478211820534944
1590506335.231894,-1.7140433066426073,-2.813935040036089,8.838809067328295,0.4633333333333333,-0.06666666666666668,-0.6622222222222223,1.4804809969550017,0.5143269989850006,10.707123322431487
1590506335.241894,-1.8390558711734173,-2.8395708505333714,8.732124698573589,0.4633333333333333,-0.06666666666666668,-0.6622222222222223,1.703056668165284,-0.3925708607512157,26.302581027506438
1590506335.251894,-1.9613232047218274,-2.8786767952781727,9.13039042518308,0.47633404986580197,-0.05198843832355692,-0.654254041121677,-1.9650207672969724,-4.264640944365505,39.83717209531096
1590506335.261894,-1.9625556311340004,-2.825111262268001,9.138417063453502,0.4977777777777778,-0.027777777777777776,-0.6411111111111111,-4.046011077640657,-7.046011077640657,52.813174132737345
1590506335.271894,-1.9019819470809283,-2.699211637546972,8.763378142796265,0.4977777777777778,-0.027777777777777776,-0.6411111111111111,-1.0898069771045598,-5.753096792313951,61.99366840351761
1590506335.281894,-1.902159853411789,-2.7863048415402085,8.759788118096418,0.4977777777777778,-0.027777777777777776,-0.6411111111111111,-0.38522310828946016,-5.663545537834211,66.44358741096315
1590506335.291894,-1.8546425404680895,-2.969527373956078,9.076036498608104,0.4977777777777778,-0.027777777777777776,-0.6411111111111111,-2.103182029075162,-5.857575523249819,68.96954454067429
1590506335.301894,-1.6318327462092204,-2.817604533619237,8.811270026037677,0.5052108030836779,-0.023474447337519782,-0.6411111111111111,-0.7817506509419513,-5.985931995711441,70.69805100321642
1590506335.311894,-1.608254935838947,-2.8661456776222556,8.788437032866765,0.5188888888888888,-0.015555555555555557,-0.6411111111111111,0.31885422531109864,-5.5,70.3813542253111
1590506335.321894,-1.6877576471153615,-2.89,8.88427277314559,0.5188888888888888,-0.015555555555555557,-0.6411111111111111,-1.058334034168729,-5.76969747939544,68.54905146935147
1590506335.331894,-1.7935042475728156,-2.8724787621359225,8.890427791262136,0.5188888888888888,-0.015555555555555557,-0.6411111111111111,-1.8872876213592233,-6.215279884708738,65.23932418082525
1590506335.341894,-1.7960808154072265,-2.855676738371094,8.905413906968754,0.5188888888888888,-0.015555555555555557,-0.6411111111111111,-1.0970968296081387,-5.6875,61.731315970300244
1590506335.351894,-1.7661858378346469,-2.8680929189173234,9.022603972962601,0.5205426501503717,-0.019193830330817847,-0.6411111111111111,-0.17034704389149619,-5.613080743233271,57.84940523628206
1590506335.361894,-1.7131933911635846,-2.8431933911635845,8.86874052047226,0.5244444444444445,-0.027777777777777776,-0.6411111111111111,0.15283044182077313,-5.078243494096739,52.05454357503563
1590506335.371894,-1.7466704337321226,-2.87159035111648,8.93,0.5244444444444445,-0.027777777777777776,-0.6411111111111111,-0.2510010326955302,-4.288687112739177,46.36692110595846
1590506335.3818939,-1.945390855747647,-2.9853705745677943,8.814568581892647,0.5244444444444445,-0.027777777777777776,-0.6411111111111111,0.033946363170952565,-3.6921321820974287,36.479569910999096
1590506335.3918939,-2.005436477602813,-2.949081180247669,8.714502369668248,0.5244444444444445,-0.027777777777777776,-0.6411111111111111,0.6934337257300107,-2.863705855373796,29.245595092493502
1590506335.4018939,-2.1199794165025954,-3.003995883300519,8.920020583497404,0.5213365352107074,-0.02733379074438677,-0.6477709166119762,-0.45018010560229105,-2.1753344818328264,19.215947735815284
1590506335.4118938,-2.171815454613635,-3.037269318267043,8.944538636534087,0.5166666666666667,-0.02666666666666667,-0.6577777777777778,-0.017066760830979216,-1.3125468738281543,9.58580254243644
1590506335.4218938,-2.1985645277577506,-3.0385886806056237,8.887225666906994,0.5166666666666667,-0.02666666666666667,-0.6577777777777778,0.23205659697188175,-0.6520660598413843,2.431245493871666
1590506335.4318938,-2.2068650124221696,-3.022539950311321,8.768809925466982,0.5166666666666667,-0.02666666666666667,-0.6577777777777778,0.5121557065300739,-0.011156948747047812,-4.449209045179892
1590506335.4418938,-2.2037461697563967,-3.0387614907308103,8.899908074153517,0.5166666666666667,-0.02666666666666667,-0.6577777777777778,0.4847101463153057,0.4920678048873908,-12.809435805117205
1590506335.4518938,-2.1688258763180395,-2.996471929324594,9.005884867483614,0.5202612330198537,-0.036470029448085875,-0.6616991228903455,0.3235074095183813,0.8529317469364491,-19.871206184098035
1590506335.4618938,-2.1637811254980077,-3.033781125498008,8.969316484063745,0.5288888888888889,-0.06,-0.6711111111111111,1.3264520044820718,1.6832280253984064,-27.539288159860558
1590506335.4718938,-2.284180455269837,-3.1409975013280342,8.996175457925906,0.5288888888888889,-0.06,-0.6711111111111111,1.0420113817459224,2.3784147697090128,-33.13139055029807
1590506335.4818938,-2.2258691647259203,-3.0521495359588444,8.779009350342381,0.5288888888888889,-0.06,-0.6711111111111111,0.13376160102888526,2.6311915603601097,-38.45292024401265
1590506335.4918938,-2.1699032457670024,-3.019951622883501,8.799612983068009,0.5288888888888889,-0.06,-0.6711111111111111,1.0631047139562355,3.0,-43.806452860437645
1590506335.5018938,-2.217091185239354,-3.043545592619677,8.988364740957417,0.5288888888888889,-0.06,-0.6711111111111111,0.768180092254036,3.0,-46.75569907745964
1590506335.5118937,-2.17,-3.01697174808711,8.922113007651559,0.5488888888888889,-0.07444444444444444,-0.6711111111111111,0.5550139788110653,2.994011183048852,-52.00122866391995
1590506335.5218937,-2.17,-3.058116539140671,8.757533843437317,0.5488888888888889,-0.07444444444444444,-0.6711111111111111,2.3550985874043553,4.434078869923484,-53.852744261330194
1590506335.5318937,-2.1182160118677325,-3.175605589319041,8.894713595252906,0.5488888888888889,-0.07444444444444444,-0.6711111111111111,1.129577511125999,4.317077511125999,-57.541607347944684
1590506335.5418937,-1.9258951874611614,-3.3210407604317704,8.91693594789293,0.5488888888888889,-0.07444444444444444,-0.6711111111111111,1.056359179727957,4.281431966213262,-60.04516933646344
1590506335.5518937,-1.7339474866266487,-3.339332761648087,8.84,0.5551796044482556,-0.08361840463518767,-0.6679657533314277,1.4234018334762546,4.735901833476254,-62.63463187553595
1590506335.5618937,-1.514764828544949,-3.2958418288538773,8.831274714241582,0.5755555555555556,-0.11333333333333333,-0.6577777777777778,2.242033035990114,5.521813214396046,-66.56884750540624
1590506335.5718937,-1.6327893961708395,-3.3176907216494844,8.69480706921944,0.5755555555555556,-0.11333333333333333,-0.6577777777777778,1.9320876288659794,5.7061303387334315,-75.35699558173785
1590506335.5818937,-1.8557351888667992,-3.015882306163022,8.748675944333996,0.5755555555555556,-0.11333333333333333,-0.6577777777777778,1.113051689860835,5.862132206759443,-83.69943836978132
1590506335.5918937,-1.8855282998251748,-3.015528299825175,8.999024256993007,0.5755555555555556,-0.11333333333333333,-0.6577777777777778,0.7815026770104895,6.374494645979021,-91.10062349759616
1590506335.6018937,-1.807003973509934,-3.0359920529801325,8.985925449385054,0.6020047513928309,-0.17356417533900975,-0.6336854409755073,1.0967880794701985,7.541028855250709,-95.93517029328288
1590506335.6118937,-1.7,-3.25,9.07,0.6877777777777778,-0.3688888888888889,-0.5555555555555556,3.4375,8.6875,-98.5625
1590506335.6218936,-1.675471652882656,-3.286792520676016,8.88603739661992,0.6877777777777778,-0.3688888888888889,-0.5555555555555556,3.47582554237085,8.898290483039673,-99.23319699148988
1590506335.6318936,-1.6284267701260913,-3.363445845457485,8.48170384739735,0.6877777777777778,-0.3688888888888889,-0.5555555555555556,3.5098326867119303,9.32233268671193,-100.72074038150663
1590506335.6418936,-1.784773484038491,-3.209063540552925,8.75045303192302,0.6877777777777778,-0.3688888888888889,-0.5555555555555556,1.7951313578738355,7.714692798228196,-99.97035569726593
1590506335.6518936,-1.7335219184359247,-3.138592637849397,8.852956163128152,0.6877777777777778,-0.3688888888888889,-0.5555555555555556,-0.3670440659844201,5.912879945012984,-99.44983198411487
1590506335.6618936,-1.576039177942592,-3.261320274019136,8.74660137009568,1.3788888888888888,-0.3322222222222222,-0.05111111111111112,2.4457517126196002,7.7527505708732,-94.8864634641152
1590506335.6718936,-1.5048004302779823,-3.2850665232406726,8.865332616203364,1.3788888888888888,-0.3322222222222222,-0.05111111111111112,2.594165770254204,7.802221923418068,-91.72029690124366
1590506335.6818936,-1.3842871846658769,-3.230998970733886,8.869854349134833,1.3788888888888888,-0.3322222222222222,-0.05111111111111112,1.9053718466587692,6.4053718466587695,-86.66076942497038
1590506335.6918936,-1.3028333948303654,-3.2880166236187445,9.024616549822305,1.3788888888888888,-0.3322222222222222,-0.05111111111111112,1.0908339483036529,5.590833948303652,-83.6062523061387
1590506335.7018936,-1.1038155857214682,-3.3630922071392657,8.889900653594772,1.298319713982459,-0.2628193508742528,-0.15057710742416625,1.3762418300653594,5.899468325791855,-81.21586852689794
1590506335.7118936,-1.0700756158873808,-3.3799621920563094,8.780245751633986,0.8587628847550416,0.11581808837495111,-0.6932282889224065,2.7469281045751632,6.37393665158371,-80.68868149824033
1590506335.7218935,-1.0029112937508857,-3.351266118747343,8.823459685418733,0.8577777777777778,0.11666666666666667,-0.6944444444444444,1.940927447924047,6.352318619810117,-83.09863876293042
1590506335.7318935,-0.980623317273629,-3.418130048179113,8.7714544069718,0.8577777777777778,0.11666666666666667,-0.6944444444444444,1.7551943106135752,5.887985776533938,-85.37386969498371
1590506335.7418935,-0.864293251706708,-3.3776961959039005,8.853141349658658,0.8577777777777778,0.11666666666666667,-0.6944444444444444,1.9892009182995347,6.90706748293292,-89.72087268663029
1590506335.7518935,-0.8130591449004021,-3.464840244314171,8.876940855099598,0.8058796026313905,0.12527154544741484,-0.6974023715253266,2.253993892145729,7.219748473036432,-93.26342615327953
1590506335.7618935,-0.7250004509582864,-3.48,8.867778579481397,0.6433333333333333,0.15222222222222226,-0.7066666666666667,1.9236104847801578,7.319441939120631,-98.1631722096956
1590506335.7718935,-0.6571814805217241,-3.483204629869569,8.786023149347844,0.6433333333333333,0.15222222222222226,-0.7066666666666667,2.180260430163255,7.765202556793643,-102.37717025136045
1590506335.7818935,-0.5830575246476004,-3.4878662511203458,8.82426749775931,0.6433333333333333,0.15222222222222226,-0.7066666666666667,2.495820347510796,8.089171860995682,-106.65604630082295
1590506335.7918935,-0.4118271378868339,-3.4842633217359458,8.816856253433437,0.6433333333333333,0.15222222222222226,-0.7066666666666667,2.3375503570774585,8.240791521699322,-110.98440990661051
1590506335.8018935,-0.4348685222486724,-3.538026551913569,8.524998718183484,0.6433333333333333,0.15222222222222226,-0.7066666666666667,3.4416166910822197,8.912831898919611,-114.72863486540926
1590506335.8118935,-0.4513104162691165,-3.6186895837308835,9.019586456941909,0.5544444444444444,0.22,-0.7444444444444445,2.2637955592508794,9.755605457568901,-121.98016281383747
1590506335.8218935,-0.413818657570731,-3.6469093287853656,8.85436791813658,0.5544444444444444,0.22,-0.7444444444444445,1.6704173772866389,9.26133390182931,-127.307868315305
1590506335.8318934,-0.3833668026357076,-3.659405396925008,8.763266394728586,0.5544444444444444,0.22,-0.7444444444444445,2.801978741763414,10.176978741763413,-130.60950737370567
1590506335.8418934,-0.33608006469874646,-3.7197998382531337,8.848040032349372,0.5544444444444444,0.22,-0.7444444444444445,2.9742493934492518,10.324749797816418,-133.11624292357462
1590506335.8518934,-0.309749781395036,-3.762196475415349,8.841464316943567,0.5537936369139705,0.22081350941309238,-0.7439563387965891,3.147879952243223,10.397879952243223,-135.0077037230107
1590506335.8618934,-0.16349131302930847,-3.7635861008468936,8.846793050423447,0.5455555555555556,0.2311111111111111,-0.7377777777777778,3.3136848477198138,10.770043434853457,-137.16212475040737
1590506335.8718934,-0.11334328845369238,-3.7453955120359037,8.788768665850673,0.5455555555555556,0.2311111111111111,-0.7377777777777778,3.166604447164423,11.054617503059976,-138.35923500611995
1590506335.8818934,-0.058582945736434106,-3.8617612403100776,8.686093023255815,0.5455555555555556,0.2311111111111111,-0.7377777777777778,3.5088565891472867,11.439651162790698,-139.1293023255814
1590506335.8918934,0.0067032672258087594,-3.908324183193548,8.831840519322592,0.5455555555555556,0.2311111111111111,-0.7377777777777778,3.0834477100806525,10.739869275201631,-140.7925816806452
1590506335.9018934,0.036705949677211684,-3.900823512580697,8.974353260966756,0.5455555555555556,0.2311111111111111,-0.7377777777777778,3.1772060927412866,10.974265231853217,-141.5426487419303
1590506335.9118934,0.13001087115589655,-3.954282608241172,8.804304350552965,0.48,0.2966666666666667,-0.67,3.5,11.375,-141.625
1590506335.9218934,-0.8796956022944551,-5.837132950924156,5.448965965583175,0.48,0.2966666666666667,-0.67,3.462791586998088,11.263374760994264,-141.60019439133205
1590506335.9318933,-2.4032071451239974,-9.598114430792945,-7.376326789681279,0.48,0.2966666666666667,-0.67,-66.52982329872603,-20.15083080201297,-114.0034909552523
1590506335.9418933,5.438441533173357,2.095748102989818,-3.0160743238861145,0.48,0.2966666666666667,-0.67,-289.94993595563915,-114.96130990985148,-25.66230786691744
1590506335.9518933,0.838540246794968,-1.4343702524994746,1.486688984297595,0.4739697360915123,0.3114073117763033,-0.6736181583450926,-287.5605803584832,-91.86456863422103,-22.82849325967514
1590506335.9618933,-0.12,-0.81,3.65,0.43,0.4188888888888889,-0.7,-273.875,-65.8125,-13.375
1590506335.9718933,0.24174543772601126,-0.2992258851232024,3.473438735177866,0.43,0.4188888888888889,-0.7,-213.53689239761164,12.436288474476495,-3.1239303885291396
1590506335.9818933,0.30347300479354133,-0.6255001681944328,4.302351778656126,0.43,0.4188888888888889,-0.7,-179.47650271213524,49.968853807501475,3.5448514107308045
1590506335.9918933,0.17482341388722455,-0.4188962119699088,3.849922275480994,0.43,0.4188888888888889,-0.7,-109.15395945676053,96.5514571266893,13.066570343186205
1590506336.0018933,0.2655728646561481,-0.19551294853871248,0.9249976699287665,0.43,0.4188888888888889,-0.7,-20.149690433393246,62.694931262898606,14.68086345782571
1590506336.0118933,0.7109961270690213,-0.8756162109825257,6.510209783761353,0.3938577671220946,0.5363511457420813,-0.6403653157514562,87.06060243671907,-18.41677232698602,14.632549910092674
1590506336.0218933,-0.5136170929207088,-1.5774387877816083,8.849576044255592,0.3855555555555555,0.5633333333333334,-0.6266666666666667,177.5791489617574,14.389225727571555,21.536056882866994
1590506336.0318933,-0.3387565140703921,-1.1806397819289667,5.002643309548625,0.3855555555555555,0.5633333333333334,-0.6266666666666667,237.43527018359657,-3.2649673294315704,23.511645153531628
1590506336.0418932,-0.5811356687607429,-2.3195477707975236,7.487567727901918,0.3855555555555555,0.5633333333333334,-0.6266666666666667,332.15679142392116,-0.9753768576687303,28.701256635889322
1590506336.0518932,-0.523715337460641,-2.510948875131197,6.824043899545185,0.3855555555555555,0.5633333333333334,-0.6266666666666667,376.89679956191725,-0.8158759373906694,30.81464382957363
1590506336.0618932,-4.885294884327143,5.540128977951559,13.09130688606495,0.41,0.5666666666666667,-0.6133333333333333,244.342271844792,-19.863638060714674,18.401114641033995
1590506336.0718932,0.6240721331689272,-0.08453298397040691,-2.405852342786683,0.41,0.5666666666666667,-0.6133333333333333,17.60818048705302,-32.07984933723798,2.843634401972873
1590506336.0818932,0.2200281288532675,-0.011805063193588164,0.5759924090628856,0.41,0.5666666666666667,-0.6133333333333333,-14.210284852805174,-0.7159335022348969,7.6921624537607896
1590506336.0918932,1.8887481829841812,-5.728235998289867,20.51518683197948,0.41,0.5666666666666667,-0.6133333333333333,-54.236367037195386,39.134926784950835,15.080517849508336
1590506336.1018932,-0.46084490765510305,-1.561952190382434,7.963464592205791,0.4098435356194253,0.5627237642761858,-0.6156802990419529,-28.467640496928972,32.125264836176086,12.983313983350097
1590506336.1118932,-0.48777345003959166,-4.811329638110728,17.316644980418175,0.4048567685111868,0.43705723314857226,-0.6904818056655324,6.427262342970877,-11.689717668585615,6.47558290709868
1590506336.1218932,-0.1281746795683672,-2.3538583514869043,5.87467450225442,0.4044444444444445,0.4266666666666667,-0.6966666666666667,28.349637772936827,-7.679270733066518,8.854330259891585
1590506336.1318932,0.005140693127163212,-1.9174165055962602,5.281277026115881,0.4044444444444445,0.4266666666666667,-0.6966666666666667,-10.176783667460782,8.351190609969883,11.69277599226862
1590506336.1418931,-0.05432189576628913,-2.5794090358172777,8.329757596021231,0.4044444444444445,0.4266666666666667,-0.6966666666666667,-18.046772474610272,-7.064610586366866,9.823086889288252
1590506336.1518931,-0.08031496315283564,-2.197795578340276,6.250945850688882,0.4047244116914095,0.42621171989034856,-0.6967716543842786,11.784446090996475,-8.023125600768985,11.145670458186478
1590506336.1618931,-0.07949708650829224,-3.2497194083370684,9.820333482743164,0.4133333333333333,0.4122222222222222,-0.7,-1.3132283729269387,5.4116259524876735,15.493713581353653
1590506336.1718931,-0.05764009804750233,-2.989660637308765,9.523514918434621,0.4133333333333333,0.4122222222222222,-0.7,-7.310690664356352,-3.3419987744062207,15.411503676781336
1590506336.181893,-0.09309187727157467,-3.2200972022652357,10.096652015890458,0.4133333333333333,0.4122222222222222,-0.7,-0.9219846166849806,-2.8988515341053165,16.74094539768405
1590506336.191893,-0.0143635571054926,-2.437393199651264,7.22993679163034,0.4133333333333333,0.4122222222222222,-0.7,1.626893526591107,1.0482985505666957,19.51685783565824
1590506336.201893,-0.0598163343692168,-2.9145102831802787,8.873571702922588,0.4133333333333333,0.4122222222222222,-0.7,-0.6024237054366424,-2.2048474108732847,20.0625
1590506336.211893,-0.04219991750309364,-3.030999587515468,9.239598515055686,0.4189527857983103,0.42747502177001695,-0.7,-0.1868726797745086,-2.276871648563179,21.326876804619825
1590506336.221893,-0.10572272215973003,-3.34861361079865,9.49720753655793,0.4211111111111111,0.43333333333333335,-0.7,1.4495043588301464,-1.7917076771653544,22.645915354330707
1590506336.231893,-0.04657157369000254,-2.74412342334716,8.204901379835775,0.4211111111111111,0.43333333333333335,-0.7,-1.4002528993481758,-2.8943854228392447,22.666072335562514
1590506336.241893,-0.09627969186489461,-3.0778779310928637,9.376592736815372,0.4211111111111111,0.43333333333333335,-0.7,-0.6457546770507069,-2.0955049521713365,22.97674807415559
1590506336.251893,-0.032028501733213505,-2.809381820516112,8.101584285530878,0.4211111111111111,0.43333333333333335,-0.7,-1.655804660418539,-1.4485933688535113,22.757923834895365
1590506336.261893,-0.13903520060560182,-3.0336468584405756,8.97901097653293,0.4418797207502734,0.4246797459836824,-0.709518946084616,-0.2272071347464042,-2.264999290310371,22.019853567373204
1590506336.271893,5.317151992249001,-9.692103185176213,4.859200193774979,0.4477777777777778,0.4222222222222222,-0.7122222222222222,-6.404803500060554,0.0625,-18.41627407048565
1590506336.281893,-0.09888007928642262,-15.352517343904857,9.057338949454905,0.4477777777777778,0.4222222222222222,-0.7122222222222222,-20.88385777998018,5.221754212091179,-228.8943260654113
1590506336.291893,-14.075418882978724,-18.70159574468085,10.814621010638298,0.4477777777777778,0.4222222222222222,-0.7122222222222222,14.946268284574469,36.918924534574465,-295.888671875
1590506336.301893,-3.356109956781914,-7.825418882978722,5.533400515292552,0.4477777777777778,0.4222222222222222,-0.7122222222222222,20.7198797997008,32.4525458153258,-137.1688232421875
1590506336.311893,1.7841099180849533,2.408342606089224,11.48273707117781,0.44222222222222224,0.41,-0.7211111111111111,13.904523548009609,-20.81274379478125,27.244890574637132
1590506336.321893,1.0652704125106511,0.9489699764422836,7.0466517969024105,0.44222222222222224,0.41,-0.7211111111111111,11.500817628189063,-3.7484712545737056,31.670104255425795
1590506336.331893,1.16539247441189,-2.1286762664494994,10.235980491958022,0.44222222222222224,0.41,-0.7211111111111111,-15.622857632012439,4.265629337948139,34.692707851339094
1590506336.341893,0.6219787521516222,-2.4780136593310997,10.065193322104795,0.44222222222222224,0.41,-0.7211111111111111,-11.789850126783765,-3.157790260785875,35.51753225119843
1590506336.351893,0.3067502474430881,-2.4511217419993403,9.035724183437809,0.44222222222222224,0.41,-0.7211111111111111,-2.004825140217749,-1.4945562520620257,36.54581821181128
1590506336.361893,0.09260543694040432,-2.5536539318559335,8.88352388283434,0.4264240345356904,0.4290894767878927,-0.7211111111111111,0.8947327107725966,-1.614998176882875,37.138918992829076
1590506336.371893,0.03981066362715299,-2.673270221209051,9.252512875717663,0.4155555555555556,0.44222222222222224,-0.7211111111111111,-2.818416761651469,-4.383283466312057,37.188683352330294
1590506336.381893,3.159550990462216,-7.0860308143800435,7.670254585473221,0.4155555555555556,0.44222222222222224,-0.7211111111111111,-0.10138939838591343,-3.2440801540719004,32.80943690388848
1590506336.391893,-1.7025135730007337,-18.933466617754952,7.685640865737344,0.4155555555555556,0.44222222222222224,-0.7211111111111111,-10.00630731841526,0.8909826669112251,-8.925848312545853
1590506336.401893,0.6662612163509469,-3.733519441674975,8.455902293120637,0.4155555555555556,0.44222222222222224,-0.7211111111111111,14.608050847457626,1.3340603190428713,-19.605309072781655
1590506336.411893,0.0465714231325669,-1.9542317063884869,6.197958767989036,0.4155555555555556,0.44222222222222224,-0.7051674957909254,15.085678729155562,-0.3499200487322014,-13.524262592324678
1590506336.421893,-0.4813778436804932,-4.114092168416123,11.281337651695477,0.4155555555555556,0.44222222222222224,-0.6977777777777778,-20.145232567214265,3.874870741795762,8.258094490186132
1590506336.4318929,2.3537270352539887,-7.229444528399647,7.8975669782604,0.4155555555555556,0.44222222222222224,-0.6977777777777778,-0.7089441074242784,-5.060737840288422,24.296500237473285
1590506336.4418929,-0.5257172772608532,-3.625611709591762,8.902656030741998,0.4155555555555556,0.44222222222222224,-0.6977777777777778,2.799812719932644,0.2589902528011052,8.110944549988126
1590506336.4518929,-0.7795931496919174,-3.9306809532439293,8.270132747372235,0.4155555555555556,0.44222222222222224,-0.6977777777777778,1.1521412876042045,1.0664614670170351,-5.01956664552374
1590506336.4618928,0.22772547573218382,-4.632333997994491,9.004653127557312,0.43,0.43,-0.6966666666666667,-1.6348798711402588,-0.009601088046472493,1.615584767349385
1590506336.4718928,0.0875303419739284,-4.521144753979323,8.845120733970331,0.43,0.43,-0.6966666666666667,-0.5169445372921013,-0.07003002501123777,0.7695796498426712
1590506336.4818928,-0.04,-4.42,8.7,0.43,0.43,-0.6966666666666667,0.5,-0.125,0.0
1590506336.4918928,-0.04351101634683724,-4.395422885572139,8.703511016346837,0.43,0.43,-0.6966666666666667,0.40125266524520253,-0.14694385216773276,-0.010971926083866382
1590506336.5018928,-0.0313338237096972,-4.3301658085080295,8.784498896653181,0.43,0.43,-0.6966666666666667,-0.10729090045359814,-0.20520909954640187,-0.0625
1590506336.5118928,-0.006959660212566551,-4.336959660212567,8.783919320425133,0.43941802317981304,0.43362231660762035,-0.7060846898464798,-0.2880042473429181,-0.0244957526570819,-0.021748938164270475
1590506336.5218928,-0.019076994976048606,-4.492154457296413,8.798615492464073,0.4444444444444444,0.4355555555555555,-0.7111111111111111,0.22115609300151884,0.24134682790045567,-0.05961560930015189
1590506336.5318928,-0.07863757343244215,-4.314314350797266,8.663178995324301,0.4444444444444444,0.4355555555555555,-0.7111111111111111,0.5554040282939695,0.005676777364824359,0.12074241697638174
1590506336.5418928,-0.0536973293768546,-4.36260534124629,8.73233234421365,0.4444444444444444,0.4355555555555555,-0.7111111111111111,0.43920623145400595,0.0,0.08390207715133532
1590506336.5518928,-0.04,-4.332945884380964,8.776339346179892,0.4444444444444444,0.4355555555555555,-0.7111111111111111,-0.021209136243304838,0.11886274087299144,0.022879086375669516
1590506336.5618927,-0.04550949691991787,-4.366113963039014,8.796528490759753,0.44015928017339717,0.442289385124344,-0.7080502794889345,-0.3877374229979466,0.1186312885010267,-0.0688687114989733
1590506336.5718927,-0.04307951616101527,-4.42,8.747715645449137,0.43666666666666665,0.4477777777777778,-0.7055555555555556,-0.3702409280190363,-0.0672590719809637,-0.03849395201269086
1590506336.5818927,-0.03353668683812405,-4.400610060514372,8.700610060514371,0.43666666666666665,0.4477777777777778,-0.7055555555555556,0.21264419440242066,0.036582829046898635,0.04039570726172466
1590506336.5918927,-0.03,-4.373246107266436,8.748638624567473,0.43666666666666665,0.4477777777777778,-0.7055555555555556,0.3952881704152249,-0.08442365916955019,-0.042211829584775096
1590506336.6018927,-0.036409202958093675,-4.331544782251438,8.81127362366475,0.43666666666666665,0.4477777777777778,-0.7055555555555556,0.21476992604765818,-0.04488496302382909,-0.0625
1590506336.6118927,-0.031622582707367744,-4.343509669170529,8.798112913536839,0.4245659527995312,0.43753871219789386,-0.7353419281515814,-0.0844354323158063,0.0,0.09457657423685473
1590506336.6218927,-0.03,-4.370086606101311,8.763217858531585,0.4222222222222222,0.4355555555555555,-0.7411111111111112,-0.08315290395560113,0.04184709604439888,0.04130580791120224
1590506336.6318927,-0.03,-4.4137757437070935,8.674004576659039,0.4222222222222222,0.4355555555555555,-0.7411111111111112,0.09582379862700227,0.0625,0.0
1590506336.6418927,-0.06734807725683684,-4.317292787543698,8.716022115885256,0.4222222222222222,0.4355555555555555,-0.7411111111111112,0.5334945949966529,0.17921274142761512,0.0
1590506336.6518927,-0.06274984768199693,-4.353500913908018,8.77075106622602,0.4222222222222222,0.4355555555555555,-0.7411111111111112,0.24530583608736595,0.006246192049923355,0.09062690397503832
1590506336.6618927,-0.07676175328430968,-4.35882549781046,8.81793625547385,0.43712155847494194,0.43245152716957225,-0.7330406373075546,-0.11944223539618276,-0.0625,0.02023904197306453
1590506336.6718926,-0.05073418301152408,-4.389265816988476,8.792881019613828,0.4488888888888889,0.43,-0.7266666666666667,-0.4597468137067847,-0.013417728764405099,-0.1115822712355949
1590506336.6818926,-0.03103660192018165,-4.364146407680727,8.690366019201816,0.4488888888888889,0.43,-0.7266666666666667,-0.2198938100056766,-0.05602123799886467,-0.012957524002270654
1590506336.6918926,-0.03663356591735944,-4.3799006977520785,8.713167829586798,0.4488888888888889,0.43,-0.7266666666666667,0.14417829586797193,-0.14541957396699298,0.0
1590506336.7018926,-0.0458376453711768,-4.354974127772939,8.776701162969415,0.4488888888888889,0.43,-0.7266666666666667,0.42195585070956504,-0.04155886572057996,0.03648528356985501
1590506336.7118926,-0.04160463976474432,-4.321604639764745,8.801604639764745,0.44515761767321965,0.4234702753725789,-0.7266666666666667,0.027760986766868168,0.010028998529652021,0.16744200294069594
1590506336.7218926,-0.05452833519684576,-4.349056670393692,8.741886659212618,0.4444444444444444,0.4222222222222222,-0.7266666666666667,-0.198703142470429,0.181604189960572,0.051296857529571
1590506336.7318926,-0.0448116099281161,-4.375188390071884,8.68202902482029,0.4444444444444444,0.4222222222222222,-0.7266666666666667,-0.25,0.10760884307608842,0.0
1590506336.7418926,-0.04678232338767559,-4.386782323387675,8.68356464677535,0.4444444444444444,0.4222222222222222,-0.7266666666666667,-0.08044191530811032,0.23205808469188968,0.04238952117297242
1590506336.7518926,-0.05,-4.365622054556007,8.732661404526988,0.4444444444444444,0.4222222222222222,-0.7266666666666667,0.19045269878119558,0.16013784097504352,-0.01368107951247824
1590506336.7618926,-0.03386174552696669,-4.390345636182584,8.800345636182584,0.4166507839631093,0.4329810585375777,-0.7078387031147945,0.16120386431531272,0.012067954771770896,0.03836409045645821
1590506336.7718925,-0.03604742750391302,-4.375810289984348,8.797905144992173,0.41,0.4355555555555555,-0.7033333333333334,-0.1773713751956511,0.0,-0.08868568759782555
1590506336.7818925,-0.046789024569663086,-4.387156098278653,8.722109754303368,0.41,0.4355555555555555,-0.7033333333333334,-0.3325685964396057,0.0,0.024657017801971437
1590506336.7918925,-0.029507003146788426,-4.372676004195719,8.710492996853212,0.41,0.4355555555555555,-0.7033333333333334,-0.09903128277904608,-0.08538748688838156,0.125
1590506336.8018925,-0.03242857142857143,-4.372428571428571,8.769714285714286,0.41,0.4355555555555555,-0.7033333333333334,0.271875,-0.04732142857142857,0.008482142857142855
1590506336.8118925,-0.05098291508670274,-4.352542712283243,8.821965830173406,0.41427113364482887,0.4422673369974294,-0.7124857625722523,0.3688567807081079,0.06864321929189211,0.040464828937838176
1590506336.8218925,-0.037444368057314464,-4.3525556319426855,8.82496291203821,0.4177777777777778,0.4477777777777778,-0.72,-0.0634271990447588,0.125,0.07800910011940515
1590506336.8318925,-0.05508580008580008,-4.368361933361934,8.677847132847134,0.4177777777777778,0.4477777777777778,-0.72,-0.1875,0.02047583297583297,0.11476208351208352
1590506336.8418925,-0.06617027640445484,-4.38234055280891,8.68702165842673,0.4177777777777778,0.4477777777777778,-0.72,-0.14893577247215722,0.03856422752784278,0.009307317416471658
1590506336.8518925,-0.07,-4.384775493293283,8.725673520120152,0.4177777777777778,0.4477777777777778,-0.72,-0.027040499249054856,0.0625,0.035459500750945144
1590506336.8618925,-0.042317568761411156,-4.366158784380706,8.809206078096473,0.4262362984340133,0.43931925712154224,-0.713848348613647,0.19226139643088522,-0.02400759762059014,-0.0047613964308852175
1590506336.8718925,-0.03650577515135236,-4.366505775151353,8.820482674545943,0.43,0.4355555555555555,-0.7111111111111111,0.1280167159121433,0.05948328408785668,-0.0625
1590506336.8818924,-0.03327187206020696,-4.376728127939793,8.735990592662276,0.43,0.4355555555555555,-0.7111111111111111,-0.10570319849482598,-0.0011523988711194533,0.021601599247412992
1590506336.8918924,-0.03,-4.38,8.693755375159943,0.43,0.4355555555555555,-0.7111111111111111,-0.1094421894992973,0.054586715751054046,0.0625
1590506336.9018924,-0.03452935413369508,-4.37094129173261,8.739822895470645,0.43,0.4355555555555555,-0.7111111111111111,0.02242539000678273,0.06838307332881152,0.03419153666440576
1590506336.9118924,-0.04,-4.370503743489583,8.8,0.43,0.43905680338541664,-0.7035250741464121,0.1578241984049479,0.032824198404947914,0.032824198404947914
1590506336.9218924,-0.04525781969120687,-4.358968721235172,8.821031278764828,0.43,0.44222222222222224,-0.6966666666666667,0.1875,0.1282227461400858,-0.03608411921012869
1590506336.9318924,-0.04498509712562952,-4.365074514371853,8.764776456884443,0.43,0.44222222222222224,-0.6966666666666667,-0.0005588577888930857,0.12481371407036898,-0.030970571105553457
1590506336.9418924,-0.03510411267404243,-4.380208225348085,8.70958354930383,0.43,0.44222222222222224,-0.6966666666666667,-0.2180992957872348,0.0930992957872348,0.031900704212765196
1590506336.9518924,-0.03823399151134896,-4.374116995755674,8.734116995755675,0.43,0.44222222222222224,-0.6966666666666667,-0.198537553054069,0.0992687765270345,0.02573122347296549
1590506336.9618924,-0.05,-4.38,8.758264054275822,0.42441931674905437,0.44222222222222224,-0.7032620195996024,-0.039387245582084174,0.03396241519402805,0.0054248303880561136
1590506336.9718924,-0.04396630496858938,-4.373966304968589,8.78603369503141,0.4177777777777778,0.44222222222222224,-0.7111111111111111,0.17563178183894917,-0.07542118789263277,-0.024789406053683613
1590506336.9818923,-0.04582534803832942,-4.364174651961671,8.743397215693365,0.4177777777777778,0.44222222222222224,-0.7111111111111111,0.06795787380220575,-0.01577472428132344,0.0
1590506336.9918923,-0.05,-4.353234650303226,8.723530699393548,0.4177777777777778,0.44222222222222224,-0.7111111111111111,-0.1893503068145118,-0.02206687120967453,0.0
1590506337.0018923,-0.03155410325833256,-4.368445896741667,8.73,0.4177777777777778,0.44222222222222224,-0.7111111111111111,-0.25,0.01435790309028101,0.0
1590506337.0118923,-0.040570298176203806,-4.373143233941265,8.784854128469878,0.4360624872677367,0.43765104484973244,-0.7073017966340364,0.04998351506963877,0.10535478786709125,-0.04285478786709125
1590506337.0218923,-0.03738565294959516,-4.37,8.816307173525203,0.4444444444444444,0.4355555555555555,-0.7055555555555556,0.14808016546748487,0.125,-0.023080165467484856
1590506337.0318923,-0.03654830390795477,-4.350355088276135,8.747968657012498,0.4444444444444444,0.4355555555555555,-0.7055555555555556,0.2068537988494346,0.043146201150565375,0.0
1590506337.0418923,-0.04707531022678648,-4.36122593068036,8.738301240907147,0.4444444444444444,0.4355555555555555,-0.7055555555555556,0.11733793324775355,0.0,0.04422068891741549
1590506337.0518923,-0.05,-4.37,8.75,0.4444444444444444,0.4355555555555555,-0.7055555555555556,-0.10673062868835986,0.06769225147534394,-0.00519225147534394
1590506337.0618923,-0.03791421603787118,-4.382085783962129,8.756042891981064,0.43571582269401804,0.43958415020959846,-0.7089127177672581,-0.17446385023669486,0.01169577535504232,-0.10026807488165257
1590506337.0718923,-0.035237748254592284,-4.3742867552362235,8.780950993018369,0.43,0.44222222222222224,-0.7111111111111111,0.10415148613841252,-0.0625,0.00594370636480715
1590506337.0818923,-0.04527982298859345,-4.36,8.757761416091252,0.43,0.44222222222222224,-0.7111111111111111,0.24650221264258193,-0.12849778735741807,0.09200110632129097
1590506337.0918922,-0.045299709112873746,-4.364700290887127,8.72,0.43,0.44222222222222224,-0.7111111111111111,0.09936954586638266,-0.06999272782184356,0.03312318195546089
1590506337.1018922,-0.042882707774798925,-4.367117292225201,8.7257654155496,0.43,0.44222222222222224,-0.7111111111111111,-0.05405077077747989,0.026466152815013404,0.0
1590506337.1118922,-0.04447910833799963,-4.376562674986001,8.767604458310002,0.43368059444133356,0.4385416277808886,-0.7196991648075561,-0.15299442711249767,-0.027994427112497666,-0.034505572887502334
1590506337.1218922,-0.04644017006454257,-4.377119659870915,8.770679489806373,0.43666666666666665,0.4355555555555555,-0.7266666666666667,-0.00424681128982686,0.0805021258067821,0.05825318871017314
1590506337.1318922,-0.05,-4.374932547709085,8.730404713745493,0.43666666666666665,0.4355555555555555,-0.7266666666666667,0.09332842318177821,0.125,0.03251473045466538
1590506337.1418922,-0.04474530831099196,-4.364235924932975,8.72627345844504,0.43666666666666665,0.4355555555555555,-0.7266666666666667,0.125,0.09215817694369974,0.036025469168900814
1590506337.1518922,-0.044618218660771855,-4.354618218660772,8.759236437321544,0.43666666666666665,0.4355555555555555,-0.7266666666666667,0.03840840011052776,0.03363613337017592,0.03840840011052776
1590506337.1618922,-0.05270689994102615,-4.365413799882052,8.77,0.43486206670598254,0.4340517222549854,-0.7248620667059825,-0.0625,0.0,-0.04558187536858659
1590506337.1718922,-0.04539337301752487,-4.384868875660825,8.77973775132165,0.43,0.43,-0.72,-0.03206952711984348,0.0,0.0
1590506337.1818922,-0.03561145008438271,-4.384388549915617,8.739496949240555,0.43,0.43,-0.72,0.03507156302739193,-0.03507156302739193,0.0
1590506337.1918921,-0.04677367844034511,-4.386773678440345,8.733868392201725,0.43,0.43,-0.72,0.14717098050431382,-0.0625,0.08467098050431383
1590506337.2018921,-0.05,-4.359393933952269,8.76020202201591,0.43,0.43,-0.72,0.05997472480112054,-0.0625,0.15688131879971987
1590506337.2118921,-0.05296801619433199,-4.338904048582996,8.775936032388664,0.43,0.43164889788573996,-0.723957354925776,-0.0996002024291498,-0.0625,0.1318496963562753
1590506337.221892,-0.055467698307856826,-4.356978465538571,8.782446163846428,0.43,0.4355555555555555,-0.7333333333333333,-0.1686154096160701,-0.03417311442410517,-0.009442295191964942
1590506337.231892,-0.03058844911147011,-4.34117689822294,8.73646930533118,0.43,0.4355555555555555,-0.7333333333333333,-0.05514438610662359,0.1286778069466882,-0.05514438610662359
1590506337.241892,-0.04,-4.36,8.705802164945599,0.43,0.4355555555555555,-0.7333333333333333,0.12700541236399876,0.09074188145400182,0.030247293818000613
1590506337.251892,-0.04,-4.355145754370647,8.74456273688806,0.43,0.4355555555555555,-0.7333333333333333,0.12682192963308395,0.0,0.0
1590506337.261892,-0.043247277373298997,-4.356494554746598,8.776236386866495,0.42603110543263456,0.4337515125703894,-0.7243131184075028,0.021909032833762603,0.0202954835831187,0.0
1590506337.271892,-0.046576790592706974,-4.373423209407293,8.799730371778121,0.4177777777777778,0.43,-0.7055555555555556,-0.0625,0.04110494120441858,0.04279011759116284
1590506337.281892,-0.044359168502202645,-4.3756408314977975,8.740767483480175,0.4177777777777778,0.43,-0.7055555555555556,-0.0625,-0.027244803138766524,0.125
1590506337.291892,-0.04738349514563107,-4.37,8.71354854368932,0.4177777777777778,0.43,-0.7055555555555556,-0.04614684466019417,-0.013440533980582522,0.10864684466019417
1590506337.301892,-0.04,-4.37,8.78,0.4177777777777778,0.43,-0.7055555555555556,0.03713502133082165,0.08786497866917835,0.043932489334589174
1590506337.311892,-0.04,-4.37,8.78,0.4214256740354422,0.43167195245142953,-0.7055555555555556,0.10790048629219819,0.017099513707801817,0.008549756853900909
1590506337.321892,-0.03218709417401818,-4.377812905825982,8.78,0.4444444444444444,0.44222222222222224,-0.7055555555555556,-0.07324599211857956,0.05175400788142044,0.038084669293806814
1590506337.331892,-0.030093201754385967,-4.379906798245614,8.72953399122807,0.4444444444444444,0.44222222222222224,-0.7055555555555556,-0.06133497807017543,0.0005825109649122834,0.06308251096491228
1590506337.341892,-0.046467072912500296,-4.37,8.712335364562502,0.4444444444444444,0.44222222222222224,-0.7055555555555556,0.10291920570312683,-0.05875761710938052,0.04416158859374633
1590506337.351892,-0.060039146968906124,-4.375019573484453,8.760117440906718,0.4444444444444444,0.44222222222222224,-0.7055555555555556,0.15637233427783162,-0.09362766572216838,0.0
1590506337.361892,-0.06318960504539965,-4.3765948025227,8.8002155924319,0.4444444444444444,0.44222222222222224,-0.7074473319318335,0.1662175157668739,-0.04121751576687391,0.0
1590506337.371892,-0.041192277773849095,-4.365596138886925,8.797980694434623,0.4444444444444444,0.44222222222222224,-0.7111111111111111,-0.012620659783607935,-0.027524131956721588,-0.055048263913443175
1590506337.381892,-0.03,-4.36,8.716286706734614,0.4444444444444444,0.44222222222222224,-0.7111111111111111,-0.1875,-0.1371017962019242,-0.013097305697113731
1590506337.391892,-0.04127793377114613,-4.3769169006567195,8.696916900656719,0.4444444444444444,0.44222222222222224,-0.7111111111111111,-0.08176937089550507,0.023961258208989866,0.02725645696516836
1590506337.401892,-0.05,-4.371643737858304,8.751301589818818,0.4444444444444444,0.44222222222222224,-0.7111111111111111,0.0,0.13013668080719978,0.02868165959640011
1590506337.411892,-0.04132800473653049,-4.363007992895204,8.804335997631735,0.4444444444444444,0.43692266956121306,-0.7087022235379252,0.08129995559502663,0.08959998519834221,0.0625
1590506337.421892,-0.03923893231803637,-4.375380533840982,8.800761067681963,0.4444444444444444,0.43,-0.7055555555555556,0.10088500951840901,0.125,0.004756673012272672
1590506337.431892,-0.05,-4.37299625833106,8.760037416689402,0.4444444444444444,0.43,-0.7055555555555556,-0.018726614569123435,0.06882015629262969,-0.04377338543087657
1590506337.441892,-0.05495399975246504,-4.377523000123768,8.707338999133627,0.4444444444444444,0.43,-0.7055555555555556,-0.0625,-0.0625,-0.015481249226453237
1590506337.451892,-0.05686464624078896,-4.36562154874693,8.77313535375921,0.4444444444444444,0.43,-0.7055555555555556,0.07432660165844829,-0.0625,-0.03513467966831034
1590506337.461892,-0.04740402252614642,-4.363702011263073,8.793702011263074,0.4362177527487262,0.434524680432645,-0.7158389201752033,0.1805872888173773,-0.039362429605792434,-0.023137570394207562
1590506337.4718919,-0.0545475372279496,-4.380904925544101,8.761832760595647,0.4222222222222222,0.44222222222222224,-0.7333333333333333,-0.07381156930126001,0.0,0.07381156930126001
1590506337.4818919,-0.038950265755504934,-4.39,8.696850797266515,0.4222222222222222,0.44222222222222224,-0.7333333333333333,-0.11843916097190585,-0.034530419514047075,0.0493783219438117
1590506337.4918919,-0.03,-4.3850615091675404,8.694692454162299,0.4222222222222222,0.44222222222222224,-0.7333333333333333,-0.09336556770287328,-0.0625,-0.031634432297126716
1590506337.5018919,-0.037537719515211475,-4.376231140242394,8.73884429878803,0.4222222222222222,0.44222222222222224,-0.7333333333333333,-0.030778506059856534,-0.0625,0.023555373485035867
1590506337.5118918,-0.04215451602098917,-4.37,8.780460645305348,0.4280336918363043,0.4390259139344771,-0.7275218637192512,0.125,-0.02981048342078821,0.046155241710394104
1590506337.5218918,-0.02999737010181463,-4.366667543299395,8.81,0.4444444444444444,0.43,-0.7111111111111111,0.125,0.10415570875756096,0.02082785437878048
1590506337.5318918,-0.04453210096946962,-4.365467899030531,8.744385211633634,0.4444444444444444,0.43,-0.7111111111111111,0.0908256310591851,0.11915126211837021,0.028325631059185105
1590506337.5418918,-0.04497002724795641,-4.37,8.729760217983651,0.4444444444444444,0.43,-0.7111111111111111,0.0625,-0.061750681198910085,-0.03106267029972752
1590506337.5518918,-0.05,-4.37,8.77,0.4444444444444444,0.43,-0.7111111111111111,0.012549972742140654,-0.08759994548428131,-0.037524986371070324
1590506337.5618918,-0.04640801553672316,-4.366408015536724,8.784367937853107,0.4444444444444444,0.4343902032328939,-0.7115102204959196,0.027299611581920902,0.040050097104519775,-0.022449902895480225
1590506337.5718918,-0.04,-4.355194108815328,8.819611782369343,0.4444444444444444,0.44222222222222224,-0.7122222222222222,0.09738954028740973,-0.0600736398083935,-0.002426360191606497
1590506337.5818918,-0.044052048347847074,-4.358104096695694,8.77327132313014,0.4444444444444444,0.44222222222222224,-0.7122222222222222,-0.025325302174044204,-0.15032530217404422,0.037174697825955796
1590506337.5918918,-0.04645392511038477,-4.366453925110385,8.700638224668845,0.4444444444444444,0.44222222222222224,-0.7122222222222222,-0.10682593612019038,-0.09884812775961924,0.0
1590506337.6018918,-0.03708108026916607,-4.362918919730834,8.728756759192501,0.4444444444444444,0.44222222222222224,-0.7122222222222222,-0.2057432483177121,0.04425675168228792,0.018243248317712086
1590506337.6118917,-0.030781062244652727,-4.369218937755347,8.747656813266042,0.4444444444444444,0.44222222222222224,-0.7122222222222222,-0.24511836097092043,0.004881639029079551,0.05761836097092045
