time,acc_x,acc_y,acc_z,mag_x,mag_y,mag_z,gyr_x,gyr_y,gyr_z
1590504849.6021438,0.0,-4.53,8.64,0.4711111111111111,0.2888888888888889,-0.6533333333333333,-0.125,-0.0625,0.0625
1590504849.6121438,-0.02,-4.56,8.74,0.4711111111111111,0.29444444444444445,-0.6611111111111111,-0.3125,-0.3125,-0.0625
1590504849.6221437,-0.008776184752747253,-4.5543880923763735,8.706328554258242,0.4711111111111111,0.29444444444444445,-0.6611111111111111,-0.24235115470467034,-0.4177232679429945,-0.0625
1590504849.6321437,-0.016102164631862783,-4.533897835368137,8.599489176840686,0.4711111111111111,0.29444444444444445,-0.6611111111111111,-0.1875,-0.29872294210171524,-0.0625
1590504849.6421437,-0.02818860607141265,-4.521811393928587,8.620943030357063,0.4711111111111111,0.29444444444444445,-0.6611111111111111,-0.3410363638389872,-0.35235757589265815,-0.21603636383898722
1590504849.6521437,-0.010452614237405709,-4.539547385762594,8.708189543050379,0.4711111111111111,0.29444444444444445,-0.6611111111111111,-0.375,-0.5582567415243215,-0.18891441949189283
1590504849.6621437,-0.011616207834464527,-4.55,8.716767584331071,0.4488888888888889,0.3088888888888889,-0.6611111111111111,-0.3125,-0.5523987010345968,0.03030389689620987
1590504849.6721437,-0.01623737850830237,-4.5518813107458485,8.679305581795662,0.4488888888888889,0.3088888888888889,-0.6611111111111111,-0.3125,-0.45296723135377964,0.16398361567688982
1590504849.6821437,0.0,-4.5591637238343825,8.594181380828088,0.4488888888888889,0.3088888888888889,-0.6611111111111111,-0.3020465479297815,-0.23954654792978147,0.046819821894672195
1590504849.6921437,-0.004461580431026644,-4.5511153951077565,8.644461580431027,0.4488888888888889,0.3088888888888889,-0.6611111111111111,-0.18052878057652086,-0.11802878057652087,-0.11802878057652087
1590504849.7021437,-0.034973901973265435,-4.558743475493316,8.674973901973265,0.4488888888888889,0.3088888888888889,-0.6611111111111111,-0.13285327816677275,-0.07035327816677275,-0.07035327816677275
1590504849.7121437,-0.04174823515453521,-4.555244705463606,8.724755294536395,0.4633333333333333,0.29444444444444445,-0.6466666666666666,-0.1656470605683099,-0.6389852880109154,0.018794121136619803
1590504849.7221437,-0.04993626380202879,-4.579936263802029,8.699681319010143,0.4633333333333333,0.29444444444444445,-0.6466666666666666,-0.06090659505071965,-1.0059752685598013,-0.1878983512373201
1590504849.7321436,-0.033989405613648875,-4.57,8.652003531462118,0.4633333333333333,0.29444444444444445,-0.6466666666666666,0.2626324298293891,-2.0251545014676204,-0.28756621491469453
1590504849.7421436,-0.004391530195487529,-4.565793647646616,8.661402117451129,0.4633333333333333,0.29444444444444445,-0.6466666666666666,0.5712632340695507,-2.375,-0.4287367659304493
1590504849.7521436,0.028871485784527536,-4.540846385661604,8.669717871446132,0.4633333333333333,0.29444444444444445,-0.6466666666666666,0.6232366965383243,-2.375,-0.37676330346167575
1590504849.7621436,-0.0015293793103448275,-4.56,8.690764689655172,0.4755555555555556,0.2822222222222222,-0.6677777777777778,0.2523896551724138,-1.3582724137931035,-0.1922793103448276
1590504849.7721436,-0.032383999999999996,-4.56,8.706192,0.4755555555555556,0.2822222222222222,-0.6677777777777778,0.3006,-1.0208,-0.2887
1590504849.7821436,-0.025832537864324805,-4.539166507572865,8.64,0.4755555555555556,0.2822222222222222,-0.6677777777777778,0.635418655339188,-1.687511932035128,-0.380209327669594
1590504849.7921436,0.007531818760341098,-4.532493636247932,8.64,0.4755555555555556,0.2822222222222222,-0.6677777777777778,0.7188295469008528,-2.1879772814051166,-0.4219147734504264
1590504849.8021436,0.028696328665541098,-4.538696328665541,8.683481643327704,0.4755555555555556,0.2822222222222222,-0.6677777777777778,0.75,-2.320647945840368,-0.5462041083192637
1590504849.8121436,0.02149433776464796,-4.54,8.724022648941409,0.45948930466655724,0.2878926637124569,-0.6743932928497183,0.5373584441161989,-1.8340564992614476,-0.4030188330871492
1590504849.8221436,0.04143678287488713,-4.544252868500451,8.622816085625566,0.4566666666666666,0.2888888888888889,-0.6755555555555556,0.6070402140639108,-1.7589798929680445,-0.375
1590504849.8321435,0.04612864046962375,-4.510774271906075,8.586968447154677,0.4566666666666666,0.2888888888888889,-0.6755555555555556,0.4758040029351484,-1.7641080058702967,-0.35564320234811875
1590504849.8421435,0.0,-4.523122816345131,8.673122816345131,0.4566666666666666,0.2888888888888889,-0.6755555555555556,0.19400586738569042,-1.1809941326143096,-0.11849413261430959
1590504849.8521435,0.0,-4.547015608385235,8.697015608385234,0.4566666666666666,0.2888888888888889,-0.6755555555555556,0.24378251746923896,-1.131217482530761,-0.06871748253076104
1590504849.8621435,-0.03499611109717239,-4.485629375015681,8.550007777805654,0.4633333333333333,0.2888888888888889,-0.6533333333333333,0.6796814235893318,-1.0936770830719824,-0.29295355897332964
1590504849.8721435,0.043272506372537343,-4.57,8.693454987254924,0.4633333333333333,0.2888888888888889,-0.6533333333333333,0.5147759487338305,0.278411391952736,0.0
1590504849.8821435,0.06523614866989498,-4.57,8.641905540532042,0.4633333333333333,0.2888888888888889,-0.6533333333333333,0.19645776995157538,0.08336739827683794,0.0
1590504849.8921435,0.021273504811018182,-4.57,8.659490598075593,0.4633333333333333,0.2888888888888889,-0.6533333333333333,0.8558974278347273,0.852713665807182,0.0
1590504849.9021435,-0.002753708204139782,-4.530181010642756,8.654311572948965,0.4633333333333333,0.2888888888888889,-0.6533333333333333,1.123868683482779,1.0883160144138104,-0.03555266906896841
1590504849.9121435,-0.007224444273517422,-4.517034074301977,8.684068148603954,0.4685381893700485,0.2860498765052261,-0.6594845268312693,1.046342589031613,1.063689812322129,-0.0358842589031613
1590504849.9221435,0.032060348699522276,-4.551030174349761,8.746545261524641,0.4755555555555556,0.2822222222222222,-0.6677777777777778,0.6185614103139929,0.7090921154709894,0.03446929484300355
1590504849.9321434,0.03569433502828905,-4.538541502542434,8.688471675141445,0.4755555555555556,0.2822222222222222,-0.6677777777777778,0.8307312182195803,0.9826416242927738,0.15191040607319345
1590504849.9421434,0.02370844747168135,-4.5362915525283185,8.691457762641594,0.4755555555555556,0.2822222222222222,-0.6677777777777778,1.2913998297179239,1.5182220330199157,0.14817779669800846
1590504849.9521434,0.006505897933413409,-4.54,8.716747051033295,0.4755555555555556,0.2822222222222222,-0.6677777777777778,1.5843381379161663,1.8765072068742492,0.125
1590504849.9621434,0.0,-4.533536221137408,8.72,0.45831881192197577,0.28653140813061717,-0.672805161337572,1.6653986178912028,1.8567027642175946,0.1653986178912027
1590504849.9721434,-0.00996500683774435,-4.490139972649023,8.620349931622556,0.4488888888888889,0.2888888888888889,-0.6755555555555556,1.5629374145281956,1.5633748290563914,0.2497812927359022
1590504849.9821434,-0.025220640375279546,-4.49,8.543896798123601,0.4488888888888889,0.2888888888888889,-0.6755555555555556,1.2771129929635086,1.1819839906180112,0.10730649648175422
1590504849.9921434,-0.0004544677358684114,-4.48015148924529,8.549545532264132,0.4488888888888889,0.2888888888888889,-0.6755555555555556,0.44886169339671034,0.3854148856136511,0.1240531922169408
1590504850.0021434,-0.021248271977881317,-4.47291724267404,8.599579301281723,0.4488888888888889,0.2888888888888889,-0.6755555555555556,-0.005172332872527385,-0.023405099585274702,0.03646553342549451
1590504850.0121434,-0.03,-4.47,8.62997271049041,0.45664544149253994,0.2888888888888889,-0.6400970293674363,-1.184771049040854,-0.9977827273456938,0.0
1590504850.0221434,-0.011083706012558162,-4.498374440981163,8.648916293987442,0.4566666666666666,0.2888888888888889,-0.64,-2.310654955504359,-2.0640415367936034,-0.059113418710755754
1590504850.0321434,-0.01,-4.528481021775143,8.621518978224858,0.4566666666666666,0.2888888888888889,-0.64,-3.2056964684416487,-2.837025544378556,-0.24050638609463904
1590504850.0421433,0.09792463054187193,-4.628113300492611,8.806415270935961,0.4566666666666666,0.2888888888888889,-0.64,-3.25,-2.9976416256157634,0.05660406403940882
1590504850.0521433,0.14640446272609456,-4.637734077121015,8.802265922878984,0.4566666666666666,0.2888888888888889,-0.64,-2.5249302699047727,-2.3716062339174697,0.014162017993651507
1590504850.0621433,0.03412743549236438,-4.551889204844655,8.743357345971566,0.46086241881692114,0.2888888888888889,-0.64,-0.8570984728804634,-0.889439178515008,0.0
1590504850.0721433,0.034039865089019135,-4.553847174610196,8.696538206347451,0.4633333333333333,0.2888888888888889,-0.64,-0.04206810516421542,-0.29327242065686165,-0.12620431549264624
1590504850.0821433,-0.022667917910218147,-4.533666041044891,8.569531706716717,0.4633333333333333,0.2888888888888889,-0.64,-0.23625234608165901,-0.375,0.16000469216331803
1590504850.0921433,-0.005558370146118437,-4.536110407463471,8.596662444780822,0.4633333333333333,0.2888888888888889,-0.64,-0.02085972011986037,-0.2604298600599302,0.11111990670662011
1590504850.1021433,0.021320410644333376,-4.528679589355667,8.642640821288666,0.4633333333333333,0.2888888888888889,-0.64,-0.08725769958125085,-0.36438141631770904,-0.008252566527083616
1590504850.1121433,0.040162398236092266,-4.550162398236092,8.710324796472186,0.49,0.2888888888888889,-0.64,0.06452997795115333,-0.3084400440976934,0.001014988975576662
1590504850.1221433,0.049054655698778836,-4.5590546556987785,8.728109311397558,0.49,0.2888888888888889,-0.64,0.1756831962347354,-0.08613360753052918,0.056591598117367706
1590504850.1321433,0.06324991162955108,-4.546750088370449,8.670375397667021,0.49,0.2888888888888889,-0.64,0.43593584305408273,0.22734181689642985,0.02109402615765288
1590504850.1421432,0.052778426864659105,-4.548610786567671,8.64,0.49,0.2888888888888889,-0.64,1.100674160479403,0.913174160479403,0.1076348320958806
1590504850.1521432,-0.018785560172606672,-4.504142959884929,8.601785799904107,0.49,0.2888888888888889,-0.64,1.5218742508390601,1.4299097510787917,0.07723224988013425
1590504850.1621432,0.02810224632068164,-4.567831138652208,8.823493415956623,0.4456794904897151,0.2888888888888889,-0.6605387726998881,1.0777498063516653,1.0152498063516653,0.12330557707203718
1590504850.1721432,0.0374163689509581,-4.577416368950958,8.83,0.4444444444444444,0.2888888888888889,-0.6611111111111111,1.016147694056512,1.0,0.17135230594348816
1590504850.1821432,0.007051526717557252,-4.5141030534351145,8.615834923664123,0.4444444444444444,0.2888888888888889,-0.6611111111111111,1.7722298425572518,1.7722298425572518,0.1875
1590504850.1921432,0.0,-4.5,8.598584121695325,0.4444444444444444,0.2888888888888889,-0.6611111111111111,2.2054761408936754,2.160813450744729,0.09817461970210825
1590504850.2021432,0.0,-4.5,8.635312234445696,0.4444444444444444,0.2888888888888889,-0.6611111111111111,1.956546703107416,1.894046703107416,0.2207014652855929
1590504850.2121432,0.0,-4.505617722176529,8.661235444353059,0.45505569744455504,0.2963791851242611,-0.6529966235227912,1.4691138911735422,1.231060073157006,0.20716770919007835
1590504850.2221432,0.015139736924740937,-4.51756986846237,8.700279473849482,0.4633333333333333,0.3022222222222222,-0.6466666666666666,0.8715065768814766,0.6857532884407382,0.21962335577963085
1590504850.2321432,-0.006365326633165826,-4.511211557788944,8.613327135678391,0.4633333333333333,0.3022222222222222,-0.6466666666666666,0.9697110552763819,0.6799277638190955,0.08521670854271357
1590504850.2421432,-0.01,-4.492825086172994,8.617174913827006,0.4633333333333333,0.3022222222222222,-0.6466666666666666,0.9463283942906054,0.6338283942906054,0.16984321141878916
1590504850.2521431,-0.024319049046049344,-4.49,8.641478573569074,0.4633333333333333,0.3022222222222222,-0.6466666666666666,0.9375,0.848735141344521,0.1427529717310958
1590504850.2621431,-0.038372086000724726,-4.481627913999276,8.616511655997101,0.4800775053347827,0.2957105997772141,-0.6466666666666666,0.7805233874864114,0.7805233874864114,0.17732553750452953
1590504850.2721431,-0.032823935919585365,-4.48,8.645880320402073,0.4833333333333333,0.29444444444444445,-0.6466666666666666,-0.10215760954923825,0.032393591958536194,0.008098397989634049
1590504850.282143,-0.007851804227276382,-4.494765463848482,8.630469072303034,0.4833333333333333,0.29444444444444445,-0.6466666666666666,-1.3141994160036434,-0.9421311178976131,0.029784149053015074
1590504850.292143,0.015069320843091335,-4.537673302107728,8.687811943793912,0.4833333333333333,0.29444444444444445,-0.6466666666666666,-2.048824648711944,-1.422958138173302,-0.12586651053864167
1590504850.302143,0.02,-4.554859246427024,8.739155478562148,0.4833333333333333,0.29444444444444445,-0.6466666666666666,-2.0356485491554785,-1.4696297098310958,-0.2178702901689043
1590504850.312143,0.016619822198066694,-4.5566198221980665,8.766619822198066,0.48070430615405185,0.2925665678878148,-0.644413214798711,-1.6426127761170852,-1.310743332427501,-0.18662166621375054
1590504850.322143,0.005174573018242444,-4.540349146036485,8.731047438109455,0.4755555555555556,0.2888888888888889,-0.64,-0.8859108136401528,-0.8513875695481069,0.027976755907954176
1590504850.332143,0.0,-4.517811388611388,8.645151248751247,0.4755555555555556,0.2888888888888889,-0.64,-0.2577847152847153,-0.3964635364635365,0.1630894105894106
1590504850.342143,0.007567929988001976,-4.494864140023997,8.617567929988,0.4755555555555556,0.2888888888888889,-0.64,0.07939868727503704,0.08109693697508646,0.045601312724962956
1590504850.352143,0.023584200120347287,-4.496792100060174,8.62,0.4755555555555556,0.2888888888888889,-0.64,-0.21460500300868218,0.5271050030086821,0.08490125075217055
1590504850.362143,-0.002060380224527092,-4.525648304179621,8.69053283649396,0.4755555555555556,0.2924511533582808,-0.6578113223469595,-0.7757547528065887,1.5290849808938363,0.36545285168395325
1590504850.372143,-0.044630593132154006,-4.523579604578564,8.697159209157128,0.4755555555555556,0.29444444444444445,-0.6677777777777778,-1.20525494276795,2.5644510926118627,0.602627471383975
1590504850.382143,-0.035148840749655415,-4.557127898125861,8.65287210187414,0.4755555555555556,0.29444444444444445,-0.6677777777777778,-1.3428197453146538,2.8731394906293075,0.7178197453146536
1590504850.392143,-0.03,-4.553807532531844,8.631903766265923,0.4755555555555556,0.29444444444444445,-0.6677777777777778,-1.172594156648051,2.3302824699441524,0.6487970783240254
1590504850.402143,-0.0024602410112249083,-4.5431150602528065,8.698849397471939,0.4755555555555556,0.29444444444444445,-0.6677777777777778,-0.8668147594802336,1.5420368987005837,0.4528765063201557
1590504850.412143,-0.020566601270826622,-4.54,8.752924950953119,0.4721592665254637,0.28510464961169185,-0.6516454048848415,-0.27239685514333406,1.4410412579426664,0.4227603144856666
1590504850.422143,-0.054113991603614714,-4.50784801119518,8.69569602239036,0.4711111111111111,0.2822222222222222,-0.6466666666666666,0.27689986006024525,1.5,0.28678755247740806
1590504850.432143,-0.025332660667586437,-4.527733871465931,8.666133064267035,0.4711111111111111,0.2822222222222222,-0.6466666666666666,0.375,0.8499873875172457,0.16333165166896607
1590504850.442143,-0.017046366241208647,-4.518860901276374,8.652953633758791,0.4711111111111111,0.2822222222222222,-0.6466666666666666,0.28692042198489187,0.29826126595467567,0.125
1590504850.452143,-0.024467476351745884,-4.51,8.67233738175873,0.4711111111111111,0.2822222222222222,-0.6466666666666666,0.30584345439682353,0.13165654560317647,0.06915654560317645
1590504850.462143,-0.02686528396976158,-4.513134716030239,8.703134716030238,0.4740716762507807,0.2813514677693782,-0.6499755335874738,0.3260200620275247,0.03311203721651483,0.0
1590504850.472143,-0.01394047619047619,-4.537880952380952,8.692416666666666,0.49,0.2766666666666667,-0.6677777777777778,0.13638392857142856,0.04739583333333333,0.0
1590504850.482143,-0.02899364319326344,-4.532012713613473,8.614025427226947,0.49,0.2766666666666667,-0.6677777777777778,0.19378973004210354,0.28439486502105177,-0.05621026995789648
1590504850.492143,-0.04,-4.517289983947817,8.628319871582542,0.49,0.2766666666666667,-0.6677777777777778,0.033875200652279155,0.06775040130455831,-0.033875200652279155
1590504850.502143,-0.04,-4.5258307414374315,8.679153707187156,0.49,0.2766666666666667,-0.6677777777777778,-0.03644213398394577,-0.1093264019518373,0.0
1590504850.512143,-0.04,-4.525623363544813,8.717506545820745,0.4817330200290925,0.2790981313639924,-0.6624285554436612,-0.0625,-0.1875,0.0
1590504850.522143,-0.022851169431601853,-4.514283723143867,8.74,0.4711111111111111,0.2822222222222222,-0.6555555555555556,-0.09822673035082949,-0.29468019105248844,0.03572673035082948
1590504850.5321429,-0.020436421838876045,-4.51,8.672163258047306,0.4711111111111111,0.2822222222222222,-0.6555555555555556,-0.15761381824648762,-0.24454472701404945,-0.03534145473946293
1590504850.5421429,-0.03,-4.5258473684210525,8.641694736842105,0.4711111111111111,0.2822222222222222,-0.6555555555555556,-0.15448464912280702,-0.19103070175438597,-0.09198464912280702
1590504850.5521429,-0.03,-4.528501916481742,8.692996167036515,0.4711111111111111,0.2822222222222222,-0.6555555555555556,-0.125,-0.21406848900544684,-0.026568489005446838
1590504850.5621428,-0.04264717467050447,-4.526323587335252,8.716323587335253,0.4739215943712233,0.2899510511875305,-0.6499345890353313,-0.0064327374640206075,-0.06893273746402061,0.039522420845326464
1590504850.5721428,-0.03538308774854733,-4.515383087748547,8.668840807119915,0.4755555555555556,0.29444444444444445,-0.6466666666666666,-0.12021140314315837,-0.04567785078578959,0.0625
1590504850.5821428,-0.04472805536398012,-4.51736402768199,8.605815833908059,0.4755555555555556,0.29444444444444445,-0.6466666666666666,-0.003399307950248509,-0.10852517301243787,0.016474826987562127
1590504850.5921428,-0.020775386509458534,-4.527306153372636,8.60461230674527,0.4755555555555556,0.29444444444444445,-0.6466666666666666,-0.07449037573691314,-0.17066345857897103,0.09132691715794208
1590504850.6021428,-0.014297907643849486,-4.538595815287699,8.635787445863096,0.4755555555555556,0.29444444444444445,-0.6466666666666666,-0.20558576832217784,-0.3218096138702964,0.04441423167782216
1590504850.6121428,-0.02,-4.548558110627719,8.67096125958152,0.4742738761135281,0.29444444444444445,-0.6469870865271735,-0.3094960638077481,-0.4969960638077481,-0.05649212761549617
1590504850.6221428,-0.02,-4.52,8.68505589762994,0.4488888888888889,0.29444444444444445,-0.6533333333333333,-0.25,-0.3756987203742561,-0.061102559251487734
1590504850.6321428,-0.025822327648843867,-4.52,8.633421378809249,0.4488888888888889,0.29444444444444445,-0.6533333333333333,-0.35916864341582255,-0.3125,-0.04194180877890327
1590504850.6421428,-0.025873594988022847,-4.52,8.608252810023954,0.4488888888888889,0.29444444444444445,-0.6533333333333333,-0.4375,-0.3382900313248572,0.0625
1590504850.6521428,-0.02,-4.526144034177602,8.647648153799206,0.4488888888888889,0.29444444444444445,-0.6533333333333333,-0.49510032041501373,-0.35579989319499544,0.08170010680500459
1590504850.6621428,-0.016045464822313116,-4.54,8.733727211066121,0.4594343160293873,0.2975201940270898,-0.6480606197630842,-0.4025573962551128,-0.3125,0.125
1590504850.6721427,-0.005026198793267704,-4.549947602413464,8.779947602413465,0.4755555555555556,0.3022222222222222,-0.64,0.09293128771038425,-0.09489619720546202,0.125
1590504850.6821427,-0.015122660836331708,-4.5347955652727805,8.679100487200234,0.4755555555555556,0.3022222222222222,-0.64,0.47053880386317076,0.2510221736360976,0.125
1590504850.6921427,-0.03,-4.51,8.602352589361104,0.4755555555555556,0.3022222222222222,-0.64,0.6586137594990149,0.2594550379960597,0.06722751899802984
1590504850.7021427,-0.03521093169644603,-4.525632795089338,8.650421863392893,0.4755555555555556,0.3022222222222222,-0.64,0.39702173828048637,-0.037841615513938304,-0.06513664620557531
1590504850.7121427,-0.051749057112068966,-4.534125471443966,8.671749057112068,0.48012463332136013,0.2943895174808429,-0.6478327047413793,0.04063678609913793,-0.4445106243265086,-0.051568393049568964
1590504850.7221427,-0.04288349570530928,-4.5071779942737455,8.657177994273745,0.4833333333333333,0.2888888888888889,-0.6533333333333333,-0.13381876789454467,-0.731978151841817,-0.03565938394727234
1590504850.7321427,-0.03,-4.495935777037261,8.598449560739171,0.4833333333333333,0.2888888888888889,-0.6533333333333333,-0.4842888518630718,-0.886697212965768,-0.09959860648288398
1590504850.7421427,-0.03,-4.5,8.589256350831402,0.4833333333333333,0.2888888888888889,-0.6533333333333333,-0.9683217829579461,-1.218321782957946,-0.16511739756542088
1590504850.7521427,-0.016005233631459143,-4.513994766368541,8.66064398759701,0.4833333333333333,0.2888888888888889,-0.6533333333333333,-1.2707788163389673,-1.4041557632677935,-0.1291884734644131
1590504850.7621427,-0.006299371459610461,-4.53,8.733149685729806,0.4770339618737228,0.29063871429433624,-0.6533333333333333,-1.3981289283774345,-1.3981289283774345,-0.042814464188717316
1590504850.7721426,-0.01565929128994216,-4.534340708710058,8.753022126130173,0.4633333333333333,0.29444444444444445,-0.6533333333333333,-1.1768528528106925,-1.3396294294378615,0.0
1590504850.7821426,-0.032279029817170436,-4.548911611926868,8.743265164219396,0.4633333333333333,0.29444444444444445,-0.6533333333333333,-0.8886048509141479,-1.5699415109002413,-0.11139514908585217
1590504850.7921426,-0.06,-4.5784306660039755,8.760684331510936,0.4633333333333333,0.29444444444444445,-0.6533333333333333,-0.34682918116302186,-2.3884583126242545,-0.3651916625248509
1590504850.8021426,-0.030307983413180885,-4.560410644550908,8.750718627964089,0.4633333333333333,0.29444444444444445,-0.6533333333333333,0.7435836788920649,-4.052233886227304,-0.8402210233906358
1590504850.8121426,0.0,-4.513788959542899,8.664472398857248,0.46126298651429976,0.2927191554285831,-0.6491926396952662,1.2391334900009217,-5.295414017141277,-1.2069095014284397
1590504850.8221426,0.01982088248143294,-4.498198101592597,8.597565828666747,0.4566666666666666,0.2888888888888889,-0.64,0.6897389689820883,-5.530953373843282,-1.1824288097223876
1590504850.8321426,0.09032785371259697,-4.537213151089768,8.571967306981898,0.4566666666666666,0.2888888888888889,-0.64,-0.9293036571850757,-3.3155730513483563,-0.6045079885482083
1590504850.8421426,0.05668583909719694,-4.583486712777576,8.71691590826356,0.4566666666666666,0.2888888888888889,-0.64,-1.2525163815070988,-1.3985893702220604,-0.10464597742992356
1590504850.8521426,0.012156457534961182,-4.511078228767481,8.60634778595935,0.4566666666666666,0.2888888888888889,-0.64,-0.25673892979675367,-0.31923892979675367,0.003369464898376834
1590504850.8621426,-0.0010006165228113456,-4.509332922318126,8.652498458692971,0.46955528154541715,0.2915740169886286,-0.6502034867790109,-0.3062461467324291,-0.30833076448828606,-0.002084617755856971
1590504850.8721426,0.018060876161577852,-4.535969561919211,8.718060876161578,0.4833333333333333,0.29444444444444445,-0.6611111111111111,-0.2388316660345155,-0.1763316660345155,0.02519023800493078
1590504850.8821425,0.02675504400206015,-4.5455850146673535,8.67648991199588,0.4833333333333333,0.29444444444444445,-0.6611111111111111,-0.0625,-0.1745317083547932,0.06981268334191729
1590504850.8921425,0.02424399234422627,-4.55,8.66050400510385,0.4833333333333333,0.29444444444444445,-0.6611111111111111,-0.0296749840504714,-0.148374920252357,0.09217498405047139
1590504850.9021425,0.01,-4.546105972303908,8.681682083088274,0.4833333333333333,0.29444444444444445,-0.6611111111111111,-0.0730130193017163,-0.09735069240228841,0.0381623268994279
1590504850.9121425,0.007176094387473813,-4.5371760943874735,8.702823905612526,0.4833333333333333,0.29444444444444445,-0.6589147400791463,-0.15220117984342266,-0.25,0.0
1590504850.9221425,0.0055914702581369245,-4.5355914702581375,8.72677441077441,0.4833333333333333,0.29444444444444445,-0.6533333333333333,-0.09744668911335577,-0.31989337822671154,0.0
1590504850.9321425,0.01,-4.545343153444746,8.665195851773564,0.4833333333333333,0.29444444444444445,-0.6533333333333333,-0.058210581940683,-0.3416052909703415,0.0
1590504850.9421425,0.025184761441090553,-4.5348152385589096,8.61518476144109,0.4833333333333333,0.29444444444444445,-0.6533333333333333,-0.06326983933787732,-0.34413491966893867,0.03163491966893866
1590504850.9521425,0.027700113593335858,-4.528199924271109,8.650499810677774,0.4833333333333333,0.29444444444444445,-0.6533333333333333,-0.17624952669443392,-0.375,0.0625
1590504850.9621425,0.016269594299840047,-4.54313479714992,8.686269594299839,0.47706373903349325,0.29444444444444445,-0.6557715088943822,-0.23040751781299984,-0.3358150356259997,0.042907517812999854
1590504850.9721425,0.01701498878791455,-4.55,8.68268665171722,0.4633333333333333,0.29444444444444445,-0.6611111111111111,-0.10634367992446594,-0.14179157323262126,0.0
1590504850.9821424,0.0064706625972947105,-4.5467646687013525,8.63735268090947,0.4633333333333333,0.29444444444444445,-0.6611111111111111,-0.08088328246618388,0.04044164123309194,0.02022082061654597
1590504850.9921424,0.02,-4.538215138490926,8.59,0.4633333333333333,0.29444444444444445,-0.6611111111111111,-0.21653384670487105,0.125,0.02903384670487106
1590504851.0021424,0.029522816011445262,-4.533174272003815,8.61539417603052,0.4633333333333333,0.29444444444444445,-0.6611111111111111,-0.0625,0.0654823999284671,-0.08532159995231141
1590504851.0121424,0.048274716103841916,-4.539424905367947,8.665399242943579,0.4633333333333333,0.29444444444444445,-0.6611111111111111,-0.0625,-0.051716975649011954,-0.007188682900658702
1590504851.0221424,0.033164445523815304,-4.546835554476185,8.712657782095262,0.4711111111111111,0.3088888888888889,-0.6466666666666666,0.09888892261922831,-0.04588886190461734,0.019777784523845664
1590504851.0321424,0.04,-4.54,8.700575357061316,0.4711111111111111,0.3088888888888889,-0.6466666666666666,0.2816994977041528,0.1558005022958472,0.031699497704152826
1590504851.0421424,0.025277349252129586,-4.543680662686968,8.663680662686968,0.4711111111111111,0.3088888888888889,-0.6466666666666666,0.296008283587095,0.2105041417935475,0.06901242538064258
1590504851.0521424,0.0,-4.545207430340557,8.673594427244582,0.4711111111111111,0.3088888888888889,-0.6466666666666666,0.38248839009287927,0.24251160990712076,0.1875
1590504851.0621424,0.002193036543757964,-4.512193036543758,8.7,0.4694054160215216,0.30450281580137295,-0.6434989472145718,0.34155465121058903,0.13267408640605088,0.13267408640605088
1590504851.0721424,0.013128654970760234,-4.52,8.685921052631578,0.4633333333333333,0.2888888888888889,-0.6322222222222222,-0.06843932748538012,-0.11138523391812866,-0.0625
1590504851.0821424,0.03,-4.555030618195956,8.625013122083981,0.4633333333333333,0.2888888888888889,-0.6322222222222222,-0.6564413637247278,-0.6564960390746502,-0.12505467534992223
1590504851.0921423,0.04502353464627778,-4.574976465353722,8.624976465353722,0.4633333333333333,0.2888888888888889,-0.6322222222222222,-0.6246077558953703,-0.8436029084607639,-0.12490193897384258
1590504851.1021423,0.04454187745924677,-4.552270938729623,8.629322653175942,0.4633333333333333,0.2888888888888889,-0.6322222222222222,-0.3025400505902192,-0.5567734682405846,-0.038346683530073075
1590504851.1121423,0.02,-4.542371779995358,8.667115339986076,0.46175214666976094,0.2888888888888889,-0.6390740310977024,-0.20232362497099096,-0.3092944998839638,-0.01482362497099095
1590504851.1221423,0.016661173991733974,-4.546661173991734,8.69,0.4566666666666666,0.2888888888888889,-0.6611111111111111,-0.25,-0.43739701234501205,-0.0625
1590504851.1321423,0.007161671730027096,-4.534323343460054,8.678646686920109,0.4566666666666666,0.2888888888888889,-0.6611111111111111,-0.2854791033746613,-0.33023955168733066,-0.04476044831266935
1590504851.1421423,0.0002739141144593154,-4.520547828228918,8.651095656457837,0.4566666666666666,0.2888888888888889,-0.6611111111111111,-0.37157607356925854,-0.3732880367846293,-0.001711963215370725
1590504851.1521423,-0.008372865551605572,-4.536220350836296,8.658372865551605,0.4566666666666666,0.2888888888888889,-0.6611111111111111,-0.4037076024243837,-0.5717690060609593,-0.043061403636575554
1590504851.1621423,-0.05726032985605222,-4.499554752607961,8.707260329856053,0.4566666666666666,0.2888888888888889,-0.6611111111111111,-0.4800942654000816,-0.762735663500204,-0.15764139810012237
1590504851.1721423,-0.27992685285938823,-4.398613226937493,8.76572996010156,0.49,0.2822222222222222,-0.64,-0.553604083544916,-0.8391877493652521,0.3296060784669327
1590504851.1821423,-0.5246629148960607,-4.245852532445159,8.702601125531181,0.49,0.2822222222222222,-0.64,-0.5194785804525095,-1.038957160905019,2.4000789594579075
1590504851.1921422,-0.786165575664228,-4.062305737389295,8.65919753561802,0.49,0.2822222222222222,-0.64,-0.6345542934154794,-1.240286869464767,5.201116673084328
1590504851.2021422,-0.7361329313569495,-4.0572939173156914,8.777846355693269,0.49,0.2822222222222222,-0.64,-0.8680945202802669,-1.6180945202802668,8.720273985986656
1590504851.2121422,-0.6751826966148333,-3.8037211236961666,8.606278876303833,0.4888482896411481,0.2833739325810741,-0.6447987931618827,-1.0199321153559011,-1.305648876943751,15.704728461423604
1590504851.2221422,-0.623822443347456,-3.4887029191122165,8.73699654059937,0.4833333333333333,0.2888888888888889,-0.6677777777777778,-2.6350259455047227,0.2546935126520776,21.535410269366814
1590504851.2321422,-0.18382133949191687,-2.440619491916859,8.415679815242495,0.4833333333333333,0.2888888888888889,-0.6677777777777778,-6.928900692840647,8.71042609699769,27.8610207852194
1590504851.2421422,-0.389463480613165,-2.467317403065825,8.563008716561468,0.4833333333333333,0.2888888888888889,-0.6677777777777778,-11.865146904117823,16.36666854523595,31.236587015329125
1590504851.2521422,-0.4103380070105158,-2.9093915873810716,9.041014021031547,0.4833333333333333,0.2888888888888889,-0.6677777777777778,-13.64654794692038,11.21539601068269,32.565457561342015
1590504851.2621422,-0.31,-3.086823003728944,8.4604243281471,0.4794503378909319,0.2867708913748518,-0.6656597802637406,-3.1199048476276197,-3.190431319917706,33.097292095280956
1590504851.2721422,-0.31,-3.08,7.86,0.4711111111111111,0.2822222222222222,-0.6611111111111111,5.75,-3.0625,36.125
1590504851.2821422,-0.16514740481106258,-3.0502866471407306,8.287129447351996,0.4711111111111111,0.2822222222222222,-0.6611111111111111,2.8947324986795984,-2.737510203101743,41.696253661112976
1590504851.2921422,0.01680834001603851,-3.0526597166533014,8.855531497816983,0.4711111111111111,0.2822222222222222,-0.6611111111111111,-0.9281887641450592,-3.5259344649380737,54.52594003385904
1590504851.3021421,-0.1097668638692364,-3.1695337277384725,8.665715265918518,0.4711111111111111,0.2822222222222222,-0.6611111111111111,0.1561508904610881,-5.75582840326909,62.643786975481824
1590504851.3121421,-0.14174341302756768,-3.2334868260551355,8.979085447670164,0.4711111111111111,0.2822222222222222,-0.6611111111111111,-2.401973042205416,-4.956414674310808,68.63938994266894
1590504851.3221421,-0.21689885978908044,-3.1286235747363507,8.76862357473635,0.4633333333333333,0.2822222222222222,-0.6533333333333333,-1.7791254815737245,-7.016169202630658,78.82348863680585
1590504851.332142,-0.2821874148733315,-3.2102342685916647,8.850234268591663,0.4633333333333333,0.2822222222222222,-0.6533333333333333,-2.646239103786434,-7.169189253609371,84.84227730863525
1590504851.342142,-0.3216865294330083,-3.2075297941495124,8.663895509811002,0.4633333333333333,0.2822222222222222,-0.6533333333333333,-2.375,-7.522714277115686,93.93973456121344
1590504851.352142,-0.36496465975339215,-3.272446989630088,8.67832155325113,0.4633333333333333,0.2822222222222222,-0.6533333333333333,-2.375,-7.8382839773684845,98.80852422225662
1590504851.362142,-0.39493387847724876,-3.371409679564928,8.778590320435072,0.4660743769318048,0.2803426494689846,-0.652863440145024,-2.8221370163151924,-8.477147237763607,105.90528287491686
1590504851.372142,-0.45236981102547047,-3.3878199460072773,8.762180053992722,0.4979832283474836,0.25846229421251915,-0.6473933513309075,-2.206752024727102,-8.938685981454674,110.62323447709221
1590504851.382142,-0.4854671553539608,-3.376874291268427,8.720784262109186,0.5022222222222222,0.25555555555555554,-0.6466666666666666,-2.6982410801069174,-9.54296432042767,117.52530424833954
1590504851.392142,-0.5610258254331482,-3.4123935926773457,8.582735534488394,0.5022222222222222,0.25555555555555554,-0.6466666666666666,-2.7564114089571756,-9.769234226871527,121.72492236024844
1590504851.402142,-0.604694820843045,-3.4310172638565164,8.657550863192826,0.5022222222222222,0.25555555555555554,-0.6466666666666666,-2.723200529372259,-10.633949205941612,127.42991866827322
1590504851.412142,-0.6559804300244625,-3.3027256340929574,8.671529548088065,0.50169062844227,0.2491764301961289,-0.6483943464515113,-2.174633062958671,-11.497915861980173,131.4879940775074
1590504851.422142,-0.7094137508333512,-3.485689584722252,8.880206671111207,0.4977777777777778,0.20222222222222225,-0.6611111111111111,-3.196119809028151,-10.71939584722252,137.27477875868297
1590504851.432142,-0.7484964172983435,-3.5038156348639498,8.902142017832869,0.4977777777777778,0.20222222222222225,-0.6611111111111111,-3.321543153699053,-11.178102608114646,141.0017711909315
1590504851.442142,-0.8162032794791416,-3.4582710393055223,8.620338799131902,0.4977777777777778,0.20222222222222225,-0.6611111111111111,-2.545122980467808,-11.665887991319027,144.93918043163734
1590504851.452142,-0.8494719651605879,-3.5013663581927057,8.680838323353294,0.4977777777777778,0.20222222222222225,-0.6611111111111111,-3.5914194338595538,-12.015140174197061,148.74921747414263
1590504851.462142,-0.8975893880189206,-3.5481026529952695,8.77189734700473,0.5007292064518025,0.19663558937496126,-0.6611111111111111,-4.178849487322619,-11.895508931456943,151.9780312600993
1590504851.472142,-0.9948876251024412,-3.552122333424392,8.76234708321951,0.5288888888888889,0.14333333333333334,-0.6611111111111111,-3.3963015620731616,-12.6875,155.5795875034147
1590504851.482142,-1.0574200499436122,-3.6074200499436118,8.67710024971806,0.5288888888888889,0.14333333333333334,-0.6611111111111111,-3.286246878524247,-12.816497502819397,158.24986532342515
1590504851.492142,-1.0528741097100334,-3.5971258902899668,8.64,0.5288888888888889,0.14333333333333334,-0.6611111111111111,-3.6961104429368765,-13.211450914250277,159.83719321406423
1590504851.502142,-1.0765203991505836,-3.5734796008494163,8.64,0.5288888888888889,0.14333333333333334,-0.6611111111111111,-3.2527425159265593,-13.408503326254863,161.0687707890929
1590504851.512142,-1.1616439654151367,-3.579452011528288,8.772191953886848,0.529315102144665,0.14041072815086791,-0.6622679756625036,-3.29195043231079,-13.0590750720518,161.59760057641438
1590504851.522142,-1.1864828852303684,-3.571172371589877,8.805310513640492,0.5357548220967622,0.09625264847934514,-0.6797472155324814,-2.9814639346203955,-13.007327322436733,161.18361857949387
1590504851.532142,-1.2255238181818182,-3.542634909090909,8.800793636363636,0.5366666666666666,0.09,-0.6822222222222222,-2.8815477272727272,-12.636507954545454,159.46726136363637
1590504851.542142,-1.2484018181818182,-3.5121309090909087,8.762663636363635,0.5366666666666666,0.09,-0.6822222222222222,-3.1675227272727273,-12.684170454545454,158.03738636363636
1590504851.552142,-1.3778707168995343,-3.48,8.656296573519628,0.5366666666666666,0.09,-0.6822222222222222,-2.634838396124418,-12.065969623253492,154.58388821315702
1590504851.562142,-1.4227289347916732,-3.476816242743048,8.697277159444461,0.537525775767749,0.08676570691357233,-0.6826265088580257,-2.713083763671938,-11.77842640407993,151.47145932899252
1590504851.572142,-1.5148941188362337,-3.4141051904513215,8.82331626206641,0.5555555555555556,0.01888888888888889,-0.6911111111111111,-3.1473702387169595,-12.156911757273539,145.94968854765074
1590504851.5821419,-1.635015920079516,-3.4282371670681786,8.73145841405684,0.5555555555555556,0.01888888888888889,-0.6911111111111111,-2.7940708232955407,-11.406150499503024,142.54918167421957
1590504851.5921419,-1.676701148191866,-3.3728423650606287,8.684315269878743,0.5555555555555556,0.01888888888888889,-0.6911111111111111,-2.9105295632578603,-10.78552956325786,134.79435561755554
1590504851.6021419,-1.7350796519279499,-3.3398406961441003,8.728730087018013,0.5555555555555556,0.01888888888888889,-0.6911111111111111,-2.6567478245496865,-10.492063043862577,128.85312395647136
1590504851.6121418,-1.7680349250623661,-3.2739301498752678,8.72049126873441,0.5555555555555556,0.01888888888888889,-0.6911111111111111,-2.8627182816397885,-10.440570429590053,123.03445854367597
1590504851.6221418,-1.6867656162070905,-3.001800318889514,8.766241324329394,0.5606934804810438,-0.03968345526167699,-0.7178283207236499,-2.701595033764772,-9.686078479647346,115.9247063168261
1590504851.6321418,-1.8850605649438756,-3.1501211298877516,8.860363389663254,0.5611111111111111,-0.04444444444444445,-0.72,-1.9515958430985567,-8.67072437399778,106.64439527568767
1590504851.6421418,-1.84622484777612,-3.04,8.576646437356345,0.5611111111111111,-0.04444444444444445,-0.72,-1.4392566232509376,-7.636797350699625,99.565015222388
1590504851.6521418,-1.9162231426352574,-3.0366055585625866,8.757737039041725,0.5611111111111111,-0.04444444444444445,-0.72,-1.9268923705080836,-7.3986053585296405,92.73844368484221
1590504851.6621418,-2.014750353940538,-2.97405040113261,8.721399905615858,0.5597500917623617,-0.04580546379319386,-0.7214776781500708,-1.7303138272770175,-6.732501179801793,84.96783152430392
1590504851.6721418,-1.8959877300613497,-2.8394527607361963,8.753069938650306,0.5289597818677574,-0.07659577368779823,-0.7549071574642127,-1.2849539877300613,-6.336625766871165,78.58434049079754
1590504851.6821418,-1.9587404052809334,-2.8929590113601473,8.833095640159655,0.5222222222222223,-0.08333333333333333,-0.7622222222222222,-1.850341571998772,-5.945372466994167,68.08678423395763
1590504851.6921418,-2.081079521031624,-2.9122757138470985,8.788023334356769,0.5222222222222223,-0.08333333333333333,-0.7622222222222222,-1.6893690512741788,-5.180752993552349,62.53323226895917
1590504851.7021418,-2.13,-2.873189392248754,8.788724243100498,0.5222222222222223,-0.08333333333333333,-0.7622222222222222,-1.0983806627984825,-4.40689392248754,52.58874972104441
1590504851.7121418,-2.1117675852066715,-2.879116207396664,8.799116207396665,0.5222222222222223,-0.08333333333333333,-0.7622222222222222,-0.6066896301667875,-3.862213333937636,44.655581490210295
1590504851.7221417,-2.0609466253075195,-2.8039095090384,8.85452668734624,0.5077777777777778,-0.11666666666666667,-0.7688888888888888,-0.44238688629799977,-2.619083591828003,35.25925232645203
1590504851.7321417,-2.1656284094555565,-2.8412958605198417,8.802185795272221,0.5077777777777778,-0.11666666666666667,-0.7688888888888888,-0.4891198256498021,-1.9648224409027704,29.370901968124933
1590504851.7421417,-2.2684345076302654,-2.8845207767059287,8.843738030521061,0.5077777777777778,-0.11666666666666667,-0.7688888888888888,-1.4070488905469984,-2.0320488905469984,19.394469834248255
1590504851.7521417,-2.253531773525911,-2.8323612073406883,8.784127094103644,0.5077777777777778,-0.11666666666666667,-0.7688888888888888,-0.5221990531009612,-1.147199053100961,14.225083941800353
1590504851.7621417,-2.309620575450217,-2.8001264748499275,8.809747050300144,0.5077777777777778,-0.11666666666666667,-0.7688888888888888,0.018725419167874124,-0.35785551645622016,8.487053663837715
1590504851.7721417,-2.302118391110323,-2.752118391110323,8.875457930667613,0.5077777777777778,-0.12087573432107522,-0.7747815836050608,-0.38072413334515476,-0.015147988887903772,0.9787787776694152
1590504851.7821417,-2.334686760522982,-2.7823433802614908,8.84969070440041,0.5077777777777778,-0.12222222222222222,-0.7766666666666666,-0.018561620097043284,0.5390563376915171,-6.939383799029567
1590504851.7921417,-2.3907012074734504,-2.8128048298938007,8.621219319575202,0.5077777777777778,-0.12222222222222222,-0.7766666666666666,0.4430268927821768,1.01314764012719,-12.488751376852257
1590504851.8021417,-2.3994180850842737,-2.847672340337095,8.76068936134838,0.5077777777777778,-0.12222222222222222,-0.7766666666666666,-0.26521941309724206,1.1765890953301328,-17.010631637467007
1590504851.8121417,-2.4530333069888224,-2.8853555379925484,8.787677768996273,0.5077777777777778,-0.12222222222222222,-0.7766666666666666,0.2951733092469233,1.8504163373602802,-21.62145619284182
1590504851.8221416,-2.4106063355556433,-2.8854570200007887,8.796968322221785,0.4955555555555556,-0.12222222222222222,-0.7833333333333333,0.22726241666337924,2.530316777782161,-27.05695737504438
1590504851.8321416,-2.418879442976054,-2.9599149867844887,8.755602785119729,0.4955555555555556,-0.12222222222222222,-0.7833333333333333,-0.08297911160203558,2.943972148802714,-31.245218006627482
1590504851.8421416,-2.4261645954813593,-2.9761645954813596,8.682189449705048,0.4955555555555556,-0.12222222222222222,-0.7833333333333333,0.26028721758495826,3.1541148870339835,-34.66362541012869
1590504851.8521416,-2.4370239907226208,-3.0080959628904833,8.717263897948829,0.4955555555555556,-0.12222222222222222,-0.7833333333333333,0.6316998260491411,3.9084991302457057,-40.03729524534319
1590504851.8621416,-2.4220286637777937,-3.0439617816296085,8.732028663777793,0.4955555555555556,-0.12222222222222222,-0.7833333333333333,0.8372611351850536,4.224940283796263,-44.894685257867444
1590504851.8721416,-2.3429112718139695,-3.101930455116269,8.979968821720867,0.4936919797726103,-0.1343354648113666,-0.8196730611007664,0.8326738622093275,4.512065344476682,-51.73735006278959
1590504851.8821416,-2.2569245968512974,-3.0206856183738076,8.729578898166444,0.4933333333333334,-0.13666666666666666,-0.8266666666666667,1.2184744619372383,5.83117019355387,-57.09071908130962
1590504851.8921416,-2.3192243236772803,-3.138642566435241,8.432230069427819,0.4933333333333334,-0.13666666666666666,-0.8266666666666667,2.674168063203256,6.620152022983002,-63.94303627005027
1590504851.9021416,-2.3556919884053995,-3.197107181448639,8.801196679416153,0.4933333333333334,-0.13666666666666666,-0.8266666666666667,-0.03401411591170245,5.688085304358267,-68.81841843472891
1590504851.9121416,-2.3561225723154684,-3.240816141526797,8.755716012416558,0.4933333333333334,-0.13666666666666666,-0.8266666666666667,0.3494766914814713,5.876270499684092,-73.87242122901958
1590504851.9221416,-2.3308344741754823,-3.262777017216345,8.676388508608172,0.4848153218557699,-0.15796169536057528,-0.8174388208993062,1.519066324414022,7.522486258037752,-78.12482887367766
1590504851.9321415,-2.279020446345049,-3.2454122678070294,8.778350928771884,0.48,-0.17,-0.8122222222222222,0.5831133903514631,7.697806695175732,-83.84795536549512
1590504851.9421415,-2.1401451850347732,-3.2492753439260875,8.56811640184781,0.48,-0.17,-0.8122222222222222,0.19655820092390477,7.852354497690238,-88.80796296766333
1590504851.9521415,-2.169821715100731,-3.329643430201462,8.719242289178107,0.48,-0.17,-0.8122222222222222,1.2452643073631664,8.932764307363167,-92.54717864146907
1590504851.9621415,-2.0987357106295854,-3.314163491251019,8.664572219378567,0.48,-0.17,-0.8122222222222222,0.8045981914349087,9.28392362888396,-95.23491085139055
1590504851.9721415,-2.093852676876345,-3.3847812513183984,8.751120533265832,0.4955555555555556,-0.16333333333333333,-0.7911111111111111,0.5384207695228452,9.034151795131418,-99.30002795004852
1590504851.9821415,-2.0142241488419184,-3.44671455090073,8.636101548327217,0.4955555555555556,-0.16333333333333333,-0.7911111111111111,1.036099069738008,9.476532506433784,-101.56722909547315
1590504851.9921415,-1.9856069399662213,-3.4439017349915555,8.684884385076003,0.4955555555555556,-0.16333333333333333,-0.7911111111111111,0.9100433747888838,9.576228312605558,-103.25018040841394
1590504852.0021415,-1.9132487793713762,-3.4463056911809584,8.656943088190419,0.4955555555555556,-0.16333333333333333,-0.7911111111111111,0.6942682903570339,9.152073161428136,-106.02347564464449
1590504852.0121415,-1.841556429507806,-3.455491938641742,8.680411325059161,0.4955555555555556,-0.16333333333333333,-0.7911111111111111,0.625,9.218246165108875,-108.36683542741372
1590504852.0221415,-1.7696796662569374,-3.4715200953551606,8.741520095355162,0.5147557144808235,-0.13325308435041366,-0.7706309415908253,0.9130023838790181,9.24799791410586,-110.62550983350096
1590504852.0321414,-1.7105211372898932,-3.561066872452794,8.764739431355054,0.5288888888888889,-0.1111111111111111,-0.7555555555555555,1.2171214459690838,9.200682168953625,-112.97394313550534
1590504852.0421414,-1.6784137491027993,-3.6017625009968897,8.65,0.5288888888888889,-0.1111111111111111,-0.7555555555555555,1.0702109418613925,9.251101563123056,-115.4749531461839
1590504852.0521414,-1.6182036845043464,-3.6686625727729485,8.65,0.5288888888888889,-0.1111111111111111,-0.7555555555555555,1.3628987558816492,9.292914107983092,-116.89657967142516
1590504852.0621414,-1.5702532990877691,-3.719746700912231,8.709240102736693,0.5288888888888889,-0.1111111111111111,-0.7555555555555555,1.664555840935258,9.435916880701443,-118.71439088654681
1590504852.0721414,-1.5224229674545229,-3.73626283875758,8.733737161242422,0.5261054049966314,-0.09928130456901649,-0.7861738783703887,1.8674282267046158,9.460857257765127,-120.48678226704615
1590504852.0821414,-1.4713332798523926,-3.787777866912679,8.567555252496891,0.5244444444444445,-0.09222222222222222,-0.8044444444444444,2.116667000922546,9.616667000922547,-122.62083600738038
1590504852.0921414,-1.3967122826696579,-3.753356141334829,8.669931575995513,0.5244444444444445,-0.09222222222222222,-0.8044444444444444,2.2967680874929894,9.625,-124.11890072910825
1590504852.1021414,-1.3710468087217524,-3.7689531912782477,8.774765956391239,0.5244444444444445,-0.09222222222222222,-0.8044444444444444,1.660984049810235,9.151170218043807,-125.67148934586858
1590504852.1121414,-1.299589119120102,-3.7543531375822448,8.670471963075714,0.5244444444444445,-0.09222222222222222,-0.8044444444444444,2.309550230776785,9.858446675832269,-126.33675734066581
1590504852.1221414,-1.1609566363431805,-3.6607174772573856,8.749123083352085,0.49027459006146845,-0.09552898232380055,-0.7537407895535768,2.624003503809187,9.752491240477033,-127.12001751904593
1590504852.1321414,-1.123955825463033,-3.7320883490739343,8.704944781828791,0.49,-0.09555555555555556,-0.7533333333333333,2.1181287955739014,9.637361954571977,-127.125
1590504852.1421413,-1.12,-3.805160928703104,8.64414777539734,0.49,-0.09555555555555556,-0.7533333333333333,2.1206794006277714,10.090435205022171,-126.83410299686115
1590504852.1521413,-1.08,-3.82,8.67,0.49,-0.09555555555555556,-0.7533333333333333,2.0625,9.8125,-125.8125
1590504852.1621413,-1.0479601897497908,-3.816796018974979,8.663592037949957,0.49,-0.09555555555555556,-0.7533333333333333,2.2026741698446655,9.872574644219142,-125.53215166031067
1590504852.1721413,-0.9733902031841687,-3.805593468789446,8.672032656052771,0.49122403644737617,-0.07376770679225991,-0.737176052227968,2.4449183598680726,9.8485254896372,-124.66209179934036
1590504852.1821413,-0.9221461912558958,-3.7955707617488206,8.744429238251179,0.4955555555555556,0.0033333333333333327,-0.68,2.0410964344192184,9.20804821720961,-122.886702998607
1590504852.1921413,-0.8223518545349174,-3.8,8.645096711098233,0.4955555555555556,0.0033333333333333327,-0.68,2.3063785859171255,9.23284464647928,-120.52448565633149
1590504852.2021413,-0.803869169090354,-3.818392492728938,8.63,0.4955555555555556,0.0033333333333333327,-0.68,2.106776147702987,9.135046920444138,-118.52570380666207
1590504852.2121413,-0.7752344643537934,-3.805234464353793,8.753827678231033,0.4955555555555556,0.0033333333333333327,-0.68,1.7827154022112086,8.907715402211208,-115.6574771254289
1590504852.2221413,-0.9051058897903277,-3.9649151828047624,9.973770940891372,0.4933333333333334,0.11555555555555555,-0.6377777777777778,3.1677707828469077,7.8919041723738275,-110.9379412074597
1590504852.2321413,-0.40131261194816137,-3.1164212411758507,7.057073016541987,0.4933333333333334,0.11555555555555555,-0.6377777777777778,10.956680012643556,-2.106624697081445,-108.838802549784
1590504852.2421412,-0.7217646653814377,-3.9896715780776644,9.716825943266318,0.4933333333333334,0.11555555555555555,-0.6377777777777778,6.292408255301569,10.00564152437345,-101.92459033324153
1590504852.2521412,-0.5602692223278953,-3.6126461335869484,9.494439973663033,0.4933333333333334,0.11555555555555555,-0.6377777777777778,-10.43804868680957,17.940298302728802,-96.53531714097593
1590504852.2621412,-0.5007180329816087,-3.6424868845643696,8.645989349276423,0.4933333333333334,0.11555555555555555,-0.6377777777777778,-0.04290479678498649,5.893386355987566,-94.15313013481678
1590504852.2721412,-0.5484948007824565,-3.767742201173685,9.091435876316963,0.5149980743638728,0.18271625275022785,-0.6518598594476285,3.039197896290195,10.266380538110436,-86.55374240708329
1590504852.2821412,-0.569291298038665,-3.789291298038665,9.25146951895021,0.5155555555555555,0.18444444444444444,-0.6522222222222223,0.8297289706501898,5.7977461030754105,-84.0037779494141
1590504852.2921412,-0.43693943057234563,-3.505931051732044,8.161672016340823,0.5155555555555555,0.18444444444444444,-0.6522222222222223,1.8106475884780524,5.522169014965192,-77.22338102880487
1590504852.3021412,-0.4,-3.604927580893683,8.727032357473036,0.5155555555555555,0.18444444444444444,-0.6522222222222223,2.137326656394453,5.411979969183359,-71.10656779661016
1590504852.3121412,-0.37841453854377005,-3.674390307637487,8.445973155956764,0.5155555555555555,0.18444444444444444,-0.6522222222222223,1.8376514431642712,5.007621154531417,-65.44281684285545
1590504852.3221412,-0.37,-3.7729058398661146,8.661348542235533,0.49417246542764026,0.2235238850230482,-0.6470607866741048,2.2062340350568133,4.813072535893596,-59.830821148595085
1590504852.3321412,-0.3776258972232549,-3.888633075009294,8.773237438874432,0.4833333333333333,0.2433333333333333,-0.6444444444444445,0.29271640595956416,3.129496840058337,-53.85656581543653
1590504852.3421412,-0.3314606579453636,-3.812921315890727,8.651011206233168,0.4833333333333333,0.2433333333333333,-0.6444444444444445,2.1025289173720663,3.484550848884186,-47.21488583349365
1590504852.3521411,-0.3148717948717949,-3.784871794871795,8.573589743589745,0.4833333333333333,0.2433333333333333,-0.6444444444444445,2.2708333333333335,3.3349358974358974,-42.98878205128205
1590504852.3621411,-0.31,-3.8052651869596135,8.59218624845604,0.4833333333333333,0.2433333333333333,-0.6444444444444445,1.784767189429951,2.729301568289853,-38.42796019388405
1590504852.3721411,-0.31,-3.914594805194805,8.703851298701299,0.478847582972583,0.28011648629148633,-0.6579016955266955,1.7259293831168832,1.694888392857143,-27.18768465909091
1590504852.382141,-0.31,-3.979718748767307,8.778129462348625,0.4777777777777778,0.2888888888888889,-0.6611111111111111,1.75,1.5625,-25.25
1590504852.392141,-0.3050854762505861,-3.9557692862552747,8.64782071626934,0.4777777777777778,0.2888888888888889,-0.6611111111111111,1.5349895859631406,1.2860580390954666,-23.007748539329896
1590504852.402141,-0.3,-3.9205435991867112,8.590707791460467,0.4777777777777778,0.2888888888888889,-0.6611111111111111,1.1807050101661103,0.7034612728737484,-16.338265335481644
1590504852.412141,-0.295028618426574,-3.900171710559444,8.655200328986018,0.4777777777777778,0.2888888888888889,-0.6611111111111111,0.845002056162613,0.34428659549826274,-10.480018505463518
1590504852.422141,-0.29,-3.9279626460302106,8.731466626981174,0.4728237054675034,0.29780621904738286,-0.6640835544972757,0.625,0.08280005952823871,-6.688667311555919
1590504852.432141,-0.29,-3.9346971129665023,8.750278040438587,0.4666666666666667,0.3088888888888889,-0.6677777777777778,0.5909880796700533,-0.29505960164973344,-2.2267251785534654
1590504852.442141,-0.2836222347144605,-3.9118888264276976,8.605355643001223,0.4666666666666667,0.3088888888888889,-0.6677777777777778,0.2834727687576469,-0.6766661982077312,2.2956892133196654
1590504852.452141,-0.30271754270214796,-3.975435085404296,8.633007599638345,0.4666666666666667,0.3088888888888889,-0.6677777777777778,0.40896928377684916,-1.096469283776849,6.983490335508149
1590504852.462141,-0.3225989923640085,-3.9648020152719834,8.675197984728017,0.4666666666666667,0.3088888888888889,-0.6677777777777778,0.34251259544989376,-1.5024748091002125,10.677285877351807
1590504852.472141,-0.32523927087190885,-3.9357178126157266,8.709042916512365,0.47724606472909153,0.31841034714507127,-0.6714805670996264,0.10122721474715055,-1.8065182282022796,14.303064436489322
1590504852.482141,-0.33897124435105497,-3.84411502259578,8.720514377824474,0.4888888888888889,0.3288888888888889,-0.6755555555555556,0.2042831236867102,-2.0560702771940935,18.78569269738925
1590504852.492141,-0.2769964407053875,-3.9451617861187507,8.671690664940948,0.4888888888888889,0.3288888888888889,-0.6755555555555556,0.061038869115029926,-2.466838901472254,24.242916801488434
1590504852.502141,-0.2638861369342471,-4.006432109655968,8.65,0.4888888888888889,0.3288888888888889,-0.6755555555555556,-0.1875,-2.806532876433467,27.904106161362556
1590504852.512141,-0.30357151706622065,-3.938570897602676,8.642856965867558,0.4888888888888889,0.3288888888888889,-0.6755555555555556,-0.20982198166387908,-3.1562538716471535,31.47325078981602
1590504852.522141,-0.3239780973743238,-3.9838685842459425,8.678923340810133,0.5083029130198942,0.3273357669584085,-0.6701196287988741,-0.42472621717904735,-3.481181554294762,36.61484859480142
1590504852.532141,-0.35675881189733555,-4.033379405948668,8.773586732717673,0.5166666666666667,0.32666666666666666,-0.6677777777777778,-1.0017277230750414,-3.667242574358347,39.56897896153141
1590504852.542141,-0.36321928829565536,-4.019657864886966,8.640482207391385,0.5166666666666667,0.32666666666666666,-0.6677777777777778,-0.8262055184784616,-4.004276688912923,42.746110752064155
1590504852.552141,-0.38653372591006424,-4.016633431477516,8.632967746252676,0.5166666666666667,0.32666666666666666,-0.6677777777777778,-0.8322947336723768,-4.2079178934689505,45.80252944325482
1590504852.562141,-0.38310576983577677,-4.036894230164223,8.709419870383188,0.5166666666666667,0.32666666666666666,-0.6677777777777778,-1.0078926256842635,-4.425981564210659,48.2555488265274
1590504852.572141,-0.3967638483965014,-4.009854227405248,8.713236151603498,0.6058794946550049,0.34079203109815354,-0.6871072238419177,-0.9788629737609329,-4.771592565597667,50.838647959183675
1590504852.582141,-0.4302960552808337,-3.9849259861797917,8.7,0.65,0.3477777777777778,-0.6966666666666667,-0.9692125863763027,-4.843287413623697,52.29188948665496
1590504852.592141,-0.45454621848739496,-3.9163529411764704,8.7,0.65,0.3477777777777778,-0.6966666666666667,-1.0284138655462185,-4.926155462184874,53.53986344537815
1590504852.602141,-0.4708281545786565,-3.802101458974702,8.645859227106717,0.65,0.3477777777777778,-0.6966666666666667,-1.0286620169416985,-5.0625,54.76274571199113
1590504852.612141,-0.48907208162852955,-3.797216244885589,8.658968530585442,0.65,0.3477777777777778,-0.6966666666666667,-1.1701015305349296,-5.090850255089155,55.70360408142648
1590504852.622141,-0.5,-3.8598591507880498,8.74194366031522,0.90612516009305,0.36901095167150216,-0.7570485049269453,-1.151056369089626,-5.013028184544813,56.77253513879087
1590504852.6321409,-0.49316556163190245,-3.8389933697914143,8.811509945312878,1.0788888888888888,0.38333333333333336,-0.7977777777777778,-1.0854304796012195,-5.236506678604268,57.979304796012194
1590504852.6421409,-0.4702906897336672,-3.7937209196448896,8.524651035738675,1.0788888888888888,0.38333333333333336,-0.7977777777777778,-1.08393893694514,-5.49818318916458,59.68895401775552
1590504852.6521409,-0.4986945357682801,-3.85738907153656,8.598616303904395,1.0788888888888888,0.38333333333333336,-0.7977777777777778,-2.1507838184828776,-5.401272767632166,61.503590626574834
1590504852.6621408,-0.52,-3.905304957886303,8.63451075804655,1.0788888888888888,0.38333333333333336,-0.7977777777777778,-1.7553203963182271,-5.3125,63.119679603681774
1590504852.6721408,-0.5429269697066633,-3.9501221969866607,8.710488787946643,1.2705838300473786,0.16552712112003243,-0.9168706481985008,-1.3407040721665973,-5.5632637311666295,64.25076373116663
1590504852.6821408,-0.5179870729455217,-3.925983379501385,8.739972299168976,1.413333333333333,0.0033333333333333327,-1.0055555555555555,-1.3123845798707294,-5.712488457987073,64.4375
1590504852.6921408,-0.4495830600817232,-3.9073215456792614,8.668452302880493,1.413333333333333,0.0033333333333333327,-1.0055555555555555,-0.9903268930030772,-5.507067232507693,63.42707650204308
1590504852.7021408,-0.40784098863170093,-3.889602471579252,8.66,1.413333333333333,0.0033333333333333327,-1.0055555555555555,-1.0134938210518694,-5.337003089474066,60.90164520528107
1590504852.7121408,-0.3904835962378731,-3.8747582018810633,8.702823816929572,1.413333333333333,0.0033333333333333327,-1.0055555555555555,-0.9138061912167667,-5.163806191216767,57.60880915352144
1590504852.7221408,-0.38,-3.8615915459671157,8.731591545967117,1.1121505715175317,0.05139985219697567,-0.899195598921113,-0.75,-4.798657534015328,52.48873189506735
1590504852.7321408,-0.4103106387948149,-3.846062127758963,8.758497022071703,0.7588888888888888,0.10777777777777778,-0.7744444444444445,-0.75,-4.373058507532407,44.89284567324536
1590504852.7421408,-0.45125182690474674,-3.83406112982144,8.667801995297706,0.7588888888888888,0.10777777777777778,-0.7744444444444445,-0.6171760818453327,-3.818322265997331,37.911752557666645
1590504852.7521408,-0.4738129967094502,-3.81618700329055,8.5828779802567,0.7588888888888888,0.10777777777777778,-0.7744444444444445,-0.5714936883021917,-3.151525246791233,31.294927550176073
1590504852.7621408,-0.49120476067862556,-3.7847892884730925,8.645210711526907,0.7588888888888888,0.10777777777777778,-0.7744444444444445,-0.6174702457585901,-2.5999628071982377,24.45162968843876
1590504852.7721407,-0.5165028654787954,-3.7095085964363865,8.71699426904241,0.6986604610236995,0.13847484746390656,-0.7721130214303081,-0.2845003646973012,-2.0690007293946024,17.067362196519746
1590504852.7821407,-0.5137786769880366,-3.6862213230119636,8.779122800844476,0.5866666666666667,0.1955555555555556,-0.7677777777777778,-0.14170038705137228,-1.5,10.92864400070373
1590504852.7921407,-0.5241391428961376,-3.6965565715845505,8.777217142077248,0.5866666666666667,0.1955555555555556,-0.7677777777777778,-0.03869463968882214,-1.2154339258905418,5.1394499795277735
1590504852.8021407,-0.4995037170986538,-3.7108511151295964,8.681347398030942,0.5866666666666667,0.1955555555555556,-0.7677777777777778,0.2659584086799277,-0.6409584086799277,0.5376858549326904
1590504852.8121407,-0.4251766179377287,-3.6851766179377288,8.76858705649817,0.5866666666666667,0.1955555555555556,-0.7677777777777778,0.14631524100275933,-0.18970772422160903,-5.620506272138398
1590504852.8221407,-0.40155174467071575,-3.6477155531737524,8.773103489341432,0.5764176359281754,0.20682948936789597,-0.7641906170193058,0.6392777926640467,0.3362063832321067,-11.123111304632607
1590504852.8321407,-0.38,-3.61,8.740042535270584,0.5644444444444444,0.22,-0.76,0.5925536955148452,0.875,-17.200260581174984
1590504852.8421407,-0.39874225431453886,-3.6334278178931734,8.665659855584575,0.5644444444444444,0.22,-0.76,0.4589238618323347,1.2264172683976033,-22.940268602447894
1590504852.8521407,-0.42,-3.628062303730687,8.649844240673282,0.5644444444444444,0.22,-0.76,0.458657831930662,1.625,-29.356074927772895
1590504852.8621407,-0.44358424751023706,-3.5960692920816273,8.739653539591865,0.5644444444444444,0.22,-0.76,0.5581692448983031,1.9198030938779638,-34.36275550612541
1590504852.8721406,-0.48802002977398834,-3.5605932241620426,8.759306626968016,0.5632562918853351,0.2104947795271249,-0.767722991634211,1.004333581449903,2.5420839536247577,-38.97838002436053
1590504852.8821406,-0.4307933258491272,-3.559206674150873,8.780918576239847,0.56,0.18444444444444444,-0.7888888888888889,1.1521398776112175,3.14144048955513,-45.33950917915869
1590504852.8921406,-0.3279675839307112,-3.6620324160692888,8.782637852382855,0.56,0.18444444444444444,-0.7888888888888889,1.4168917782589503,3.7170268452143205,-49.53499915911623
1590504852.9021406,-0.27404586727918745,-3.707022933639594,8.695344004593906,0.56,0.18444444444444444,-0.7888888888888889,1.8430333237626961,4.361639988515235,-53.3768931916879
1590504852.9121406,-0.2564671826820213,-3.7,8.617379334214336,0.56,0.18444444444444444,-0.7888888888888889,1.990739648228557,4.580839783525266,-57.050042083569316
1590504852.9221406,-0.20793365744725395,-3.663800972341762,8.83966828723627,0.5378783719866322,0.18176303498827864,-0.7603989134171274,1.4573902626253228,4.351243922863988,-62.7572562167066
1590504852.9321406,-0.15361124432803336,-3.5843981259453277,8.730786881617293,0.4866666666666667,0.17555555555555555,-0.6944444444444444,2.2398711587412845,5.0399297229497915,-67.95658639834728
1590504852.9421406,-0.6216806550365455,-7.84644680757569,2.2559902447598548,0.4866666666666667,0.17555555555555555,-0.6944444444444444,-13.223993350031492,33.102094959792595,-110.24874306074321
1590504852.9521406,-1.4895149298718,-14.372927299762889,-7.770335168588996,0.4866666666666667,0.17555555555555555,-0.6944444444444444,-39.65507324277619,75.22704507093196,-185.20560724189207
1590504852.9621406,-8.158353119474615,-13.4559509977267,-3.561293255872695,0.4866666666666667,0.17555555555555555,-0.6944444444444444,-152.8965490022733,79.26471331144228,-939.5778605708513
1590504852.9721406,-3.073018186508448,-8.263541854765897,-3.6968334838127177,0.47642289006406124,0.25010748527451737,-0.7098101093483526,-144.4042225590094,80.99051173739198,-541.8902279762673
1590504852.9821405,1.8314549222797925,0.4607098445595854,-1.536020725388601,0.4666666666666667,0.3211111111111111,-0.7244444444444444,-122.88838730569948,-12.285284974093264,-140.45527849740932
1590504852.9921405,0.4906420444045514,-1.023892658201114,3.205519417091265,0.4666666666666667,0.3211111111111111,-0.7244444444444444,-123.17119644129993,-17.149329113756963,-97.29651653950738
1590504853.0021405,0.9097167992977233,-0.9988746397969505,5.53452376863037,0.4666666666666667,0.3211111111111111,-0.7244444444444444,-90.46605265166696,13.076679118719106,-91.40750295795881
1590504853.0121405,1.1774908149426704,-0.4722031808654913,4.887311305634324,0.4666666666666667,0.3211111111111111,-0.7244444444444444,-13.475648810257674,48.05283565528295,-87.59689927259278
1590504853.0221405,1.3699604472874651,-0.6646213194003613,4.495099858391523,0.4077911790397752,0.4014340978020845,-0.7004737101963529,94.48473741393623,28.570248791444897,-83.86130609404756
1590504853.0321405,0.7498301169178758,-1.2101698830821241,6.635664178053247,0.3111111111111111,0.5333333333333333,-0.6611111111111111,180.23504542893366,15.732405972672206,-82.23189005493731
1590504853.0421405,0.5248162065022055,-1.6834183548439796,7.6117254125142955,0.3111111111111111,0.5333333333333333,-0.6611111111111111,247.33403702417905,19.73157342550237,-81.59177294355497
1590504853.0521405,0.5014251605029978,-0.8320671724942961,2.6489892290550223,0.3111111111111111,0.5333333333333333,-0.6611111111111111,251.61197405422615,-4.182804292460338,-75.6894565448082
1590504853.0621405,0.47427322196108324,0.19926591712718877,-1.1313368904698384,0.3111111111111111,0.5333333333333333,-0.6611111111111111,135.92896049037665,-20.779685151072435,-56.784911018653794
1590504853.0721405,0.7137647457748113,0.08944479146217406,-0.6077158103260578,0.30993140946704023,0.5356927366214751,-0.6690740972085893,36.525431442185855,-7.8005137597487195,-37.949447200756694
1590504853.0821404,0.2590252982147146,0.2739436394203827,0.5420983107837644,0.30666666666666664,0.5422222222222223,-0.6911111111111111,4.021978324393563,17.502514310303418,-25.295162517012248
1590504853.0921404,4.5321537318975125,-3.3669662086891945,21.25846862235425,0.30666666666666664,0.5422222222222223,-0.6911111111111111,-85.47269309320461,17.5479112513925,-3.2980969179353883
1590504853.1021404,0.6942980328752357,-1.585513723678639,5.624125572621935,0.30666666666666664,0.5422222222222223,-0.6911111111111111,-86.59881337336876,3.5284795203449204,4.144803576240521
1590504853.1121404,1.0113551786273896,-2.705407787527421,10.47039681917894,0.30666666666666664,0.5422222222222223,-0.6911111111111111,21.61054038702601,4.652756287214039,6.176251322077719
1590504853.1221404,1.0418441942034335,-3.04790659036367,10.860779644329579,0.3027653682850286,0.5283509390875092,-0.6989137078743872,42.834448649313885,8.921331764199127,15.435227062949972
1590504853.1321404,0.31,-1.2,2.78,0.2966666666666667,0.5066666666666667,-0.7111111111111111,31.4375,-2.4375,19.4375
1590504853.1421404,0.3829126076121432,-1.9137760534662438,5.604404168554599,0.2966666666666667,0.5066666666666667,-0.7111111111111111,8.004731040439513,0.08086309186678786,28.479622720321704
1590504853.1521404,0.6117002435244632,-2.966916463729614,9.834686001033134,0.2966666666666667,0.5066666666666667,-0.7111111111111111,-13.521548225223231,-0.5524476975868939,45.53652636336802
1590504853.1621404,0.7257348230330495,-2.7006651561319894,8.550530249759095,0.2966666666666667,0.5066666666666667,-0.7111111111111111,13.573426960439617,-4.90474679011381,52.37825871812902
1590504853.1721404,0.5471505524102677,-2.746420051668224,7.578588193261145,0.3012188143180833,0.5021145190152501,-0.7177642499862584,5.712947630956962,1.7542289616885611,63.68786586874072
1590504853.1821404,1.8317381489841986,-9.75490744920993,9.476957110609481,0.3111111111111111,0.4922222222222222,-0.7322222222222222,-11.695965011286681,-13.438910835214447,73.43642776523703
1590504853.1921403,2.1555020626501653,-11.925619021714493,7.482714538283694,0.3111111111111111,0.4922222222222222,-0.7322222222222222,-18.24142640192212,-15.657857903803436,122.55319540777008
1590504853.2021403,-0.16223549488054606,-2.0151678043230943,9.753816837315131,0.3111111111111111,0.4922222222222222,-0.7322222222222222,-9.698094425483504,-16.299434726962456,200.7501066552901
1590504853.2121403,-0.7838841731131089,-2.9766949613213463,7.929579761655865,0.3111111111111111,0.4922222222222222,-0.7322222222222222,22.023024252561154,-10.26197470206983,224.87539462680326
1590504853.2221403,-0.7714874390502438,-2.4873399406402372,6.0844411172355315,0.32178791840388193,0.49044275434009377,-0.7283073928815396,13.3812341000636,-11.29872668009328,223.3257317283231
1590504853.2321403,-0.16252787528391494,-3.094388808589717,8.310638550485237,0.34444444444444444,0.4866666666666667,-0.72,-20.31888808589717,-23.015728241792278,217.9030559570514
1590504853.2421403,0.1666540970850542,-3.336654097085054,9.258691416771413,0.34444444444444444,0.4866666666666667,-0.72,-15.806632324774046,-23.385085592865266,216.62245335039205
1590504853.2521403,-0.18481654396360808,-2.985183456036392,7.620587179026756,0.34444444444444444,0.4866666666666667,-0.72,2.6298856766624787,-14.127599958101396,218.23074534626204
1590504853.2621403,-0.2648071717408014,-3.3273400060154397,8.112576613307489,0.34444444444444444,0.4866666666666667,-0.72,-2.303158314674331,-15.411233624636568,208.10019257761587
1590504853.2721403,-0.38395147545366437,-3.698789894061424,8.701289643418107,0.34444444444444444,0.4866666666666667,-0.72,-20.569031347124284,-23.69001061056712,157.55146960532034
1590504853.2821403,-1.7853346175118723,-1.4742881391490092,12.319485438559687,0.4033333333333333,0.4155555555555556,-0.7266666666666667,-9.804999952320104,1.6332521980432162,-96.84916345622032
1590504853.2921402,-0.10698333710321949,-1.7400045238633794,11.760990726080072,0.4033333333333333,0.4155555555555556,-0.7266666666666667,41.015871220689135,31.050681406921512,-100.4276511724346
1590504853.3021402,-0.7732939980010871,-1.3097008644421457,4.8467885886623066,0.4033333333333333,0.4155555555555556,-0.7266666666666667,22.14947791551963,5.923775008328803,-76.87523232978556
1590504853.3121402,-2.0530985663616583,-3.6083070549312986,13.254669905516973,0.4033333333333333,0.4155555555555556,-0.7266666666666667,-26.337916530058717,1.3052945515781944,-65.80565966737205
1590504853.3221402,-5.016632682504569,-11.004569202654611,8.255090699240165,0.4082388509505947,0.4118764173426096,-0.727893046070982,-20.19619842262191,3.4127693084543615,-36.8290997403097
1590504853.3321402,-0.6597566605751668,-4.840396460517456,8.80373434644609,0.4297542880959251,0.3957398394836118,-0.7332719053573146,2.243730162546889,-1.6299112724824472,21.21215374627296
1590504853.3421402,1.010006195786865,-3.6588661710037176,7.533444857496902,0.43,0.3955555555555556,-0.7333333333333333,10.405669144981413,-2.108542441140025,75.46298017348204
1590504853.3521402,3.307184249464455,-7.676671230759038,8.389057441310925,0.43,0.3955555555555556,-0.7333333333333333,-6.404231355314591,-6.66012234712131,67.36011793025773
1590504853.3621402,1.9020415166987528,-8.190681342596468,9.304171758600486,0.43,0.3955555555555556,-0.7333333333333333,-13.332960157361681,-10.159501339248347,25.87268247258726
1590504853.3721402,-1.0585557621318675,-2.2363357853043406,10.336552690431924,0.42835801770568566,0.3993086579425598,-0.7319259199382067,0.4166902433109696,4.4382005631449895,-34.70624848435858
1590504853.3821402,-0.5690999467853515,-4.2950324125586565,8.209060761453244,0.4222222222222222,0.4133333333333333,-0.7266666666666667,12.738749334816893,6.480975763146437,-19.93402290648735
1590504853.3921402,1.0562035225048922,-4.54493542074364,9.033358121330723,0.4222222222222222,0.4133333333333333,-0.7266666666666667,-5.881237769080235,-2.2867906066536206,12.815826810176125
1590504853.4021401,1.391986301369863,-6.014917808219178,8.854273972602739,0.4222222222222222,0.4133333333333333,-0.7266666666666667,-4.7153253424657535,-6.157619863013699,20.137756849315068
1590504853.4121401,-0.3086050678269772,-4.403166112106475,8.57164576401331,0.4222222222222222,0.4133333333333333,-0.7266666666666667,1.9400275147171744,1.2088558996672638,-4.915968134118249
1590504853.4221401,0.10186407503876899,-4.655762507716165,8.60322031346452,0.4222222222222222,0.4133333333333333,-0.7266666666666667,1.2690683388789354,0.4194921633869826,-2.824154232975504
1590504853.43214,0.09489091501139695,-4.612969716704656,8.718515141647673,0.43666666666666665,0.4066666666666667,-0.7266666666666667,-0.19268967762943667,-0.2287121458808206,0.38428036470205146
1590504853.44214,0.07,-4.523777946700053,8.716445626900375,0.43666666666666665,0.4066666666666667,-0.7266666666666667,0.6888973350026829,-0.18333174968699695,0.08611216687533536
1590504853.45214,0.06745437079731029,-4.535456292026897,8.61236311239193,0.43666666666666665,0.4066666666666667,-0.7266666666666667,-0.047730547550432274,-0.29658981748318924,0.01591018251681076
1590504853.46214,0.06379790020916679,-4.61,8.6013937006275,0.43666666666666665,0.4066666666666667,-0.7266666666666667,-0.29431594338281586,-0.25,0.038763123692707596
1590504853.47214,0.08,-4.612112995281561,8.648732202831063,0.43605624580754904,0.40638493396245856,-0.7272770875257843,-0.72887004718439,-0.25,-0.051935023592195
1590504853.48214,0.08,-4.655323800300827,8.622805719819503,0.4235731243575391,0.40062349329322317,-0.7397602089757943,-0.2967619969917376,-0.25,0.1641190015041312
1590504853.49214,0.06246633543833581,-4.549461367013373,8.64,0.4222222222222222,0.4,-0.7411111111111112,0.20207298244799404,-0.31334161404160477,0.09417080702080238
1590504853.50214,0.07,-4.635618058908739,8.623955094157413,0.4222222222222222,0.4,-0.7411111111111112,0.2942419121197489,-0.15365161757605023,-0.01432580878802511
1590504853.51214,0.07187286154996729,-4.5312371692998035,8.586855753949706,0.4222222222222222,0.4,-0.7411111111111112,-0.1875,-0.2148838459381135,-0.050794615312704496
1590504853.52214,0.07971487332897075,-4.578289239973825,8.657433859960737,0.4222222222222222,0.4,-0.7411111111111112,-0.1875,-0.06784612508179863,-0.0017820416939328815
1590504853.53214,0.07231882987367955,-4.662174041515846,8.613188298736794,0.4444444444444444,0.4,-0.7411111111111112,-0.05253656644751423,0.05253656644751423,-0.06702925315801138
1590504853.54214,0.07646065195917023,-4.571769674020415,8.666994237734606,0.4444444444444444,0.4,-0.7411111111111112,0.23174185051037208,-0.1321976868620349,0.10287907474481396
1590504853.55214,0.0626499835363846,-4.578675008231808,8.5772248929865,0.4444444444444444,0.4,-0.7411111111111112,0.40437520579519265,0.08359400724399074,0.016562397102403675
1590504853.56214,0.08,-4.544437295852717,8.656602989211125,0.4444444444444444,0.4,-0.7411111111111112,0.31661387706621796,-0.05719217064238345,0.01592348807284965
1590504853.57214,0.08,-4.662064238345046,8.62892606156587,0.4444444444444444,0.4,-0.7411111111111112,-0.15908331683658317,-0.013946971196674256,0.14565908640997724
1590504853.58214,0.06252146918881281,-4.552521469188813,8.657478530811188,0.43666666666666665,0.4066666666666667,-0.7466666666666667,-0.3019938783799466,-0.05724693918997331,0.005253060810026691
1590504853.59214,0.08531537228156545,-4.587026941577652,8.622973058422348,0.43666666666666665,0.4066666666666667,-0.7466666666666667,-0.08502376865924437,-0.04391838486032384,0.0625
1590504853.60214,0.07336841222590249,-4.61,8.610105236677708,0.43666666666666665,0.4066666666666667,-0.7466666666666667,0.21842113538216426,-0.17697371179405474,0.04144742358810952
1590504853.61214,0.08951334816462736,-4.607566740823137,8.660973303670746,0.43666666666666665,0.4066666666666667,-0.7466666666666667,0.05945842602892103,-0.13412472191323693,-0.05945842602892103
1590504853.62214,0.0805411996235133,-4.562705998117567,8.678917600752973,0.43666666666666665,0.4066666666666667,-0.7466666666666667,0.003382497646958159,-0.30235250705912553,-0.003382497646958159
1590504853.63214,0.08,-4.576152206876768,8.663847793123233,0.4312825977077442,0.4012825977077442,-0.7305144597898994,-0.5047564648989795,-0.16107306053030615,0.0
1590504853.64214,0.08774684512428298,-4.67211395793499,8.630987380497132,0.43,0.4,-0.7266666666666667,-0.14525334608030593,-0.03520554493307839,0.0625
1590504853.65214,0.07170745697896751,-4.615976099426386,8.566829827915871,0.43,0.4,-0.7266666666666667,0.15548518164435948,-0.2858209847036329,0.0625
1590504853.66214,0.0973141228137761,-4.605971184220665,8.63671469296556,0.43,0.4,-0.7266666666666667,0.3330331689652516,-0.016786732413899375,0.016786732413899375
1590504853.67214,0.08115609831265891,-4.581734147468988,8.677109754218353,0.43,0.4,-0.7266666666666667,0.0805640361352955,-0.11777438554588182,0.11777438554588182
1590504853.6821399,0.09723861357777142,-4.658954454311085,8.668619306788885,0.4444444444444444,0.4066666666666667,-0.7266666666666667,-0.29524133486107135,-0.125,0.017258665138928674
1590504853.6921399,0.0812191349183615,-4.594876539673446,8.660609567459181,0.4444444444444444,0.4066666666666667,-0.7266666666666667,-0.1951195932397594,-0.125,0.11738040676024061
1590504853.7021399,0.06838740835052905,-4.6,8.552900733195766,0.4444444444444444,0.4066666666666667,-0.7266666666666667,0.14515739561838698,-0.16734260438161302,0.0625
1590504853.7121398,0.06,-4.5994718533915915,8.623697026258855,0.4444444444444444,0.4066666666666667,-0.7266666666666667,0.24339816739490094,-0.06580091630254953,0.0625
1590504853.7221398,0.06,-4.593540915454121,8.66521359182115,0.4444444444444444,0.4066666666666667,-0.7266666666666667,0.1692614431765155,-0.10286927841174225,0.0625
1590504853.7321398,0.07338136331248515,-4.596690681656242,8.676618636687515,0.4169383087465583,0.4066666666666667,-0.7125418942812657,-0.08408380175758054,-0.125,0.18795028105454833
1590504853.7421398,0.07,-4.613723742838956,8.601311266709102,0.4033333333333333,0.4066666666666667,-0.7055555555555556,-0.4142266072565245,-0.2422422024188415,0.0547422024188415
1590504853.7521398,0.07175446305959901,-4.634736610821203,8.545263389178796,0.4033333333333333,0.4066666666666667,-0.7055555555555556,-0.21162112057127164,-0.1875,0.00548269706124691
1590504853.7621398,0.08711397967591321,-4.588658060972261,8.591341939027739,0.4033333333333333,0.4066666666666667,-0.7055555555555556,0.12436830541060151,-0.1875,0.053481186487228785
1590504853.7721398,0.07270305954043418,-4.605945410689349,8.686484702297829,0.4033333333333333,0.4066666666666667,-0.7055555555555556,0.2956058778722864,-0.0793941221277136,0.1706058778722864
1590504853.7821398,0.07,-4.602450107207653,8.692450107207652,0.42346638077959203,0.4066666666666667,-0.7214942181171771,0.17093951014349332,-0.10968682995216888,0.09312634009566222
1590504853.7921398,0.07925309393570429,-4.647759281807113,8.64327784542134,0.43,0.4066666666666667,-0.7266666666666667,-0.3171681629018482,-0.18283183709815182,0.009336325803696366
1590504853.8021398,0.07163083577153034,-4.624892507314591,8.574677521943773,0.43,0.4066666666666667,-0.7266666666666667,-0.36480727642793537,-0.13519272357206463,0.10461455285587075
1590504853.8121397,0.07,-4.6095313911272475,8.641171522181883,0.43,0.4066666666666667,-0.7266666666666667,0.06982201363676614,-0.12646440272735324,0.0
1590504853.8221397,0.07,-4.594675108474276,8.67831222881431,0.43,0.4066666666666667,-0.7266666666666667,0.3019514300894359,-0.1728902860178872,0.0
1590504853.8321397,0.060360394322658474,-4.600540591483988,8.688738619870694,0.4488888888888889,0.4066666666666667,-0.7266666666666667,0.11936883870846135,0.06137376774169227,-0.06475246451661545
1590504853.8421397,0.07617212975703541,-4.624258194635553,8.633397545850375,0.4488888888888889,0.4066666666666667,-0.7266666666666667,-0.1276895274536784,0.011962094509264318,-0.16357581098147136
1590504853.8521397,0.08970360195360196,-4.6397036019536015,8.552074786324788,0.4488888888888889,0.4066666666666667,-0.7266666666666667,-0.49073756105006106,-0.06064751221001221,-0.005557463369963378
1590504853.8621397,0.07979518572317909,-4.638771114339074,8.571843328491388,0.4488888888888889,0.4066666666666667,-0.7266666666666667,-0.12243982153973854,-0.0625,0.059939821539738536
1590504853.8721397,0.07109151276198382,-4.586549076571903,8.650176385142146,0.4488888888888889,0.4066666666666667,-0.7266666666666667,-0.013643909524797687,-0.0625,-0.04885609047520231
1590504853.8821397,0.07,-4.615105868842262,8.686329401631696,0.4323111174911543,0.395939873409309,-0.7188653624794974,0.16455876019810034,0.0472058401320669,-0.0625
1590504853.8921397,0.08997667606856151,-4.61001166196572,8.650046647862878,0.43,0.3944444444444444,-0.7177777777777777,0.000218661857235819,-0.18720845085701887,-7.288728574528225e-05
1590504853.9021397,0.08173423290130398,-4.618265767098696,8.559076561914344,0.43,0.3944444444444444,-0.7177777777777777,-0.10332208873370027,-0.3424831331005504,0.10332208873370027
1590504853.9121397,0.08,-4.629434531432311,8.568303594296935,0.43,0.3944444444444444,-0.7177777777777777,0.051897464355843914,-0.08017089274026007,0.18396582145194798
1590504853.9221396,0.0720951212756697,-4.61419024255134,8.664858544691963,0.43,0.3944444444444444,-0.7177777777777777,0.16131098405412891,-0.013094507972935543,0.13809450797293554
1590504853.9321396,0.07616796506137866,-4.591496104815864,8.696167965061377,0.43,0.4019830684083517,-0.713665801070192,0.2645995632672332,-0.038549781633616616,0.009350655099150132
1590504853.9421396,0.06281517747858018,-4.60577723378213,8.7,0.43,0.4066666666666667,-0.7111111111111111,0.09768971848225216,-0.11620257037943696,-0.16990514075887392
1590504853.9521396,0.06656132107826326,-4.61,8.601580183826051,0.43,0.4066666666666667,-0.7111111111111111,-0.14254128369572672,-0.001975229782563967,-0.1054834865217093
1590504853.9621396,0.07879222396272643,-4.618792223962727,8.593961119813631,0.43,0.4066666666666667,-0.7111111111111111,-0.3049513997670402,-0.15730559906816083,0.047402799534080414
1590504853.9721396,0.0729924590104926,-4.62,8.635037704947537,0.43,0.4066666666666667,-0.7111111111111111,-0.22490573763115743,-0.09990573763115743,0.0625
1590504853.9821396,0.09975106323964497,-4.609917021079882,8.689668084319527,0.43666666666666665,0.4,-0.7266666666666667,0.06198138174926036,-0.06405585475221894,0.12551861825073965
1590504853.9921396,0.07066706730769232,-4.6002223557692306,8.650889423076924,0.43666666666666665,0.4,-0.7266666666666667,0.0013897235576923114,-0.24583082932692307,0.18611027644230768
1590504854.0021396,0.060172224567327987,-4.61,8.570344449134657,0.43666666666666665,0.4,-0.7266666666666667,-0.06357640354579991,0.05819438581680034,0.0625
1590504854.0121396,0.06902469396369777,-4.61,8.588049387927395,0.43666666666666665,0.4,-0.7266666666666667,-0.11890433727311102,-0.16311734909244407,0.0625
1590504854.0221395,0.06448763772782323,-4.621024724544354,8.62307417363306,0.43666666666666665,0.4,-0.7266666666666667,-0.125,-0.15304773579889522,0.028047735798895225
1590504854.0321395,0.06406577558916637,-4.613736897643334,8.6621973267675,0.4339561496072224,0.4,-0.7266666666666667,-0.023355610270840668,-0.09958890256771016,0.025411097432289833
1590504854.0421395,0.07,-4.59,8.689009954360872,0.43,0.4,-0.7266666666666667,0.23762442951090668,-0.11881221475545334,-0.05012442951090669
1590504854.0521395,0.07,-4.609601840736294,8.601791716686675,0.43,0.4,-0.7266666666666667,-0.11753451380552216,0.1200230092036815,0.06001150460184075
1590504854.0621395,0.07,-4.626742075924645,8.608371037962321,0.43,0.4,-0.7266666666666667,-0.3342759490580624,0.020362025470968798,-0.09445696179354682
1590504854.0721395,0.07,-4.622781724592675,8.624436550814652,0.43,0.4,-0.7266666666666667,-0.19454311481686307,-0.09022844259156847,-0.125
1590504854.0821395,0.07,-4.610828063931874,8.675859680340631,0.4187898559167347,0.4,-0.7317621867045145,-0.010350799148422352,0.046973801277366445,-0.06767539957421118
1590504854.0921395,0.08583009718505402,-4.602084951407472,8.640424757037366,0.4177777777777778,0.4,-0.7322222222222222,0.09893810740658765,-0.03643810740658765,-0.013030946296706175
1590504854.1021395,0.09,-4.608766412213741,8.577401526717557,0.4177777777777778,0.4,-0.7322222222222222,0.01541984732824428,-0.00770992366412214,0.21916030534351144
1590504854.1121395,0.07489709613758105,-4.61,8.585102903862419,0.4177777777777778,0.4,-0.7322222222222222,-0.1415897237101776,-0.047196574570059206,0.10841027628982239
1590504854.1221395,0.07,-4.615361752686817,8.611447010747268,0.4177777777777778,0.4,-0.7322222222222222,-0.1875,-0.09601095429260653,-0.00452190858521305
1590504854.1321394,0.07,-4.6143019160326855,8.65279233586926,0.43550515012053476,0.4,-0.7372871857487242,-0.045047900817131586,-0.018160925612848697,-0.0625
1590504854.1421394,0.07,-4.61,8.664245146053931,0.4488888888888889,0.4,-0.7411111111111112,0.0625,0.0625,-0.0625
1590504854.1521394,0.07738541589785224,-4.602614584102148,8.600916672817181,0.4488888888888889,0.4,-0.7411111111111112,0.0163411506384235,0.0625,-0.0625
1590504854.1621394,0.08,-4.606262891228575,8.586262891228575,0.4488888888888889,0.4,-0.7411111111111112,-0.07828614035718136,-0.05492921053577203,0.015786140357181358
1590504854.1721394,0.073944089594134,-4.6160559104058665,8.626335462435197,0.4488888888888889,0.4,-0.7411111111111112,-0.04930111992667488,-0.04930111992667488,0.0625
1590504854.1821394,0.07,-4.611651949745171,8.67504415076449,0.4451786443311867,0.3953621943028722,-0.7346181831351323,0.10435062818537395,-0.1565259422780609,-0.04185062818537395
1590504854.1921394,0.09691334270702287,-4.61,8.671028885764326,0.4444444444444444,0.3944444444444444,-0.7333333333333333,0.0689305360270357,-0.01929160808110708,0.10570839191889292
1590504854.2021394,0.06393650793650793,-4.61,8.588857142857142,0.4444444444444444,0.3944444444444444,-0.7333333333333333,-0.10654761904761903,-0.1126984126984127,-0.04404761904761903
1590504854.2121394,0.078520150825131,-4.619260075412566,8.635560452475394,0.4444444444444444,0.3944444444444444,-0.7333333333333333,-0.18287547132853435,-0.06712452867146565,-0.00462452867146565
1590504854.2221394,0.07293065242662017,-4.612930652426621,8.64,0.4444444444444444,0.3944444444444444,-0.7333333333333333,-0.1875,-0.19505026700087186,0.0883668446672479
1590504854.2321393,0.07,-4.627996583103797,8.684991457759493,0.43144691220281334,0.3994434953066103,-0.7133371298846701,-0.24373932219936545,-0.25,0.01252135560126913
1590504854.2421393,0.07,-4.602354828057927,8.653139770743904,0.43,0.4,-0.7111111111111111,0.15315875748856078,-0.07721767536204538,0.05759410821265154
1590504854.2521393,0.07892522824453947,-4.59107477175546,8.578598174043684,0.43,0.4,-0.7111111111111111,0.1875,0.049065353056743324,0.0625
1590504854.2621393,0.05130093501096618,-4.604349532494517,8.598699064989033,0.43,0.4,-0.7111111111111111,0.052973132863903954,-0.07202686713609605,-0.0271845780907307
1590504854.2721393,0.05378035422389242,-4.605406548592036,8.637560708447785,0.43,0.4,-0.7111111111111111,0.028709071299775873,-0.06758185740044825,-0.03379092870022413
1590504854.2821393,0.061985043082425625,-4.604007478458787,8.665992521541213,0.4406866092234325,0.40534330461171625,-0.7088847341895627,-0.012640221102259791,0.10018696146967972,0.02504674036741993
1590504854.2921393,0.0551383824835169,-4.615138382483517,8.66,0.4566666666666666,0.4133333333333333,-0.7055555555555556,-0.06077021895603878,0.025195766346135684,0.0625
1590504854.3021393,0.06607124129148251,-4.62,8.623572552251105,0.4566666666666666,0.4133333333333333,-0.7055555555555556,0.03794525807176567,-0.07366422578470297,0.024554741928234328
1590504854.3121393,0.07538503680876563,-4.603844889573703,8.621540147235063,0.4566666666666666,0.4133333333333333,-0.7055555555555556,0.12981296010957027,0.0,0.06731296010957027
1590504854.3221393,0.08,-4.599559864770045,8.654339797155068,0.4566666666666666,0.4133333333333333,-0.7055555555555556,0.06800169037443389,-0.029874577406391527,0.06525084518721694
1590504854.3321393,0.09058718824381662,-4.615293594121908,8.67,0.4525494267940713,0.40333432221417315,-0.7202599836719675,-0.0625,-0.029415036738073067,-0.033084963261926933
1590504854.3421392,0.07854061906358253,-4.612846873021194,8.61992811114836,0.4488888888888889,0.3944444444444444,-0.7333333333333333,-0.15191408723507283,-0.044707043617536406,-0.017792956382463594
1590504854.3521392,0.055024122950640734,-4.61,8.570048245901281,0.4488888888888889,0.3944444444444444,-0.7333333333333333,-0.0003015368830091292,-0.10929961577924771,0.09359923155849544
1590504854.3621392,0.07445902868929308,-4.585540971310707,8.608918057378586,0.4488888888888889,0.3944444444444444,-0.7333333333333333,0.16441261953872116,-0.023087380461278825,-0.02786892930808177
1590504854.3721392,0.08,-4.592200368990845,8.64440073798169,0.4488888888888889,0.3944444444444444,-0.7333333333333333,0.11124769380721969,0.11437845928917047,-0.1387523061927803
1590504854.3821392,0.05957021855066402,-4.606809927149778,8.673619854299558,0.4307290831561458,0.40276768873861835,-0.7227401133225665,-0.10774817874446652,-0.025310223430583173,-0.05981386594165011
1590504854.3921392,0.06308734609167649,-4.61,8.666912653908323,0.4222222222222222,0.4066666666666667,-0.7177777777777777,-0.06480613039053301,0.038591826145955965,0.0
1590504854.4021392,0.07695899160613855,-4.61,8.590410083938615,0.4222222222222222,0.4066666666666667,-0.7177777777777777,0.17397479015346354,-0.0054810926150976325,-0.043493697538365884
1590504854.4121392,0.07384671547250232,-4.616153284527498,8.566153284527498,0.4222222222222222,0.4066666666666667,-0.7177777777777777,0.17308394340627897,-0.0625,-0.0625
1590504854.4221392,0.07343966904159964,-4.613120661916801,8.604396690415996,0.4222222222222222,0.4066666666666667,-0.7177777777777777,0.10350206849000229,-0.0625,-0.08399793150999771
1590504854.4321392,0.07986623764651804,-4.600267524706964,8.66866237646518,0.4222222222222222,0.4066666666666667,-0.7177777777777777,0.06333601470926223,-0.0625,-0.12416398529073777
1590504854.4421391,0.0760534349219164,-4.6039465650780835,8.671839695234251,0.4444444444444444,0.3944444444444444,-0.7266666666666667,-0.0625,-0.03783396826197745,0.024666031738022554
1590504854.4521391,0.07,-4.616386180886644,8.613365829360278,0.4444444444444444,0.3944444444444444,-0.7266666666666667,-0.0625,0.03991363054152138,0.0625
1590504854.4621391,0.07793776845469984,-4.6120622315453,8.601751073818798,0.4444444444444444,0.3944444444444444,-0.7266666666666667,0.03672210568374788,-0.03672210568374788,0.012888947158126059
1590504854.4721391,0.08631124351263747,-4.616311243512637,8.641556217563187,0.4444444444444444,0.3944444444444444,-0.7266666666666667,0.10194527195398423,-0.0625,0.03944527195398422
1590504854.482139,0.09,-4.606849517431554,8.66,0.44103506007484733,0.39687971899415664,-0.7266666666666667,0.09760316131573764,0.0744841934213118,0.007706322631475283
1590504854.492139,0.07520982487058045,-4.609720233505892,8.655069941623527,0.43666666666666665,0.4,-0.7266666666666667,0.031687135147042626,0.15756140544112787,-0.031687135147042626
1590504854.502139,0.06561736283044485,-4.61876527433911,8.588209008865107,0.43666666666666665,0.4,-0.7266666666666667,0.07021703538056066,0.0625,-0.03510851769028033
1590504854.512139,0.05586717562648005,-4.61706641218676,8.5753320609338,0.43666666666666665,0.4,-0.7266666666666667,0.2133301523344997,-0.1141603046689994,0.0258301523344997
1590504854.522139,0.06876701375976199,-4.613744328746746,8.640045370026032,0.43666666666666665,0.4,-0.7266666666666667,0.13270616400148755,-0.1484020546671625,0.0625
1590504854.532139,0.08,-4.596573073489116,8.690140389766324,0.4418882491986768,0.40447564217029447,-0.7206991437729408,0.0625,-0.041081709306979464,0.020540854653489732
1590504854.542139,0.07312171407202095,-4.603756571855958,8.672486856288083,0.4444444444444444,0.4066666666666667,-0.7177777777777777,0.01951071295013089,-0.08597857409973822,0.17195714819947644
1590504854.552139,0.07743184617856569,-4.617431846178566,8.585681538214343,0.4444444444444444,0.4066666666666667,-0.7177777777777777,-0.04644903861603557,0.01434711584810669,0.06420384553585773
1590504854.562139,0.08,-4.604545606534668,8.606363180395997,0.4444444444444444,0.4066666666666667,-0.7177777777777777,-0.01420502042083642,0.0625,0.0
1590504854.572139,0.07585893801241285,-4.595858938012412,8.640705309937935,0.4444444444444444,0.4066666666666667,-0.7177777777777777,0.051763274844839474,0.0625,-0.051763274844839474
1590504854.582139,0.07050264347559575,-4.590502643475595,8.66748678262202,0.4444444444444444,0.4066666666666667,-0.7177777777777777,0.11871695655505325,0.0625,-0.11871695655505325
1590504854.592139,0.06740613570202283,-4.613703067851012,8.66407852504292,0.4444444444444444,0.4188888888888889,-0.7266666666666667,0.01621165186235724,0.03935582593117862,0.0625
1590504854.602139,0.08,-4.62,8.573154579184797,0.4444444444444444,0.4188888888888889,-0.7266666666666667,-0.0625,-0.04182626858500387,0.02067373141499613
1590504854.612139,0.07535668269381855,-4.615356682693819,8.577859903837089,0.4444444444444444,0.4188888888888889,-0.7266666666666667,0.024562199490902242,0.024562199490902242,0.029020733163634082
1590504854.622139,0.07,-4.612512479201332,8.622562396006655,0.4444444444444444,0.4188888888888889,-0.7266666666666667,0.09359400998336107,0.09359400998336107,0.04679700499168053
1590504854.632139,0.06419969345303263,-4.614199693453033,8.677400919640903,0.4244656107826679,0.4188888888888889,-0.7266666666666667,0.07250383183709218,-0.03625191591854609,-0.03625191591854609
1590504854.642139,0.06,-4.61,8.678719541139241,0.41,0.4188888888888889,-0.7266666666666667,0.05449713212025316,-0.02724856606012658,-0.09775143393987343
1590504854.652139,0.07102462535663832,-4.61,8.620389185895128,0.41,0.4188888888888889,-0.7266666666666667,0.03445195423949475,-0.03445195423949475,-0.09054804576050525
1590504854.662139,0.07336306914866189,-4.6232738617026765,8.58,0.41,0.4188888888888889,-0.7266666666666667,-0.0204616356417264,-0.1039808178208632,0.0619424534625896
1590504854.672139,0.07,-4.61615638872034,8.61691629674576,0.41,0.4188888888888889,-0.7266666666666667,-0.09134085683262542,-0.03847742950212371,0.09615914316737458
1590504854.682139,0.07,-4.6,8.666460643233467,0.418614190977956,0.4109925471590959,-0.7216417219295257,-0.04424195958166234,0.02212097979083117,0.0625
