time,acc_x,acc_y,acc_z,mag_x,mag_y,mag_z,gyr_x,gyr_y,gyr_z
1590504939.673208,0.02,-4.56,8.55,0.56,0.26222222222222225,-0.6644444444444444,-0.0625,0.0,-0.125
1590504939.683208,0.01240383222254419,-4.544807664445088,8.610769342219648,0.56,0.26222222222222225,-0.6644444444444444,-0.10997604860909882,0.09495209721819763,-0.17247604860909882
1590504939.693208,0.01,-4.548226685796269,8.64645337159254,0.56,0.26222222222222225,-0.6644444444444444,-0.022166427546628398,0.0735832137733142,-0.0846664275466284
1590504939.703208,0.00208310273836141,-4.55,8.689584486308192,0.56,0.2587036012170495,-0.6697223759522035,0.09896121577048236,0.0625,-0.0625
1590504939.713208,0.006787782680639824,-4.57,8.72036334804192,0.56,0.2577777777777778,-0.6711111111111111,0.1049236417539989,-0.035731522338665195,-0.0758842388306674
1590504939.723208,-0.01490088940981798,-4.57,8.655297331770546,0.56,0.2577777777777778,-0.6711111111111111,-0.03063055881136237,0.1450074117484832,-0.1662537058742416
1590504939.733208,0.0,-4.557425452483342,8.660858182505553,0.56,0.2577777777777778,-0.6711111111111111,-0.11963635934029583,0.016090921979112518,0.04640907802088748
1590504939.743208,0.0,-4.537604555550305,8.667465148149898,0.56,0.2577777777777778,-0.6711111111111111,-0.07834282406313502,0.13997152781059496,-0.07747152781059496
1590504939.753208,0.0009543419874664278,-4.54,8.649363772008357,0.5722222222222222,0.2577777777777778,-0.6788888888888889,-0.3065353625783348,0.18352357505222322,-0.18352357505222322
1590504939.763208,0.025987466427931958,-4.54,8.63267502238138,0.5722222222222222,0.2577777777777778,-0.6788888888888889,-0.15007833482542524,0.07921888988361683,-0.07921888988361683
1590504939.773208,0.01813205798078544,-4.5509339710096075,8.564669855048036,0.5722222222222222,0.2577777777777778,-0.6788888888888889,-0.05666268118995449,0.2658014495196359,0.050825362379908985
1590504939.783208,0.0004584527220630359,-4.559770773638968,8.608853868194842,0.5722222222222222,0.2577777777777778,-0.6788888888888889,-0.0014326647564469885,-0.1760386819484241,-0.05963467048710602
1590504939.793208,0.0,-4.544533994548758,8.679597024530587,0.5722222222222222,0.2577777777777778,-0.6788888888888889,-0.09666253407026044,0.05415633517565113,-0.014168732964869778
1590504939.8032079,-0.008580499636936672,-4.54,8.741419500363063,0.56,0.26222222222222225,-0.6855555555555556,0.013307815903718694,-0.125,0.04475624546170841
1590504939.8132079,0.004379470700016996,-4.54,8.754379470700018,0.56,0.26222222222222225,-0.6855555555555556,0.1348075378126593,-0.125,-0.11724338375021245
1590504939.8232079,0.01,-4.54,8.648177324440958,0.56,0.26222222222222225,-0.6855555555555556,0.012777069438995703,0.0497229305610043,-0.1292590231463319
1590504939.8332078,0.03865890583566848,-4.56,8.66,0.56,0.26222222222222225,-0.6855555555555556,-0.23323632294585597,0.125,0.00279394617569067
1590504939.8432078,0.014994828202283116,-4.56,8.66,0.56,0.26222222222222225,-0.6855555555555556,0.06256464747146107,0.125,0.05209410791191018
1590504939.8532078,8.479908908398844e-05,-4.540169598178168,8.66,0.5644067559604071,0.2578154662618151,-0.6789454216149449,0.06302999430677494,0.0010599886135498754,-0.18538002277290025
1590504939.8632078,0.0012920919757346799,-4.5612920919757345,8.627415816048531,0.5644444444444444,0.2577777777777778,-0.6788888888888889,0.0625,-0.07865114969668349,-0.24596221257582912
1590504939.8732078,0.0165280249918268,-4.576528024991827,8.596943950016346,0.5644444444444444,0.2577777777777778,-0.6788888888888889,0.0625,-0.26910031239783505,-0.19834992190054124
1590504939.8832078,0.02,-4.550289899391456,8.659323568086602,0.5644444444444444,0.2577777777777778,-0.6788888888888889,0.12439604293446685,-0.4981881288034005,-0.12560395706553315
1590504939.8932078,0.026587801481293916,-4.556587801481293,8.679763404443882,0.5644444444444444,0.2577777777777778,-0.6788888888888889,0.20734751851617395,-0.3353049629676521,-0.08382624074191303
1590504939.9032078,0.022094791141449792,-4.5441895822828995,8.753241670868402,0.5433638874883105,0.2577777777777778,-0.6560516188530772,0.25,-0.1511848892681224,-0.2107226660978164
1590504939.9132078,0.010207680145778063,-4.549792319854221,8.740623040437335,0.5377777777777778,0.2577777777777778,-0.65,0.43360599726666127,-0.3698079963555484,-0.25
1590504939.9232078,-0.0004915834258231595,-4.568525249722531,8.63147475027747,0.5377777777777778,0.2577777777777778,-0.65,0.4436447928227895,-0.3125,-0.25
1590504939.9332078,-0.009860568594816752,-4.540278862810367,8.659442274379266,0.5377777777777778,0.2577777777777778,-0.65,0.5633714462823953,-0.3177286776943718,-0.25261433884718587
1590504939.9432077,-0.0027373390849495605,-4.5545253218301,8.630949356339798,0.5377777777777778,0.2577777777777778,-0.65,0.6078916307190653,-0.5848497843143915,-0.38617489215719575
1590504939.9532077,0.0061949768512965684,-4.56,8.626194976851297,0.542596093106564,0.2605311008227985,-0.6678965997926345,0.7798744212824142,-0.8036558159618107,-0.2826255787175858
1590504939.9632077,0.0009935078389391536,-4.541987015677878,8.657019476483184,0.5455555555555556,0.26222222222222225,-0.6788888888888889,0.9312905760066303,-0.8187094239933697,-0.1312094239933697
1590504939.9732077,0.03372774168483305,-4.523136129157583,8.575680645787918,0.5455555555555556,0.26222222222222225,-0.6788888888888889,1.0955987891476549,-1.1286975782953097,-0.4411975782953098
1590504939.9832077,0.010292152108344669,-4.5298539239458275,8.660146076054172,0.5455555555555556,0.26222222222222225,-0.6788888888888889,1.251825950677154,-1.5597610739842687,-0.3768259506771542
1590504939.9932077,0.026828907682299362,-4.52158554615885,8.66841445384115,0.5455555555555556,0.26222222222222225,-0.6788888888888889,1.355180673014371,-1.4047289904784435,-0.48018067301437106
1590504940.0032077,0.04705102733697156,-4.537051027336972,8.738204109347887,0.557870186410035,0.26222222222222225,-0.660890582255419,1.375,-1.2151466187158917,-0.3934310791439278
1590504940.0132077,0.06959272332337768,-4.510610915014933,8.642240021721424,0.56,0.26222222222222225,-0.6577777777777778,1.4362272603855553,-0.7589091773011132,-0.06886369807222376
1590504940.0232077,0.08359908883826879,-4.51,8.585603644646925,0.56,0.26222222222222225,-0.6577777777777778,1.0125284738041003,-0.45251993166287013,-0.10499715261958997
1590504940.0332077,0.05874229090153143,-4.517814427274617,8.622515418196938,0.56,0.26222222222222225,-0.6577777777777778,0.5682991476682142,-0.01945897720185713,0.021520511399071435
1590504940.0432076,0.05,-4.526623605947956,8.692988847583644,0.56,0.26222222222222225,-0.6577777777777778,0.45860246282527883,0.3936802973977695,-0.020295074349442374
1590504940.0532076,0.05,-4.547450462351387,8.72,0.5532137090855717,0.26222222222222225,-0.6635945985615734,0.21936922060766184,0.5625,-0.22609808454425362
1590504940.0632076,0.028163705511721635,-4.542721235170574,8.72,0.5522222222222222,0.26222222222222225,-0.6644444444444444,0.05102315944826019,0.33503859908043365,-0.022538599080433652
1590504940.0732076,0.02,-4.531329201535267,8.667975209211603,0.5522222222222222,0.26222222222222225,-0.6644444444444444,0.0,0.08742252878625811,0.008307509595419364
1590504940.0832076,0.012580308842333039,-4.515160617684666,8.667419691157667,0.5522222222222222,0.26222222222222225,-0.6644444444444444,-0.09274613947083703,0.0625,0.13911920920625553
1590504940.0932076,0.01646714378659727,-4.51,8.67,0.5522222222222222,0.26222222222222225,-0.6644444444444444,-0.16541964866623293,0.2645982433311646,0.025821405335068298
1590504940.1032076,0.036464426380625165,-4.52097628425375,8.675488142126875,0.5522222222222222,0.26222222222222225,-0.6644444444444444,-0.22180088829296907,0.34069911170703093,-0.0625
1590504940.1132076,0.05806282101935994,-4.53806282101936,8.66387435796128,0.5522222222222222,0.26222222222222225,-0.6644444444444444,-0.4011778941129988,0.4636778941129988,0.03828526274199921
1590504940.1232076,0.06734148613561136,-4.532658513864389,8.630634055457554,0.5522222222222222,0.26222222222222225,-0.6644444444444444,-0.529268576695142,0.867074306780568,0.108384288347571
1590504940.1332076,0.07,-4.53,8.681427494886425,0.5522222222222222,0.26222222222222225,-0.6644444444444444,-0.6584804607600387,1.0479902303800195,-0.11495115190009692
1590504940.1432076,0.10706006674082313,-4.5225879866518355,8.7,0.5522222222222222,0.26222222222222225,-0.6644444444444444,-0.7801501668520578,1.108825083426029,-0.09484983314794215
1590504940.1532075,0.05507202913297274,-4.560579981791892,8.80550795265892,0.5801773207899701,0.2586151127296096,-0.6590337802055255,-1.3704747496385155,1.4293498634391903,-0.011775022760134958
1590504940.1632075,-0.15547739559327145,-4.524889831786168,8.702187856727477,0.5866666666666667,0.2577777777777778,-0.6577777777777778,-0.8421433802149519,1.171071690107476,0.14096927566822462
1590504940.1732075,-0.0629868863740633,-4.608860108579293,8.787936611102616,0.5866666666666667,0.2577777777777778,-0.6577777777777778,-0.29788934661263194,0.3719330650711118,0.22384562815415202
1590504940.1832075,0.21638262563584548,-4.578723619178181,8.749787510371947,0.5866666666666667,0.2577777777777778,-0.6577777777777778,0.6156900501461091,-0.5771267000974061,-0.021276020058443645
1590504940.1932075,0.27479436243241606,-4.54,8.689588724864832,0.5866666666666667,0.2577777777777778,-0.6577777777777778,1.1027466435817994,-0.8150704695947998,-0.125
1590504940.2032075,0.19457630969148987,-4.530572038711436,8.665858058067155,0.5636205390723997,0.25987288028634753,-0.6577777777777778,1.3125,-1.0517742741605707,-0.27231189513380893
1590504940.2132075,-0.06544668699108554,-4.490758885501485,8.56812487940416,0.5377777777777778,0.26222222222222225,-0.6577777777777778,1.093191641261143,-1.1768972137537144,-0.2547430343842859
1590504940.2232075,-0.05408895114690948,-4.491459639292593,8.595838557170373,0.5377777777777778,0.26222222222222225,-0.6577777777777778,0.22217869024689196,-0.23084836280861487,0.18795307301698477
1590504940.2332075,0.05592260076548694,-4.507988942966498,8.653966828899495,0.5377777777777778,0.26222222222222225,-0.6577777777777778,-0.21229268062184,0.4745162547842933,-0.13687804186552005
1590504940.2432075,0.06338929425955588,-4.54305352870222,8.745939174625773,0.5377777777777778,0.26222222222222225,-0.6577777777777778,-0.5392183761444306,0.6864507326333273,-0.043415445611120984
1590504940.2532074,-0.020519417278740418,-4.494577973461023,8.724577973461024,0.5450468918376641,0.26222222222222225,-0.653863639437839,-0.7504057947490159,0.6556413078764761,0.031047102625492026
1590504940.2632074,0.03259522762700348,-4.4858295695271595,8.625106519045525,0.5522222222222222,0.26222222222222225,-0.65,-0.638032595227627,0.6061168511930932,0.348934809544746
1590504940.2732074,-0.10247648902821316,-4.579291536050157,8.563805642633229,0.5522222222222222,0.26222222222222225,-0.65,-0.1775470219435737,-0.14490595611285262,0.018808777429467072
1590504940.2832074,-0.08928491675557651,-4.513570453812371,8.392855370567947,0.5522222222222222,0.26222222222222225,-0.65,0.13393078679006526,-0.6696461801850979,0.12053848348758156
1590504940.2932074,0.002990736129096533,-4.430280306803467,8.422990736129098,0.5522222222222222,0.26222222222222225,-0.65,0.4778040641498157,-0.4182239266859249,0.1460279908357406
1590504940.3032074,0.1517066335467023,-4.6234132670934045,8.882889398426801,0.5522222222222222,0.26842814630815015,-0.6615252875881518,-0.22277355816693734,-0.29986903283334926,0.07513096716665074
1590504940.3132074,0.12282787261380324,-4.53298595814978,8.663302129221732,0.5522222222222222,0.27,-0.6644444444444444,-0.02912766152716595,-0.15936037307268722,0.011453457690895744
1590504940.3232074,0.09883558828848082,-4.516746617567279,8.629075440990317,0.5522222222222222,0.27,-0.6644444444444444,-0.00727757319699486,0.11922150618948199,0.0
1590504940.3332074,-0.09080009928843294,-4.517531027635281,8.585186165811683,0.5522222222222222,0.27,-0.6644444444444444,-0.14043107727949694,0.5073276931987424,-0.1168966159192454
1590504940.3432074,-0.10397789570632868,-4.57721547300557,8.765651945090127,0.5522222222222222,0.27,-0.6644444444444444,-0.33753453795886146,0.6850138151835445,-0.1274861848164554
1590504940.3532073,-0.0222317280891917,-4.585775007742336,8.822265407246826,0.5486541670967964,0.26807873954784767,-0.662797649771171,-0.39192909956642924,0.5956129993806132,-0.09337740012387735
1590504940.3632073,-0.019296597633136098,-4.406636094674556,8.262477071005916,0.5377777777777778,0.26222222222222225,-0.6577777777777778,0.17144508136094674,-0.004969489644970404,-0.1875
1590504940.3732073,0.0759895429899303,-4.526250968241673,8.496564678543765,0.5377777777777778,0.26222222222222225,-0.6577777777777778,0.1490850116189001,-0.16243464368706428,-0.06217321843532145
1590504940.3832073,0.11271420217378153,-4.557875219293823,8.611768264402816,0.5377777777777778,0.26222222222222225,-0.6577777777777778,0.0921865862757355,-0.15837047044826683,0.024888588655199537
1590504940.3932073,0.12273464423271843,-4.51998378268802,8.631763632677885,0.5377777777777778,0.26222222222222225,-0.6577777777777778,0.3295915264544902,-0.0852549158726941,-0.0625
1590504940.4032073,0.05756125171828253,-4.601829061211288,8.900792027169079,0.556050016621295,0.26222222222222225,-0.6577777777777778,-0.14405272095091776,0.0,-0.0625
1590504940.4132073,-0.03382121419071925,-4.535812875166242,8.781442795010962,0.5722222222222222,0.26222222222222225,-0.6577777777777778,-0.3113565292405018,0.08409564717299882,-0.02045217641350059
1590504940.4232073,-0.06,-4.5273078598072445,8.717307859807244,0.5722222222222222,0.26222222222222225,-0.6577777777777778,-0.13341293810236116,0.08613764603412039,-0.07772470793175923
1590504940.4332073,0.01350844106463879,-4.543317414448669,8.726634828897339,0.5722222222222222,0.26222222222222225,-0.6577777777777778,0.021032319391634982,0.14603231939163497,0.08383079847908745
1590504940.4432073,0.0675053581500282,-4.5341648806166575,8.609132731716487,0.5722222222222222,0.26222222222222225,-0.6577777777777778,-0.01043899229178416,0.3333779845835683,0.005152519270539557
1590504940.4532073,0.08,-4.536485547617487,8.614312119027332,0.5549274285755901,0.26222222222222225,-0.675793187826353,-0.22463869043717638,0.23482663695352954,-0.0844653273907059
1590504940.4632072,0.07266108747267214,-4.532661087472673,8.608627612308705,0.5455555555555556,0.26222222222222225,-0.6855555555555556,-0.17489539011260255,-0.05847281318319661,-0.016631796704200848
1590504940.4732072,-0.006963482369499105,-4.53769634823695,8.566910955289151,0.5455555555555556,0.26222222222222225,-0.6855555555555556,-0.07689782351906306,-0.02879564703812612,-0.09620435296187388
1590504940.4832072,-0.03761069960758818,-4.54,8.64371769568347,0.5455555555555556,0.26222222222222225,-0.6855555555555556,0.0326337450948522,-0.1902674901897044,-0.1725668725474261
1590504940.4932072,-0.03544790393327101,-4.54,8.71552096066729,0.5455555555555556,0.26222222222222225,-0.6855555555555556,0.0625,-0.16464819874883152,-0.13059879916588768
1590504940.5032072,-0.023745331331100072,-4.54312733433445,8.773127334334449,0.5497253346681555,0.26222222222222225,-0.6832969252028973,0.0625,-0.07227291979515614,-0.07227291979515614
1590504940.5132072,0.08330527926549348,-4.573328232593726,8.829984697781178,0.5722222222222222,0.26222222222222225,-0.6711111111111111,-0.22905508798775825,0.04160290742157613,-0.125
1590504940.5232072,0.09986138863765433,-4.533009906821193,8.662039627284774,0.5722222222222222,0.26222222222222225,-0.6711111111111111,-0.33304455966177987,0.25086632101466044,0.000866321014660415
1590504940.5332072,0.07210391494570761,-4.533861446739056,8.677376510325754,0.5722222222222222,0.26222222222222225,-0.6711111111111111,-0.12608244735112098,0.4616340421191032,-0.01206702105955161
1590504940.5432072,0.02962447319313107,-4.565187763403435,8.755062587801145,0.5722222222222222,0.26222222222222225,-0.6711111111111111,-0.03164117375715514,0.5941411737571551,0.06406469502862056
1590504940.5532072,-0.007755712960620626,-4.552855004637828,8.678565013913484,0.5692061116264253,0.26049873045319544,-0.6603392875546935,-0.014026793996121091,0.4795803819883633,0.06631698499030272
1590504940.5632071,-0.02934385863267671,-4.524015787949015,8.601391222479723,0.5644444444444444,0.2577777777777778,-0.6433333333333333,0.033300441772885284,0.045603092410197,-0.15419955822711473
1590504940.5732071,-0.0255134071078953,-4.520684542810527,8.466845428105271,0.5644444444444444,0.2577777777777778,-0.6433333333333333,-0.12072160743420586,-0.27804120557565437,-0.15731959814144852
1590504940.5832071,0.037042276555728185,-4.489546160765394,8.416807588519093,0.5644444444444444,0.2577777777777778,-0.6433333333333333,0.10935072368959031,-0.3423317523918554,-0.05966350478371085
1590504940.5932071,0.08558169982850504,-4.507908499142525,8.649307197256082,0.5644444444444444,0.2577777777777778,-0.6433333333333333,0.36772875214368694,-0.27761437607184347,0.0
1590504940.603207,0.09649792231255647,-4.517004155374887,8.765485456187895,0.5521705911873933,0.2577777777777778,-0.6570511693265081,0.10943992773261066,-0.04693992773261066,-0.08122402890695574
1590504940.613207,0.02244426122505068,-4.570936651894603,8.867555738774948,0.5455555555555556,0.2577777777777778,-0.6644444444444444,-0.13849239066955235,0.0625,-0.125
1590504940.623207,-0.02175630923832363,-4.5409440066994025,8.674588329336531,0.5455555555555556,0.2577777777777778,-0.6644444444444444,-0.09796924365269688,0.404569201781432,-0.010976932739522674
1590504940.633207,-0.01,-4.517889229142341,8.649446145711705,0.5455555555555556,0.2577777777777778,-0.6644444444444444,0.043576920534907804,0.7557307616047234,-0.06823076160472341
1590504940.643207,-0.01,-4.533810553340991,8.725242213363963,0.5455555555555556,0.2577777777777778,-0.6644444444444444,0.014868083237619081,0.6696042497128573,-0.053552124856428615
1590504940.653207,-0.01,-4.539478143368691,8.747912573474766,0.5455555555555556,0.2577777777777778,-0.6644444444444444,-0.0559767921086413,0.45706962367407605,0.05271518816296197
1590504940.663207,0.04120736492604891,-4.551723513431935,8.732612938927458,0.5522222222222222,0.26222222222222225,-0.6711111111111111,-0.08925696750176071,-0.3688940034208673,-0.10290899486869906
1590504940.673207,0.1054957507082153,-4.503796033994334,8.487450424929179,0.5522222222222222,0.26222222222222225,-0.6711111111111111,0.28523371104815864,-0.40669263456090654,0.0
1590504940.683207,0.09806910423101789,-4.539475612384168,8.529654478844911,0.5522222222222222,0.26222222222222225,-0.6711111111111111,-0.17543190144386178,-0.44517276057754473,-0.03508638028877236
1590504940.693207,0.07944166195700894,-4.488411903416289,8.535880965837118,0.5522222222222222,0.26222222222222225,-0.6711111111111111,0.15826642371328903,-0.5362128018240991,-0.02628719817590084
1590504940.703207,0.030618539037066652,-4.503257753155521,8.66651550631104,0.5599748066073955,0.2604994256921837,-0.6741260050386785,0.20927808555599975,-0.41713904277799985,-0.024226826203666684
1590504940.713207,-0.007450845907636032,-4.536274577046182,8.747450845907636,0.5722222222222222,0.2577777777777778,-0.6788888888888889,-0.2267161065386374,-0.1409322130772748,-0.0857838934613626
1590504940.723207,8.95814276251454e-05,-4.53,8.707767088288175,0.5722222222222222,0.2577777777777778,-0.6788888888888889,-0.13727604643093713,0.06305988392265716,-0.125
1590504940.733207,0.03,-4.53,8.62145109178058,0.5722222222222222,0.2577777777777778,-0.6788888888888889,-0.07140511272856381,0.30343067637138293,-0.10718977454287236
1590504940.743207,0.046221711618068095,-4.539733026970841,8.608932107883364,0.5722222222222222,0.2577777777777778,-0.6788888888888889,-0.1452771395225851,0.6047228604774149,0.0
1590504940.753207,0.07823664974253718,-4.551183248712686,8.684709949227612,0.5686955217072965,0.2585614890033168,-0.6800644557271974,-0.15443718267257212,0.5625,-0.044083756436570525
1590504940.763207,0.04632160596026491,-4.517892798013245,8.671839197019867,0.5522222222222222,0.26222222222222225,-0.6855555555555556,-0.024664993791390727,0.4638400248344371,-0.12667503104304634
1590504940.773207,-0.0033049129918233267,-4.525565029002726,8.672260116010902,0.5522222222222222,0.26222222222222225,-0.6855555555555556,-0.007062862534069472,0.09075145013627789,0.007062862534069472
1590504940.783207,-0.02,-4.51445833688336,8.677708315583198,0.5522222222222222,0.26222222222222225,-0.6855555555555556,0.0625,-0.1875,-0.027864605521001964
1590504940.793207,-0.007336828783221842,-4.518442114144519,8.725326342433556,0.5522222222222222,0.26222222222222225,-0.6855555555555556,-0.04302642680648466,-0.16111839329837885,-0.026381606701621166
1590504940.803207,0.023794330881775592,-4.53,8.763448582720443,0.5549044532270119,0.26490445322701195,-0.6805742694038033,-0.20905364200277438,-0.08189271599445128,-0.0625
1590504940.813207,0.05991528156421306,-4.534957640782107,8.735296514525254,0.56,0.27,-0.6711111111111111,-0.2809852548881658,0.030985254888165805,-0.0005294902236683899
1590504940.823207,0.08042580536417841,-4.5295741946358214,8.63223226513284,0.56,0.27,-0.6711111111111111,-0.3450806417630575,0.19282256705223016,0.02991935823694246
1590504940.833207,0.0719342105263158,-4.529032894736842,8.579032894736843,0.56,0.27,-0.6711111111111111,-0.4879111842105263,0.45363898026315785,0.11291118421052632
1590504940.843207,0.018878201777313124,-4.543890224777836,8.613341348667015,0.56,0.27,-0.6711111111111111,-0.7465695243073707,0.819511238891793,0.1770582854155776
1590504940.8532069,-0.03755956507100275,-4.5474801449763325,8.65,0.556360209410258,0.2669201771932952,-0.6657914171722573,-0.8430054366124656,1.0620036244083104,0.0467509061020776
1590504940.8632069,-0.05031547204824867,-4.543228175983917,8.65,0.5455555555555556,0.2577777777777778,-0.65,-0.582676099899482,0.8245597502512951,0.020176099899481947
1590504940.8732069,0.013669006479481643,-4.566834503239741,8.660251754859612,0.5455555555555556,0.2577777777777778,-0.65,-0.5379952416306695,0.5411421773758099,0.039568709503239735
1590504940.8832068,0.045717239495962236,-4.571995864705653,8.673139312604844,0.5455555555555556,0.2577777777777778,-0.65,-0.22141380252018883,0.4785603518901416,-0.11785345063004721
1590504940.8932068,0.07798388775552687,-4.534032224488946,8.700107414963155,0.5455555555555556,0.2577777777777778,-0.65,-0.07510070152795703,0.18733216412007161,-0.13760070152795703
1590504940.9032068,0.031425288784001984,-4.553671593590859,8.81183579679543,0.5514519245366345,0.2577777777777778,-0.655896368981079,-0.21301313501428393,-0.051026270028567876,-0.07140805490001242
1590504940.9132068,-0.017957785659642532,-4.5419366784894635,8.768168857361431,0.56,0.2577777777777778,-0.6644444444444444,-0.17539575944085123,-0.05039575944085124,0.08802767925446832
1590504940.9232068,-0.027151649721475594,-4.554303299442951,8.697213197771806,0.56,0.2577777777777778,-0.6644444444444444,-0.0625,-0.008708756963110131,-0.04469781075922247
1590504940.9332068,-0.02,-4.54,8.63607600412632,0.56,0.2577777777777778,-0.6644444444444444,-0.037975025789491204,-0.1629750257894912,0.0
1590504940.9432068,-0.0156702758785815,-4.5529891723642555,8.64154593099045,0.56,0.2577777777777778,-0.6644444444444444,-0.018040517172577084,-0.16108103434515417,-0.04510129293144271
1590504940.9532068,0.016708513411538724,-4.598693604079486,8.65856806384487,0.5609938538387466,0.2577777777777778,-0.6659352252025641,-0.06909572157051061,-0.45885641764423407,-0.29852393039262765
1590504940.9632068,0.06123249193395332,-4.496066426266844,8.52549819700133,0.5644444444444444,0.2577777777777778,-0.6711111111111111,0.3145758208388688,-0.6741696716644525,-0.19312725374833933
1590504940.9732068,0.07707439631507933,-4.531950402456614,8.651950402456615,0.5644444444444444,0.2577777777777778,-0.6711111111111111,0.40702496161540963,-0.19132246545386872,-0.02820249616154097
1590504940.9832067,0.028318026638457474,-4.544579506659614,8.675420493340386,0.5644444444444444,0.2577777777777778,-0.6711111111111111,-0.010512333509640814,0.0963780833774102,-0.033878083377410204
1590504940.9932067,-0.002784312995570115,-4.54852287533038,8.73539868964747,0.5644444444444444,0.2577777777777778,-0.6711111111111111,-0.125,0.23153594162975097,-0.0625
1590504941.0032067,-0.02700763069937567,-4.5529923693006245,8.792480923251562,0.5578261265617007,0.2620602187607296,-0.6761721777273269,-0.10310115406445103,0.4625953837421959,-0.0625
1590504941.0132067,-0.012106914128872045,-4.54,8.741404609419249,0.5455555555555556,0.27,-0.6855555555555556,-0.03344470221757505,0.5087788088703001,-0.0625
1590504941.0232067,0.03125919206971395,-4.537185201982572,8.677778029738572,0.5455555555555556,0.27,-0.6855555555555556,-0.05277746282678415,0.375,-0.0273150247821439
1590504941.0332067,0.05843402766529528,-4.530391493083677,8.575872396255143,0.5455555555555556,0.27,-0.6855555555555556,-0.1801595046810716,0.375,0.05760633645404774
1590504941.0432067,0.045627207124213115,-4.5321863964378934,8.625627207124214,0.5455555555555556,0.27,-0.6855555555555556,-0.08982995547366805,-0.02732995547366805,0.048835022263165974
1590504941.0532067,0.03131634167562311,-4.539341829162188,8.611316341675623,0.5455555555555556,0.27,-0.6855555555555556,-0.17927286452735552,-0.11677286452735554,0.004113567736322231
1590504941.0632067,-0.007521527371907267,-4.5450430547438145,8.692478472628093,0.56,0.25,-0.6644444444444444,0.047009546074420414,-0.23397136177673875,-0.047009546074420414
1590504941.0732067,0.0,-4.53,8.690835394339103,0.56,0.25,-0.6644444444444444,0.0490961017547992,-0.375,-0.016365367251599733
1590504941.0832067,0.013604671131719044,-4.536802335565859,8.653808174480508,0.56,0.25,-0.6644444444444444,0.332485402713378,-0.31122810407006696,-0.10374270135668899
1590504941.0932066,0.041982474430137216,-4.550991237215069,8.707929897720549,0.56,0.25,-0.6644444444444444,0.22521906962328478,-0.13174290665239075,-0.056304767405821195
1590504941.1032066,0.05787478950397544,-4.5557495790079505,8.773624368511927,0.56,0.251652941496908,-0.6675141929387021,0.013282565600153475,0.4281302624006139,-0.013282565600153475
1590504941.1132066,0.04505668336409175,-4.5432955444239385,8.736817822304245,0.56,0.2577777777777778,-0.6788888888888889,0.03160427102557342,0.6352985763248089,-0.0625
1590504941.1232066,0.011513586748127509,-4.551513586748127,8.644540760244382,0.56,0.2577777777777778,-0.6788888888888889,-0.09847995858789846,0.6609799585878985,-0.0625
1590504941.1332066,0.0043351040085706635,-4.5269946879742875,8.618670208017141,0.56,0.2577777777777778,-0.6788888888888889,-0.14378320016069995,0.5437167998393001,-0.0625
1590504941.1432066,0.019290054783763062,-4.503806630144158,8.614516575360396,0.56,0.2577777777777778,-0.6788888888888889,-0.36612568479703833,0.37943715760148083,-0.0625
1590504941.1532066,0.036139595664539934,-4.50158121300638,8.60316242601276,0.5557106618494889,0.25863564540788003,-0.6761008190910566,-0.8059564532246906,0.4068289261280652,-0.03837247290337459
1590504941.1632066,-0.028111994120079014,-4.578867196472047,8.76735679176811,0.5377777777777778,0.26222222222222225,-0.6644444444444444,-2.193969922826037,1.4233399559005926,0.2128499816252469
1590504941.1732066,-0.0381658780294478,-4.596055292676483,8.756331756058895,0.5377777777777778,0.26222222222222225,-0.6644444444444444,-2.526382316912065,1.4929337905027262,0.5202573679533062
1590504941.1832066,0.006933562071116657,-4.558534934497817,8.638534934497816,0.5377777777777778,0.26222222222222225,-0.6644444444444444,-1.6075385995009357,0.741695258889582,0.515012866500312
1590504941.1932065,0.00039223331253898826,-4.512745633187773,8.592745633187773,0.5377777777777778,0.26222222222222225,-0.6644444444444444,-0.5036893714909545,-0.07597083593262632,0.14706312383031817
1590504941.2032065,0.0,-4.53047427819705,8.658247593990168,0.5377777777777778,0.26222222222222225,-0.6644444444444444,-0.5228094924877102,0.04561898497542061,0.2529642387315655
1590504941.2132065,-0.026897534288210935,-4.495170776186315,8.62723908666084,0.5616866971450764,0.25126396751221036,-0.645516549945333,-0.8987191786026367,0.23707305953421223,0.4245730595342122
1590504941.2232065,-0.16651343655028836,-4.324172868458207,8.549828423747876,0.5644444444444444,0.25,-0.6433333333333333,-1.472675225537821,0.6633922802651415,0.7083906650075379
1590504941.2332065,-0.5834826304047593,-3.577081058111123,8.632359077871028,0.5644444444444444,0.25,-0.6433333333333333,-3.259121693402741,0.7689671199405078,2.037910336768299
1590504941.2432065,-0.688141042642855,-3.077602923407892,8.729657560486842,0.5644444444444444,0.25,-0.6433333333333333,-4.818920740871718,-0.5661689947838388,4.336348466094952
1590504941.2532065,-0.2706915808354444,-2.573369514968842,8.714427041920153,0.5637725056553067,0.2540316327348262,-0.6475329507654439,-6.5691095434457,-0.6699585328870726,10.113515643780396
1590504941.2632065,-0.06903881358752934,-2.488054882671647,8.993638565801882,0.560325449804915,0.27471396783717655,-0.6690770498303922,-8.847398019563972,2.6262886240500007,14.863989487601472
1590504941.2732065,-0.06626508980272844,-2.799276916282265,8.935782216115419,0.56,0.2766666666666667,-0.6711111111111111,-5.837336833840416,-0.43147941407400137,18.52108738590637
1590504941.2832065,-0.10169521390997902,-2.738926951879972,8.408755668420097,0.56,0.2766666666666667,-0.6711111111111111,1.4689467751548289,-1.904305731906403,23.282178811121764
1590504941.2932065,-0.14988707128030318,-2.8822793319494964,8.503542305421721,0.56,0.2766666666666667,-0.6711111111111111,1.7555167012625925,-2.22234388985165,32.40079816609853
1590504941.3032064,-0.18174440493620583,-3.0770466429617236,8.975440284459319,0.5610439471054406,0.273273838573985,-0.6661523623602686,-2.9081389876594854,-3.701749111064631,41.08085390085756
1590504941.3132064,-0.22,-3.1,8.7,0.5644444444444444,0.26222222222222225,-0.65,-2.8125,-4.5625,48.0625
1590504941.3232064,-0.22715783890643457,-3.1322102750789558,8.7,0.5644444444444444,0.26222222222222225,-0.65,-2.4098715615130546,-4.786182465826081,53.85587586489549
1590504941.3332064,-0.26160101592079577,-3.2116010159207957,8.72880135456106,0.5644444444444444,0.26222222222222225,-0.65,-1.8675084660066317,-5.457512699009947,66.59011005808621
1590504941.3432064,-0.3059751323502566,-3.2679253970507696,8.803900529401025,0.5644444444444444,0.26222222222222225,-0.65,-2.056793979838137,-5.9375,72.61722885945518
1590504941.3532064,-0.3246327411380206,-3.3146327411380208,8.856911505907986,0.5678761045466819,0.25947689414043223,-0.6544611581329087,-1.7789546321126288,-6.005060808262801,77.88794205145395
1590504941.3632064,-0.3507997775587068,-3.340799777558707,8.834801445868406,0.5866666666666667,0.24444444444444444,-0.6788888888888889,-1.9325013902580825,-6.379998609741918,82.96244091403149
1590504941.3732064,-0.36907771056305255,-3.36,8.698010237319684,0.5866666666666667,0.24444444444444444,-0.6788888888888889,-1.8297929269427642,-6.580700325732899,88.54093764541648
1590504941.3832064,-0.3635510147489558,-3.362536439106397,8.583551014748956,0.5866666666666667,0.24444444444444444,-0.6788888888888889,-2.0063410977659926,-7.403534939946966,93.4941322639907
1590504941.3932064,-0.41443595209622347,-3.398882822925874,8.634435952096224,0.5866666666666667,0.24444444444444444,-0.6788888888888889,-2.097207057314685,-7.812431757916082,96.99247170661536
1590504941.4032063,-0.4960495910684149,-3.406654550175256,8.844555368038426,0.5878093672018117,0.24316730855222352,-0.6784183651391232,-3.2235330390756847,-9.19128099441776,103.10741756458523
1590504941.4132063,-0.587379353459576,-3.5257238792425434,8.762620646540423,0.6055555555555555,0.22333333333333333,-0.6711111111111111,-2.7633628773670518,-9.233620959122351,109.03058135196724
1590504941.4232063,-0.5827653746770025,-3.5644692506459945,8.752025064599483,0.6055555555555555,0.22333333333333333,-0.6711111111111111,-2.6336417958656333,-9.239350775193799,113.52112726098191
1590504941.4332063,-0.6084509673771419,-3.525774516311429,8.64,0.6055555555555555,0.22333333333333333,-0.6711111111111111,-2.7139092730535683,-9.628523182633922,118.91464310298203
1590504941.4432063,-0.6515327418249871,-3.51988520727856,8.646590138185708,0.6055555555555555,0.22333333333333333,-0.6711111111111111,-2.781608727254499,-9.885297090915167,123.24210800040102
1590504941.4532063,-0.7005913412535298,-3.5619354353601684,8.674623623573446,0.6055555555555555,0.22333333333333333,-0.6711111111111111,-2.6502017644994735,-9.929099411833509,126.13306118101158
1590504941.4632063,-0.7661135135135135,-3.5961135135135134,8.710945945945946,0.6133333333333333,0.18444444444444444,-0.6711111111111111,-2.4931756756756758,-9.91793918918919,131.1762162162162
1590504941.4732063,-0.803380024360536,-3.608292478684531,8.85480739951279,0.6133333333333333,0.18444444444444444,-0.6711111111111111,-3.656140567904994,-11.093859432095005,134.63742292174177
1590504941.4832063,-0.879066838876332,-3.570400387471747,8.604933806909912,0.6133333333333333,0.18444444444444444,-0.6711111111111111,-3.3724975783015823,-11.235833064255731,138.29334840167905
1590504941.4932063,-0.9185364505173367,-3.6421341126293343,8.707072901034673,0.6133333333333333,0.18444444444444444,-0.6711111111111111,-3.070882039333386,-11.334220243266724,141.57354276913355
1590504941.5032063,-0.9508451325658818,-3.6478871685852954,8.77,0.6135211405701959,0.18134562503621104,-0.6717214846309146,-3.5492948036580962,-11.869717921463238,143.79050053146685
1590504941.5132062,-0.9676687657935903,-3.6058280855160243,8.77,0.6172597257319089,0.11965896986794664,-0.6838718864064819,-3.2864255344751516,-11.76457021379006,145.8408808310938
1590504941.5232062,-1.070841290187564,-3.6106309676406725,8.738107097077982,0.6177777777777778,0.1111111111111111,-0.6855555555555556,-3.1263145159180685,-12.006572579590342,148.5289193501975
1590504941.5332062,-1.1121294304244729,-3.6385803797170184,8.65070981014149,0.6177777777777778,0.1111111111111111,-0.6855555555555556,-3.191936313384318,-12.277009492925455,149.91936313384318
1590504941.5432062,-1.1318893198699729,-3.625407120086685,8.657296439956658,0.6177777777777778,0.1111111111111111,-0.6855555555555556,-3.23310274972911,-11.94767800216712,150.3310274972911
1590504941.5532062,-1.14,-3.501396524369996,8.723863409954618,0.6177777777777778,0.1111111111111111,-0.6855555555555556,-3.25,-11.983562705235583,150.84212541047117
1590504941.5632062,-1.1473655479573537,-3.437365547957354,8.76,0.6377777777777778,0.057777777777777775,-0.7,-2.5532930650533077,-11.82896532526654,150.17244743117277
1590504941.5732062,-1.1886944011981948,-3.4786944011981946,8.76,0.6377777777777778,0.057777777777777775,-0.7,-2.5016319985022566,-11.570659992511283,149.03590396704965
1590504941.5832062,-1.2459461524745918,-3.4005415318780408,8.882433836827225,0.6377777777777778,0.057777777777777775,-0.7,-2.9341249777121168,-11.518586502458035,146.1469710766958
1590504941.5932062,-1.2114304083541148,-3.1925734491895263,8.566570877493765,0.6377777777777778,0.057777777777777775,-0.7,-2.0088998694669575,-10.141043874688279,143.24816377026184
1590504941.6032062,-1.2931460411471323,-3.2824606452618452,8.54205618765586,0.6377777777777778,0.057777777777777775,-0.7,-0.7320931070760597,-8.915309382793017,141.00098386845386
1590504941.6132061,-1.415523273874728,-3.3465698216241844,8.913875872668116,0.6555555555555556,0.0011111111111111113,-0.7233333333333334,-4.875,-12.3125,131.875
1590504941.6232061,-1.3949505419943429,-3.284851625983029,9.023597109363505,0.6555555555555556,0.0011111111111111113,-0.7233333333333334,-4.875,-12.3125,131.875
1590504941.6332061,-1.5476519789078127,-3.2374772208416673,8.60939208436875,0.6555555555555556,0.0011111111111111113,-0.7233333333333334,-2.0342419742610662,-10.517382366608077,127.72331025112634
1590504941.6432061,-1.5222304382083762,-3.1018956704446734,8.711078247166496,0.6555555555555556,0.0011111111111111113,-0.7233333333333334,-2.4049727761278463,-9.352228417883913,119.99092495504777
1590504941.653206,-1.5681235064771728,-3.147748207772607,8.768123506477172,0.6555555555555556,0.0011111111111111113,-0.7233333333333334,-2.798426298578795,-9.069536850710602,114.25953181989686
1590504941.663206,-1.57,-2.984774867851994,8.828314752522825,0.6350374018901169,-0.06152325270970153,-0.7503309039457525,-2.44803279673234,-9.001755466122058,108.65623648486304
1590504941.673206,-1.6922544940733182,-3.066618258890023,8.800982023706728,0.6344444444444445,-0.06333333333333334,-0.7511111111111111,-2.3714773530104405,-7.271135881937358,102.18909941910668
1590504941.683206,-1.7435272615730681,-3.013006058127348,8.659018174382046,0.6344444444444445,-0.06333333333333334,-0.7511111111111111,-2.331287863295928,-7.559242478464252,94.93234931366786
1590504941.693206,-1.8355990200569643,-3.028266775549226,8.729065468958513,0.6344444444444445,-0.06333333333333334,-0.7511111111111111,-2.253344902105284,-6.992512249287948,88.03674288445835
1590504941.703206,-1.9097443753829992,-3.0196165630744987,8.818849689223496,0.6342598266654995,-0.06400079761105762,-0.751295728890056,-1.3726035192156176,-6.054511730718725,82.16532434561849
1590504941.713206,-1.9060904492710502,-2.99321808985421,8.750917584052365,0.62,-0.11555555555555555,-0.7655555555555555,-1.257895715560845,-5.40733040761678,74.48861202023207
1590504941.723206,-1.9892859268074978,-3.0098571853614993,8.859071704849747,0.62,-0.11555555555555555,-0.7655555555555555,-1.6218759297828027,-5.251338887235942,68.61293141922047
1590504941.733206,-2.0015053126190576,-2.92,8.712257968928588,0.62,-0.11555555555555555,-0.7655555555555555,-0.9811835922617788,-4.501346674850781,61.49666109300258
1590504941.743206,-2.019260466494518,-2.92,8.738890699741777,0.62,-0.11555555555555555,-0.7655555555555555,-0.7592441688185243,-3.780043548660204,55.55978151589552
1590504941.753206,-2.0023736543226116,-2.8494946172904467,8.819318555548247,0.62,-0.11555555555555555,-0.7655555555555555,-1.1906586419347058,-3.75,49.308526003639635
1590504941.763206,-2.0876112346181546,-2.8509514043272692,8.856194382690923,0.6111111111111112,-0.14222222222222222,-0.7733333333333333,-1.1696611688637004,-2.907768614772834,41.79821112659298
1590504941.773206,-2.1401434073331873,-2.8575179259166483,8.829928296333406,0.6111111111111112,-0.14222222222222222,-0.7733333333333333,-1.0465388890628424,-2.7025648151047372,37.8172574130319
1590504941.783206,-2.0924006914682898,-2.7897817553210644,8.79759930853171,0.6111111111111112,-0.14222222222222222,-0.7733333333333333,-0.8531755321064574,-2.0379474736197642,30.50360139734217
1590504941.793206,-2.175480066265711,-2.782229084884935,8.71451993373429,0.6111111111111112,-0.14222222222222222,-0.7733333333333333,-0.09790848849353562,-1.1882720495552275,26.302428467245292
1590504941.803206,-2.2881550555706154,-2.852126863648685,8.96247926267281,0.6111111111111112,-0.14222222222222222,-0.7733333333333333,-1.5279072919490377,-2.0895262943887234,19.953513824884794
1590504941.813206,-2.3026454779154006,-2.8405819116616033,8.971163823323206,0.5898647139778245,-0.14058788398120017,-0.797848406948664,-0.9722189763963544,-1.133924398223884,14.918307431642907
1590504941.823206,-2.1960205878369226,-2.6986008397670322,8.656880671813626,0.5822222222222222,-0.14,-0.8066666666666666,0.6673608289313288,-0.17674895029120954,8.82870276310443
1590504941.833206,-2.264396179054525,-2.7927053409566307,8.731690838097895,0.5822222222222222,-0.14,-0.8066666666666666,-0.8390696904197462,-0.028683238042114076,3.541665214056617
1590504941.843206,-2.389388459641624,-2.870305770179188,8.78175817853033,0.5822222222222222,-0.14,-0.8066666666666666,0.19132212723984876,0.9470553180996218,-0.6632212723984876
1590504941.853206,-2.3204372842347527,-2.904781357882624,8.979992807825086,0.5822222222222222,-0.14,-0.8066666666666666,0.6222669735327964,2.024417433831991,-4.972669735327964
1590504941.863206,-2.175482760034439,-2.7080640400147593,8.489034479931123,0.5877777777777777,-0.17222222222222222,-0.8355555555555556,1.2176725021524333,1.9072045016604484,-11.623090996679103
1590504941.873206,-2.115296420810955,-2.6822698946332664,8.60940715837809,0.5877777777777777,-0.17222222222222222,-0.8355555555555556,-2.5439736993153215,-0.9946368537575334,-17.426773707515068
1590504941.883206,-2.2063235294117645,-2.8148529411764702,8.870441176470589,0.5877777777777777,-0.17222222222222222,-0.8355555555555556,-1.0087316176470589,2.602941176470588,-22.512867647058822
1590504941.893206,-2.233862189563031,-2.804091873624646,8.63342404118202,0.5877777777777777,-0.17222222222222222,-0.8355555555555556,1.1504415867651683,4.042535267997485,-26.366254224300533
1590504941.9032059,-2.2187347406757945,-2.7840510555068456,8.617846833479463,0.5877777777777777,-0.17222222222222222,-0.8355555555555556,0.6242370337897081,3.577552775342281,-30.60196980171309
1590504941.9132059,-2.2542951448040887,-2.8423935264054516,8.810819846678024,0.5663278440280143,-0.18361749952678402,-0.8355555555555556,-0.5387297700170358,3.3274595400340714,-36.62951181856899
1590504941.9232059,-2.1290536392867585,-2.782702426191172,8.766936568254897,0.5522222222222222,-0.19111111111111112,-0.8355555555555556,0.4674391625255774,3.8485366121017246,-41.40719544723765
1590504941.9332058,-2.0660886066145148,-2.794495778793277,8.585504221206723,0.5522222222222222,-0.19111111111111112,-0.8355555555555556,0.2898206955309426,5.392259991480133,-46.898681356982415
1590504941.9432058,-2.1781884589783416,-2.881367786861463,8.71341946715366,0.5522222222222222,-0.19111111111111112,-0.8355555555555556,-0.038354866788414606,5.8125,-50.91496987591951
1590504941.9532058,-2.2747366148531953,-2.98947322970639,8.782210708117443,0.5522222222222222,-0.19111111111111112,-0.8355555555555556,0.24144537996545767,6.159866148531952,-55.65919149395509
1590504941.9632058,-2.188347258089017,-2.952231505392678,8.77,0.5493985349469171,-0.2202892129559303,-0.8054362246189681,0.9044413641197022,6.577220682059851,-60.22003645754215
1590504941.9732058,-2.115471941681221,-2.94,9.015376262434504,0.5488888888888889,-0.2255555555555556,-0.8,1.1136001214974562,7.363400789733465,-64.44770388791859
1590504941.9832058,-2.0645820697498105,-2.949083586050038,8.52223559514784,0.5488888888888889,-0.2255555555555556,-0.8,1.7494965409401062,6.813003459059894,-68.16207235595148
1590504941.9932058,-2.119714562040934,-3.0594766970750453,8.828287372245603,0.5488888888888889,-0.2255555555555556,-0.8,-2.35507880910683,7.994053375852785,-72.97859215307003
1590504942.0032058,-2.1501774036203347,-3.1128104563355854,8.89035480724067,0.5488888888888889,-0.2255555555555556,-0.8,-0.8189776258264985,6.915499557394226,-75.82913158940637
1590504942.0132058,-2.075063249001331,-3.073375499334221,8.759001331557922,0.5677637224441485,-0.21821534250628788,-0.7790279627163782,1.1620963715046604,8.03709637150466,-79.34528961384821
1590504942.0232058,-1.9879180261011418,-3.1684983686786294,8.766416394779771,0.5688888888888889,-0.21777777777777774,-0.7777777777777778,0.12137285889070148,7.304180261011419,-82.62937525489396
1590504942.0332057,-1.95255131038838,-3.15510262077676,8.76127565519419,0.5688888888888889,-0.21777777777777774,-0.7777777777777778,-0.3431086201452479,6.252565519419009,-86.42054783706978
1590504942.0432057,-1.9319405564616245,-3.204178330615126,8.705821669384873,0.5688888888888889,-0.21777777777777774,-0.7777777777777778,0.7537152211484628,7.648765548550425,-89.24530196441177
1590504942.0532057,-1.975190491308834,-3.322976228272085,8.782849234066196,0.5688888888888889,-0.21777777777777774,-0.7777777777777778,1.204513999126915,7.765426571553298,-91.6183042801016
1590504942.0632057,-1.976066916955916,-3.3739330830440837,8.621903378904866,0.5967550549770568,-0.18604131084403097,-0.797903342174788,2.096235921229723,8.185408845127624,-94.22829891856155
1590504942.0732057,-1.8571769115719112,-3.288667023653452,8.6850582565504,0.6088888888888889,-0.17222222222222222,-0.8066666666666666,1.6651990970696309,7.266916095795557,-96.80857160662518
1590504942.0832057,-1.7800609997623387,-3.35042699833637,8.763191000554544,0.6088888888888889,-0.17222222222222222,-0.8066666666666666,0.8328250019805118,6.855818743563336,-99.90066248118514
1590504942.0932057,-1.4702989220807168,-3.1602989220807167,8.83716024023319,0.6088888888888889,-0.17222222222222222,-0.8066666666666666,3.56810478901344,9.5648353287556,-102.38410778214684
1590504942.1032057,-1.53594127198388,-3.2259412719838805,8.213557916153139,0.6088888888888889,-0.17222222222222222,-0.8066666666666666,4.7988988496977525,10.077666187374064,-104.38414813075885
1590504942.1132057,-1.48,-3.31,8.81,0.5777777777777777,-0.1988888888888889,-0.7855555555555556,-1.125,4.5,-109.5
1590504942.1232057,-1.4369668246445497,-3.263380726698262,8.874549763033176,0.5777777777777777,-0.1988888888888889,-0.7855555555555556,-1.147413112164297,5.598242496050553,-110.10515402843602
1590504942.1332057,-1.3933594144926262,-3.235599024154377,8.745364293720742,0.5777777777777777,-0.1988888888888889,-0.7855555555555556,0.5499695048242821,8.465984142508626,-111.70874085144729
1590504942.1432056,-1.4775691778101416,-3.4455113862041573,8.722707533430425,0.5777777777777777,-0.1988888888888889,-0.7855555555555556,1.667644479014961,9.232475920164173,-113.02451840328347
1590504942.1532056,-1.459649370554704,-3.463884994919662,8.709298741109407,0.5777777777777777,-0.1988888888888889,-0.7855555555555556,2.174964911223242,8.673562436495772,-114.1315743020993
1590504942.1632056,-1.2472541063555849,-3.3149377706683314,8.886892825094613,0.5619849227714703,-0.1635429753033436,-0.735920868392875,2.0750702274589363,9.77288244703679,-114.85670916078186
1590504942.1732056,-1.2216985743380855,-3.410818737270876,8.602386965376782,0.5544444444444444,-0.14666666666666667,-0.7122222222222222,3.3978105906313645,10.028691446028514,-115.62303971486762
1590504942.1832056,-1.2335889656026502,-3.471794482801325,8.575904826774822,0.5544444444444444,-0.14666666666666667,-0.7122222222222222,1.7659138053809715,8.427818972723614,-117.16832757980123
1590504942.1932056,-1.2550123399838542,-3.5700493599354166,8.835111059854688,0.5544444444444444,-0.14666666666666667,-0.7122222222222222,1.3542180832660593,8.17710904163303,-117.85437233306423
1590504942.2032056,-1.2141240176979462,-3.6358759823020534,8.826478020647604,0.5544444444444444,-0.14666666666666667,-0.7122222222222222,2.1395997050342292,8.90431222346959,-117.84192503687072
1590504942.2132056,-1.2090346362900428,-3.5235150919394007,9.379182086272696,0.5735175655012015,-0.038251031186153195,-0.6871260103054366,2.8267318145021396,7.769804556493582,-117.8125
1590504942.2232056,-1.0555575241469966,-3.4162313539463907,8.529892553009088,0.5755555555555556,-0.02666666666666667,-0.6844444444444444,5.081321083614334,6.659734525918729,-117.22644596216495
1590504942.2332056,-0.9616421935870543,-3.3281341774048547,8.062913919688343,0.5755555555555556,-0.02666666666666667,-0.6844444444444444,3.3894146126760565,11.387663413994606,-115.56341774048546
1590504942.2432055,-0.9292047589229806,-3.544306199123356,8.261852849092048,0.5755555555555556,-0.02666666666666667,-0.6844444444444444,2.2537531308703818,8.097190043832185,-114.86093456480901
1590504942.2532055,-1.038037227889368,-3.8259480492165316,9.42258786412872,0.5755555555555556,-0.02666666666666667,-0.6844444444444444,-0.5628733305289728,5.077137448732779,-114.65427489746556
1590504942.2632055,-0.7122236080178175,-3.182387527839644,8.57314832962138,0.5805389755011137,0.04509458054936896,-0.6844444444444444,6.653084632516704,10.942728285077951,-110.463429844098
1590504942.2732055,-0.7679485329995546,-3.622392175997624,8.846281265248106,0.5811111111111111,0.05333333333333334,-0.6844444444444444,2.472499045335936,8.309034039077583,-109.43883652969005
1590504942.2832055,-0.8712807898960296,-3.786446165654874,9.09095003837834,0.5811111111111111,0.05333333333333334,-0.6844444444444444,-1.0098082827437023,5.56676631951713,-108.6956368623962
1590504942.2932055,-0.830142951779924,-3.7014197552386596,8.788089676092186,0.5811111111111111,0.05333333333333334,-0.6844444444444444,1.3691925839405883,6.699439524423835,-105.44152051881036
1590504942.3032055,-0.7235826947584449,-3.6661023485212096,8.648307045563628,0.5811111111111111,0.05333333333333334,-0.6844444444444444,3.2000494447294816,8.0888288012446,-102.20275649194816
1590504942.3132055,-0.7115496227510156,-3.7473244341265235,8.718450377248985,0.5846166247501129,0.09598374927452119,-0.676849164893274,2.5921358096343585,7.345944573418456,-99.008197910621
1590504942.3232055,-0.6453393068404414,-3.7012556001629138,8.772828106514613,0.5877777777777777,0.13444444444444445,-0.67,2.303662167141832,6.590639000407284,-94.77516800488742
1590504942.3332055,-0.6462112470677741,-3.6929689976542193,8.743925378811893,0.5877777777777777,0.13444444444444445,-0.67,3.200932764851328,6.561646088252076,-89.130353293603
1590504942.3432055,-0.6949188106535683,-3.8766475118624673,8.78951286392141,0.5877777777777777,0.13444444444444445,-0.67,3.1905446004911897,7.4175618159708145,-82.66523552063711
1590504942.3532054,-0.6029568669616642,-3.7812005293412185,8.729426409164219,0.5877777777777777,0.13444444444444445,-0.67,2.9595653612340267,5.58489878416939,-77.68805570489226
1590504942.3632054,-0.5851078547631148,-3.9246902704839344,8.651913716189508,0.5838769050263205,0.17111264830814213,-0.6801422691537887,2.674191089276639,5.5346204613473375,-71.81898152069569
1590504942.3732054,-0.5746552781993736,-3.954103723318371,8.847826718765138,0.5822222222222222,0.18666666666666668,-0.6844444444444444,2.7209045112539156,5.08125383472729,-67.84397503794362
1590504942.3832054,-0.4707391102873031,-3.742801204819277,8.876380908248379,0.5822222222222222,0.18666666666666668,-0.6844444444444444,2.875,4.281858202038925,-64.02091056533827
1590504942.3932054,-0.3325164170413742,-3.5598686636690067,8.649868663669006,0.5822222222222222,0.18666666666666668,-0.6844444444444444,3.0153171804742342,4.577817180474234,-58.568656390515315
1590504942.4032054,-0.34410569777043765,-3.5729471511147812,9.08611808422791,0.5822222222222222,0.18666666666666668,-0.6844444444444444,2.401295417010735,5.065803055326176,-55.024261973575555
1590504942.4132054,-0.3580883470736128,-3.739855288545869,8.677639010699876,0.5741338751486094,0.2351967491083436,-0.672761276449226,4.5009519528737645,3.4301219084371164,-51.409891539495995
1590504942.4232054,-0.3362585779109015,-3.882879495719427,9.093966515412298,0.5722222222222222,0.2466666666666667,-0.67,-1.9610040346916424,4.335454992511791,-47.69643835080582
1590504942.4332054,-0.3361812874365001,-3.977994161801501,8.974204640230495,0.5722222222222222,0.2466666666666667,-0.67,-1.6104163507468345,3.489875559178103,-45.020613769049966
1590504942.4432054,-0.30609370625019444,-3.864031048750894,8.579437202501323,0.5722222222222222,0.2466666666666667,-0.67,1.6148461562393057,2.2837884609401735,-42.0101538437607
1590504942.4532053,-0.27085581423529587,-3.804358139323528,8.805023250882321,0.5722222222222222,0.2466666666666667,-0.67,1.6026162922794953,2.212063951286751,-39.86866280919129
1590504942.4632053,-0.2363309221765839,-3.7461869797535527,8.954028570390026,0.5673621056627853,0.2500079968012795,-0.6718225437097889,2.12859856057577,1.0422649122169314,-37.953236887063355
1590504942.4732053,-0.1690023197175996,-3.576569440242057,8.428710640443773,0.5544444444444444,0.2588888888888889,-0.6766666666666666,3.9108799798285427,0.544415027735754,-34.23052697932425
1590504942.4832053,-0.08006237892289811,-3.5156733824099184,8.151533901588532,0.5544444444444444,0.2588888888888889,-0.6766666666666666,1.1596789035257653,4.791146842309183,-29.71041263076327
1590504942.4932053,-0.04,-3.545404036723987,8.479138735062664,0.5544444444444444,0.2588888888888889,-0.6766666666666666,2.0196371320314777,3.980811443456718,-27.7855695314777
1590504942.5032053,-0.030021666001482414,-3.3655741490392836,8.92008666400593,0.5544444444444444,0.2588888888888889,-0.6766666666666666,0.9101092565140545,0.4743696191345004,-27.56195834996294
1590504942.5132053,-0.05401104707970249,-3.4206755867514804,8.739097090669805,0.589535207304455,0.2756244834836631,-0.6912428297008248,-0.11582484197092668,1.1546366826855974,-26.78002178508046
1590504942.5232053,-0.00655765920826161,-3.3984165232358,8.768010327022376,0.6266666666666667,0.2933333333333333,-0.7066666666666667,-1.2942555938037865,0.10520654044750444,-26.45238812392427
1590504942.5332053,-0.07307159215373893,-3.6596435328089214,8.765356965050284,0.6266666666666667,0.2933333333333333,-0.7066666666666667,-1.5370519267151248,-0.7517823359553919,-25.9415164791397
1590504942.5432053,-0.21460672779123607,-4.03451044126215,8.66,0.6266666666666667,0.2933333333333333,-0.7066666666666667,-0.9607743552788937,2.444823065836681,-23.611557449940204
1590504942.5532053,-0.21437082429039533,-3.994370824290395,8.43574471254096,0.6266666666666667,0.2933333333333333,-0.7066666666666667,0.29418672071151963,2.324088259074854,-21.70881473679731
1590504942.5632052,-0.14343384178786805,-4.0688896771904925,8.827176303653777,0.7918757636671792,0.33912498521934487,-0.7282156793189074,2.337131961688542,2.683087974459028,-19.862362539907767
1590504942.5732052,-0.13,-4.09,8.95,0.8311111111111111,0.35,-0.7333333333333333,2.625,2.875,-19.5625
1590504942.5832052,-0.17275041308485495,-3.992563635983351,8.666876032712137,0.8311111111111111,0.35,-0.7333333333333333,-0.23907024534103033,0.3529287193323712,-18.913094005563572
1590504942.5932052,-0.11,-3.8828147100424326,8.528183205538598,0.8311111111111111,0.35,-0.7333333333333333,0.8961745328668205,0.8409351038487307,-17.2845766954515
1590504942.6032052,-0.13625798784726115,-4.252515975694522,8.70315029484966,0.8311111111111111,0.35,-0.7333333333333333,0.3045710105607749,1.140192324940021,-14.566198233144242
1590504942.6132052,-0.12373795878551397,-4.032147299109865,8.79457931959517,1.182931078865721,0.431101356203173,-0.9372289964638458,-0.1875,0.1799132727716133,-11.663535696866235
1590504942.6232052,-0.11397380197955118,-3.8874017574233166,8.767259824257668,1.5155555555555555,0.5077777777777778,-1.13,0.5291348855061575,1.0796260983895731,-7.467385179498906
1590504942.6332052,-0.16267170411612647,-4.081373632929012,8.763358520580633,1.5155555555555555,0.5077777777777778,-1.13,0.9823573275004971,0.6698573275004971,-2.838770133227282
1590504942.6432052,-0.12152248875562219,-3.897612443778111,8.725080209895053,1.5155555555555555,0.5077777777777778,-1.13,-0.05188343328335837,-0.14403110944527742,3.9916838455772115
1590504942.6532052,-0.06386685416600084,-3.744674166640033,8.459858416695964,1.5155555555555555,0.5077777777777778,-1.13,1.2350386717376716,0.35915377608744287,9.100920051775384
1590504942.6632051,-0.03862953260719703,-4.16925981367316,8.54851962734632,1.2919787323909755,0.33001179588522755,-1.004020186501918,-0.4129719721888483,-1.7990794449587362,13.30995794843513
1590504942.6732051,0.0,-4.4168480314657,8.73762850422242,1.0166666666666666,0.1111111111111111,-0.8488888888888889,-2.2213179153973703,-3.3334192920217482,17.080722438591756
1590504942.6832051,0.03799340017768753,-4.3965789712255,8.465723714031874,1.0166666666666666,0.1111111111111111,-0.8488888888888889,0.5676391130128915,-1.6252062444472648,20.91036072380469
1590504942.693205,0.08058845873824824,-4.370588458738248,8.56294419296635,1.0166666666666666,0.1111111111111111,-0.8488888888888889,0.7315987939603052,-1.5845790731537464,23.220600804026464
1590504942.703205,0.09,-4.552980319422978,8.818340236991242,1.0166666666666666,0.1111111111111111,-0.8488888888888889,-0.44612570839773313,-2.6467503863987636,23.854625193199382
1590504942.713205,0.0832500082337055,-4.615750090570761,8.731000230543755,0.7706669667394892,0.21011099035009717,-0.7768889767150808,-0.6656251029213187,-2.7703125514606595,23.600000411685276
1590504942.723205,0.07333132354775666,-4.593337352904486,8.546638529668593,0.6522222222222223,0.2577777777777778,-0.7422222222222222,-0.12484926608174973,-2.2498492660817497,22.687273899122623
1590504942.733205,0.0057562921069827105,-4.477352921295148,8.424075617944615,0.6522222222222223,0.2577777777777778,-0.7422222222222222,-0.3860294946035465,-2.0,20.56039887564498
1590504942.743205,-0.04574806619014981,-4.361259669049251,8.663151375697641,0.6522222222222223,0.2577777777777778,-0.7422222222222222,0.1840607558993439,-1.31741713991971,17.37252766082444
1590504942.753205,-0.07307800672439377,-4.358462405379515,8.607679520652153,0.6522222222222223,0.2577777777777778,-0.7422222222222222,0.49998239072860123,-1.1009750840549222,13.773936869588084
1590504942.763205,-0.10477057956954476,-4.346605943013187,8.66210520642449,0.6172379720455607,0.27367970967626026,-0.7560038965342404,-0.9512481585282597,-2.093454690812403,8.626181236750387
1590504942.773205,-0.10223502728754695,-4.325529945424906,8.856463250407542,0.5788888888888889,0.2911111111111111,-0.7711111111111111,-0.9948162520377064,-1.793347331490538,4.391129775320717
1590504942.783205,-0.09034389396838896,-4.3493122120632215,8.529457084130696,0.5788888888888889,0.2911111111111111,-0.7711111111111111,0.6402145793465164,-0.23263608335105213,2.3101814444680704
1590504942.793205,0.006424464038217691,-4.472145321577069,8.651430214384714,0.5788888888888889,0.2911111111111111,-0.7711111111111111,0.5513623897850255,0.09598470997611394,-3.3279632715048217
1590504942.803205,0.04079020724760635,-4.512036722821477,8.711641619197673,0.5788888888888889,0.2911111111111111,-0.7711111111111111,0.5501530117561508,0.5427448188098412,-7.08834156465883
1590504942.813205,0.026535120427290136,-4.514846115086163,8.783662198931776,0.57961501338081,0.2958309203085984,-0.7758309203085985,0.62993298397662,0.6744772246296483,-10.039068326111055
1590504942.823205,0.01905028911862625,-4.365985631680393,8.684158051515682,0.5811111111111111,0.3055555555555556,-0.7855555555555556,0.36816628701594534,0.1929866830208516,-13.503690643069914
1590504942.833205,-0.06638393103829363,-4.416383931038293,8.614895839089352,0.5811111111111111,0.3055555555555556,-0.7855555555555556,0.5332340995745151,1.0132998563297784,-17.36439741393601
1590504942.843205,-0.06283899650682756,-4.321381390917751,8.496113051762464,0.5811111111111111,0.3055555555555556,-0.7855555555555556,0.6520125436646554,1.101182915211178,-20.732573832962846
1590504942.853205,0.014105476918127711,-4.207156184654979,8.629817436062408,0.5811111111111111,0.3055555555555556,-0.7855555555555556,1.415136922953193,1.7578853848319125,-24.56006589794113
1590504942.863205,-0.015966617912759183,-4.394510883592877,8.860500731308612,0.5669185618553252,0.26356926400718883,-0.7577618132629748,0.23090531704379247,2.0090983394992685,-27.9292996644584
1590504942.873205,0.01583199227550692,-4.46,8.668332796910203,0.5544444444444444,0.22666666666666666,-0.7333333333333333,0.38799485033794656,2.2890448986160283,-31.085894753781783
1590504942.883205,0.16283847110204341,-4.48228123306449,8.62686983965061,0.5544444444444444,0.22666666666666666,-0.7333333333333333,1.3214519111224456,2.837532675571424,-34.41396362651025
1590504942.893205,0.3431311280887649,-4.557009804942023,8.561636030559777,0.5544444444444444,0.22666666666666666,-0.7333333333333333,1.558708651664342,3.1118642921081667,-39.206801527988844
1590504942.903205,0.37,-4.559320098003891,8.639057072854364,0.5544444444444444,0.22666666666666666,-0.7333333333333333,1.880893294660229,3.6591966473301145,-43.24129967752396
1590504942.913205,1.2141256372307188,-4.274477881927314,7.526874856109194,0.5472296954082845,0.2350994902154251,-0.7303349960715525,-4.0491058214109525,9.762117661568821,-50.76617949350436
1590504942.923205,6.15640352213522,-1.2975527863258278,-3.6142341793364006,0.4688888888888889,0.32666666666666666,-0.6977777777777778,-125.89941653209834,24.675800173669302,-83.2068949757777
1590504942.933205,0.09042216358839056,-0.02,-0.9941978040684314,0.4688888888888889,0.32666666666666666,-0.6977777777777778,-200.34692846199675,-30.00927206570772,-42.81355328113031
1590504942.9432049,-0.2742596413267735,-0.41892953499444535,-0.3944873829550865,0.4688888888888889,0.32666666666666666,-0.6977777777777778,-196.47352106808444,-11.916144262815425,-8.204868274877004
1590504942.9532049,-0.03394763828139713,-0.7192790322918192,-0.05129648619802024,0.4688888888888889,0.32666666666666666,-0.6977777777777778,-201.31664242513028,-10.083030314128456,-1.5397879475964258
1590504942.9632049,0.9553860107386446,-2.0546531708024958,3.4793397184733705,0.4655697447556394,0.3469134458794885,-0.6937948048178784,-201.92212668698303,-8.68989442751415,5.9401030329415185
1590504942.9732049,2.5897322650777035,-4.885726306465899,10.246566148643208,0.4577777777777778,0.3944444444444444,-0.6844444444444444,-186.51531926886224,-8.39110687253402,11.052819772123359
1590504942.9832048,1.06481715870168,-0.9790712771162942,4.447062469417713,0.4577777777777778,0.3944444444444444,-0.6844444444444444,-13.00215707062469,-13.877827842113847,7.399504566954819
1590504942.9932048,2.5162722118640843,-1.773985769186865,9.711064647463948,0.4577777777777778,0.3944444444444444,-0.6844444444444444,112.04694931699707,-11.002242589703588,4.6451476351737
1590504943.0032048,0.6498483689833731,-2.010648692346348,7.984596997968057,0.4577777777777778,0.3944444444444444,-0.6844444444444444,164.19053699010246,5.868804485568835,11.029696683344621
1590504943.0132048,1.3672122905027932,-2.1073072625698326,6.316194483240224,0.4587753724394786,0.4368422175667287,-0.6724733085040348,261.6395993365922,6.966506634078213,7.700270600558659
1590504943.0232048,0.75,-2.46,7.49,0.46,0.4888888888888889,-0.6577777777777778,301.9375,-1.4375,7.5625
1590504943.0332048,0.24582276860033292,-1.5387306953515174,3.965342809578691,0.46,0.4888888888888889,-0.6577777777777778,213.50595946984248,-19.88580323985145,16.44289441669868
1590504943.0432048,0.0963068619892059,-0.1250192752505782,-0.4079876638396299,0.46,0.4888888888888889,-0.6577777777777778,70.76060138781804,-41.200028912875865,31.026840786430224
1590504943.0532048,1.389960044288259,-0.904565541809079,3.7217522745872045,0.46,0.4888888888888889,-0.6577777777777778,9.242730948827806,-31.15552941318057,38.72674264670486
1590504943.0632048,3.4090713907476053,-4.330324459635103,16.240242622635154,0.46,0.4888888888888889,-0.6577777777777778,-23.483698791700768,-4.402304072594234,45.41504898185144
1590504943.0732048,-0.19989938349035205,-4.572967519816382,10.167292695294778,0.4722222222222222,0.35,-0.7388888888888889,-61.991564693479944,51.70602197816862,58.699121273586165
1590504943.0832047,-0.2824935571196535,-1.530759501894965,3.62012885760693,0.4722222222222222,0.35,-0.7388888888888889,-1.2271968056307525,40.42469409853817,54.89484840281538
1590504943.0932047,-0.07213528267553493,-2.407147518353517,7.280717198970948,0.4722222222222222,0.35,-0.7388888888888889,7.8008839493003705,-24.450131768839807,46.89771835979168
1590504943.1032047,-0.08020235171379515,-3.278150579234498,9.81057314873177,0.4722222222222222,0.35,-0.7388888888888889,-22.123823599730486,-4.0626589362950725,56.06116466343541
1590504943.1132047,-0.1901555209953344,-3.64799066874028,10.578858475894245,0.48863469846207014,0.3451206151719371,-0.7397760497667185,-3.1906979004665637,2.2965785381026436,62.325583203732506
1590504943.1232047,-0.0881165308940974,-2.4813888833289965,6.398695782710514,0.5133333333333333,0.3377777777777778,-0.7411111111111112,9.050728318088108,-11.487677888753227,64.11125928224014
1590504943.1332047,-0.11720556322746103,-2.901177747090156,7.742794436772539,0.5133333333333333,0.3377777777777778,-0.7411111111111112,4.849150473466167,-4.817542907871375,68.04345038469125
1590504943.1432047,-0.1378915959755376,-2.81843361609785,7.722108404024462,0.5133333333333333,0.3377777777777778,-0.7411111111111112,-7.605565076938252,4.318788222529099,71.57731431248767
1590504943.1532047,-0.29054156712441775,-3.6961021260505644,10.078451265833662,0.5133333333333333,0.3377777777777778,-0.7411111111111112,-5.221919418043071,-9.888776575632058,71.99604373270543
1590504943.1632047,-0.2617063403399619,-3.1049799769692177,8.03115016413729,0.5133333333333333,0.3377777777777778,-0.7411111111111112,0.7704011481016799,-2.4997497121152215,76.36638279222453
1590504943.1732047,-0.21397505295363617,-3.37945227754124,8.653338753503498,0.5255555555555556,0.31555555555555553,-0.7388888888888889,-1.3883654442756583,-6.477144354821455,81.87897687156337
1590504943.1832047,0.9101447804412072,-10.189559688348906,7.019739096689453,0.5255555555555556,0.31555555555555553,-0.7388888888888889,-5.627634406997224,-7.8216756470342395,82.69667564703424
1590504943.1932046,1.5238531782471176,-15.261602557562153,5.085864707682889,0.5255555555555556,0.31555555555555553,-0.7388888888888889,-13.83877814338673,-5.6295424786586405,15.580893106145624
1590504943.2032046,-0.4266593316316052,-0.47183815978640375,5.754498136901094,0.5255555555555556,0.31555555555555553,-0.7388888888888889,-25.241863612358067,-1.645231860458293,-118.98651270428073
1590504943.2132046,0.9835239440470223,-1.9534287146307012,6.607953251013806,0.5336878236964809,0.30770371045397243,-0.7388888888888889,25.09522941632114,23.65357167266597,-189.9883981865403
1590504943.2232046,0.47999386341719996,-1.9080687297273604,4.972875719587388,0.5577777777777778,0.28444444444444444,-0.7388888888888889,41.914659492709156,18.278471187282662,-169.44133171152217
1590504943.2332046,-0.011996860830136069,-3.2239553540286012,9.211138821067319,0.5577777777777778,0.28444444444444444,-0.7388888888888889,-10.486266131845134,8.645993198465295,-160.36788236832928
1590504943.2432046,-0.2853031130529765,-3.34,9.677752594210814,0.5577777777777778,0.28444444444444444,-0.7388888888888889,-22.628191561987983,12.615561851447296,-152.3841394729656
1590504943.2532046,-0.09329548941393065,-3.368742904265112,8.553262120282294,0.5577777777777778,0.28444444444444444,-0.7388888888888889,2.0469217455507813,14.104684863071494,-144.25856642183186
1590504943.2632046,-2.9176250460405155,-8.990839779005524,7.2381561694290975,0.5485361162267239,0.3000232453447923,-0.7423215060364232,20.471243093922652,16.426924493554328,-133.68036832412523
1590504943.2732046,-5.897343485617597,-15.37500742850068,10.489155008047543,0.5188888888888888,0.35,-0.7533333333333333,-6.045484090627708,9.200873880566217,-47.250358528331475
1590504943.2832046,0.10068230838024089,-1.2384065442685044,10.20065127045084,0.5188888888888888,0.35,-0.7533333333333333,-10.256763243726656,-9.485635093902888,69.89373454679362
1590504943.2932045,-0.16956254383913955,-2.438861351414543,6.6491589899462245,0.5188888888888888,0.35,-0.7533333333333333,16.251310790273557,-16.155002045826514,106.60901917231705
1590504943.3032045,-0.018487007043654802,-2.3686644912252777,8.01377651319193,0.5188888888888888,0.35,-0.7533333333333333,6.964796649289665,-1.7529000358151934,102.31687492538501
1590504943.3132045,-0.6167973912297262,-1.666843945765039,9.915327598043422,0.5080087149708706,0.3524933731895458,-0.751973311593581,-18.25351304385137,-8.21329137346606,72.75315637604051
1590504943.3232045,0.012533024780638318,-2.560930479220904,11.251978594156784,0.4655555555555556,0.3622222222222222,-0.7466666666666667,-18.468210635425706,-14.666516006171054,-13.960117153601388
1590504943.3332045,-0.052175103654420976,-1.962380291196606,6.762852183974544,0.4655555555555556,0.3622222222222222,-0.7466666666666667,7.263381062578343,16.929249831260243,-38.52898466878797
1590504943.3432045,-0.12697065698224735,-4.274880135993973,7.3983887418625764,0.4655555555555556,0.3622222222222222,-0.7466666666666667,15.256464060115517,5.773166302857033,-36.903911999922734
1590504943.3532045,-0.6698224737767303,-14.499939729943787,9.318625765449031,0.4655555555555556,0.3622222222222222,-0.7466666666666667,-5.961344823922577,-1.7214296752757559,-33.561727306971626
1590504943.3632045,0.1506125326587318,-0.7203854767138058,9.43662754530751,0.47469679794670466,0.36349774441633603,-0.7492177110548943,-9.349921463525899,1.092308868660059,-11.451650821133828
1590504943.3732045,0.27172394405790995,-2.3096626607632302,7.260002811160306,0.5133333333333333,0.3688888888888889,-0.76,11.275853889943074,-1.3706822334668636,6.168102993885726
1590504943.3832045,0.18260469056064377,-4.987225016323434,8.53483667743131,0.5133333333333333,0.3688888888888889,-0.76,3.230728422185752,-0.12896946194434133,3.2819829001005876
1590504943.3932045,0.12436216453323765,-4.746401882202815,9.044729034573512,0.5133333333333333,0.3688888888888889,-0.76,-8.6630552897077,-3.587281173984129,-3.3240070582605576
1590504943.4032044,-0.021367222868969082,-4.494798861725521,8.383351442245505,0.5133333333333333,0.3688888888888889,-0.76,-1.964978657353512,-0.2640748286120812,-1.702747057301772
1590504943.4132044,0.10385770067853028,-4.408901229035975,8.803383369606964,0.5103759299563294,0.3661589780793468,-0.7581800594603053,0.22144251696325692,0.13631417232108564,0.02411062924081423
1590504943.4232044,0.07672088384225871,-4.5731164646309646,8.696720883842259,0.4988888888888889,0.3555555555555556,-0.7511111111111111,-0.5389558078870647,-0.042005524014116925,-0.125
1590504943.4332044,0.059405806369100915,-4.631782580892697,8.624669139276122,0.4988888888888889,0.3555555555555556,-0.7511111111111111,-0.8529287632689603,-0.011035618365519887,-0.10292876326896022
1590504943.4432044,0.030903809462559224,-4.708927047827299,8.380621047441421,0.4988888888888889,0.3555555555555556,-0.7511111111111111,-0.5409619053744078,0.0028244045704975684,-0.013064880914099512
1590504943.4532044,0.1070843443096476,-4.438542172154824,8.619475880993646,0.4988888888888889,0.3555555555555556,-0.7511111111111111,0.28188998411322935,0.23177715193529752,-0.0625
1590504943.4632044,0.08285384170999423,-4.426426920854997,8.698225014442519,0.4988888888888889,0.3555555555555556,-0.7511111111111111,0.5469111062969382,0.08033651068746389,-0.0625
1590504943.4732044,0.07,-4.6136381514257625,8.748068256309407,0.4988888888888889,0.3555555555555556,-0.7511111111111111,-0.018472427073090825,0.0,-0.012073398066207802
1590504943.4832044,0.08,-4.6634240881477655,8.633151823704468,0.4988888888888889,0.3555555555555556,-0.7511111111111111,-0.5185798347229396,0.0625,-0.033219889815293044
1590504943.4932044,0.07818001178748843,-4.699960259324746,8.505479834975162,0.4988888888888889,0.3555555555555556,-0.7511111111111111,-0.215751031405237,0.0852498526563947,0.01700029468721058
1590504943.5032043,0.07111711711711713,-4.544576576576576,8.60436036036036,0.4988888888888889,0.3555555555555556,-0.7511111111111111,0.40225225225225225,0.173536036036036,-0.15957207207207205
1590504943.5132043,0.08958739811647451,-4.685667680222982,8.652063009417628,0.4987513549277137,0.355440943921243,-0.751019421803661,0.8633955720258457,0.12628938088601716,-0.06121061911398285
1590504943.5232043,0.07187423455382407,-4.499679462815153,8.74062882723088,0.4928469670734969,0.35052062070939555,-0.7470831632341831,0.36521284682630184,0.1816430170192998,-0.005856982980700198
1590504943.5332043,0.07,-4.604855024220023,8.628442342569848,0.4922222222222222,0.35,-0.7466666666666667,-0.6383597534378659,0.20267195068757318,-0.013359753437865884
1590504943.5432043,0.07,-4.630319325407797,8.534127730163119,0.4922222222222222,0.35,-0.7466666666666667,-0.7202101188830523,0.21130252972076308,-0.2242016864805087
1590504943.5532043,0.07,-4.667311409564453,8.564787247395508,0.4922222222222222,0.35,-0.7466666666666667,-0.0745889293335007,0.045696309777833566,-0.11659815488891678
1590504943.5632043,0.07,-4.652269719736772,8.647516541447757,0.4922222222222222,0.35,-0.7466666666666667,0.20744275493553765,-0.04831425164517922,-0.06959287417741039
1590504943.5732043,0.06183089687870407,-4.531970762544448,8.744507309363888,0.4988888888888889,0.3555555555555556,-0.76,0.30018273409719476,-0.03961378901619913,-0.02288621098380087
1590504943.5832043,0.07017143851710035,-4.628971368897398,8.717771299277697,0.4988888888888889,0.3555555555555556,-0.76,-0.3167859629275085,0.060357018536245755,-0.12392850926812288
1590504943.5932043,0.08,-4.587476633262671,8.586116303719406,0.4988888888888889,0.3555555555555556,-0.76,-0.4775441438620158,-0.0625,-0.0625
1590504943.6032043,0.07842894936451261,-4.647431594916101,8.579426303812925,0.4988888888888889,0.3555555555555556,-0.76,-0.056266534697426596,-0.0526809335282038,-0.0723190664717962
1590504943.6132042,0.07066934305218953,-4.585354744417516,8.625983941686863,0.4988888888888889,0.3555555555555556,-0.76,0.28321624146670865,-0.004183394076184489,-0.12081660592381552
1590504943.6232042,0.07,-4.612326768166674,8.670408460208343,0.5105624440601877,0.3609433502500012,-0.7492244106111088,0.6155634515625659,0.1010211505208553,-0.125
1590504943.6332042,0.06871823475602955,-4.548972356707793,8.719491756096472,0.5133333333333333,0.3622222222222222,-0.7466666666666667,0.07693380335110775,0.13301103277481538,0.008011032774815376
1590504943.6432042,0.06058306725508938,-4.611749201765268,8.58,0.5133333333333333,0.3622222222222222,-0.7466666666666667,-0.2609325110329259,0.1875,0.05156748896707409
1590504943.6532042,0.06911309511704054,-4.637339285351121,8.58,0.5133333333333333,0.3622222222222222,-0.7466666666666667,-0.42087053344451,0.1875,-0.10837053344450998
1590504943.6632042,0.09737882467217096,-4.630873725109276,8.607378824672171,0.5133333333333333,0.3622222222222222,-0.7466666666666667,-0.095264691597863,0.13046078193297717,-0.010921563865954359
1590504943.6732042,0.077909321350386,-4.615272880900258,8.683635595498714,0.4977880409502716,0.3622222222222222,-0.7401212804001144,0.1676112359334793,0.03295550562660829,0.0
1590504943.6832042,0.09871765476580413,-4.552564690468391,8.723588273829021,0.4922222222222222,0.3622222222222222,-0.7377777777777778,0.1714706845725516,-0.0598284474287586,0.0598284474287586
1590504943.6932042,0.07295836062888962,-4.6040832787422215,8.594791803144448,0.4922222222222222,0.3622222222222222,-0.7377777777777778,-0.15052049213887975,-0.006163251310186704,0.006163251310186704
1590504943.7032042,0.07284692621854436,-4.612846926218545,8.598102049187636,0.4922222222222222,0.3622222222222222,-0.7377777777777778,-0.5834823259795616,0.1131378074227319,-0.16970671113409785
1590504943.7132041,0.09528793850653636,-4.635287938506536,8.583141374328976,0.4922222222222222,0.3622222222222222,-0.7377777777777778,-0.2562175634463448,0.01963358955609852,-0.02945038433414776
1590504943.7232041,0.09104279756773757,-4.61,8.66417119027095,0.4988888888888889,0.3555555555555556,-0.7466666666666667,0.3255349695967197,0.24348251520164016,0.055982515201640146
1590504943.7332041,0.0962967082439554,-4.6090741770609895,8.6916675935489,0.4988888888888889,0.3555555555555556,-0.7466666666666667,0.3969952464182622,0.18171360663118033,-0.017359180106459045
1590504943.743204,0.061744088317470414,-4.60174408831747,8.61174408831747,0.4988888888888889,0.3555555555555556,-0.7466666666666667,-0.05450275992095041,0.125,-0.17659944801580993
1590504943.753204,0.07,-4.611485156395087,8.622227734592629,0.4988888888888889,0.3555555555555556,-0.7466666666666667,-0.29857665879606293,0.1203588862653543,-0.125
1590504943.763204,0.07,-4.622612686705755,8.63891903005863,0.4988888888888889,0.3555555555555556,-0.7466666666666667,-0.19425606213355265,0.08558535404451756,-0.125
1590504943.773204,0.07,-4.623877887788779,8.656122112211222,0.4914063072973964,0.35963696369636966,-0.7466666666666667,0.10457920792079206,0.0625,-0.125
1590504943.783204,0.08158038038833794,-4.58,8.664468668640817,0.4866666666666667,0.3622222222222222,-0.7466666666666667,0.3453678677186637,0.0625,-0.12993868871355604
1590504943.793204,0.0982518830613908,-4.58,8.606118409285132,0.4866666666666667,0.3622222222222222,-0.7466666666666667,0.03277719259892281,0.0625,-0.1820371345668462
1590504943.803204,0.08459723903099424,-4.595402760969005,8.630805521938012,0.4866666666666667,0.3622222222222222,-0.7466666666666667,-0.38506902422514405,0.110633628028143,-0.043099115915570946
1590504943.813204,0.08,-4.633891446370979,8.64,0.4866666666666667,0.3622222222222222,-0.7466666666666667,-0.5529553849546545,0.019089230090691064,-0.10591076990930894
1590504943.823204,0.07354671157596171,-4.627093423151924,8.64645328842404,0.4995732435147433,0.3493156453741456,-0.7466666666666667,-0.3608347367488034,0.12099915795071796,-0.08466694734976069
1590504943.833204,0.07866487596776742,-4.611335124032233,8.641335124032233,0.5066666666666667,0.3422222222222222,-0.7466666666666667,0.18324379838837102,0.29581094959709275,-0.0625
1590504943.843204,0.08097848135678287,-4.6180430372864345,8.585870888140697,0.5066666666666667,0.3422222222222222,-0.7466666666666667,0.2758069491206424,0.1691534745603212,0.0
1590504943.853204,0.08974968108910683,-4.600500637821786,8.638498086534641,0.5066666666666667,0.3422222222222222,-0.7466666666666667,-0.05311304084150653,0.004693479579246734,0.0
1590504943.863204,0.09857088767353808,-4.6085708876735385,8.631429112326463,0.5066666666666667,0.3422222222222222,-0.7466666666666667,-0.1696360959192259,0.1071360959192259,0.05356804795961295
1590504943.873204,0.07,-4.63,8.631981272787538,0.4922222222222222,0.3377777777777778,-0.7466666666666667,-0.21697878687437852,-0.04598939343718926,-0.125
1590504943.883204,0.07,-4.63,8.65283460391117,0.4922222222222222,0.3377777777777778,-0.7466666666666667,0.13057673185283392,0.12778836592641696,-0.125
1590504943.893204,0.0702620551146129,-4.580262055114613,8.58183438580229,0.4922222222222222,0.3377777777777778,-0.7466666666666667,0.4868972442693548,0.1217243110673387,-0.0657756889326613
1590504943.903204,0.0783618175849217,-4.5883618175849215,8.638532723094452,0.4922222222222222,0.3377777777777778,-0.7466666666666667,0.08190912075391538,0.020477280188478844,-0.16702271981152117
1590504943.913204,0.07176409776749453,-4.606471804465011,8.666471804465012,0.4922222222222222,0.3377777777777778,-0.7466666666666667,-0.4117951116252738,0.05147438895315923,-0.1875
1590504943.923204,0.07971993962770418,-4.658599698138521,8.660280060372296,0.4922222222222222,0.35505767044925196,-0.7304667672871596,-0.6214992453463022,0.2447488680194533,0.0554984906926044
1590504943.933204,0.07017192496994716,-4.6098280750300535,8.628624600240423,0.4922222222222222,0.3555555555555556,-0.73,-0.24355281362698178,0.1842764068134909,-0.12285093787566059
1590504943.943204,0.07968518224500443,-4.600314817754995,8.552518542039966,0.4922222222222222,0.3555555555555556,-0.73,0.11319433418766583,0.0059028329061670826,-0.003935221937444722
1590504943.953204,0.08901347322338378,-4.580986526776616,8.622959580329848,0.4922222222222222,0.3555555555555556,-0.73,-0.006165792353851379,0.12191710382307432,-0.17825131146922293
1590504943.963204,0.07318413405291166,-4.596815865947088,8.670447597841264,0.4922222222222222,0.3555555555555556,-0.73,-0.10509916216930218,0.07245041891534891,-0.029851256746046717
1590504943.973204,0.07,-4.620499258725007,8.640499258725008,0.5066666666666667,0.3622222222222222,-0.7466666666666667,-0.24063889890611853,0.009361101093881477,0.0
1590504943.983204,0.07,-4.628902311976599,8.6489023119766,0.5066666666666667,0.3622222222222222,-0.7466666666666667,-0.08308165043875465,0.16691834956124535,0.0
1590504943.9932039,0.08061154457448345,-4.58816536627655,8.574892356595868,0.5066666666666667,0.3622222222222222,-0.7466666666666667,0.25,0.2385335392284352,0.0
1590504944.0032039,0.0881868588354284,-4.565439423493714,8.635494870683427,0.5066666666666667,0.3622222222222222,-0.7466666666666667,0.25,0.0964963968357174,0.0
1590504944.0132039,0.08255101564324072,-4.582346953070278,8.672346953070278,0.5066666666666667,0.3622222222222222,-0.7466666666666667,0.017219238851272467,0.1090561522297455,-0.046556152229745504
1590504944.0232038,0.0803869104908566,-4.590773820981713,8.667291626564003,0.5066666666666667,0.35,-0.7388888888888889,-0.4326636188642926,0.1274181905678537,0.0
1590504944.0332038,0.08772666025024062,-4.605453320500481,8.615913378248315,0.5066666666666667,0.35,-0.7388888888888889,-0.3409167468719923,0.17329162656400385,0.0
1590504944.0432038,0.09890062209211146,-4.619267081394741,8.562198755815778,0.5066666666666667,0.35,-0.7388888888888889,-0.05562888807569659,0.009161482565737884,-0.125
1590504944.0532038,0.0769742276125255,-4.604649485075017,8.606051544774948,0.5066666666666667,0.35,-0.7388888888888889,0.08141107742171572,0.19188143656228762,-0.125
1590504944.0632038,0.07,-4.5718276286628905,8.676344742674218,0.5066666666666667,0.35,-0.7388888888888889,-0.007057990642698825,0.25,-0.03696133957153411
1590504944.0732038,0.06318668062636562,-4.587253277494537,8.7,0.5195362699279761,0.3537851774297969,-0.7328326050012138,-0.19024973825564456,0.07966701565914056,-0.17033298434085944
1590504944.0832038,0.08011746599370799,-4.610352397981124,8.658590408075504,0.5255555555555556,0.3555555555555556,-0.73,-0.3088291876966254,0.06396832492134984,-0.06396832492134984
1590504944.0932038,0.0896104836701899,-4.638831451010569,8.54467419595772,0.5255555555555556,0.3555555555555556,-0.73,-0.012172385306565892,0.18263104587737367,-0.18263104587737367
1590504944.1032038,0.09,-4.613710538355956,8.645157846576177,0.5255555555555556,0.3555555555555556,-0.73,0.16430913527527835,0.07796057648314778,-0.02319086472472165
1590504944.1132038,0.07503075081520617,-4.595030750815206,8.674969249184795,0.5255555555555556,0.3555555555555556,-0.73,0.1875,0.10927890370248071,0.04677890370248071
1590504944.1232038,0.07,-4.572087171151646,8.733738486545061,0.48475411206763924,0.36152649850500673,-0.7449273573736279,0.07554481969779063,0.125,-0.10543277045331406
1590504944.1332037,0.09277854521056164,-4.5851856968070415,8.702035757982397,0.48,0.3622222222222222,-0.7466666666666667,-0.1273212100880136,0.125,-0.030089394955993207
1590504944.1432037,0.07414901938063097,-4.633084967698948,8.577979083982735,0.48,0.3622222222222222,-0.7466666666666667,-0.1336437903763145,0.07114379037631449,-0.10771241924737102
1590504944.1532037,0.07723441940130017,-4.6255311611974,8.5889376776052,0.48,0.3622222222222222,-0.7466666666666667,-0.03456975748374791,0.1529302425162521,0.010645363774378136
1590504944.1632037,0.08,-4.6262151805122915,8.624860722049167,0.48,0.3622222222222222,-0.7466666666666667,0.1165346346054725,0.10981024359635165,-0.01518975640364835
1590504944.1732037,0.08,-4.62125697934115,8.6749720826354,0.4858286804392332,0.3563935417829891,-0.738895092747689,0.02356836264656617,0.17178775823562256,-0.007856120882188719
1590504944.1832037,0.06134560493026273,-4.626218131689912,8.661345604930263,0.4866666666666667,0.3555555555555556,-0.7377777777777778,-0.15545329224781057,0.14863667693804736,-0.03886332306195264
1590504944.1932037,0.06393803322855861,-4.62303098338572,8.573340817242928,0.4866666666666667,0.3555555555555556,-0.7377777777777778,-0.25,0.08144364616075438,-0.14961270767849125
1590504944.2032037,0.07588338577612434,-4.614116614223876,8.557650157328373,0.4866666666666667,0.3555555555555556,-0.7377777777777778,-0.13968651669766874,0.13604232220155416,-0.15072883889922292
1590504944.2132037,0.07428513314766719,-4.5928553994430015,8.63286353537566,0.4866666666666667,0.3555555555555556,-0.7377777777777778,0.04465375348124043,0.15178208217291986,-0.017846246518759573
1590504944.2232037,0.07,-4.5985966952667265,8.698596695266726,0.4825340677185052,0.36382075345187853,-0.7432879097086598,0.2799724605560554,0.125,-0.014986230278027687
1590504944.2332036,0.06109708913397216,-4.61,8.701097089133972,0.48,0.3688888888888889,-0.7466666666666667,0.04114084252395589,0.125,-0.0625
1590504944.2432036,0.07388070350683172,-4.603059648246584,8.595894723698763,0.48,0.3688888888888889,-0.7466666666666667,-0.21688599229424566,0.21175439691769826,-0.0625
1590504944.2532036,0.08799574248484066,-4.6159914849696815,8.573987227454522,0.48,0.3688888888888889,-0.7466666666666667,-0.11260643787898336,0.05010643787898336,0.03744678106050832
1590504944.2632036,0.08319680871320309,-4.613196808713203,8.634425530294376,0.48,0.3688888888888889,-0.7466666666666667,-0.0625,0.042519945542480675,0.019980054457519325
1590504944.2732036,0.08,-4.575425243118794,8.677287378440603,0.4905645090470354,0.3573639699284867,-0.7322605179661638,-0.0625,0.11652305762688567,0.0
1590504944.2832036,0.06299765074393109,-4.604004698512139,8.645995301487863,0.4922222222222222,0.3555555555555556,-0.73,-0.0625,0.018735317149569303,-0.05313234142521535
1590504944.2932036,0.07668197093766271,-4.61,8.564931130780518,0.4922222222222222,0.3555555555555556,-0.73,-0.2710246367207838,0.0,-0.010368840819804041
1590504944.3032036,0.08,-4.6187079968092535,8.584831987237013,0.4922222222222222,0.3555555555555556,-0.73,-0.3125,0.0,0.0
1590504944.3132036,0.0736084015787735,-4.613608401578774,8.634741188948585,0.4922222222222222,0.3555555555555556,-0.73,-0.23260501973466868,0.07989498026533132,0.0
1590504944.3232036,0.06253531546130271,-4.61,8.689858738154788,0.49719867858135375,0.3605320119146871,-0.7424411408978289,0.045771391834290354,0.07834572163314193,0.0
1590504944.3332036,0.08130316825309239,-4.604674207936727,8.689348415873454,0.4988888888888889,0.3622222222222222,-0.7466666666666667,0.15828620039545685,0.1290724007909137,-0.03328620039545684
1590504944.3432035,0.09085148040116675,-4.604574259799416,8.634257402005833,0.4988888888888889,0.3622222222222222,-0.7466666666666667,0.10173262876093819,0.1303217525072921,-0.005321752507292124
1590504944.3532035,0.06419964905439657,-4.617900175472802,8.603700526418404,0.4988888888888889,0.3622222222222222,-0.7466666666666667,-0.2468804835250536,0.0625,-0.1350043868200429
1590504944.3632035,0.07280506187773332,-4.613597469061133,8.6292075928166,0.4988888888888889,0.3622222222222222,-0.7466666666666667,-0.2724841816320834,-0.017531636735833245,-0.1875
1590504944.3732035,0.08,-4.617048848156115,8.675244240780573,0.5129865852011181,0.35360696336474884,-0.751365898770743,0.014331805854297164,0.06966590292714858,-0.09938939804856758
1590504944.3832035,0.07288306451612904,-4.605766129032258,8.682883064516128,0.5188888888888888,0.35,-0.7533333333333333,0.3029233870967742,0.036038306451612906,0.026461693548387094
1590504944.3932035,0.07,-4.605235237419754,8.627647625802462,0.5188888888888888,0.35,-0.7533333333333333,0.145958362885773,-0.130880935493844,0.029779766126539
1590504944.4032035,0.08263787428754917,-4.61,8.592637874287549,0.5188888888888888,0.35,-0.7533333333333333,-0.10199335714859115,-0.1710132857028177,0.0
1590504944.4132035,0.08358732022307015,-4.622825359553859,8.62565071910772,0.5188888888888888,0.35,-0.7533333333333333,-0.125,-0.004762254182565304,0.0
1590504944.4232035,0.08,-4.63,8.670255654514,0.49871845254622216,0.3542021742380556,-0.7516524636381111,-0.0304510796437496,-0.0320489203562504,-0.0945489203562504
1590504944.4332035,0.08672061845581759,-4.616558763088365,8.686720618455817,0.4922222222222222,0.3555555555555556,-0.7511111111111111,0.08400773069771994,-0.14650773069771994,-0.04099226930228006
1590504944.4432034,0.09,-4.61,8.609450574050976,0.4922222222222222,0.3555555555555556,-0.7511111111111111,0.17534339121813936,-0.08681321756372126,0.10068678243627874
1590504944.4532034,0.09,-4.61,8.606730894839973,0.4922222222222222,0.3555555555555556,-0.7511111111111111,0.13521595362508165,-0.11478404637491835,0.07271595362508165
1590504944.4632034,0.07728490318823701,-4.603642451594118,8.635430193623526,0.4922222222222222,0.3555555555555556,-0.7511111111111111,0.08526532246324064,-0.04553064492648129,-0.056704032610278066
1590504944.4732034,0.07,-4.6,8.67038962246606,0.4956204926332321,0.3555555555555556,-0.752243867914781,0.030641214896782593,0.03185878510321741,-0.061282429793565185
1590504944.4832034,0.07681369666078547,-4.606813696660786,8.696813696660785,0.4988888888888889,0.3555555555555556,-0.7533333333333333,0.1277568123897275,0.10508560412990917,-0.042585604129909166
1590504944.4932034,0.07355716115603235,-4.5971143223120645,8.622685933872388,0.4988888888888889,0.3555555555555556,-0.7533333333333333,0.1069645144504043,0.08473225722520214,-0.022232257225202147
1590504944.5032034,0.07,-4.603979987275146,8.621939961825438,0.4988888888888889,0.3555555555555556,-0.7533333333333333,0.018812539765168605,-0.02487492046966279,0.17474984093932558
1590504944.5132034,0.07626253599443948,-4.628787607983319,8.64,0.4988888888888889,0.3555555555555556,-0.7533333333333333,0.0,-0.10164084996524675,0.05429575017376628
1590504944.5232034,0.06558686031290906,-4.625586860312909,8.654413139687092,0.474866989410404,0.3555555555555556,-0.7365180036983939,0.0,-0.0799589384778408,-0.1075410615221592
1590504944.5332034,0.0810085996390275,-4.605994266907315,8.63198853381463,0.4655555555555556,0.3555555555555556,-0.73,-0.04376791591464062,-0.19380374774392184,0.0938395795732031
1590504944.5432034,0.0805409677254882,-4.6047295161372555,8.591622903176464,0.4655555555555556,0.3555555555555556,-0.73,-0.03294052414215061,-0.16132157242645184,0.15794052414215062
1590504944.5532033,0.07,-4.601436293133838,8.58997297403157,0.4655555555555556,0.3555555555555556,-0.73,0.0,-0.11602316791351691,0.07147683208648309
1590504944.5632033,0.07550868286393489,-4.60101736572787,8.646526048591806,0.4655555555555556,0.3555555555555556,-0.73,-0.03442926789959305,-0.15307073210040695,0.0688585357991861
1590504944.5732033,0.08,-4.603580646215165,8.666419353784834,0.4791075246568729,0.3555555555555556,-0.7207276000885723,-0.18286288346564736,-0.125,0.04475807768956844
1590504944.5832033,0.08549197908357706,-4.616475937250731,8.675491979083576,0.4866666666666667,0.3555555555555556,-0.7155555555555555,-0.21567513072764335,-0.09067513072764335,0.034324869272356645
1590504944.5932033,0.07800334229455788,-4.618003342294558,8.62601504032551,0.4866666666666667,0.3555555555555556,-0.7155555555555555,0.07492688730654651,-0.025010444670493348,0.0625
1590504944.6032033,0.07,-4.61,8.637795831861533,0.4866666666666667,0.3555555555555556,-0.7155555555555555,0.20732515012363123,-0.04267484987636877,0.0625
1590504944.6132033,0.07,-4.61,8.665652468022303,0.4866666666666667,0.3555555555555556,-0.7155555555555555,0.08151622458183011,-0.02717207486061004,0.02717207486061004
1590504944.6232033,0.07,-4.61,8.665777275411907,0.4890126247711633,0.35320959745105895,-0.7286929209407367,-0.052784057351174106,-0.052784057351174106,0.026392028675587053
1590504944.6332033,0.07,-4.604779264728503,8.665220735271497,0.4922222222222222,0.35,-0.7466666666666667,-0.05974080910629134,-0.09237040455314567,0.0625
1590504944.6432033,0.07,-4.6,8.60076029004052,0.4922222222222222,0.35,-0.7466666666666667,0.0,0.01618148859031776,-0.055522232885476655
1590504944.6532032,0.07,-4.593427677162195,8.606006259864637,0.4922222222222222,0.35,-0.7466666666666667,0.04107701773628314,0.0625,0.08038508868141572
1590504944.6632032,0.0755735195637616,-4.595573519563762,8.641147039127524,0.4922222222222222,0.35,-0.7466666666666667,-0.007168994547019997,0.02766550272649,0.22233449727351
1590504944.6732032,0.08,-4.606062012505641,8.656062012505641,0.48885443749686647,0.35740912639578276,-0.7412782111060974,-0.1003875781602527,-0.0378875781602527,0.09844968735898921
1590504944.6832032,0.08,-4.61,8.646284461875648,0.4866666666666667,0.3622222222222222,-0.7377777777777778,-0.125,-0.19108316991579188,0.0428610566385973
1590504944.6932032,0.08,-4.615301152953507,8.592289623418432,0.4866666666666667,0.3622222222222222,-0.7377777777777778,-0.025603382121733922,-0.051206764243467845,0.09563220595942203
1590504944.7032032,0.07448494972323214,-4.6144849497232325,8.583090301660608,0.4866666666666667,0.3622222222222222,-0.7377777777777778,0.0625,0.09053093577020078,0.09053093577020078
1590504944.7132032,0.07823027283718627,-4.61,8.638805954930152,0.4866666666666667,0.3622222222222222,-0.7377777777777778,0.08821960261620708,0.03678039738379292,0.011060794767585834
1590504944.7232032,0.09,-4.609377469558907,8.679377469558906,0.4866666666666667,0.3622222222222222,-0.7387461584639231,0.125,0.007781630513668253,-0.05860918474316587
1590504944.7332032,0.0862754400302988,-4.607449119939402,8.666275440030299,0.4866666666666667,0.3622222222222222,-0.7533333333333333,0.008607500946837557,0.03188600075747004,0.0
1590504944.7432032,0.07613414634146341,-4.612268292682927,8.61360975609756,0.4866666666666667,0.3622222222222222,-0.7533333333333333,-0.16333841463414633,-0.05251524390243903,0.0
1590504944.7532032,0.07909185485462145,-4.604545927427311,8.590005201700418,0.4866666666666667,0.3622222222222222,-0.7533333333333333,-0.06817590715861599,-0.022736139262076016,0.0
1590504944.7632031,0.09305694676312372,-4.600829159710629,8.653056946763124,0.4866666666666667,0.3622222222222222,-0.7533333333333333,-0.01910591726952328,-0.125,0.0
1590504944.7732031,0.08988953114964676,-4.590110468850353,8.670110468850353,0.48947513023620925,0.3622222222222222,-0.7415377863412546,-0.030904784842646117,-0.030214354527938345,0.03159521515735388
1590504944.7832031,0.09269184795601243,-4.612691847956012,8.641924456131962,0.4922222222222222,0.3622222222222222,-0.73,-0.03966202486253885,0.02283797513746115,0.0625
1590504944.793203,0.09035336264452044,-4.615176681322261,8.586236769255821,0.4922222222222222,0.3622222222222222,-0.73,-0.12279148347174727,0.0,0.0625
1590504944.803203,0.08442673573065046,-4.605573264269349,8.576560414383902,0.4922222222222222,0.3622222222222222,-0.73,-0.13216580336686923,0.0,0.03483290168343461
1590504944.813203,0.08514951703395222,-4.6048504829660475,8.624551448898144,0.4922222222222222,0.3622222222222222,-0.73,0.028446555613395805,0.0303155185377986,-0.0303155185377986
1590504944.823203,0.08,-4.614664706963072,8.658658827852287,0.48652091371180106,0.3622222222222222,-0.7398477146998182,0.09584558148080102,0.0625,-0.12080883703839794
1590504944.833203,0.08,-4.61374052232519,8.68,0.48,0.3622222222222222,-0.7511111111111111,0.0625,0.0625,-0.14837826453243472
1590504944.843203,0.07515300594973803,-4.61,8.616989077346595,0.48,0.3622222222222222,-0.7511111111111111,0.0625,0.0019125743717254284,-0.06441257437172543
1590504944.853203,0.08333207300725261,-4.61,8.589996219021758,0.48,0.3622222222222222,-0.7511111111111111,0.11805030419688586,-0.03472484790155707,-0.05555030419688586
1590504944.863203,0.09464271241388626,-4.604642712413886,8.6587505065514,0.4889288126435229,0.3589483242529305,-0.7478372131418194,0.1875,0.0,-0.10825847629339456
1590504944.873203,0.08592628767963092,-4.595926287679631,8.689257993121293,0.5034561872006151,0.35362162024866334,-0.7425105091375522,0.1875,0.0,-0.08101964899884662
