time,acc_x,acc_y,acc_z,mag_x,mag_y,mag_z,gyr_x,gyr_y,gyr_z
1589995337.712915,-4.1,-0.79,8.88,0.31555555555555553,-0.3688888888888889,-0.6044444444444445,0.125,-0.1875,0.0
1589995337.722915,-4.1057314107018765,-0.7814628214037527,8.9,0.3088888888888889,-0.3688888888888889,-0.5988888888888889,-0.09832131688672689,-0.09832131688672689,0.19664263377345378
1589995337.732915,-4.116117574257426,-0.7838824257425743,8.838824257425744,0.3088888888888889,-0.3688888888888889,-0.5988888888888889,-0.04853032178217821,-0.1632348391089109,0.09706064356435642
1589995337.742915,-4.108656445480191,-0.78,8.828358886299522,0.3088888888888889,-0.3688888888888889,-0.5988888888888889,-0.07089721574880413,-0.22294860787440207,0.07089721574880413
1589995337.752915,-4.1,-0.7849800176254791,8.879880105752875,0.3088888888888889,-0.3688888888888889,-0.5988888888888889,-0.15612511015924416,-0.15662466952226756,0.09387488984075584
1589995337.762915,-4.110710164497913,-0.79,8.920710164497914,0.2916336238644734,-0.3688888888888889,-0.5988888888888889,-0.08709220783206481,-0.029030735944021606,-0.004438528111956788
1589995337.772915,-4.106176099007348,-0.7830880495036742,8.895440247518371,0.2766666666666667,-0.3688888888888889,-0.5988888888888889,0.04319969060203687,0.1295990718061106,0.02389938120407374
1589995337.7829149,-4.1,-0.78,8.840665937431634,0.2766666666666667,-0.3688888888888889,-0.5988888888888889,0.10347298184204769,0.06458105447385692,0.0625
1589995337.7929149,-4.113629340616465,-0.78,8.84725868123293,0.2766666666666667,-0.3688888888888889,-0.5988888888888889,0.125,0.12777506827936014,0.0625
1589995337.8029149,-4.114490965755204,-0.7855090342447966,8.865509034244797,0.2766666666666667,-0.3688888888888889,-0.5988888888888889,0.09056853597002189,0.1875,0.09693146402997811
1589995337.8129148,-4.115617536190567,-0.7731473914282999,8.875617536190568,0.29851264074109274,-0.36639220613752593,-0.6026339130159334,-0.0077192023820836925,0.15239039880895816,0.16010960119104184
1589995337.8229148,-4.12,-0.7664426515082058,8.886442651508206,0.31555555555555553,-0.3644444444444445,-0.6055555555555555,0.13883285963142936,-0.036066287705143474,0.22776657192628585
1589995337.8329148,-4.12,-0.77,8.84083584866653,0.31555555555555553,-0.3644444444444445,-0.6055555555555555,0.18171645648129006,-0.05671645648129006,0.07929114120322514
1589995337.8429148,-4.114600345647008,-0.764600345647008,8.848596889176928,0.31555555555555553,-0.3644444444444445,-0.6055555555555555,0.15874783970620004,0.06749567941240009,0.038743519118600134
1589995337.8529148,-4.11,-0.7672463051320842,8.90449261026417,0.31555555555555553,-0.3644444444444445,-0.6055555555555555,0.1648552964622367,0.125,0.125
1589995337.8629148,-4.11,-0.7794489700919354,8.92889794018387,0.31555555555555553,-0.3644444444444445,-0.6055555555555555,0.1267219684627022,0.125,0.125
1589995337.8729148,-4.114410138952512,-0.78,8.889129027332418,0.31555555555555553,-0.37666666666666665,-0.6044444444444445,0.11762673690639792,-0.020190105359596894,0.15993663154680104
1589995337.8829148,-4.1247351868915505,-0.78,8.812118504867593,0.31555555555555553,-0.37666666666666665,-0.6044444444444445,0.1579050819278074,-0.18418983614438525,0.1545949180721926
1589995337.8929148,-4.125093370096503,-0.7898132598069934,8.79943977942098,0.31555555555555553,-0.37666666666666665,-0.6044444444444445,0.15566643689685425,-0.372665747587417,0.09550068930943727
1589995337.9029148,-4.115174337779448,-0.7903486755588954,8.849302648882208,0.31555555555555553,-0.37666666666666665,-0.6044444444444445,0.21766038887845202,-0.409518833364644,-0.030160388878452002
1589995337.9129148,-4.113053953172718,-0.78,8.88526976586359,0.3118229461222335,-0.37293405723334466,-0.5976578818384044,0.25,-0.35067441465897525,-0.024325585341024768
1589995337.9229147,-4.12,-0.78,8.916581110739129,0.3033333333333333,-0.3644444444444445,-0.5822222222222222,0.22863194211955512,-0.4161319421195551,0.0625
1589995337.9329147,-4.12415505868243,-0.7716898826351409,8.860139295810844,0.3033333333333333,-0.3644444444444445,-0.5822222222222222,0.1875,-0.2451544161740769,0.03653088323481539
1589995337.9429147,-4.12694561485643,-0.7691631554307117,8.823598236579276,0.3033333333333333,-0.3644444444444445,-0.5822222222222222,0.13023027855805244,-0.0625,-0.019089907147315854
1589995337.9529147,-4.115316986110034,-0.7806339722200668,8.9,0.3033333333333333,-0.3644444444444445,-0.5822222222222222,-0.029268836812291456,-0.033231163187708544,-0.003962326375417088
1589995337.9629147,-4.114864946279747,-0.765135053720253,8.890270107440507,0.30603608126652604,-0.3644444444444445,-0.5930332139549932,-0.032094085751581486,0.030405914248418514,0.0016881715031629718
1589995337.9729147,-4.12,-0.7746731755750456,8.88,0.3088888888888889,-0.3644444444444445,-0.6044444444444445,0.15284557890672404,-0.09034557890672404,0.02920734734403442
1589995337.9829147,-4.115323401162791,-0.79,8.833234011627907,0.3088888888888889,-0.3644444444444445,-0.6044444444444445,0.2248137718023256,-0.27922874273255816,0.09577125726744186
1589995337.9929147,-4.11,-0.7847216545409957,8.806391727295022,0.3088888888888889,-0.3644444444444445,-0.6044444444444445,0.05902068176244585,-0.1805413635248917,-0.003479318237554152
1589995338.0029147,-4.106925800819178,-0.78,8.854593593446582,0.3088888888888889,-0.3644444444444445,-0.6044444444444445,0.038427489760284594,-0.0432862551198577,-0.024072510239715406
1589995338.0129147,-4.100081428175128,-0.78,8.909348574598978,0.3088888888888889,-0.3644444444444445,-0.6044444444444445,0.12398214781090387,-0.0005089260945480636,0.06148214781090387
1589995338.0229146,-4.093925395724286,-0.7739253957242859,8.89037302137857,0.31555555555555553,-0.3566666666666667,-0.5822222222222222,0.026865106892854887,0.17406744655357256,-0.11389883016964117
1589995338.0329146,-4.108804254988741,-0.78,8.842391490022518,0.31555555555555553,-0.3566666666666667,-0.5822222222222222,-0.09748670316018325,0.22248670316018324,0.05502659367963351
1589995338.0429146,-4.12,-0.78,8.830262333594362,0.31555555555555553,-0.3566666666666667,-0.5822222222222222,-0.10525972330984078,0.25163958496476113,0.18913958496476116
1589995338.0529146,-4.1088472814498935,-0.78,8.876023009950249,0.31555555555555553,-0.3566666666666667,-0.5822222222222222,-0.11779550906183368,0.3517651696872779,0.2660303393745558
1589995338.0629146,-4.079668072551208,-0.7696680725512076,8.925165963724396,0.31756454144837626,-0.35867565255948747,-0.5865271919925523,0.08071818319369055,0.29635636336126187,0.3812236396648573
1589995338.0729146,-4.051106467580946,-0.7366805972571614,8.93668059725716,0.3233333333333333,-0.3644444444444445,-0.5988888888888889,0.3125,0.2638308447618275,1.1034701371419298
1589995338.0829146,-4.069705939378271,-0.7132353131260906,8.874411555613003,0.3233333333333333,-0.3644444444444445,-0.5988888888888889,0.29227929296193367,0.2941171718477348,3.3474318167129837
1589995338.0929146,-4.089918354016982,-0.7198911386893098,8.800081645983019,0.3233333333333333,-0.3644444444444445,-0.5988888888888889,0.24812894622251253,0.12329904202046593,5.2581645983017635
1589995338.1029146,-4.055088648868963,-0.6922783778275933,8.84964540452415,0.3233333333333333,-0.3644444444444445,-0.5988888888888889,-0.49889188913796617,-0.6534797228449154,9.078790503362544
1589995338.1129146,-4.0408426737314045,-0.7278933156714897,8.906629305074384,0.3233333333333333,-0.3644444444444445,-0.5988888888888889,-0.6769665783574486,-1.0986664458936213,11.482798807825555
1589995338.1229146,-4.06220391324278,-0.652713696349731,8.89050978310695,0.33555555555555555,-0.35,-0.5988888888888889,-0.9205393978141813,-1.5804904822794277,16.231913013582957
1589995338.1329145,-4.0045352774137175,-0.5827211664482307,8.873639416775884,0.33555555555555555,-0.35,-0.5988888888888889,-1.5853163226299694,-2.085246354849279,19.057040806574925
1589995338.1429145,-3.982731026263142,-0.5219448346315924,8.89935172178947,0.33555555555555555,-0.35,-0.5988888888888889,-1.9163793470395436,-2.0998276082237264,21.18517217894692
1589995338.1529145,-3.944973960064712,-0.4637408860226492,8.917502603993528,0.33555555555555555,-0.35,-0.5988888888888889,-1.9141194623584425,-2.09378254991911,23.37539059902932
1589995338.1629145,-3.657320485186594,-0.4025700519842779,8.932904991335953,0.3297455728836482,-0.3554872058568014,-0.6005027729644188,-2.151187608300579,-2.2681561958497105,26.430152730231182
1589995338.1729145,-3.1061706996811105,-0.551501782029638,8.977672481710748,0.31555555555555553,-0.3688888888888889,-0.6044444444444445,-1.689699399737385,-2.2536367473269556,30.529007221909584
1589995338.1829145,-2.6279105433868577,-0.8752736955912386,8.81371160853722,0.31555555555555553,-0.3688888888888889,-0.6044444444444445,0.2794768349817802,-1.5625625675729786,34.0459571337044
1589995338.1929145,-2.385319534282018,-0.9467244501940492,8.727769728331177,0.31555555555555553,-0.3688888888888889,-0.6044444444444445,0.8721701164294954,-1.1215879689521344,35.276131953428205
1589995338.2029145,-2.261604469593869,-1.1563806317599026,8.938376907098347,0.31555555555555553,-0.3688888888888889,-0.6044444444444445,0.2951257073275553,-1.3699860325191606,35.79500931165389
1589995338.2129145,-2.3525215225000786,-0.9374784774999212,8.701802529090852,0.29963994267674376,-0.37260253189394493,-0.59383403585857,1.4346835482955442,-0.9814240326700514,35.516898710226734
1589995338.2229145,-2.4384968215817966,-0.8572025427345628,8.791085379276264,0.2822222222222222,-0.37666666666666665,-0.5822222222222222,0.1464009748646644,-1.8273728632718613,34.12761124463712
1589995338.2329144,-2.5427194723698534,-0.8205365947365051,8.92892681052699,0.2822222222222222,-0.37666666666666665,-0.5822222222222222,-1.179115707242108,-2.809146282896843,32.58429916117052
1589995338.2429144,-2.619212663316583,-0.7856168844221105,8.944829547738694,0.2822222222222222,-0.37666666666666665,-0.5822222222222222,-1.0055804020100503,-2.600395728643216,31.300527638190953
1589995338.2529144,-2.5965550468120004,-0.7582775234060002,8.896555046812,0.2822222222222222,-0.37666666666666665,-0.5822222222222222,-0.10346904257500171,-1.924641649012506,30.112442766350032
1589995338.2629144,-2.582223399166268,-0.7511116995831341,8.88222339916627,0.2822222222222222,-0.37666666666666665,-0.5822222222222222,-0.013896244789175144,-1.611136856762113,28.500132406205154
1589995338.2729144,-2.587797883866209,-0.6996028215117217,8.914404232267582,0.2822222222222222,-0.38333333333333336,-0.5988888888888889,-0.75,-1.7012632258361955,24.40522924782739
1589995338.2829144,-2.618747221481284,-0.6641685190124774,8.82917963308734,0.2822222222222222,-0.38333333333333336,-0.5988888888888889,-0.6042129753119351,-1.416712975311935,20.997714205269553
1589995338.2929144,-2.6591125990592026,-0.6347099207526381,8.72617748018816,0.2822222222222222,-0.38333333333333336,-0.5988888888888889,-0.2022185023519939,-0.9430462558799848,17.08127357291181
1589995338.3029144,-2.700675960515057,-0.5939860592274141,8.7573658618027,0.2822222222222222,-0.38333333333333336,-0.5988888888888889,-0.125,-0.75,13.603222760189494
1589995338.3129144,-2.734716371773282,-0.55,8.869432743546563,0.2813488200419848,-0.38455609638566574,-0.6011597345575062,-0.14465154905534153,-0.7106969018893169,9.956847332118388
1589995338.3229144,-2.76,-0.5481321223841426,8.92747151046343,0.2766666666666667,-0.3911111111111111,-0.6133333333333333,-0.17995458940534567,-0.46497729470267285,5.592826248359693
1589995338.3329144,-2.76,-0.5442310346413949,8.934613792151632,0.2766666666666667,-0.3911111111111111,-0.6133333333333333,0.2836637990523071,-0.10094826793025716,0.25709044486359667
1589995338.3429143,-2.774776227299612,-0.5573881136498061,8.914776227299612,0.2766666666666667,-0.3911111111111111,-0.6133333333333333,0.5461757103112883,0.25676356546693246,-4.083501281517668
1589995338.3529143,-2.8,-0.5550531099119568,8.942491148348006,0.2766666666666667,-0.3911111111111111,-0.6133333333333333,0.640569677175045,0.4372787087001799,-8.183295465303418
1589995338.3629143,-2.7994835224447354,-0.5125823877763211,8.951032955110527,0.2772979170119897,-0.39070940634590556,-0.6133333333333333,0.6778160458387957,0.6540518624836129,-11.99532683875051
1589995338.3729143,-2.790003164413905,-0.5599841779304734,8.96999367117219,0.2888850212718935,-0.3833357945441486,-0.6133333333333333,0.5000593327607251,1.1873220017178248,-16.498496903394965
1589995338.3829143,-2.8568975563909778,-0.5368975563909775,8.835512218045112,0.2888888888888889,-0.38333333333333336,-0.6133333333333333,0.5625,1.6896645911654136,-23.034724506578947
1589995338.3929143,-2.8790972416916474,-0.55,8.766967586102783,0.2888888888888889,-0.38333333333333336,-0.6133333333333333,0.6951681080031917,2.002025868575988,-27.514181080031918
1589995338.4029143,-2.898568244297496,-0.5514317557025039,8.770022289917527,0.2888888888888889,-0.38333333333333336,-0.6133333333333333,1.0357938925625976,2.4553969462812986,-31.260480904970652
1589995338.4129143,-2.892335537558511,-0.557664462441489,8.813651237090422,0.2888888888888889,-0.38333333333333336,-0.6133333333333333,1.1916115610372242,2.533305780518612,-34.29892544022587
1589995338.4229143,-2.9106000238815475,-0.608799952236905,8.88240009552619,0.2766666666666667,-0.38333333333333336,-0.6266666666666667,1.323750447779016,2.9375,-40.21126089595606
1589995338.4329143,-2.9189472217799715,-0.5921055564400572,8.915788887119886,0.2766666666666667,-0.38333333333333336,-0.6266666666666667,1.4802604083744626,2.9375,-44.01966993711193
1589995338.4429142,-2.944207347848031,-0.6801481056057362,8.868118484484588,0.2766666666666667,-0.38333333333333336,-0.6266666666666667,1.7382405280286812,3.4149067160932143,-49.67601463652343
1589995338.4529142,-2.995304826049879,-0.7166463043213421,8.897317043457074,0.2766666666666667,-0.38333333333333336,-0.6266666666666667,1.920731521606711,4.008002445221811,-53.00647526932247
1589995338.4629142,-3.01,-0.726008900555772,8.924807120444617,0.2781355090247443,-0.38573689355564217,-0.6250642931851275,2.3224221201369946,4.375,-57.83827879863005
1589995338.4729142,-3.01,-0.7690176575541929,8.959214126043355,0.2886487607354694,-0.4029403963550105,-0.6135952913188818,1.9460954964008121,4.375,-61.601545035991876
1589995338.4829142,-2.974817317259412,-0.799109609644353,8.899269269037648,0.2888888888888889,-0.4033333333333333,-0.6133333333333333,1.9319350602772056,4.589326827405882,-67.0460929726728
1589995338.4929142,-2.950955319788272,-0.8336941497353396,8.77369414973534,0.2888888888888889,-0.4033333333333333,-0.6133333333333333,2.096735374338349,4.9717353743383494,-70.8849435429813
1589995338.5029142,-2.98,-0.87,8.801089955149362,0.2888888888888889,-0.4033333333333333,-0.6133333333333333,2.2014219450791233,5.118187780316493,-74.46742643014302
1589995338.5129142,-2.9831057531630463,-0.8824230126521843,8.78087013607066,0.2952729370573725,-0.40022758017028726,-0.6133333333333333,2.279116435903557,5.370732871807114,-78.1879177608021
1589995338.5229142,-3.0186682792141113,-0.95,8.855556899345093,0.33,-0.38333333333333336,-0.6133333333333333,2.5152844967254637,5.6875,-82.37787520251922
1589995338.5329142,-3.067795782120435,-0.9655915642408701,8.866612653638695,0.33,-0.38333333333333336,-0.6133333333333333,2.7524648510036256,5.6875,-85.70330185029623
1589995338.5429142,-3.096877158763054,-1.0168771587630543,8.810315738144581,0.33,-0.38333333333333336,-0.6133333333333333,2.9804822422690886,5.794955605672722,-88.5997780283636
1589995338.5529141,-3.1294076846307384,-1.0526654191616767,8.861184630738522,0.33,-0.38333333333333336,-0.6133333333333333,3.1949039421157686,6.319903942115769,-91.27264533433134
1589995338.5629141,-3.1106913904882805,-1.142074171464841,8.89930860951172,0.3322278137955701,-0.38102869837239883,-0.6127187640104174,3.4288576188964957,6.558178809448248,-94.2439900031736
1589995338.5729141,-3.121433089865658,-1.17,8.89,0.3622222222222222,-0.35,-0.6044444444444445,3.3125,6.510748173992435,-96.75557176861875
1589995338.582914,-3.164235165773372,-1.1872945026798842,8.861175828866859,0.3622222222222222,-0.35,-0.6044444444444445,3.2764697860835743,6.965075534791064,-99.69302874353745
1589995338.592914,-3.1357620443929215,-1.2462719492652323,8.787966006341845,0.3622222222222222,-0.35,-0.6044444444444445,3.1493626189096116,7.162075079273074,-101.70764857308465
1589995338.602914,-3.085709025196904,-1.3034753997749668,8.780815575028129,0.3622222222222222,-0.35,-0.6044444444444445,3.0152920317774217,7.072694687851614,-103.31649561867094
1589995338.612914,-3.0990329353890456,-1.3543517907492952,8.810967064610955,0.36351164170349487,-0.3491403870124849,-0.6058950413608761,3.065522076909233,7.256044153818466,-105.44752984582159
1589995338.622914,-3.0822580838682585,-1.429838622592837,8.827741916131743,0.3858781103978776,-0.33422940788289635,-0.6310573186420568,3.1179434879116923,7.360886975823385,-106.70564370988062
1589995338.632914,-3.0920364418575224,-1.5119453372137164,8.762036441857521,0.3888888888888889,-0.3322222222222222,-0.6344444444444445,3.562215297988106,7.674772238390485,-108.38630425155004
1589995338.642914,-3.065046321258762,-1.5751389637762856,8.75523160629381,0.3888888888888889,-0.3322222222222222,-0.6344444444444445,3.8125,7.827690738199108,-109.68981606293809
1589995338.652914,-3.0880849785256013,-1.6280849785256015,8.834042489262801,0.3888888888888889,-0.3322222222222222,-0.6344444444444445,3.8251327789462524,7.738031115785009,-110.69015557892504
1589995338.662914,-3.1177376765230917,-1.6577376765230916,8.848868838261545,0.3888888888888889,-0.3322222222222222,-0.6344444444444445,3.871465119567331,7.9233604782693225,-111.61680239134661
1589995338.672914,-3.05,-1.7645186908531145,8.844551402032641,0.44222222222222224,-0.27111111111111114,-0.6555555555555556,3.897838788112023,7.892026868647997,-113.38601050431193
1589995338.682914,-3.049878053029511,-1.8303658409114665,8.829146371206578,0.44222222222222224,-0.27111111111111114,-0.6555555555555556,3.621189157172224,7.940548674262221,-114.26600553987666
1589995338.692914,-3.0367150832588155,-1.8994190008942167,8.750145249776446,0.44222222222222224,-0.27111111111111114,-0.6555555555555556,3.3946229185296177,8.166969270367595,-116.0141760519129
1589995338.702914,-3.016164099757642,-1.9910687201938864,8.749370260339301,0.44222222222222224,-0.27111111111111114,-0.6555555555555556,3.5106153740911576,8.19417950121179,-117.28339750605895
1589995338.712914,-2.981433840613383,-2.0300368842936805,8.795698478159851,0.4506659502788104,-0.26457917053903346,-0.6576266586637753,3.437730526835502,8.410846015334572,-118.33984556517193
1589995338.722914,-2.9743178095997984,-2.095227396800067,8.764772603199933,0.5011111111111111,-0.2255555555555556,-0.67,3.86150684500063,8.69034246000084,-119.5767123000042
1589995338.732914,-2.915071168487256,-2.126794935451837,8.742535584243628,0.5011111111111111,-0.2255555555555556,-0.67,3.965010551142006,8.816684251903343,-120.69827354352863
1589995338.742914,-2.8440748727543723,-2.2,8.717900169660837,0.5011111111111111,-0.2255555555555556,-0.67,3.824844015095058,8.599532045285173,-121.78469227171104
1589995338.752914,-2.824123234020962,-2.2,8.744502354638717,0.5011111111111111,-0.2255555555555556,-0.67,3.8664099291229963,8.724229787368989,-122.53287872421393
1589995338.762914,-2.8183171001104528,-2.26560966629849,8.791121933259697,0.5014850888643437,-0.2222520854020001,-0.6715582406384696,4.308993958563444,9.058993958563443,-123.54557853867523
1589995338.772914,-2.7766276127826868,-2.376046864660776,8.818023432330389,0.5077777777777778,-0.16666666666666666,-0.6977777777777778,4.199853547935074,9.016715484021642,-124.59666322836792
1589995338.782914,-2.733299769029144,-2.42,8.816549191602004,0.5077777777777778,-0.16666666666666666,-0.6977777777777778,4.0625,9.069479407261309,-125.48667051618094
1589995338.792914,-2.6881771341334124,-2.4379896950935076,8.639812560960095,0.5077777777777778,-0.16666666666666666,-0.6977777777777778,3.980728658665875,9.196549923667359,-126.47721417666766
1589995338.802914,-2.726182124346666,-2.5327270540380953,8.693817875653334,0.5077777777777778,-0.16666666666666666,-0.6977777777777778,3.5625,9.55227354735714,-127.02386172283333
1589995338.812914,-2.661974763268966,-2.5785894548078816,8.758025236731035,0.5077777777777778,-0.16666666666666666,-0.6977777777777778,3.5625,9.380289544470443,-127.42515772956897
1589995338.822914,-2.6237008282412435,-2.6147243788190675,8.738425207060311,0.5344444444444445,-0.12444444444444445,-0.6977777777777778,3.5492122793652854,9.6875,-127.60531508825389
1589995338.8329139,-2.5965079339351993,-2.6351190495486003,8.7316269834838,0.5344444444444445,-0.12444444444444445,-0.6977777777777778,3.7616567661312543,9.6875,-127.5203372935475
1589995338.8429139,-2.585612877309767,-2.687548490760932,8.660236619610544,0.5344444444444445,-0.12444444444444445,-0.6977777777777778,3.7682796778759706,9.821639838937985,-127.36438128849612
1589995338.8529139,-2.561543670377597,-2.783825318489613,8.716398102452276,0.5344444444444445,-0.12444444444444445,-0.6977777777777778,3.868568040093347,9.871784020046674,-126.96322783962661
1589995338.8629138,-2.49,-2.8402438735084097,8.700121936754204,0.534573155462772,-0.12411927976656467,-0.6980487483426776,3.872713685858658,9.685975790572439,-125.80411684814841
1589995338.8729138,-2.48990060535568,-2.88004969732216,8.71998757566946,0.5555555555555556,-0.07111111111111111,-0.7422222222222222,3.499068175209495,9.437111739670623,-124.43641287107775
1589995338.8829138,-2.4132939282792836,-2.9320777370240387,8.699020239069057,0.5555555555555556,-0.07111111111111111,-0.7422222222222222,2.804898804654722,9.207348206982083,-123.36349183312663
1589995338.8929138,-2.434079327061811,-3.0264475962370865,8.61473653835055,0.5555555555555556,-0.07111111111111111,-0.7422222222222222,3.2277974764817916,9.845396635309056,-121.54277644716339
1589995338.9029138,-2.403820915334449,-3.0082925492006694,8.63894326773244,0.5555555555555556,-0.07111111111111111,-0.7422222222222222,3.114328432504184,9.694104576672245,-120.48373203670572
1589995338.9129138,-2.371107748434974,-3.0377845031300525,8.697230628912566,0.5555555555555556,-0.07111111111111111,-0.7422222222222222,2.7673085692964636,9.506923427718586,-118.28788970191948
1589995338.9229138,-2.283473476125456,-3.065648984083637,8.691297968167275,0.6,-0.07111111111111111,-0.7855555555555556,2.6548215268295667,9.660306150522734,-116.16007688153417
1589995338.9329138,-2.254112637894329,-3.0509812270176115,8.655093864911942,0.6,-0.07111111111111111,-0.7855555555555556,2.3186326688600736,9.568632668860074,-114.73512192761757
1589995338.9429138,-2.2,-3.06,8.61,0.6,-0.07111111111111111,-0.7855555555555556,2.375,9.625,-112.875
1589995338.9529138,-1.9960440528634362,-2.8269074889867842,8.679927753303964,0.6,-0.07111111111111111,-0.7855555555555556,2.265737885462555,9.55215859030837,-111.70953744493391
1589995338.9629138,-1.8639229054111999,-2.875805033873596,7.915510033444816,0.6,-0.07111111111111111,-0.7855555555555556,4.71102660577995,3.843819676700111,-109.83078209416001
1589995338.9729137,-2.239727651674373,-3.2165421395544347,9.615120498809024,0.6111111111111112,-0.057777777777777775,-0.7855555555555556,1.1342596241417964,11.818738396735323,-105.26814487880061
1589995338.9829137,-1.3508557517164073,-2.1807492643968054,7.176232310494605,0.6111111111111112,-0.057777777777777775,-0.7855555555555556,-9.10429583508477,17.00688533347345,-103.79893512680398
1589995338.9929137,-1.762602734965509,-2.860262549738493,7.580296780247085,0.6111111111111112,-0.057777777777777775,-0.7855555555555556,2.488156157147573,-0.6033822175114247,-101.61536832548522
1589995339.0029137,-1.9375140310333443,-3.1299174645097394,8.440277319247276,0.6111111111111112,-0.057777777777777775,-0.7855555555555556,11.142621327170684,12.924913337735227,-95.19284417299438
1589995339.0129137,-1.8113477156722235,-3.1628302029116693,8.644447461718338,0.6104372532749994,-0.05876610260407499,-0.7856454032670371,-0.3478775363958663,6.150437819013854,-94.61320748786804
1589995339.0229137,-1.9085340767606778,-3.37,8.932618957397283,0.5611111111111111,-0.13111111111111112,-0.7922222222222223,-2.5572761598007903,3.643645455529692,-93.4705583825042
1589995339.0329137,-1.8736350120356822,-3.351816680039647,8.412723368103082,0.5611111111111111,-0.13111111111111112,-0.7922222222222223,2.4204686246283096,6.5000206494548545,-89.2783546514372
1589995339.0429137,-1.8,-3.27,8.2,0.5611111111111111,-0.13111111111111112,-0.7922222222222223,3.1875,7.625,-86.3125
1589995339.0529137,-1.8180541703334312,-3.3313841791336656,8.387763371467683,0.5611111111111111,-0.13111111111111112,-0.7922222222222223,2.329926909162022,6.7674269091620225,-85.54519776082918
1589995339.0629137,-1.82720373709228,-3.4665956400590066,8.602219308310113,0.5611111111111111,-0.13111111111111112,-0.7922222222222223,0.9549766431732503,5.416222750368792,-82.90521021144075
1589995339.0729136,-1.7811277672987194,-3.5987223270128066,8.569700188623052,0.5088635185369028,-0.06506226766824402,-0.6650535535038662,2.7401407227241137,6.020208726298025,-77.48541273701976
1589995339.0829136,-1.7404200903861955,-3.538756162695152,8.542504108463435,0.5022222222222222,-0.05666666666666665,-0.6488888888888888,2.0469520336894003,5.1719520336894,-74.68770542317174
1589995339.0929136,-1.8462643278110353,-3.794663325444336,8.766925147338624,0.5022222222222222,-0.05666666666666665,-0.6488888888888888,1.4508416863891596,4.685832289201355,-70.45409879808808
1589995339.1029136,-1.7100162420529954,-3.6000232029328507,8.290056847185483,0.5022222222222222,-0.05666666666666665,-0.6488888888888888,1.9374419926678732,4.625007250916516,-66.50047130957353
1589995339.1129136,-1.7805855291455501,-3.8117565874366504,8.870369906307856,0.5022222222222222,-0.05666666666666665,-0.6488888888888888,1.643393628560208,4.281875899986909,-63.55893628560208
1589995339.1229136,-1.6472704937887124,-3.6155043427108207,8.534059310010726,0.5066666666666667,0.05333333333333334,-0.5777777777777777,1.6915139797224819,3.8145069898612407,-58.6528794248936
1589995339.1329136,-1.4005384269351882,-3.2091221149520743,7.997054223329527,0.5066666666666667,0.05333333333333334,-0.5777777777777777,2.0543552545070765,3.995927627253538,-55.523373429876465
1589995339.1429136,-1.3197342083073653,-3.196278916303113,6.9725922938739595,0.5066666666666667,0.05333333333333334,-0.5777777777777777,10.644093467023499,11.971544249734208,-48.10860340213367
1589995339.1529136,-1.5595220367915448,-3.671559009933354,9.083243140174696,0.5066666666666667,0.05333333333333334,-0.5777777777777777,2.313958450614706,2.971515381262826,-48.21818988686509
1589995339.1629136,-1.5684148240423543,-3.6072905636873247,9.529567113048895,0.5066666666666667,0.05333333333333334,-0.5777777777777777,-7.5718818125194645,-4.59907349735285,-47.56682108377453
1589995339.1729136,-1.5603994006533861,-3.650998501633465,8.264792807840633,0.5333333333333333,0.12555555555555556,-0.5822222222222222,5.72670162855248,4.67876311070718,-39.16544975559431
1589995339.1829135,-1.620539860993876,-3.8010797219877515,8.978110486521436,0.5333333333333333,0.12555555555555556,-0.5822222222222222,2.1319054075896626,3.2585924731955247,-35.81932683500656
1589995339.1929135,-1.635605323180259,-3.831210646360518,8.925381368869093,0.5333333333333333,0.12555555555555556,-0.5822222222222222,-1.1636644456816505,0.010102189256658622,-34.26570104703579
1589995339.2029135,-1.5777744145292338,-3.8955488290584674,8.49114306197228,0.5333333333333333,0.12555555555555556,-0.5822222222222222,2.6109954994424087,2.072837840528915,-28.659490998884817
1589995339.2129135,-1.5443643460251713,-3.8287286920503423,8.808538712760873,0.5333333333333333,0.12555555555555556,-0.5822222222222222,1.462524394615262,1.2897893599649515,-26.362548789230523
1589995339.2229135,-1.6902180486701088,-4.0689097566494565,8.69803756196902,0.5133333333333333,0.15777777777777774,-0.5688888888888889,-0.024341482730956737,0.32340243350544096,-23.433222594779174
1589995339.2329135,-1.6988459876987636,-4.025770061506181,8.620386110711125,0.5133333333333333,0.15777777777777774,-0.5688888888888889,1.4855478472836483,0.7547993849381853,-20.790916267253614
1589995339.2429135,-1.67,-4.071674187175297,8.413348374350594,0.5133333333333333,0.15777777777777774,-0.5688888888888889,1.4375,0.621780409278275,-17.711364911339302
1589995339.2529135,-1.6681691795304099,-4.198372604027031,8.668576028523653,0.5133333333333333,0.15777777777777774,-0.5688888888888889,1.4387714031038819,0.375,-14.694058263429195
1589995339.2629135,-1.6160019900222495,-4.152001768908667,8.628001547795083,0.5133333333333333,0.15777777777777774,-0.5688888888888889,1.4749986180401045,0.375,-13.100060806235403
1589995339.2729135,-1.6058102311541822,-4.089027722614981,8.734213202001747,0.5242309864873214,0.17498459854723258,-0.5734773744274101,1.4032116331718167,0.34273721105727223,-10.741751231233616
1589995339.2829134,-1.5616601607347878,-3.845217648023618,8.381621125143512,0.5344444444444445,0.19111111111111112,-0.5777777777777777,1.251482286370346,-0.35869484992619316,-7.54891545022142
1589995339.2929134,-1.6483327777513215,-4.124627839420925,8.782219629506166,0.5344444444444445,0.19111111111111112,-0.5777777777777777,0.9432889661412448,0.05439544740225727,-4.800942902042954
1589995339.3029134,-1.643620598809819,-4.098102994049095,8.611376766674931,0.5344444444444445,0.19111111111111112,-0.5777777777777777,0.29955988098189934,-0.25647005950905033,-3.1950209598933794
1589995339.3129134,-1.660594103303037,-4.155511712111136,8.612970516515185,0.5344444444444445,0.19111111111111112,-0.5777777777777777,0.4094482006945984,-0.4804043818813271,-0.982464161678859
1589995339.3229134,-1.67,-4.173829776950774,8.66,0.5416312102441002,0.2126714085100784,-0.5948463465519602,0.3723402648558517,-0.5,0.9893625697784008
1589995339.3329134,-1.67,-4.179626747410719,8.727387231875035,0.5433333333333333,0.21777777777777774,-0.5988888888888889,0.3125,-0.6805015139509876,2.8166792829248966
1589995339.3429134,-1.64363561631982,-4.0481780815991,8.501508674771774,0.5433333333333333,0.21777777777777774,-0.5988888888888889,0.5871289966685416,-0.7973515986674166,3.9735159866741663
1589995339.3529134,-1.658560739549018,-4.169205546617635,8.525682218647054,0.5433333333333333,0.21777777777777774,-0.5988888888888889,0.2769861334559105,-0.8705023110906815,5.343048532904313
1589995339.3629134,-1.6677959988841509,-4.156612003347547,8.639143984378114,0.5433333333333333,0.21777777777777774,-0.5988888888888889,0.347449986051887,-0.9237249930259435,6.363274867492926
1589995339.3729134,-1.7084834418517711,-4.207725162777656,8.621895697685286,0.5604370852674538,0.20922590181071754,-0.6042338113683016,0.19460886631982305,-0.9976303778933923,8.789693604162125
1589995339.3829134,-1.636033418089357,-4.311704050127134,8.666229113694152,0.5611111111111111,0.2088888888888889,-0.6044444444444445,0.1875,-1.0,8.875
1589995339.3929133,-1.5458278241917909,-4.002016224724543,8.426835936554061,0.5611111111111111,0.2088888888888889,-0.6044444444444445,0.24595289986681196,-0.9415471001331881,9.75179349800218
1589995339.4029133,-1.6410572244057644,-4.1545533876099565,8.759106775219912,0.5611111111111111,0.2088888888888889,-0.6044444444444445,-0.0945132650196519,-0.9949188775032753,10.67378316254913
1589995339.4129133,-1.6789450714823175,-4.184472535741159,8.630802106847254,0.5611111111111111,0.2088888888888889,-0.6044444444444445,0.14636004514672685,-1.2261333709556057,11.92589352896915
1589995339.4229133,-1.6635324397824398,-4.21646756021756,8.67587024087024,0.6287504316670983,0.2206522489855823,-0.5995430444041555,-0.08084450271950272,-1.202218499093499,13.257252007252008
1589995339.4329133,-1.6768957304163725,-4.338270112914609,8.630864943542695,0.6377777777777778,0.2222222222222222,-0.5988888888888889,-0.38899578775582216,-1.451495787755822,14.21978652081863
1589995339.4429133,-1.6872306003231552,-4.381691800969466,8.576616398061068,0.6377777777777778,0.2222222222222222,-0.5988888888888889,-0.39230874798027926,-1.6355737560591623,14.600956260098604
1589995339.4529133,-1.7662440963791126,-4.39,8.674366144568669,0.6377777777777778,0.2222222222222222,-0.5988888888888889,-0.803873042132508,-1.5921948795261094,14.925762801184726
1589995339.4629133,-1.733879912524682,-4.354924945327926,8.56268477037729,0.6377777777777778,0.2222222222222222,-0.5988888888888889,-0.27984272489861783,-1.4748123633198158,15.219219091700461
1589995339.4729133,-1.8082774751682154,-4.447211791092599,8.634014738865748,0.8492232546548472,0.2807916266154011,-0.6812831357470897,-0.6700736943287408,-1.6050184235821852,15.42417894905479
1589995339.4829133,-1.82,-4.431806921055193,8.668795385963204,0.8744444444444445,0.2877777777777778,-0.6911111111111111,-0.39758651318991534,-1.5075288377299718,16.02485581135014
1589995339.4929132,-1.8137613808801214,-4.355136570561457,8.62009104704097,0.8744444444444445,0.2877777777777778,-0.6911111111111111,-0.5699568474962063,-1.6169741084977238,16.608379172989377
1589995339.5029132,-1.7886392796186217,-4.256598199046554,8.600680360190688,0.8744444444444445,0.2877777777777778,-0.6911111111111111,-0.5873716232122889,-1.6541238744040963,17.371389632746748
1589995339.5129132,-1.8064052150874992,-4.2191013037718745,8.600898696228125,0.8744444444444445,0.2877777777777778,-0.6911111111111111,-0.5284415742871087,-1.5965584257128913,18.091298891445305
1589995339.5229132,-1.800483075496354,-4.315529233233571,8.644018463094888,1.185550778194626,0.30928512882481607,-1.0382297535912173,-0.5906346161952536,-1.5343653838047464,18.837615394343043
1589995339.5329132,-1.8227030775326907,-4.178252542596751,8.659105798441422,1.5655555555555556,0.33555555555555555,-1.4622222222222223,-0.7442832849029191,-1.6988054748381984,19.568088759741116
1589995339.5429132,-2.0092215879605604,-4.09129216398547,8.622672548002075,1.5655555555555556,0.33555555555555555,-1.4622222222222223,-1.2246691748832381,-1.904093149974053,20.02477944992216
1589995339.5529132,-2.0074129363243136,-4.156013680716225,8.639720148878382,1.5655555555555556,0.33555555555555555,-1.4622222222222223,-0.5533271300673976,-1.7731654260134795,21.028840156925863
1589995339.5629132,-1.9968712750586959,-4.26435637529348,8.616257449882609,1.5655555555555556,0.33555555555555555,-1.4622222222222223,-0.3710394279393173,-1.6875,21.992078855878635
1589995339.5729132,-2.0438403840384036,-4.325165659423085,8.643177746346062,1.2244659704065644,0.013803332714223793,-1.1941848946799443,-0.47185611418284684,-1.8687877716343062,22.918863314902918
1589995339.5829132,-2.0008255201109573,-4.227629773462783,8.686804253351825,0.86,-0.33,-0.9077777777777778,-0.3337632917244568,-2.041881645862228,24.056695561719835
1589995339.5929132,-1.858096634825003,-4.096551983828134,8.63059296840937,0.86,-0.33,-0.9077777777777778,-0.33482797574220147,-2.028275991914067,25.597501882753974
1589995339.6029131,-1.893248620432513,-4.383629828486204,8.57012706935123,0.86,-0.33,-0.9077777777777778,-0.5832009694258017,-2.2503970917225953,28.170372856077556
1589995339.6129131,-1.964740435425914,-4.403926019868949,8.583481504967237,0.86,-0.33,-0.9077777777777778,-0.5217594060452335,-2.475462375819066,29.19814653350243
1589995339.6229131,-2.112294028605851,-4.319181057119026,8.69803157146829,0.6833897967659668,-0.03448391736087514,-0.7486537332797876,-0.7458991072256032,-2.5625,28.896521964103673
1589995339.632913,-2.123090545007117,-4.443730367439504,8.636997997539144,0.6355555555555555,0.045555555555555564,-0.7055555555555556,-0.6539738594417236,-2.3511318125889646,28.010211344061375
1589995339.642913,-2.1336171354126754,-4.4836171354126755,8.477020078166909,0.6355555555555555,0.045555555555555564,-0.7055555555555556,-0.5398929036707794,-2.2699464518353896,27.109036133037016
1589995339.652913,-2.1246659995754875,-4.459331999150975,8.61700900573092,0.6355555555555555,0.045555555555555564,-0.7055555555555556,-0.7875125079596107,-2.3458375026532035,25.45619371418175
1589995339.662913,-2.126354410182196,-4.437291179635608,8.591038257449256,0.6355555555555555,0.045555555555555564,-0.7055555555555556,-0.7161397454451,-2.176424681806375,23.7916179635608
1589995339.672913,-2.13,-4.396274015430387,8.6299359588523,0.6149452316519031,0.10239008510805192,-0.6936890054292102,-0.625,-2.0976312339266805,21.832906812566183
1589995339.682913,-2.105567198902388,-4.350453759121911,8.670680638682866,0.5988888888888889,0.14666666666666667,-0.6844444444444444,-0.44175399176791075,-1.9417539917679107,19.74498294923545
1589995339.692913,-1.9882887247184207,-4.271042751604699,8.5810427516047,0.5988888888888889,0.14666666666666667,-0.6844444444444444,-0.2909425336078479,-1.5862298655686085,16.63820092043115
1589995339.702913,-2.069649927656421,-4.281252249708861,8.620718142358047,0.5988888888888889,0.14666666666666667,-0.6844444444444444,-0.4598294632459329,-1.3895029025655503,13.45189041712249
1589995339.712913,-2.131804863313699,-4.432178925640638,8.65590243165685,0.5988888888888889,0.14666666666666667,-0.6844444444444444,-0.327540527614157,-1.2537601319035392,10.586483033781402
1589995339.722913,-2.0582513382049172,-4.509696377407104,8.598251338204918,0.5952809798448695,0.16161371842046163,-0.6983606650428053,0.024476378739755236,-0.9265708637807343,7.380956677698066
1589995339.732913,-2.035178533550166,-4.4525892667750835,8.638124867425581,0.5911111111111111,0.17888888888888888,-0.7144444444444444,0.0069756239835961215,-0.625,2.8803051863112494
1589995339.742913,-1.874467082696202,-4.336476835971401,8.520968301855602,0.5911111111111111,0.17888888888888888,-0.7144444444444444,0.4250914369549944,-0.3812042815225028,-0.8597940860437245
1589995339.752913,-1.8199079860649416,-4.329861979097412,8.563026620216473,0.5911111111111111,0.17888888888888888,-0.7144444444444444,0.23022099300587723,-0.0005750870941148289,-4.8477448607823845
1589995339.762913,-1.8814938907401797,-4.348144602645663,8.647783096031507,0.5911111111111111,0.17888888888888888,-0.7144444444444444,0.3334330505907301,0.31024058366151674,-8.880416287993537
1589995339.772913,-1.857564704466113,-4.294119116407848,8.64689117611653,0.5911111111111111,0.1745192809277316,-0.7326511442825997,0.7673253731792464,0.5194301492716986,-14.087601194775491
1589995339.782913,-1.6796116908062086,-3.834665420754815,8.687491045008565,0.5911111111111111,0.17222222222222222,-0.7422222222222222,0.9739396771011785,1.0571983855058922,-19.436828375642424
1589995339.792913,-1.7455413772768968,-3.94219237321452,8.611123050714191,0.5911111111111111,0.17222222222222222,-0.7422222222222222,0.7916946501113877,1.4652404665181495,-22.77051152371904
1589995339.802913,-1.8420388665284384,-4.1982526324348495,8.582136032849533,0.5911111111111111,0.17222222222222222,-0.7422222222222222,0.7754858316054803,1.8756072895068505,-27.65959517420824
1589995339.812913,-1.7541579878900793,-4.23801974848626,8.64594075454122,0.5911111111111111,0.17222222222222222,-0.7422222222222222,1.1745062878435024,2.2995062878435024,-32.957007452258964
1589995339.822913,-1.6198726686743805,-4.122111797960586,8.686183230305911,0.5599434082997247,0.13206383590755122,-0.7110545194108358,1.4424301262746342,2.567430126274634,-38.42414606118244
1589995339.832913,-1.5816020800893147,-4.08760554690484,8.64239445309516,0.5333333333333333,0.09777777777777777,-0.6844444444444444,1.7700260011164322,3.0750433351940534,-45.64292901842113
1589995339.842913,-1.5700359269143913,-4.1432734551426815,8.626654691028536,0.5333333333333333,0.09777777777777777,-0.6844444444444444,1.9165918189283515,3.4995509135701086,-51.61736553069185
1589995339.852913,-1.5445518792161903,-4.093058143270158,8.64544812078381,0.5333333333333333,0.09777777777777777,-0.6844444444444444,1.9696835849662704,3.850285094763893,-56.71088981689688
1589995339.862913,-1.5090560315637607,-3.961932102582222,8.66,0.5333333333333333,0.09777777777777777,-0.6844444444444444,2.261799605452993,4.2915746547713685,-61.987096251803436
1589995339.872913,-3.1776610211654472,-9.123204046518376,5.02298368539978,0.529179455995725,0.14050337325032075,-0.6227296954285491,-17.060311677273575,47.158836729617114,-101.1008260950683
1589995339.8829129,-0.242703462562889,-5.765590041432376,0.16485720627404588,0.5255555555555556,0.17777777777777778,-0.5688888888888889,-51.94862570287067,-39.58021511541877,-438.59211305119857
1589995339.8929129,-0.21519607843137245,-4.532636542506276,5.102052038808603,0.5255555555555556,0.17777777777777778,-0.5688888888888889,-54.35587556822037,-45.5472089354773,-589.4305393004953
1589995339.9029129,-0.9320668123634093,-4.494630034342803,3.865259999306206,0.5255555555555556,0.17777777777777778,-0.5688888888888889,-24.431741509695772,19.563425781385504,-590.0362464009436
1589995339.9129128,-1.0392047263377004,-3.6311017917636015,2.1828021305252845,0.5255555555555556,0.17777777777777778,-0.5688888888888889,15.036508713930044,74.50433655769152,-551.9625334170034
1589995339.9229128,-5.290287790042802,-4.454653075016895,13.03455620635278,0.4918451352907312,0.2818403794648444,-0.5886754399138945,56.63200115453931,123.47238257490426,-509.82277469587746
1589995339.9329128,0.1523542521159813,-3.4403060764835582,11.618066573413309,0.4744444444444445,0.33555555555555555,-0.5988888888888889,138.66502287868371,72.61780892150122,-457.55357968420304
1589995339.9429128,1.1935065307154291,-1.6171022162298812,2.9053068172242353,0.4744444444444445,0.33555555555555555,-0.5988888888888889,121.82617342209488,30.712394665880172,-418.19673042892055
1589995339.9529128,-0.3970793036750484,-1.8904507954052026,1.4678668140370261,0.4744444444444445,0.33555555555555555,-0.5988888888888889,35.40831376070738,17.480055658627087,-376.2182232660956
1589995339.9629128,-1.4023553917161182,-12.78722007432716,13.594243541329497,0.4744444444444445,0.33555555555555555,-0.5988888888888889,-42.94543285080621,25.319485029670922,-326.79996197476476
1589995339.9729128,-2.8468042514084786,-20.626350741199506,19.020097894274187,0.447140954435876,0.36249978911664293,-0.5988888888888889,-83.4022181044472,30.169402045790548,-250.5979966636033
1589995339.9829128,0.08937357630979499,0.15939635535307506,7.6222904927466715,0.3055555555555556,0.5022222222222222,-0.5988888888888889,-29.197773048795113,-2.4753589197937895,-26.38135790073133
1589995339.9929128,1.1005147435897435,-0.4013378205128205,14.313001923076923,0.3055555555555556,0.5022222222222222,-0.5988888888888889,41.56969150641026,-3.652335737179488,1.0218709935897428
1589995340.0029128,0.7078998576174657,0.18776222116753682,6.985064072140483,0.3055555555555556,0.5022222222222222,-0.5988888888888889,68.8078429046037,-1.2940644280968199,11.206558495491219
1589995340.0129128,0.0052730131919974665,0.08378199714610213,1.3151681761262706,0.3055555555555556,0.5022222222222222,-0.5988888888888889,28.84118822621509,-12.176908908238447,23.993766198782726
1589995340.0229127,0.8403481586196897,-1.0461619182253155,7.990993910395826,0.27362901341968326,0.5298601243696938,-0.5917411555748876,-33.80828394591852,-10.116808032477888,39.907307978106424
1589995340.0329127,0.9995714705019079,-2.405988406222483,11.759503228646905,0.2311111111111111,0.5666666666666667,-0.5822222222222222,-42.40426878485471,8.218841722923393,54.298929593484004
1589995340.0429127,1.233711301971501,-7.063205153230529,7.925299238727309,0.2311111111111111,0.5666666666666667,-0.5822222222222222,3.2650631953933242,1.6734957544407578,68.24524814561781
1589995340.0529127,1.1771944797530416,-7.485347739240966,7.642652987107318,0.2311111111111111,0.5666666666666667,-0.5822222222222222,4.151148538224078,-6.906607499546032,106.00763800617396
1589995340.0629127,0.014242847661298741,-3.584157613441856,9.020995912949314,0.2311111111111111,0.5666666666666667,-0.5822222222222222,-6.188043630139379,-9.339550511754638,139.24051376323052
1589995340.0729127,-0.31640616890338846,-2.4744661525913845,8.438359902127974,0.22496239176820476,0.5568287157180165,-0.5951345328423255,-2.4460475828575667,-10.896893768072959,154.37002993623489
1589995340.0829127,-0.18383518992596692,-2.649269817108328,8.738129338776263,0.22,0.5488888888888889,-0.6055555555555555,-4.005715364745496,-11.835622362139349,163.16268248806477
1589995340.0929127,-0.09333177241863733,-2.8433598688831654,9.009995317255912,0.22,0.5488888888888889,-0.6055555555555555,-5.62502926715055,-12.666588620931867,169.1258780145165
1589995340.1029127,-0.2034291093647675,-3.762061231172233,8.761798870333989,0.22,0.5488888888888889,-0.6055555555555555,-4.517762309675835,-12.57089319335298,173.55215496070727
1589995340.1129127,-0.3622227927628598,-5.117106956232821,8.498356842963723,0.22,0.5488888888888889,-0.6055555555555555,-5.234312230041985,-12.860509106835412,179.2288941915607
1589995340.1229126,-0.5079153955356873,-6.523357296040112,8.333660857220528,0.22,0.5488888888888889,-0.6055555555555555,-8.480723487479988,-13.335593681094633,186.75106661733167
1589995340.1329126,-0.2981184947958367,-3.4597037630104084,8.92865492393915,0.29444444444444445,0.5466666666666666,-0.6055555555555555,-4.739241393114492,-15.948475447024286,219.12556712036294
1589995340.1429126,-0.18736384981006743,-3.5779143680684142,8.45980663141619,0.29444444444444445,0.5466666666666666,-0.6055555555555555,-3.435082892702388,-15.507066400061085,224.39857932311452
1589995340.1529126,7.128772820698828,-17.840592431386774,8.23696046427276,0.29444444444444445,0.5466666666666666,-0.6055555555555555,-13.660251178817555,-20.831474428726878,191.5818371418208
1589995340.1629126,5.486942396740137,-14.384227079088719,6.044243378403408,0.29444444444444445,0.5466666666666666,-0.6055555555555555,-20.37597240229672,-16.66202305982589,46.00704297092054
1589995340.1729126,-2.7318997334635498,-0.8577452237075016,5.1664717491708885,0.32332985185637325,0.5221990274471505,-0.6164300618753404,-3.9806900954241193,4.7278174530509265,-75.75541465747014
1589995340.1829126,-3.646517785698698,-2.5746824761766205,6.642697315777988,0.3888888888888889,0.4666666666666667,-0.6411111111111111,34.755851276642176,27.633901942241945,-69.60090383356369
1589995340.1929126,-0.9529771552385989,-0.9928548274273625,6.223327930663846,0.3888888888888889,0.4666666666666667,-0.6411111111111111,17.00316802586457,5.925896345520618,-18.698769897463023
1589995340.2029126,-0.599543895626348,-2.427694374712725,8.519635116501078,0.3888888888888889,0.4666666666666667,-0.6411111111111111,-16.414851677686244,-2.2075540077078104,5.588668546476683
1589995340.2129126,-0.7287833279423317,-3.545518691372857,8.733412504043251,0.3888888888888889,0.4666666666666667,-0.6411111111111111,-11.97291599279146,-7.204374797837438,28.330684522434268
1589995340.2229125,-0.6866959721272509,-3.070307707336134,8.087886425059425,0.39602299574166333,0.4511013426242497,-0.6372197801005068,2.481272996646153,-3.510187717755853,53.69381898993846
1589995340.2329125,2.671209128812815,-8.076144899647204,7.693204368596073,0.4011111111111111,0.44,-0.6344444444444445,-1.7388421869988688,-5.372581911176381,56.629836177647235
1589995340.2429125,2.5820455176242025,-8.604902858728838,8.295525950596724,0.4011111111111111,0.44,-0.6344444444444445,-5.579395642520122,-4.1936493893977245,23.83335935331668
1589995340.2529125,-1.7154443756217503,-2.7900649435966742,8.230460611520918,0.4011111111111111,0.44,-0.6344444444444445,5.1342077725847926,3.613928149107495,-12.446320644931209
1589995340.2629125,-0.18594435527019793,-3.714055644729802,7.957705992509363,0.4011111111111111,0.44,-0.6344444444444445,6.3003527956126275,3.098690810593901,-0.7012272605671477
1589995340.2729125,0.24550427575319034,-5.276168135771609,8.908135771608999,0.3984494730225555,0.44,-0.6206039263839553,-4.135452572029996,-3.1784617155637416,6.723316011051177
1589995340.2829125,-0.4137191742308619,-5.128775805285565,8.521650734998795,0.3955555555555556,0.44,-0.6055555555555555,-0.2430014458992691,-0.4013274158566955,0.15856193268535623
1589995340.2929125,-0.32822264509990484,-4.518222645099905,8.475388201712654,0.3955555555555556,0.44,-0.6055555555555555,1.05729662226451,0.21059407706945765,-0.38663475261655567
1589995340.3029125,-0.27,-4.46249764406129,8.571248822030645,0.3955555555555556,0.44,-0.6055555555555555,0.38670770653729364,-0.2929871557711773,0.003902568845764546
1589995340.3129125,-0.2830362622639063,-4.477186541038164,8.67473570471539,0.3955555555555556,0.44,-0.6055555555555555,0.5013925206379393,-0.02036915978735359,0.0625
1589995340.3229125,-0.3075988385079294,-4.4828255528255525,8.753953540317177,0.3944883726701909,0.44186757004938826,-0.6074231256049437,0.1348838507929417,-0.04749274067455886,0.01747822202367657
1589995340.3329124,-0.3,-4.574081226505491,8.505479103707525,0.3911111111111111,0.4477777777777778,-0.6133333333333333,-0.49725206383135545,-0.07299882066779687,-0.125
1589995340.3429124,-0.2863303166060314,-4.451513575272858,8.605825791515079,0.3911111111111111,0.4477777777777778,-0.6133333333333333,-0.0807055984846207,-0.20728223939384827,-0.060923359090772414
1589995340.3529124,-0.26110827144532306,-4.565012778496047,8.542770678613307,0.3911111111111111,0.4477777777777778,-0.6133333333333333,0.11634162933341352,-0.12846334826663458,0.05730497760004813
1589995340.3629124,-0.2977208249319042,-4.441908450953341,8.70264989918285,0.3911111111111111,0.4477777777777778,-0.6133333333333333,0.5340103116488025,-0.014244844175598714,0.0
1589995340.3729124,-0.2903022745763911,-4.545768155930524,8.613627294916693,0.3911111111111111,0.4477777777777778,-0.6133333333333333,0.4412784322048887,-0.06061078389755563,0.0
1589995340.3829124,-0.30127013726017915,-4.470739359452497,8.661800915067861,0.41,0.4477777777777778,-0.6411111111111111,-0.03868492637164059,-0.1431872140412934,0.0443127859587066
1589995340.3929124,-0.2862468120115179,-4.549177293294941,8.53041135335253,0.41,0.4477777777777778,-0.6411111111111111,-0.33338646647470177,-0.20051419169066229,0.026028383381324557
1589995340.4029124,-0.30252408795190644,-4.4849518240961865,8.55878613192786,0.41,0.4477777777777778,-0.6411111111111111,0.08586222515029235,-0.17991332454912295,0.10163777484970765
1589995340.4129124,-0.2910989411171494,-4.503406353297104,8.553187293405792,0.41,0.4477777777777778,-0.6411111111111111,0.16621029189310327,-0.07623676396436775,0.055631618017816124
1589995340.4229124,-0.29784904383144356,-4.45645286850567,8.655698087662888,0.4059370827927267,0.4477777777777778,-0.6365702036441586,0.33867828735826705,-0.1875,0.04033042816043324
1589995340.4329123,-0.29,-4.486578750594793,8.641644687648698,0.3911111111111111,0.4477777777777778,-0.62,-0.2705585956087282,-0.1875,0.1772207021956359
1589995340.4429123,-0.2942268267147135,-4.528453653429427,8.557009812276302,0.3911111111111111,0.4477777777777778,-0.62,-0.3221646660660807,-0.24033533393391932,0.125
1589995340.4529123,-0.29139614449871404,-4.531396144498714,8.494528916259645,0.3911111111111111,0.4477777777777778,-0.62,0.018870484415186073,-0.2856129515584814,0.07122590311696278
1589995340.4629123,-0.28,-4.4986600039976015,8.608453328003199,0.3911111111111111,0.4477777777777778,-0.62,0.3972291625024985,-0.1833125124925045,0.0222291625024985
1589995340.4729123,-0.28,-4.453916966943444,8.678249099169669,0.39482852020122894,0.4433844761258203,-0.6243933016519575,0.4375,-0.02448104339652201,0.04349052169826101
1589995340.4829123,-0.2836536823786426,-4.454614729514571,8.698077905728145,0.4033333333333333,0.43333333333333335,-0.6344444444444445,0.18630933646832304,0.01682897026696782,0.0
1589995340.4929123,-0.28777526198147985,-4.493348428111121,8.619954715666637,0.4033333333333333,0.43333333333333335,-0.6344444444444445,-0.23609538738424918,-0.0625,0.0
1589995340.5029123,-0.2869243067927459,-4.529613539810881,8.50423507377461,0.4033333333333333,0.43333333333333335,-0.6344444444444445,-0.14422308254533828,-0.10577691745466172,0.021638458727330865
1589995340.5129123,-0.3020763894301972,-4.501694442279211,8.57284028373217,0.4033333333333333,0.43333333333333335,-0.6344444444444445,0.04131947150986047,-0.16154513212253488,0.0625
1589995340.5229123,-0.308615168758282,-4.475539324966872,8.644766856341102,0.4033333333333333,0.43333333333333335,-0.6344444444444445,0.3682584379141009,-0.07981039052147477,0.0625
1589995340.5329123,-0.28788727401630626,-4.513661822048919,8.64,0.3955555555555556,0.43333333333333335,-0.62,0.21038638780574265,-0.04929546260191421,-0.013204537398085785
1589995340.5429122,-0.2910065708715431,-4.504675427828724,8.592304859556647,0.3955555555555556,0.43333333333333335,-0.62,-0.12094284785905118,-0.022930355982381398,-0.0854303559823814
1589995340.5529122,-0.3019768455974144,-4.521976845597415,8.518023154402584,0.3955555555555556,0.43333333333333335,-0.62,-0.32049566496229287,-0.09592981001077347,-0.05814037997845306
1589995340.5629122,-0.2804591548814064,-4.500459154881407,8.539540845118593,0.3955555555555556,0.43333333333333335,-0.62,-0.00669600868717618,-0.18558685466080682,0.12117370932161364
1589995340.5729122,-0.3015817980548747,-4.493672807780501,8.664745394164624,0.3948525341978335,0.4386059935162489,-0.62,0.2994311892148336,-0.09215871352890014,0.11511376215703328
1589995340.5829122,-0.30987289475765,-4.4605084209694,8.689618684272949,0.3911676023299333,0.4662429825255001,-0.62,0.5585279611765637,-0.24761677670593818,0.06329440776468728
1589995340.5929122,-0.29,-4.482127537960685,8.624573920823082,0.3911111111111111,0.4666666666666667,-0.62,0.21409422450856136,-0.125,-0.013297112254280673
1589995340.6029122,-0.2773277792492355,-4.499568515085117,8.574224073583588,0.3911111111111111,0.4666666666666667,-0.62,-0.06950229948713008,-0.151400459897426,0.03609954010257398
1589995340.6129122,-0.2692797091961548,-4.518347345208972,8.592372945594873,0.3911111111111111,0.4666666666666667,-0.62,-0.17266909003204356,-0.1875,0.03866545498397822
1589995340.6229122,-0.29,-4.47069068397106,8.622072051913179,0.3924157363897798,0.46536204138799797,-0.6209976546248643,0.008633549638248677,-0.18318322518087565,0.11636645036175132
1589995340.6329122,-0.28616699020360253,-4.487666019592795,8.63466796081441,0.41,0.4477777777777778,-0.6344444444444445,0.17291262245496816,-0.07708737754503184,-0.023956311227484085
1589995340.6429121,-0.28366944388676973,-4.5,8.576975005019072,0.41,0.4477777777777778,-0.6344444444444445,0.13532987853844608,-0.04586804858462156,-0.039565975707689216
1589995340.6529121,-0.2940247983628265,-4.512074395088479,8.540123991814133,0.41,0.4477777777777778,-0.6344444444444445,-0.11280997953533164,-0.15015498976766584,0.025154989767665826
1589995340.6629121,-0.29771474705419215,-4.527714747054192,8.567714747054193,0.41,0.4477777777777778,-0.6344444444444445,-0.20178283091129884,-0.20178283091129884,0.048217169088701176
1589995340.6729121,-0.2921176454888773,-4.522117645488877,8.562117645488877,0.41,0.4477777777777778,-0.6344444444444445,-0.23676471569451674,-0.23676471569451674,0.01323528430548327
1589995340.682912,-0.27976044441690934,-4.47,8.660239555583091,0.4033333333333333,0.4477777777777778,-0.6133333333333333,0.6212569440142082,-0.30800833281704976,0.06324861119715837
1589995340.692912,-0.2624368585176466,-4.47,8.677563141482354,0.4033333333333333,0.4477777777777778,-0.6133333333333333,0.3505759143382277,0.01680890279412678,0.11738481713235446
1589995340.702912,-0.28318961038961044,-4.493189610389611,8.574784415584416,0.4033333333333333,0.4477777777777778,-0.6133333333333333,-0.029902597402597403,0.10506493506493506,0.05253246753246753
1589995340.712912,-0.2993292929292929,-4.5093292929292925,8.598993939393939,0.4033333333333333,0.4477777777777778,-0.6133333333333333,-0.1812121212121212,0.004191919191919191,0.0020959595959595956
1589995340.722912,-0.29836828825987544,-4.515920720649688,8.603263423480248,0.4026987787677293,0.44714322321217376,-0.6155995996390619,-0.1097027024363321,-0.125,0.0
1589995340.732912,-0.2818331625009856,-4.474582906252464,8.63633367499803,0.39626845208371664,0.44071289652816104,-0.6385650520819645,0.045314101553260266,-0.125,0.0
1589995340.742912,-0.29719800898385335,-4.48,8.631980089838533,0.3955555555555556,0.44,-0.6411111111111111,0.2324875561490834,-0.0975248877018332,-0.0899751122981668
1589995340.752912,-0.28699924358880513,-4.49200302564478,8.56,0.3955555555555556,0.44,-0.6411111111111111,0.05621690701022375,-0.1499905448600639,-0.037509455139936074
1589995340.762912,-0.28,-4.52,8.573924520375298,0.3955555555555556,0.44,-0.6411111111111111,-0.25,-0.03349058255146338,-0.09599058255146338
1589995340.772912,-0.28,-4.52,8.617976123792186,0.3955555555555556,0.44,-0.6411111111111111,-0.25,0.058283591233720775,-0.0042164087662792255
1589995340.782912,-0.2977016027099449,-4.483104808129835,8.64,0.41,0.4477777777777778,-0.6411111111111111,0.15372996612568887,-0.033770033874311135,0.048135016937155564
1589995340.792912,-0.29063299459022196,-4.4618989837706655,8.64,0.41,0.4477777777777778,-0.6411111111111111,0.2420875676222256,0.054587567622225594,0.003956216188887203
1589995340.802912,-0.2940323496027242,-4.47,8.56298382519864,0.41,0.4477777777777778,-0.6411111111111111,0.23135109250851305,-0.08114890749148695,-0.018648907491486948
1589995340.812912,-0.2822717681030653,-4.481358840515326,8.57908707241226,0.41,0.4477777777777778,-0.6411111111111111,0.059713044202576615,-0.11080144935584185,-0.048301449355841845
1589995340.822912,-0.2899120718080234,-4.519956035904011,8.610131892287963,0.41,0.4477777777777778,-0.6410818017137856,-0.3736261220003664,-0.06277477559992672,0.000549551199853453
1589995340.832912,-0.2707038834951456,-4.510351941747572,8.638944174757283,0.41,0.4477777777777778,-0.6346790722761597,-0.0734981796116505,-0.1228003640776699,0.1206007281553398
1589995340.842912,-0.2725594198042079,-4.48,8.634405801957922,0.41,0.4477777777777778,-0.6344444444444445,0.1090036262237009,0.014510878671102706,-0.0159963737762991
1589995340.852912,-0.2772212126641243,-4.488336362007628,8.57389393667938,0.41,0.4477777777777778,-0.6344444444444445,0.04513257915077679,-0.125,-0.04513257915077679
1589995340.862912,-0.27,-4.51,8.615117033171822,0.41,0.4477777777777778,-0.6344444444444445,-0.01599072866194558,-0.125,0.03198145732389116
1589995340.872912,-0.27072237680639083,-4.51,8.62927762319361,0.40975920773120306,0.44749685346418133,-0.6346852367132414,-0.0625,-0.125,0.12048514496005744
1589995340.882912,-0.2857813481734135,-4.51,8.614218651826587,0.40473955060886213,0.4416405868214503,-0.6397048938355823,-0.0625,-0.125,0.02636657391616551
1589995340.892912,-0.29189002676883025,-4.479054986615585,8.585274933077924,0.4033333333333333,0.44,-0.6411111111111111,0.14862533461037844,-0.005906333652594612,0.0
1589995340.902912,-0.30729752770673485,-4.47,8.549458653026427,0.4033333333333333,0.44,-0.6411111111111111,0.34121909633418585,-0.07939045183290708,0.0
1589995340.912912,-0.2936708297027786,-4.473670829702779,8.61,0.4033333333333333,0.44,-0.6411111111111111,0.09058597153645077,-0.1875,0.0
1589995340.922912,-0.30991364120437603,-4.489913641204376,8.61,0.4033333333333333,0.44,-0.6411111111111111,-0.06169038629102527,-0.1875,0.0
1589995340.9329119,-0.2866554536008031,-4.491672273199598,8.616655453600803,0.3955555555555556,0.4544444444444444,-0.6344444444444445,-0.14569317001003892,-0.05204829250250973,0.01045170749749027
1589995340.9429119,-0.2718813293647299,-4.499059335317635,8.60188132936473,0.3955555555555556,0.4544444444444444,-0.6344444444444445,0.038983382940876055,-0.005879154264780986,0.056620845735219014
1589995340.9529119,-0.2825534035564617,-4.49,8.572767017782308,0.3955555555555556,0.4544444444444444,-0.6344444444444445,0.17287631668365613,-0.18616491108845848,-0.0625
1589995340.9629118,-0.28818668905815786,-4.488186689058158,8.61181331094184,0.3955555555555556,0.4544444444444444,-0.6344444444444445,0.2671672264539475,0.011333193386513125,-0.0171672264539475
1589995340.9729118,-0.28,-4.4806392282958205,8.62,0.3952951292128141,0.45470487078718586,-0.6344444444444445,0.0585048231511254,0.0585048231511254,0.18483654876741692
1589995340.9829118,-0.28,-4.507612218649517,8.62,0.3843061331427891,0.4656938668572109,-0.6344444444444445,-0.11007636655948552,-0.11007636655948552,0.07244908896034298
1589995340.9929118,-0.2839618072372518,-4.508019096381374,8.628210060195116,0.38333333333333336,0.4666666666666667,-0.6344444444444445,-0.07547740953435272,-0.2877387047671764,0.012380647616411817
1589995341.0029118,-0.29832426118444105,-4.496648522368882,8.551730171708911,0.38333333333333336,0.4666666666666667,-0.6344444444444445,0.15642010279172994,-0.16655326480551338,0.0625
1589995341.0129118,-0.2887768431661369,-4.48,8.61366947050159,0.38333333333333336,0.4666666666666667,-0.6344444444444445,0.27427634894177844,-0.09307892084657725,0.054855269788355684
1589995341.0229118,-0.2806477246298163,-4.48,8.638056826110551,0.38333333333333336,0.4666666666666667,-0.6344444444444445,0.020241394681758285,-0.2963068842545934,0.004048278936351658
1589995341.0329118,-0.29,-4.476356672087649,8.653643327912352,0.3911111111111111,0.46,-0.6266666666666667,-0.125,-0.07574306684926817,-0.055878466575365916
1589995341.0429118,-0.28990998249659655,-4.529909982496597,8.599639929986386,0.3911111111111111,0.46,-0.6266666666666667,-0.125,-0.18778130469813575,0.0008439140944072459
1589995341.0529118,-0.27233545404176457,-4.506496818937353,8.529341816167058,0.3911111111111111,0.46,-0.6266666666666667,-0.07391194283639976,-0.23540341223897135,0.17290341223897135
1589995341.0629117,-0.2883622781375977,-4.482456582793604,8.59344911255039,0.3911111111111111,0.46,-0.6266666666666667,0.2766748342599492,-0.13523576164001452,0.07273576164001452
1589995341.0729117,-0.29,-4.48,8.6440628583464,0.3911111111111111,0.46,-0.6266666666666667,0.20234285413400108,-0.18007857293299945,0.11757857293299946
1589995341.0829117,-0.3049788989065797,-4.5083262996355264,8.638326299635526,0.3911111111111111,0.44,-0.6266666666666667,0.08315749088816421,-0.13519686361020525,0.1040787454440821
1589995341.0929117,-0.2848642816036831,-4.501621427201227,8.631621427201228,0.3911111111111111,0.44,-0.6266666666666667,-0.0844643199693075,0.07433039996163437,0.020267840015346247
1589995341.1029117,-0.2929478141616341,-4.498526092919183,8.551791256646537,0.3911111111111111,0.44,-0.6266666666666667,0.1875,-0.1157880807448933,0.10657616148978659
1589995341.1129117,-0.3087241636270934,-4.488724163627094,8.623827509118719,0.3911111111111111,0.44,-0.6266666666666667,0.1715520453386673,-0.03857806800800094,0.0
1589995341.1229117,-0.3004990783229399,-4.48049907832294,8.64850276503118,0.3911111111111111,0.44,-0.6266666666666667,0.06873847903674941,0.11564228144487587,0.0
1589995341.1329117,-0.28300858239530774,-4.48,8.658495708802347,0.4014947552028675,0.4466077735129359,-0.6332744401796025,0.00940181998533661,-0.14049090007331694,0.0
1589995341.1429117,-0.2880624319912949,-4.506124863982589,8.554187295973884,0.4033333333333333,0.4477777777777778,-0.6344444444444445,-0.13710980005440696,0.0625,0.05039019994559304
1589995341.1529117,-0.2831521201937333,-4.49,8.536304240387466,0.4033333333333333,0.4477777777777778,-0.6344444444444445,-0.1875,0.03294887318375013,0.01970075121083325
1589995341.1629117,-0.2984820134150349,-4.488482013415035,8.577589932924825,0.4033333333333333,0.4477777777777778,-0.6344444444444445,-0.13057550306380838,-0.11551258384396806,0.11551258384396806
1589995341.1729116,-0.29037442251560897,-4.4803744225156095,8.618127887421954,0.4033333333333333,0.4477777777777778,-0.6344444444444445,0.1734591556646628,-0.0648401407225562,0.0648401407225562
1589995341.1829116,-0.29246811224489794,-4.5,8.648765943877551,0.41,0.46,-0.62,0.07021285076530612,0.07792570153061225,-0.10957429846938775
1589995341.1929116,-0.3098163042914223,-4.499816304291422,8.637979347205647,0.41,0.46,-0.62,0.11925950910694827,0.1875,-0.0011480981786103472
1589995341.2029116,-0.29834923568286364,-4.491650764317137,8.536603057268545,0.41,0.46,-0.62,-0.17718272301789767,0.1617068075447442,-0.07797591547315348
1589995341.2129116,-0.28149890524877974,-4.50850109475122,8.60400437900488,0.41,0.46,-0.62,-0.07186815780487314,-0.10157960548781714,-0.23594776329269027
1589995341.2229116,-0.28,-4.493897176569743,8.634154235145386,0.41,0.46,-0.62,0.13878529287821323,-0.024357353560893386,-0.09903603034134009
1589995341.2329116,-0.27957870983066957,-4.509578709830669,8.66,0.4033333333333333,0.4477777777777778,-0.6344444444444445,0.12763306355831552,-0.002633063558315518,0.0
1589995341.2429116,-0.27246224846448813,-4.502462248464488,8.66,0.4033333333333333,0.4477777777777778,-0.6344444444444445,0.17211094709694935,-0.04711094709694934,0.0
1589995341.2529116,-0.2985816633266533,-4.529054442217769,8.522836673346694,0.4033333333333333,0.4477777777777778,-0.6344444444444445,-0.1845451319305277,0.06545486806947227,-0.05363539579158316
1589995341.2629116,-0.2775681362725451,-4.515045424181697,8.56486372745491,0.4033333333333333,0.4477777777777778,-0.6344444444444445,-0.14076695056780228,0.10923304943219772,0.07769914829659319
1589995341.2729115,-0.278709918213683,-4.51,8.606129754641048,0.4033333333333333,0.4477777777777778,-0.6344444444444445,0.09274795534207453,-0.09274795534207453,0.016126022328962736
1589995341.2829115,-0.28,-4.502015477792732,8.633953566621804,0.3971231493943473,0.4415675938387917,-0.6459776431882758,0.17490326379542395,-0.125,0.0
1589995341.2929115,-0.28,-4.5,8.608205002779322,0.3955555555555556,0.44,-0.6488888888888888,-0.018429683157309616,-0.0625,0.009214841578654808
1589995341.3029115,-0.2817879231972975,-4.500893961598648,8.54,0.3955555555555556,0.44,-0.6488888888888888,-0.11382548001689063,-0.05691274000844532,0.04573822002533595
1589995341.3129115,-0.2961688241052975,-4.508084412052648,8.550535733710431,0.3955555555555556,0.44,-0.6488888888888888,0.005986212335472643,0.0,-0.11302757532905472
1589995341.3229115,-0.26575220276297185,-4.492876101381486,8.634181442401827,0.3955555555555556,0.44,-0.6488888888888888,0.053512183182856526,0.0,-0.017975633634286947
1589995341.3329115,-0.28,-4.4715226307129345,8.650761315356467,0.3955555555555556,0.4477777777777778,-0.6344444444444445,0.10120889511039072,0.06725822097792185,0.0
1589995341.3429115,-0.2820094337430583,-4.49,8.64794339754165,0.3955555555555556,0.4477777777777778,-0.6344444444444445,-0.19377948044705717,0.11244103910588563,0.0
