time,acc_x,acc_y,acc_z,mag_x,mag_y,mag_z,gyr_x,gyr_y,gyr_z
1589995456.1491435,-4.04,-0.75,8.97,0.3033333333333333,-0.3288888888888889,-0.5688888888888889,-0.3125,-0.125,-0.125
1589995456.1591434,-4.05,-0.7659818906193409,8.93580079681275,0.3033333333333333,-0.3288888888888889,-0.5688888888888889,-0.17466044911264034,-0.025113183629119882,-0.0625
1589995456.1691434,-4.052981919863834,-0.754036160272331,8.864036160272331,0.3033333333333333,-0.3288888888888889,-0.5688888888888889,-0.0625,-0.04386300085103427,-0.04386300085103427
1589995456.1791434,-4.058888862078949,-0.7396296206929833,8.84888886207895,0.3033333333333333,-0.3288888888888889,-0.5688888888888889,-0.06018512933114564,0.004629741337708715,0.0
1589995456.1891434,-4.03,-0.7295483111634208,8.820903377673158,0.3024801433086836,-0.32853757534932726,-0.5697420789135386,0.008469165685860851,0.11653083431413915,0.002823055228620284
1589995456.1991434,-4.03,-0.7202340609802136,8.839531878039573,0.28488655962929244,-0.32129315854016616,-0.5873356625929298,0.18311135662099443,-0.058111356620994425,0.06103711887366481
1589995456.2091434,-4.064960251936335,-0.72,8.787162141458847,0.28444444444444444,-0.3211111111111111,-0.5877777777777777,0.1402523619031407,0.0782492126989531,0.0625
1589995456.2191434,-4.050680568559026,-0.72,8.665784832751724,0.28444444444444444,-0.3211111111111111,-0.5877777777777777,0.006380330240871562,0.12287322325304281,0.0625
1589995456.2291434,-4.037913465902405,-0.7437403977072162,8.75417306819519,0.28444444444444444,-0.3211111111111111,-0.5877777777777777,-0.08858167621993243,0.09891832378006757,0.08858167621993243
1589995456.2391434,-4.030863155771462,-0.7225894673143837,8.768273688457077,0.28444444444444444,-0.3211111111111111,-0.5877777777777777,-0.17671055285673465,0.010789447143265365,0.17671055285673465
1589995456.2491434,-4.038552991105169,-0.7464147433288763,8.887797221091796,0.31777777777777777,-0.3288888888888889,-0.5822222222222222,-0.6336404860182547,0.45950453462008023,0.040092145805476424
1589995456.2591434,-4.07089517232393,-0.770447586161965,8.98552413838035,0.31777777777777777,-0.3288888888888889,-0.5822222222222222,-1.1194051729754382,0.9944051729754382,0.1875
1589995456.2691433,-4.074605343418324,-0.774868447806108,8.882302671709162,0.31777777777777777,-0.3288888888888889,-0.5822222222222222,-0.7915306921231344,0.7467111951526981,0.15542779878817453
1589995456.2791433,-4.032403717272809,-0.76,8.858798141363595,0.31777777777777777,-0.3288888888888889,-0.5822222222222222,-0.14994191761236708,0.3524651505674202,0.0625
1589995456.2891433,-4.05,-0.7594503629881009,8.849450362988101,0.316983857649479,-0.3288888888888889,-0.5822222222222222,0.1284352313243696,0.1634533807294128,0.05219430602689119
1589995456.2991433,-4.05,-0.7504415997250741,8.840441599725073,0.30397119960288477,-0.3288888888888889,-0.5822222222222222,0.18474000171828686,-0.23068001202800809,-0.11672000515486061
1589995456.3091433,-4.063141976292989,-0.7362839525859778,8.795438260777123,0.3033333333333333,-0.3288888888888889,-0.5822222222222222,0.1285879445064583,-0.023225296337638868,-0.023225296337638868
1589995456.3191433,-4.063045432999612,-0.7453636219997415,8.736227323000906,0.3033333333333333,-0.3288888888888889,-0.5822222222222222,0.0,0.004545274996768121,0.07698868125080797
1589995456.3291433,-4.0449714876685965,-0.7333143251123975,8.778399862106609,0.3033333333333333,-0.3288888888888889,-0.5822222222222222,0.0,-0.14607093609503155,0.11464273402375788
1589995456.3391433,-4.04,-0.75,8.850630245240506,0.302983197088608,-0.3288888888888889,-0.5831325764585079,-0.17962193449368122,-0.17962193449368122,0.11712193449368122
1589995456.3491433,-4.03745162903412,-0.7449032580682386,8.852354887102358,0.2977777777777777,-0.3288888888888889,-0.5966666666666667,-0.014718044389737277,-0.04657268146324576,0.03185463707350848
1589995456.3591433,-4.032196059586737,-0.7321960595867372,8.824509851033158,0.2977777777777777,-0.3288888888888889,-0.5966666666666667,0.0906865689572321,0.02745074483421432,0.11813731379144642
1589995456.3691432,-4.05,-0.7533118172790467,8.799870903674279,0.2977777777777777,-0.3288888888888889,-0.5966666666666667,-0.27029543197616684,0.4776874379344588,0.08319885799404171
1589995456.3791432,-4.051715953099066,-0.7582840469009334,8.846863812396267,0.2977777777777777,-0.3288888888888889,-0.5966666666666667,-0.4482247068691664,0.9589494137383328,0.125
1589995456.3891432,-4.0592013634822335,-0.7507986365177663,8.876805453928936,0.2977777777777777,-0.3288888888888889,-0.5966666666666667,-0.49500852176396054,1.052517043527921,0.125
1589995456.3991432,-4.07,-0.7479357112345152,8.86174284493806,0.3111111111111111,-0.3211111111111111,-0.5877777777777777,-0.3362945856471593,0.7221873665100385,0.03669639043143955
1589995456.4091432,-4.07,-0.7404704186245195,8.831881674498078,0.3111111111111111,-0.3211111111111111,-0.5877777777777777,-0.19632034920973943,0.3955808148227253,-0.05661976719350706
1589995456.4191432,-4.067858207719066,-0.7521417922809343,8.744283584561868,0.3111111111111111,-0.3211111111111111,-0.5877777777777777,0.0,-0.0625,-0.08484139473248302
1589995456.4291432,-4.060138589807299,-0.7598614101927006,8.7597228203854,0.3111111111111111,-0.3211111111111111,-0.5877777777777777,0.0,-0.0625,0.05990144111313567
1589995456.4391432,-4.06,-0.76,8.81809135783123,0.3111111111111111,-0.3211111111111111,-0.5877777777777777,-0.04034122071613257,-0.022158779283867433,0.022158779283867433
1589995456.4491432,-4.075463059313216,-0.7522684703433923,8.834536940686785,0.2956480517978957,-0.32712452306625045,-0.6006636605387906,0.2757544224765869,-0.04832206035379812,0.0
1589995456.4591432,-4.065110282450016,-0.7526654236750238,8.853106553475088,0.2911111111111111,-0.3288888888888889,-0.6044444444444445,0.6083411020311013,-0.3736214693748017,0.015280367343700411
1589995456.4691432,-4.05,-0.729244628293601,8.776042973651192,0.2911111111111111,-0.3288888888888889,-0.6044444444444445,0.7216735610100377,-0.5530578536700126,0.057778926835006274
1589995456.4791431,-4.05,-0.721021800501882,8.841825595984943,0.2911111111111111,-0.3288888888888889,-0.6044444444444445,0.41331751882057716,-0.4502725062735257,0.006386253136762866
1589995456.4891431,-4.059555162456752,-0.7295551624567519,8.830889675086496,0.2911111111111111,-0.3288888888888889,-0.6044444444444445,0.25556046929060117,-0.31806046929060117,0.05971976535469941
1589995456.4991431,-4.052364857859705,-0.7447297157194103,8.855810852841769,0.2977777777777777,-0.3288888888888889,-0.6044444444444445,0.1875,-0.3010981918842142,0.0625
1589995456.509143,-4.05846119174254,-0.7569223834850807,8.802305958712703,0.2977777777777777,-0.3288888888888889,-0.6044444444444445,0.13941224195438565,-0.07211755160912287,0.05288244839087713
1589995456.519143,-4.05,-0.7428418578761828,8.762841857876182,0.2977777777777777,-0.3288888888888889,-0.6044444444444445,-0.125,-0.125,-0.01776161172614262
1589995456.529143,-4.051390606043099,-0.75,8.785296666474089,0.2977777777777777,-0.3288888888888889,-0.6044444444444445,-0.10761742446126293,-0.125,-0.07119128776936853
1589995456.539143,-4.0594679068692585,-0.75,8.874146975561848,0.2977777777777777,-0.3288888888888889,-0.6044444444444445,-0.006651164134265419,-0.125,-0.12167441793286729
1589995456.549143,-4.077884170522141,-0.7578841705221414,8.864231658955717,0.3033333333333333,-0.3333333333333333,-0.5755555555555556,0.02644786847323199,-0.098552131526768,-0.02644786847323199
1589995456.559143,-4.0709537343027105,-0.7509537343027098,8.87809253139458,0.3033333333333333,-0.3333333333333333,-0.5755555555555556,0.1130783212161269,-0.011921678783873096,-0.1130783212161269
1589995456.569143,-4.068051273015594,-0.74,8.797794907937625,0.3033333333333333,-0.3333333333333333,-0.5755555555555556,0.16314091269491676,0.0,0.024359087305083252
1589995456.579143,-4.060661087128887,-0.74,8.827355651484451,0.3033333333333333,-0.3333333333333333,-0.5755555555555556,0.07076358911109153,0.0,0.11673641088890847
1589995456.589143,-4.06,-0.74,8.849883378888455,0.3033333333333333,-0.3333333333333333,-0.5755555555555556,0.18677111805284394,0.12427111805284394,0.0007288819471560626
1589995456.599143,-4.06,-0.74,8.858924422957623,0.3102745511892623,-0.3333333333333333,-0.5696059402504736,0.1875,0.06922235651485656,0.0
1589995456.609143,-4.052348382363057,-0.7370451470891707,8.768258088184716,0.3111111111111111,-0.3333333333333333,-0.5688888888888889,-0.09185477953821108,-0.05870955907642216,0.04782261023089446
1589995456.619143,-4.057842816518609,-0.76,8.751571834813902,0.3111111111111111,-0.3333333333333333,-0.5688888888888889,-0.20098239675868837,-0.18258801620655812,0.026964793517376753
1589995456.629143,-4.046001483954739,-0.7540022259321091,8.833998516045261,0.3111111111111111,-0.3333333333333333,-0.5688888888888889,-0.2874860879243183,0.03750927471712112,0.10000927471712112
1589995456.639143,-4.030441105546281,-0.7306616583194212,8.849558894453718,0.3111111111111111,-0.3333333333333333,-0.5688888888888889,-0.43336463550361715,-0.059743090335744764,0.002756909664255236
1589995456.649143,-4.0525131250742366,-0.7525131250742368,8.89246062477729,0.2977777777777777,-0.3333333333333333,-0.6044444444444445,-0.5160351585699015,0.29712109514194085,-0.03141406342796056
1589995456.659143,-4.05770729347611,-0.7531218804283296,8.847072934761098,0.2977777777777777,-0.3333333333333333,-0.6044444444444445,-0.7213411684513732,0.5091470788715671,-0.06768233690274632
1589995456.669143,-4.05,-0.7326321619556914,8.775264323911383,0.2977777777777777,-0.3333333333333333,-0.6044444444444445,-0.6167744938884645,0.7582255061115355,0.0920979755538579
1589995456.679143,-4.05,-0.7486531703590527,8.807306340718107,0.2977777777777777,-0.3333333333333333,-0.6044444444444445,-0.5667088426279603,0.8082911573720397,-0.10816462948815889
1589995456.689143,-4.056611423752732,-0.7632228475054641,8.856279966269124,0.2977777777777777,-0.3333333333333333,-0.6044444444444445,-0.6038213984545752,0.9777855938183007,-0.08367860154542482
1589995456.699143,-4.068060636795016,-0.7458180896149528,8.88,0.2977777777777777,-0.3333333333333333,-0.5865319182332983,-0.5746210200311516,1.2136369399065454,-0.11287897996884849
1589995456.709143,-4.055217760180995,-0.7473911199095022,8.88,0.2977777777777777,-0.3333333333333333,-0.5822222222222222,-0.47011100113122173,1.2038055005656108,-0.03261100113122173
1589995456.719143,-4.000838539685989,-0.742515619057967,8.74922393654588,0.2977777777777777,-0.3333333333333333,-0.5822222222222222,-0.5782226191122942,1.3334634921497257,-0.1822591269625686
1589995456.729143,-4.011528131684181,-0.7761125267367247,8.866809448525993,0.2977777777777777,-0.3333333333333333,-0.5822222222222222,-0.788203292104529,1.6580082302613224,-0.11544917697386775
1589995456.739143,-4.019329303450199,-0.8073172138007998,8.9526223379522,0.2977777777777777,-0.3333333333333333,-0.5822222222222222,-0.9832325862549987,2.1455814656374965,-0.06669185343625034
1589995456.749143,-4.003754820119497,-0.7693870502987414,8.927509640238993,0.30229032774458425,-0.32972329335988815,-0.6002724220894482,-0.3400395673545489,1.3752410059748295,0.8512913682783169
1589995456.7591429,-3.8719851572129125,-0.686300841790575,8.852601683581149,0.3033333333333333,-0.3288888888888889,-0.6044444444444445,0.16052697138961006,0.5941736815881258,3.84933817166234
1589995456.7691429,-3.729242413303492,-0.6166558371236734,8.741482684764037,0.3033333333333333,-0.3288888888888889,-0.6044444444444445,-0.3056006786513609,0.04159898202295863,6.72023831010998
1589995456.7791429,-3.5717841927557497,-0.5249452880552953,8.760422492884796,0.3033333333333333,-0.3288888888888889,-0.6044444444444445,-0.6611892114055401,-0.47368921140554016,9.257921741589916
1589995456.7891428,-3.327106188902049,-0.4285569835068677,8.827152857572168,0.3033333333333333,-0.3288888888888889,-0.6044444444444445,-0.8928918665700295,-0.7053918665700295,10.50911607947816
1589995456.7991428,-3.07101249384264,-0.7215744928574628,8.92573149433523,0.3111111111111111,-0.3288888888888889,-0.59,-1.120790604988581,-0.3230374815279208,11.39677186422462
1589995456.8091428,-2.844774268506663,-0.47960615545122587,8.729606155451226,0.3111111111111111,-0.3288888888888889,-0.59,-0.32618882486840234,0.42381117513159766,10.506304239578888
1589995456.8191428,-2.686513908988583,-0.451006592699791,8.638256954494292,0.3111111111111111,-0.3288888888888889,-0.59,0.3503477247145843,1.2201821032320308,7.2672354880205825
1589995456.8291428,-2.6293489795127996,-0.7597447813794973,8.642776035010264,0.3111111111111111,-0.3288888888888889,-0.59,0.19882798884628788,1.404036443205143,2.9991213547112814
1589995456.8391428,-2.345083265559041,-0.8978166995856086,8.732116687967158,0.3111111111111111,-0.3288888888888889,-0.59,2.0262504356918787,1.6070833817435421,-0.5034383350761011
1589995456.8491428,-2.1999039928218935,-1.0386742934051145,8.782891431135038,0.29395453865709587,-0.3327014605453367,-0.5957188574846718,1.6513571108120233,2.3756000448631673,-4.404657357559444
1589995456.8591428,-2.35225541480221,-0.8770971198084074,8.727741013844248,0.2911111111111111,-0.3333333333333333,-0.5966666666666667,2.600831652696372,1.2479766706581794,-7.731834677842903
1589995456.8691428,-2.5549169135102203,-0.8506630112812755,8.7982319699166,0.2911111111111111,-0.3333333333333333,-0.5966666666666667,0.6733445725930127,1.798687264973425,-9.27382434192559
1589995456.8791428,-2.5840368818105617,-0.8471165129924559,8.89,0.2911111111111111,-0.3333333333333333,-0.5966666666666667,0.25,0.4807523051131601,-11.22592204526404
1589995456.8891428,-2.6455626571668063,-0.8031695305951383,8.89,0.2911111111111111,-0.3333333333333333,-0.5966666666666667,0.25,1.1399570410729254,-12.764066429170159
1589995456.8991427,-2.75,-0.77,8.86,0.3111111111111111,-0.3211111111111111,-0.5822222222222222,1.0625,1.4375,-14.4375
1589995456.9091427,-2.7548797223755814,-0.7943986118779084,8.86,0.3111111111111111,-0.3211111111111111,-0.5822222222222222,0.788015616373531,1.5289947945421563,-15.38294621026895
1589995456.9191427,-2.806447998533556,-0.8133645716380634,8.793645716380633,0.3111111111111111,-0.3211111111111111,-0.5822222222222222,0.4585285727378961,1.4176428636894807,-17.702085672387323
1589995456.9291427,-2.8516270277568814,-0.8506508111027525,8.749674594448624,0.3111111111111111,-0.3211111111111111,-0.5822222222222222,0.693601354088305,1.7601689234805085,-20.573216249059662
1589995456.9391427,-2.8920789691954556,-0.8668315876781822,8.741584206160908,0.3111111111111111,-0.3211111111111111,-0.5822222222222222,0.8452961344829582,2.0129935574715967,-22.393553613795497
1589995456.9491427,-2.8719524363878266,-0.8606508121292754,8.777396751482897,0.3173439030249275,-0.3283827016772302,-0.6029981952682768,1.2255945451521704,2.41309454515217,-24.795134846720995
1589995456.9591427,-2.90036846383094,-0.87,8.800184231915471,0.31777777777777777,-0.3288888888888889,-0.6044444444444445,1.3732728257924682,1.938075724735844,-27.39975616364129
1589995456.9691427,-2.9382470875101596,-0.87,8.81912354375508,0.31777777777777777,-0.3288888888888889,-0.6044444444444445,1.1957167772961257,1.9972610742346248,-29.944726192088865
1589995456.9791427,-2.9486393676299083,-0.87,8.86319683814954,0.31777777777777777,-0.3288888888888889,-0.6044444444444445,1.133503952313075,1.89200790462615,-32.222341907477
1589995456.9891427,-2.965132782813595,-0.87,8.87,0.31777777777777777,-0.3288888888888889,-0.6044444444444445,1.1722899462924832,2.3951894092173136,-34.73783752945422
1589995456.9991426,-2.9428826477653547,-0.8609608825884516,8.87903911741155,0.34690382277054477,-0.3288888888888889,-0.5974140197910179,1.0745110323556453,2.675488967644355,-40.1830366410629
1589995457.0091426,-2.88,-0.9204235822571589,8.81618775968557,0.35,-0.3288888888888889,-0.5966666666666667,1.0625,2.6927947782144863,-40.793395564289725
1589995457.0191426,-2.88,-0.9298436833239754,8.731406850084223,0.35,-0.3288888888888889,-0.5966666666666667,1.0625,2.8105460415496912,-43.14842083099382
1589995457.0291426,-2.8981945302161445,-0.9663890604322893,8.739097265108073,0.35,-0.3288888888888889,-0.5966666666666667,1.5173632554036172,3.665368603881782,-47.50870092633436
1589995457.0391426,-2.9662176347095874,-0.9994300598709276,8.747357514967732,0.35,-0.3288888888888889,-0.5966666666666667,1.792422342741622,3.8419689370966488,-49.73089427338465
1589995457.0491426,-3.0619442306423594,-1.04,8.799444505530754,0.34444444444444444,-0.3288888888888889,-0.6111111111111112,1.9392359202163922,3.9409718404327845,-52.68054944692455
1589995457.0591426,-3.126510236843841,-1.04,8.780997075187473,0.34444444444444444,-0.3288888888888889,-0.6111111111111112,1.9968841400391442,4.056268280078288,-54.52529248125261
1589995457.0691426,-3.113201304062493,-1.04,8.72960391218748,0.34444444444444444,-0.3288888888888889,-0.6111111111111112,2.0,4.114995924804708,-56.46235736816479
1589995457.0791426,-3.1393178329827753,-1.1279534989483258,8.856816553919618,0.34444444444444444,-0.3288888888888889,-0.6111111111111112,1.9389211812858849,4.063921181285885,-59.19457392985049
1589995457.0891426,-3.1622683481273004,-1.1374227827091,8.867422782709099,0.34444444444444444,-0.3288888888888889,-0.6111111111111112,1.8447152161362488,4.294461959659378,-60.548986974092514
1589995457.0991426,-3.1203714336981876,-1.1499257132603624,8.860074286739637,0.37642729828339017,-0.30683174831030563,-0.6044939689375362,1.9365714157545308,4.499071415754531,-63.17124977570429
1589995457.1091425,-3.12,-1.1786220789685737,8.852844480257856,0.37666666666666665,-0.30666666666666664,-0.6044444444444445,1.9375,4.5,-64.66332594681708
1589995457.1191425,-3.1115134067552637,-1.2324329662236801,8.722701101328958,0.37666666666666665,-0.30666666666666664,-0.6044444444444445,1.8844587922203997,4.5,-67.00035985672682
1589995457.1291425,-3.1283436680473518,-1.2583436680473519,8.718343668047352,0.37666666666666665,-0.30666666666666664,-0.6044444444444445,2.046971887943923,4.729295850591897,-69.03221887943923
1589995457.1391425,-3.087083557451544,-1.2528472595752573,8.762916442548455,0.37666666666666665,-0.30666666666666664,-0.6044444444444445,2.0177953723453586,4.7947046276546414,-70.61804808494853
1589995457.1491425,-3.0870363251970017,-1.3067877506566725,8.768642449868665,0.38360739174692665,-0.29657106654992493,-0.6164329695830753,2.0354923441604202,4.847992344160421,-72.18128563649176
1589995457.1591425,-3.108590763385967,-1.3757722901579008,8.742818473228066,0.3888888888888889,-0.2888888888888889,-0.6255555555555555,2.5457304404606433,5.089769084649175,-74.11872996557047
1589995457.1691425,-3.1334112719583604,-1.4034112719583605,8.716588728041641,0.3888888888888889,-0.2888888888888889,-0.6255555555555555,2.7225469664931685,5.368867416232921,-75.38551663142485
1589995457.1791425,-3.14,-1.4594864528431815,8.73474322642159,0.3888888888888889,-0.2888888888888889,-0.6255555555555555,2.8530967767566278,5.385951611621686,-77.02775809783617
1589995457.1891425,-3.113519479789367,-1.5097207803159494,8.81282143057924,0.3888888888888889,-0.2888888888888889,-0.6255555555555555,2.7094967486835446,5.416375812829114,-78.30551950789874
1589995457.1991425,-3.082496613830216,-1.5650067723395689,8.841248306915107,0.4015302233448443,-0.2772199647756993,-0.6070797590430054,2.406207672877695,5.382801918219424,-79.85176355383095
1589995457.2091424,-3.0556120253164556,-1.610646624472574,8.84,0.4033333333333333,-0.27555555555555555,-0.6044444444444445,2.4766165611814346,5.527424841772152,-81.21939873417722
1589995457.2191424,-3.055894114083076,-1.6494705704153823,8.769270631003083,0.4033333333333333,-0.27555555555555555,-0.6044444444444445,2.4631617869807725,5.5993382130192275,-82.19992604736532
1589995457.2291424,-3.087558957535994,-1.7044486969199926,8.726889739384,0.4033333333333333,-0.27555555555555555,-0.6044444444444445,2.523621742299982,5.754182613449973,-83.5917782941498
1589995457.2391424,-3.063055657943236,-1.726157390342794,8.754629561371175,0.4033333333333333,-0.27555555555555555,-0.6044444444444445,2.7549184482123112,5.966434758569849,-84.46180427570954
1589995457.2491424,-2.965275733123401,-1.7383026963196222,8.711881125762645,0.44115672767827857,-0.24234477027706705,-0.6044444444444445,2.875,6.010608148002362,-85.78783703995276
1589995457.2591424,-2.9697544970952614,-1.78609382655561,8.693415167634912,0.4488888888888889,-0.23555555555555555,-0.6044444444444445,2.8338447977182053,5.917689595436411,-86.53501762966333
1589995457.2691424,-3.0049260864732688,-1.876469563928717,8.631839131562371,0.4488888888888889,-0.23555555555555555,-0.6044444444444445,3.1240760809158608,6.290434774554481,-87.59144020228965
1589995457.2791424,-3.0677062702631175,-1.9312187644736551,8.69419377605258,0.4488888888888889,-0.23555555555555555,-0.6044444444444445,2.878359266447586,6.117382722039655,-88.31675801151276
1589995457.2891424,-3.08,-2.0182605054333034,8.788260505433303,0.4488888888888889,-0.23555555555555555,-0.6044444444444445,2.8125,6.284830981344612,-89.10449294403384
1589995457.2991424,-3.0142512097801175,-2.032068511758214,8.808045674505477,0.47678231504277857,-0.2169599381196291,-0.6336661289866146,2.9992863358519397,6.300285465659224,-89.74857267170388
1589995457.3091424,-3.044365969376752,-2.0778401984041404,8.775211343541082,0.4955555555555556,-0.20444444444444448,-0.6533333333333333,2.9700708971317664,6.508215171447056,-90.67135944576235
1589995457.3191423,-3.027805322402238,-2.130243346997202,8.689513306005596,0.4955555555555556,-0.20444444444444448,-0.6533333333333333,2.786587448760492,6.36128326501399,-91.71797530743704
1589995457.3291423,-2.984923076923077,-2.1663076923076923,8.68753846153846,0.4955555555555556,-0.20444444444444448,-0.6533333333333333,2.8596153846153847,6.422115384615385,-92.65
1589995457.3391423,-2.951108616551831,-2.2133370751722534,8.704445691724086,0.4955555555555556,-0.20444444444444448,-0.6533333333333333,2.829857213362236,6.482642786637764,-93.33685622629093
1589995457.3491423,-2.9027975327783206,-2.2486012336108394,8.70069938319458,0.5069229760955131,-0.17447579029364732,-0.6409325109261069,2.870628855033874,6.441871144966126,-94.43443282550811
1589995457.3591423,-2.7735553441167142,-2.2319364777309594,8.636777672058358,0.5077777777777778,-0.17222222222222222,-0.64,2.64920597163699,7.0019850709075255,-96.02410969145032
1589995457.3691423,-2.778730855930518,-2.298679805078565,8.636243618643507,0.5077777777777778,-0.17222222222222222,-0.64,2.5079321504342635,6.789341684346615,-97.12404279652588
1589995457.3791423,-2.7968553548570614,-2.3948428388564924,8.687987483999432,0.5077777777777778,-0.17222222222222222,-0.64,2.908805646422984,6.967767742853079,-98.75864919641587
1589995457.3891423,-2.8,-2.4392025758916267,8.69559806808128,0.5077777777777778,-0.17222222222222222,-0.64,3.245016099322668,7.33502817381467,-100.03010464559735
1589995457.3991423,-2.7611882322975037,-2.4625874511801666,8.75244863304466,0.5115152072602404,-0.16072243919926038,-0.6514997830229619,3.2779705807437596,7.481642150619799,-101.32780395652912
1589995457.4091423,-2.663785686130976,-2.4975713722619517,8.789976537717965,0.5222222222222223,-0.12777777777777774,-0.6844444444444444,3.459522871032528,7.652082512153462,-103.4004448448674
1589995457.4191422,-2.701073890046482,-2.556342362558102,8.59,0.5222222222222223,-0.12777777777777774,-0.6844444444444444,3.3743688892450714,7.894504327616605,-105.39912245552172
1589995457.4291422,-2.669565791431122,-2.5743961990479023,8.646038009520975,0.5222222222222223,-0.12777777777777774,-0.6844444444444444,2.6023574642963405,7.407309952395121,-107.39068892256769
1589995457.4391422,-2.647115870195455,-2.6441687708469717,8.672884129804546,0.5222222222222223,-0.12777777777777774,-0.6844444444444444,2.901054817793572,7.7223709436079675,-108.75802900651516
1589995457.4491422,-2.631866072677148,-2.722507141858282,8.654373214535429,0.5372269834610766,-0.09464226337530768,-0.6919468250638716,3.3555022274606947,8.160167409153566,-109.6798437281499
1589995457.4591422,-2.586007657639692,-2.732002552546564,8.681989789813743,0.5488888888888889,-0.06888888888888889,-0.6977777777777778,2.9876435807442268,7.887595720496151,-110.76227665217564
1589995457.4691422,-2.5348149443172083,-2.8010050875015295,8.625449920453155,0.5488888888888889,-0.06888888888888889,-0.6977777777777778,3.036375198867113,8.256281796884561,-111.17956279830067
1589995457.4791422,-2.532522609931044,-2.862522609931044,8.59,0.5488888888888889,-0.06888888888888889,-0.6977777777777778,3.4065326241380505,8.687688416092033,-111.45326631206902
1589995457.4891422,-2.512516608668143,-2.91809593483075,8.658708478329642,0.5488888888888889,-0.06888888888888889,-0.6977777777777778,3.414114402087947,8.664114402087947,-111.37117160313193
1589995457.4991422,-2.4751306141882243,-2.9731591810823677,8.706579590541185,0.5544154190692836,-0.042177326350314764,-0.7161995450457599,3.4268112204412,8.5731887795588,-110.63895413426441
1589995457.5091422,-2.436115913146247,-3.030826130280629,8.659173869719371,0.5555555555555556,-0.03666666666666667,-0.72,3.4375,8.5625,-109.86467337149213
1589995457.5191422,-2.436950562416424,-3.0817033744985447,8.601346063085032,0.5555555555555556,-0.03666666666666667,-0.72,2.959648833870841,8.475617969794698,-109.14182578856288
1589995457.5291421,-2.3948477454616435,-3.1258012883076325,8.605801288307632,0.5555555555555556,-0.03666666666666667,-0.72,2.75,8.4375,-107.98808071442514
1589995457.5391421,-2.348378058405683,-3.1529731649565904,8.615675611681135,0.5555555555555556,-0.03666666666666667,-0.72,2.75,8.4375,-106.74323204419889
1589995457.5491421,-2.32,-3.172392042503895,8.61956817001558,0.5598080755624798,-0.027098496651087232,-0.726644562510819,2.7051492030519713,8.4375,-105.31644229616906
1589995457.559142,-2.3239690766324035,-3.144278310308367,8.65,0.5733333333333334,0.0033333333333333327,-0.7477777777777778,2.4384663552373853,8.412693271047477,-103.14368467351926
1589995457.569142,-2.2951598635631023,-3.095360020990292,8.607119832077665,0.5733333333333334,0.0033333333333333327,-0.7477777777777778,2.25,8.358249934405338,-101.23399724502417
1589995457.579142,-2.1575827156599905,-3.1594868317300113,8.596043210850024,0.5733333333333334,0.0033333333333333327,-0.7477777777777778,1.940707301687431,7.914837959312411,-97.72185183724964
1589995457.589142,-2.09598698272708,-3.148562130519343,8.646287573896132,0.5733333333333334,0.0033333333333333327,-0.7477777777777778,1.8125,7.867892010552464,-95.5692011996688
1589995457.599142,-2.0787741236135573,-3.160709432647452,8.65,0.5767454925163835,-0.0034909850327670346,-0.7541146448320138,1.8125,8.04717654516947,-93.34396232167398
1589995457.609142,-2.064088307113406,-3.1896353228453624,8.655182338577319,0.5811111111111111,-0.012222222222222223,-0.7622222222222222,1.553383071134062,7.9283830711340615,-90.23224650734558
1589995457.619142,-2.0094108823128325,-3.2003927451247787,8.598821764625665,0.5811111111111111,-0.012222222222222223,-0.7622222222222222,1.1531816787126687,7.783090992772399,-87.31245312286921
1589995457.629142,-1.9746494360139577,-3.2307011279720848,8.566752819930212,0.5811111111111111,-0.012222222222222223,-0.7622222222222222,0.6990307757851173,7.5071487259595875,-84.11138977927453
1589995457.639142,-1.9414724213442138,-3.2514110314623146,8.612822062924629,0.5811111111111111,-0.012222222222222223,-0.7622222222222222,0.47315947331973274,7.009202633401336,-80.8332073873739
1589995457.649142,-1.9407145453223813,-3.3152387875263503,8.664524242203969,0.5872487541695944,0.009259528482469527,-0.7721958921922577,0.37053409173511664,6.48660227520535,-76.97764774296722
1589995457.659142,-1.9089819208115182,-3.3263273069371726,8.618472881217278,0.59,0.01888888888888889,-0.7766666666666666,0.4834086632853403,5.757046844322644,-73.48227871400523
1589995457.669142,-1.8963034834162718,-3.3389104502488154,8.51435819900474,0.59,0.01888888888888889,-0.7766666666666666,0.6018967713516988,5.342412914593204,-69.97179694754637
1589995457.679142,-1.8860796711982295,-3.3708804932026557,8.637043945621247,0.59,0.01888888888888889,-0.7766666666666666,1.0165092475497945,5.424004110022131,-65.9089373221625
1589995457.689142,-1.8755195838613656,-3.4068824968318054,8.745843329109075,0.59,0.01888888888888889,-0.7766666666666666,0.8794713904688928,4.855940180071321,-63.237859553210924
1589995457.699142,-1.858217327680012,-3.4416832389028555,8.77821732768001,0.5810227258514377,0.004674871486998612,-0.771803976502862,0.41583805485722863,4.009898784285768,-60.72274492514352
1589995457.709142,-1.8118851030587104,-3.4559425515293554,8.601148969412895,0.5366666666666666,-0.06555555555555556,-0.7477777777777778,0.6685370470524609,3.9357047352923504,-54.900133705907095
1589995457.719142,-1.8013061197659896,-3.435074826354653,8.607238107758715,0.5366666666666666,-0.06555555555555556,-0.7477777777777778,0.34608832358290054,3.4004250750454657,-51.021938473673835
1589995457.729142,-1.7430887570759188,-3.3931935754719533,8.61308875707592,0.5366666666666666,-0.06555555555555556,-0.7477777777777778,0.46139053655101436,3.1256551149752174,-46.69239220226971
1589995457.739142,-1.69684648593987,-3.3394813503947725,8.561058107424836,0.5366666666666666,-0.06555555555555556,-0.7477777777777778,0.9308868285947649,2.82572634281047,-42.90832595970596
1589995457.749142,-1.7294780487804877,-3.4089560975609756,8.629060487804878,0.5146764227642276,-0.03092092140921409,-0.6944514363143631,0.6295670731707317,2.531576219512195,-39.17810670731707
1589995457.759142,-1.7484646008496985,-3.5415353991503014,8.764149558810422,0.4922222222222222,0.004444444444444445,-0.64,0.5816924893787694,1.9481305148697228,-34.61850656585163
1589995457.769142,-1.7153400115903634,-3.555113337196788,8.550553522642602,0.4922222222222222,0.004444444444444445,-0.64,1.3317079228412947,2.2663744929215994,-31.232834878715124
1589995457.779142,-1.6677158820831421,-3.4992678147020806,8.336896134762124,0.4922222222222222,0.004444444444444445,-0.64,1.356148104907643,1.986271525664012,-27.775069841137473
1589995457.789142,-1.6466867273598467,-3.4733734547196935,8.496807091518926,0.4922222222222222,0.004444444444444445,-0.64,-0.11910038332534745,0.5968878773358888,-24.52585529468136
1589995457.799142,-1.7079402946992408,-3.541947757861836,8.595992536837405,0.4928880596486006,0.04506052745352357,-0.6213565520614064,-0.1008862505581426,1.4986006570134593,-20.665718488869043
1589995457.8091419,-1.7666830154405087,-3.580673206176203,8.760098092643052,0.4933333333333334,0.07222222222222223,-0.6088888888888889,0.27493869209809263,1.2160331516802907,-17.569995458673933
1589995457.8191419,-1.3759486565376844,-3.0967917820522413,9.295784372427214,0.4933333333333334,0.07222222222222223,-0.6088888888888889,2.0522532931666793,5.031467517401392,-13.368561017139434
1589995457.8291419,-1.2218002468175748,-2.913095531925684,7.963501259445844,0.4933333333333334,0.07222222222222223,-0.6088888888888889,8.706916808953054,7.397022340371579,-9.673984201984684
1589995457.8391418,-1.4804349328878392,-3.3138464197246384,7.808228584595887,0.4933333333333334,0.07222222222222223,-0.6088888888888889,5.0154602799700445,-1.1064037386946248,-9.693354311884326
1589995457.8491418,-1.595482620914066,-3.465516935364591,9.713603608933589,0.5025229995562787,0.11887745073871386,-0.5912164538447633,-11.896557461913918,-6.830919982251147,-10.108402972932998
1589995457.8591418,-1.654360814271836,-3.529449792457829,9.44309878124172,0.5077777777777778,0.14555555555555555,-0.5811111111111111,0.8382854588006712,0.6703570718890752,-4.276244977037887
1589995457.8691418,-1.7400768584735193,-3.64669228615784,9.086000559896165,0.5077777777777778,0.14555555555555555,-0.5811111111111111,3.9807853816201355,2.2264445957295194,-0.1605820375130429
1589995457.8791418,-1.6776267757699739,-3.511832935560859,9.157905216501876,0.5077777777777778,0.14555555555555555,-0.5811111111111111,-2.6121150130696673,-2.6483265143766337,0.625
1589995457.8891418,-1.5773883045143813,-3.348928442930009,8.733414463798175,0.5077777777777778,0.14555555555555555,-0.5811111111111111,-1.6905648796799935,-2.2251634955237147,3.1152378886325636
1589995457.8991418,-1.5364772420414654,-3.299431726124396,8.356477242041464,0.5214519554208713,0.16282820099946327,-0.5911868209533906,1.0298276275915867,-0.32741381379579343,6.53834498484803
1589995457.9091418,-1.6304955953736442,-3.4728920716725593,8.818511016559796,0.5288888888888889,0.17222222222222222,-0.5966666666666667,-0.18284692674936576,-1.6064014402429037,7.978303969157627
1589995457.9191418,-1.6591278592272878,-3.533691788840932,8.818996627466056,0.5288888888888889,0.17222222222222222,-0.5966666666666667,-0.2567210407674698,-1.8685039404476909,9.026209219424398
1589995457.9291418,-1.6245206064488575,-3.479360808598477,8.424703537618335,0.5288888888888889,0.17222222222222222,-0.5966666666666667,0.9586180511068403,-1.1835050537404797,10.2137563171756
1589995457.9391418,-1.6664936564819375,-3.532987312963875,8.735582465734812,0.5288888888888889,0.17222222222222222,-0.5966666666666667,0.4155853530121096,-1.6282439409636713,10.928561116866794
1589995457.9491417,-1.6585534885534885,-3.5084279084279086,8.77949767949768,0.5300139533472866,0.17479379812713147,-0.5987560720894054,0.375,-1.7047965172965174,11.474447661947663
1589995457.9591417,-1.6597941903433424,-3.454691285515014,8.584073856545041,0.5366666666666666,0.19,-0.6111111111111112,0.2525726207082202,-1.49871368964589,12.24614106893767
1589995457.9691417,-1.6419235889243877,-3.4363083067092655,8.444695686900959,0.5366666666666666,0.19,-0.6111111111111112,0.05480897231096912,-1.5625,12.612977569222577
1589995457.9791417,-1.7042895903646351,-3.52238612048618,8.665254891580085,0.5366666666666666,0.19,-0.6111111111111112,0.03512066265193126,-1.5273793373480686,12.890482650607725
1589995457.9891417,-1.7102837174473748,-3.495160995091106,8.68816706880772,0.5366666666666666,0.19,-0.6111111111111112,0.033790248772776435,-1.442580497545553,13.057419502454447
1589995457.9991417,-1.6776057696429336,-3.421536713961164,8.530423078571735,0.5431242230699987,0.18810071870490233,-0.6088319735569939,0.021366914569848686,-1.439100743709546,13.125
1589995458.0091417,-1.7304523312456506,-3.5243618649965205,8.745718858733474,0.5555555555555556,0.18444444444444444,-0.6044444444444445,0.11136917188587335,-1.5136308281141266,13.149434585942936
1589995458.0191417,-1.717479734884608,-3.5524392046538242,8.63,0.5555555555555556,0.18444444444444444,-0.6044444444444445,0.11466777131413312,-1.3282516569711997,13.1875
1589995458.0291417,-1.73,-3.541657911510649,8.581657911510648,0.5555555555555556,0.18444444444444444,-0.6044444444444445,0.0625,-1.384283579137086,13.1875
1589995458.0391417,-1.7257201409951635,-3.5042798590048365,8.531440281990326,0.5555555555555556,0.18444444444444444,-0.6044444444444445,0.08924911878022788,-1.5267491187802278,13.214249118780227
1589995458.0491416,-1.7036358865206869,-3.559092340437939,8.634548794355192,0.5587374665098664,0.1894445902297901,-0.6098991489375488,-0.0028446365571332677,-1.5625,13.301137854622853
1589995458.0591416,-1.705282740120133,-3.575220729739712,8.652517349299224,0.5633333333333334,0.19666666666666666,-0.6177777777777778,-0.05581906187430749,-1.5625,13.454008562875416
1589995458.0691416,-1.7564557230834572,-3.5211573582501594,8.525226162667233,0.5633333333333334,0.19666666666666666,-0.6177777777777778,0.022151730728392438,-1.5625,13.606577829687831
1589995458.0791416,-1.805464848176951,-3.5836507874477315,8.760022665989291,0.5633333333333334,0.19666666666666666,-0.6177777777777778,-0.30116212044237756,-1.534155301105944,13.778344698894056
1589995458.0891416,-1.7628665940104686,-3.542932752083749,8.68006615807328,0.5633333333333334,0.19666666666666666,-0.6177777777777778,-0.33082970052343164,-1.25,13.937086512041997
1589995458.0991416,-1.7693048029840208,-3.594438423872166,8.725133620888146,0.5633333333333334,0.19666666666666666,-0.6177777777777778,-0.6527401492010376,-1.25,13.655414869449093
1589995458.1091416,-1.7526029533156011,-3.5578088599468036,8.621371411538108,0.65,0.18777777777777774,-0.6255555555555555,-0.20376845822250755,-1.2303078854443732,13.549655198110612
1589995458.1191416,-1.7839013670296997,-3.6126904307921017,8.745874026435704,0.65,0.18777777777777774,-0.6255555555555555,-0.27746582425750577,-1.1631164560643765,13.201232912128752
1589995458.1291416,-1.7937992984998437,-3.5813978954995305,8.648996492499219,0.65,0.18777777777777774,-0.6255555555555555,-0.2912193093681559,-1.1724912312480444,12.9112894593838
1589995458.1391416,-1.7950282616887447,-3.593785327110931,8.65762717759935,0.65,0.18777777777777774,-0.6255555555555555,-0.5236582944433172,-1.2422316588886635,12.539194976665991
1589995458.1491416,-1.7554644037654883,-3.5341254131792086,8.502267798117256,0.6948520072079503,0.1865178899348578,-0.6351307031617471,-0.3208686911642472,-1.2441949529313978,12.261610094137204
1589995458.1591415,-1.7421366486962262,-3.485697729856603,8.52068324348113,0.8477777777777777,0.18222222222222226,-0.6677777777777778,-0.5402432427476437,-1.4152432427476436,11.866097297099058
1589995458.1691415,-1.7659463349188926,-3.5397316745944627,8.623517014270034,0.8477777777777777,0.18222222222222226,-0.6677777777777778,-0.4526832540553726,-1.125,11.496645932430784
1589995458.1791415,-1.7346656410749484,-3.480443247920773,8.50666410268737,0.8477777777777777,0.18222222222222226,-0.6677777777777778,-0.538880342291236,-1.1513899572135955,11.019440171145618
1589995458.1891415,-1.7166431213636448,-3.456643121363645,8.473257988363663,0.8477777777777777,0.18222222222222226,-0.6677777777777778,-0.3748234102273361,-1.1250882948863319,10.708568786363552
1589995458.1991415,-1.7525362440291627,-3.500144976116651,8.602826196262466,1.0303873478775012,0.14305134221626303,-0.8233340782330977,-0.5932969496354646,-0.904890848906394,10.200633222995055
1589995458.2091415,-1.764079459002536,-3.5340794590025357,8.67,1.5677777777777775,0.027777777777777776,-1.2811111111111109,-0.5254966187658495,-0.7014898562975486,9.381540574809806
1589995458.2191415,-1.7723999029361805,-3.5567993205532638,8.643601067702015,1.5677777777777775,0.027777777777777776,-1.2811111111111109,-0.4725036398932298,-0.7825012132977432,8.667510919679689
1589995458.2291415,-1.7878519738777432,-3.61,8.607111843266459,1.5677777777777775,0.027777777777777776,-1.2811111111111109,-0.13842516326410542,-0.6384251632641055,7.321751632641054
1589995458.2391415,-1.7789424184261036,-3.5836780230326295,8.656310220729367,1.5677777777777775,0.027777777777777776,-1.2811111111111109,-0.029597528790786948,-0.6612074136276391,6.2170240523032625
1589995458.2491415,-1.7381857180436675,-3.525912503288209,8.61955179182096,1.4013279417947662,-0.02728453518777079,-1.1717442234318334,0.04829240777838483,-0.8238392622270787,4.937432971124466
1589995458.2591414,-1.789198433514174,-3.5678482377034455,8.706498041892718,0.8355555555555556,-0.21444444444444444,-0.8,0.016877447634103402,-0.4459387238170517,3.6893480760248627
1589995458.2691414,-1.7164857210290299,-3.49702855794194,8.59891432617418,0.8355555555555556,-0.21444444444444444,-0.8,0.21285697427425065,-0.47803575643143736,1.9728581543544963
1589995458.2791414,-1.7081565692905454,-3.5155302921283638,8.558156569290546,0.8355555555555556,-0.21444444444444444,-0.8,0.3173927903295438,-0.3683713483954526,0.7465282774499928
1589995458.2891414,-1.700689141536965,-3.54137828307393,8.55689141536965,0.8355555555555556,-0.21444444444444444,-0.8,0.07972853842412451,-0.06680713460603113,-0.4912926343628405
1589995458.2991414,-1.7145151249102082,-3.557742437544896,8.652257562455105,0.7861400218160535,-0.14596504997295162,-0.7801836184496413,0.284280469311198,-0.11089023465559901,-2.4011343682656237
1589995458.3091414,-1.728820060105184,-3.5582595792637113,8.66,0.6166666666666667,0.08888888888888889,-0.7122222222222222,0.1875,-0.05512537565740045,-3.7689894815927873
1589995458.3191414,-1.7071560739212095,-3.6071560739212094,8.600061678298978,0.6166666666666667,0.08888888888888889,-0.7122222222222222,0.1875,0.1873072553156955,-6.061729021262782
1589995458.3291414,-1.6734893942289317,-3.585872348557233,8.544765908656602,0.6166666666666667,0.08888888888888889,-0.7122222222222222,0.2132978215172941,0.3343087139308236,-7.939625931587999
1589995458.3391414,-1.6560822340183248,-3.58,8.586082234018324,0.6166666666666667,0.08888888888888889,-0.7122222222222222,0.3830488691508558,0.3015418878435907,-9.833737364447014
1589995458.3491414,-1.67,-3.570915783876641,8.608175794511023,0.6129320444826192,0.09656000472639191,-0.7103044432628465,0.6364012843061065,0.5681776350770993,-11.573671213546566
1589995458.3591413,-1.6732938483643531,-3.506350786914826,8.686706151635647,0.5755555555555556,0.17333333333333334,-0.6911111111111111,0.289692418217663,0.6661731045544157,-15.05213519564273
1589995458.3691413,-1.6840467873738183,-3.549593975324467,8.67306265021631,0.5755555555555556,0.17333333333333334,-0.6911111111111111,0.6213867969876622,0.7644528120493511,-16.964254526518186
1589995458.3791413,-1.7525354789148102,-3.3901419156592407,8.56253547891481,0.5755555555555556,0.17333333333333334,-0.6911111111111111,0.5783467432175636,1.0158467432175635,-20.039676242267415
1589995458.3891413,-1.7513777701425872,-3.4298539769799,8.58478096546985,0.5755555555555556,0.17333333333333334,-0.6911111111111111,0.6326984195155472,1.108690517093283,-22.05884942449751
1589995458.3991413,-1.680786157528009,-3.521060211364551,8.693948789630854,0.5762868128946025,0.174357093607999,-0.6957911580810113,0.7862197407713324,1.4539532901285555,-24.0346194167355
1589995458.4091413,-1.6190666225822452,-3.6606222516118367,8.716888741940817,0.5811111111111111,0.1811111111111111,-0.7266666666666667,1.4258327822780625,1.5566663911390313,-25.564169697470657
1589995458.4191413,-1.5924673017608246,-3.6775326982391756,8.600261585913403,0.5811111111111111,0.1811111111111111,-0.7266666666666667,1.0933412720103073,1.5292063600515364,-28.009698444149457
1589995458.4291413,-1.6032564187156748,-3.6634871625686505,8.541953851229405,0.5811111111111111,0.1811111111111111,-0.7266666666666667,1.17528842981622,2.0,-29.47676308486483
1589995458.4391413,-1.6439548603698888,-3.582090279260222,8.566372916221933,0.5811111111111111,0.1811111111111111,-0.7266666666666667,1.022669273612917,2.0,-30.748589386559026
1589995458.4491413,-1.5043473943819865,-3.312323436148746,8.696131770282824,0.5691470484609717,0.15984166639975228,-0.715145717448014,1.424850261042247,2.2124251305211238,-32.17410156625348
1589995458.4591413,-1.3481603025019102,-3.3089026468917146,8.616379773123567,0.5511111111111111,0.12777777777777774,-0.6977777777777778,1.7837547265923472,2.590505671910817,-32.937130199251584
1589995458.4691412,-1.3403376779171936,-3.595832117498298,8.6,0.5511111111111111,0.12777777777777774,-0.6977777777777778,1.8825675599001395,2.8288712187530396,-33.72606122134682
1589995458.4791412,-1.2519450118341278,-3.881408423305126,8.6,0.5511111111111111,0.12777777777777774,-0.6977777777777778,1.16012750056739,2.318913529812275,-34.95845896962034
1589995458.4891412,-10.985571301027678,-8.628009042037878,-6.842039017533196,0.5511111111111111,0.12777777777777774,-0.6977777777777778,-22.955677867902665,29.46064410272971,-119.28523023004009
1589995458.4991412,0.9659570580173595,-2.2421151210598445,-1.6716674280493375,0.5502705446424039,0.13027612811532405,-0.6954428709202579,-97.02623915029695,104.50165600730928,-423.12477158519874
1589995458.5091412,-0.6368371199684812,-4.252439424781667,0.2297879046555913,0.5111111111111111,0.2466666666666667,-0.5866666666666667,-51.6123103946418,-81.06960404491431,-688.3939400157594
1589995458.5191412,-0.768274939272922,-3.6620556630573513,0.267868582485899,0.5111111111111111,0.2466666666666667,-0.5866666666666667,-57.18263411420808,-31.60923926468772,-669.9539940919758
1589995458.5291412,-1.5721462891633247,-5.424634872731605,6.492645832506056,0.5111111111111111,0.2466666666666667,-0.5866666666666667,-40.753338065361554,25.01765079617202,-627.4707466346345
1589995458.5391412,-0.6205069984447901,-2.9066558542546104,0.16182115085536564,0.5111111111111111,0.2466666666666667,-0.5866666666666667,-2.5557820484336826,82.74571622972672,-592.3537186180848
1589995458.5491412,-1.7835439307423098,-3.56622214035734,5.409277951740652,0.49236569042794864,0.28205521786291726,-0.5868418575141728,45.64218778780622,149.42690873088966,-551.6114500828882
1589995458.5591412,-5.988802399563716,-3.8131234321032537,15.666494455553536,0.3922222222222223,0.4711111111111111,-0.5877777777777777,83.40059534630068,187.2638906562443,-514.1782744046537
1589995458.5691411,2.226447963800905,-0.45267722473604827,0.21516968325791863,0.3922222222222223,0.4711111111111111,-0.5877777777777777,162.5265483597285,63.79528421945701,-434.47422935520365
1589995458.5791411,-1.1200349142699113,-0.8814226700774336,-0.8830263066924778,0.3922222222222223,0.4711111111111111,-0.5877777777777777,80.85394017042312,-19.877996664131636,-380.3133328868225
1589995458.5891411,-0.351582549778761,-0.7146830060840708,1.3570848313053099,0.3922222222222223,0.4711111111111111,-0.5877777777777777,12.300377229673671,-5.831992360342923,-349.00433619676437
1589995458.5991411,1.7301084957705033,-3.4376792938580363,17.68180948878264,0.3379516570634629,0.4960630950921499,-0.5902729761758816,-39.55260435821993,50.08721611805811,-303.250821763516
1589995458.609141,-2.368613578807734,-0.19675001004944326,6.378187482413474,0.1988888888888889,0.56,-0.5966666666666667,-15.05545031555252,77.58868884913775,-264.036966877035
1589995458.619141,0.6967277438944586,-1.115639609454755,6.314330026437714,0.1988888888888889,0.56,-0.5966666666666667,12.857506282229144,14.222052260293694,-229.0768885951365
1589995458.629141,1.0011663331109628,-3.722787969757616,7.785243495663776,0.1988888888888889,0.56,-0.5966666666666667,-9.377254975539248,-26.201905436957972,-195.067951551034
1589995458.639141,3.1991878888024883,-8.696338452566096,5.6027502916018666,0.1988888888888889,0.56,-0.5966666666666667,-3.0855851477449456,8.368484520800934,-170.4557676419129
1589995458.649141,12.04468041588546,-13.568554627577978,9.08071757286518,0.1848275287388974,0.5649274851807663,-0.5959455712743594,-0.46392321459008024,26.968214163967957,-120.79417078575081
1589995458.659141,0.37604020647459474,0.7197315170605406,10.167120899780663,0.06888888888888889,0.6055555555555555,-0.59,-4.398298481125385,5.6806023962267265,-36.71378345729505
1589995458.669141,-0.05973481537675018,0.5329707934099642,5.588024638422085,0.06888888888888889,0.6055555555555555,-0.59,30.921958746310004,7.323405057967907,-16.35167678150304
1589995458.679141,0.4846049139045804,-0.5078020145647588,6.318964643027292,0.06888888888888889,0.6055555555555555,-0.59,19.786784097869734,3.2976268461171987,6.32141261995508
1589995458.689141,0.9127986115837473,-1.264277547131287,9.337730211665418,0.06888888888888889,0.6055555555555555,-0.59,-9.919153678622479,-11.064703430204858,18.67658493840604
1589995458.699141,5.661427191258287,-5.935408601792318,9.548393243828498,0.06694747050745319,0.6094383923184269,-0.5946108686559097,-23.635995852350334,-1.875,35.97191591431522
1589995458.709141,-1.92,-1.41,9.65,0.06,0.6233333333333333,-0.6111111111111112,-2.875,-1.875,33.1875
1589995458.719141,0.3090902447935696,-2.317405918889295,6.851980270369017,0.06,0.6233333333333333,-0.6111111111111112,11.601867921081476,2.067135549872123,35.002192181220316
1589995458.729141,3.206797890006838,-4.178941096024226,8.43495555338478,0.06,0.6233333333333333,-0.6111111111111112,-8.694753101494578,-5.545081566865292,44.11766752954967
1589995458.739141,1.4394294294294294,-3.4615015015015014,8.96129129129129,0.06,0.6233333333333333,-0.6111111111111112,-2.7291666666666665,-5.338025525525525,49.659346846846844
1589995458.749141,1.513321079984789,-3.4362999112688555,8.651650399290151,0.05874762327291165,0.6247944395149364,-0.6111111111111112,1.3417892001521106,-2.906784763594879,51.22379262263912
1589995458.759141,1.7940552801950305,-3.523659568284925,8.282238331261402,0.05333333333333334,0.6311111111111111,-0.6111111111111112,-2.91098399231502,-4.256702158575372,55.12952158575373
1589995458.769141,1.3674405463439836,-3.4559429438641245,8.647908103133728,0.05333333333333334,0.6311111111111111,-0.6111111111111112,-2.3607864188960104,-4.595285280679378,58.51535280679378
1589995458.779141,1.7239961111218065,-3.535168935178946,8.506500972219548,0.05333333333333334,0.6311111111111111,-0.6111111111111112,-1.0552913770864216,-4.645873842481182,66.59293721001868
1589995458.789141,1.6297068229032934,-3.592931770967064,8.544365677738615,0.05333333333333334,0.6311111111111111,-0.6111111111111112,-3.020355792348451,-5.626832356854415,72.31006804229594
1589995458.799141,1.6145460438883668,-3.688259375709053,9.017563125992673,0.053745925757854064,0.6309563889519157,-0.6111884721907088,-1.6409557226670124,-5.690401040484911,78.51510283297138
1589995458.809141,1.1834038363357888,-3.4954615515522818,8.673601001628862,0.08888888888888889,0.6177777777777778,-0.6177777777777778,-2.7738281914764302,-6.05928481997423,87.10835278243746
1589995458.819141,1.252231884057971,-3.448534161490683,8.449453416149069,0.08888888888888889,0.6177777777777778,-0.6177777777777778,-2.61583850931677,-6.66055900621118,94.32823498964804
1589995458.829141,1.193744944633806,-3.640617416950709,8.806022287762923,0.08888888888888889,0.6177777777777778,-0.6177777777777778,-3.8228745386150504,-7.584703874750543,101.32363284354415
1589995458.839141,1.1493004609434327,-3.5739506914151495,8.635651766949826,0.08888888888888889,0.6177777777777778,-0.6177777777777778,-3.452503841195274,-8.18655625805768,107.61993469968034
1589995458.849141,1.0092653953034514,-3.675687193737935,8.53015994569483,0.09346103533371516,0.6173801998260537,-0.6158892825070886,-4.461863080969857,-9.101636579622834,118.75377723213339
1589995458.8591409,0.9024971892832142,-3.533329585710952,8.43228909017628,0.1389363823423347,0.6134258218253041,-0.5971059870035285,-3.460911149530133,-9.490895664071616,126.87260956492226
1589995458.8691409,0.7860721941181514,-3.6583340478436077,8.872740289805368,0.14,0.6133333333333333,-0.5966666666666667,-4.421134142158964,-10.141365857841036,138.25144152447913
1589995458.8791409,0.6781848580982595,-3.5576392008917086,8.563463259881676,0.14,0.6133333333333333,-0.5966666666666667,-3.9716035754094143,-10.590896424590586,144.81458779902255
1589995458.8891408,0.4020744509999493,-3.6430186127499873,8.637360404375094,0.14,0.6133333333333333,-0.5966666666666667,-5.136802021875475,-11.494098989062262,156.00577422108768
1589995458.8991408,0.458799215593461,-3.6571998038983655,8.531001470762261,0.14,0.6133333333333333,-0.5966666666666667,-4.6050073538113026,-11.759996323094349,162.78615623890587
1589995458.9091408,0.23911567295992464,-3.5650826235428035,8.520884327040076,0.1811111111111111,0.6177777777777778,-0.59,-5.7537963162852765,-13.115676639714252,175.05423764571967
1589995458.9191408,0.12387408250578952,-3.4827672017898497,8.63612591749421,0.1811111111111111,0.6177777777777778,-0.59,-5.084983514542529,-13.064229501118657,183.28577982101504
1589995458.9291408,0.11658364474457955,-3.610747197298784,8.677544625073507,0.1811111111111111,0.6177777777777778,-0.59,-6.0122327712123225,-14.190613322078267,193.5326898818218
1589995458.9391408,0.10067113075478498,-3.753959823206935,8.526375742170456,0.1811111111111111,0.6177777777777778,-0.59,-6.360319014739079,-14.787332596695563,199.7982422653034
1589995458.9491408,0.020643238098658576,-3.7311429956722395,8.397357731607018,0.1811111111111111,0.6177777777777778,-0.59,-6.6455344155727545,-15.218301623359132,205.74372272702786
1589995458.9591408,-0.01,-3.809013209594731,8.775285334730382,0.26682753516529667,0.591403493453413,-0.6317592835135776,-7.49177674662276,-16.611294577704598,220.7331488792426
1589995458.9691408,-0.1444006023556408,-3.8996004015704275,8.735199799214787,0.2677777777777778,0.5911111111111111,-0.6322222222222222,-7.5,-16.625,220.875
1589995458.9791408,-0.3001548483554037,-3.9000309696710804,8.719504485262709,0.2677777777777778,0.5911111111111111,-0.6322222222222222,-7.250096780222127,-17.250290340666382,234.32072631888082
1589995458.9891407,-0.37480777445536095,-3.914961554891072,8.480615121742845,0.2677777777777778,0.5911111111111111,-0.6322222222222222,-7.296754859034601,-17.390264577103803,238.28666301794104
1589995458.9991407,0.32533818694222644,-5.098258572099577,8.498054485674025,0.27097549710349145,0.5892141589687386,-0.6332519962423673,-8.992345291216534,-18.66766821277595,238.42555190230155
1589995459.0091407,14.837894350247904,-22.941229111832037,5.5127612168696825,0.3333333333333333,0.5522222222222222,-0.6533333333333333,-26.345481116484056,-25.176336689722717,92.50129690273612
1589995459.0191407,-3.0279292687922443,-1.1118939031883661,10.025868607906055,0.3333333333333333,0.5522222222222222,-0.6533333333333333,1.7123771079401937,13.57977956236772,-101.87192876527617
1589995459.0291407,-4.860626749505018,-3.8609401242575268,13.025478937666417,0.3333333333333333,0.5522222222222222,-0.6533333333333333,45.38212176554926,26.37644654195398,-82.7664154775722
1589995459.0391407,-2.1670353757946876,-1.1536323569561997,3.9972561332345253,0.3333333333333333,0.5522222222222222,-0.6533333333333333,15.189442840984437,4.474745504894887,-18.61838166465151
1589995459.0491407,-0.9891828854479503,-3.4520806193689304,9.804723273138578,0.3333333333333333,0.5522222222222222,-0.6533333333333333,-20.596006084480678,-7.283330570615078,0.9102490346737397
1589995459.0591407,-0.9609308892392404,-4.439536908487658,9.7913975104125,0.3911111111111111,0.4866666666666667,-0.64,-19.251542755959242,-5.697688954514437,24.325502388403887
1589995459.0691407,-0.7874691861301616,-3.621611433504388,8.904142247374228,0.3911111111111111,0.4866666666666667,-0.64,7.6332939667162245,-1.25,51.142001582657905
1589995459.0791407,0.23984341277494603,-4.320095284015245,7.804683840749415,0.3911111111111111,0.4866666666666667,-0.64,2.5771542223446757,-2.728595536575286,65.65137099921937
1589995459.0891407,6.046096072348277,-13.394582192753006,8.704429507066529,0.3911111111111111,0.4866666666666667,-0.64,-11.653499300444066,-10.006354299734372,57.51600614392603
1589995459.0991406,-0.6216477076870044,-5.034388142019992,8.993591864874181,0.3911111111111111,0.4866666666666667,-0.64,-5.593846949327817,-1.661043605653223,-3.239981902792138
1589995459.1091406,-2.4026304405993577,-2.4516435515519084,9.13350205137353,0.39895251119831926,0.4866666666666667,-0.6272577248582867,15.97691507982519,7.523805409382804,-15.729614475561897
1589995459.1191406,-0.9872503806830542,-3.5341635849467044,7.145499238633891,0.4,0.4866666666666667,-0.6255555555555555,-6.0547775723297805,-2.1285485098977595,10.807768653469655
1589995459.1291406,-0.13291276919730266,-6.818801392212313,8.854174461605394,0.4,0.4866666666666667,-0.6255555555555555,-8.180253426147488,-4.9279557319991305,7.075225690667827
1589995459.1391406,-0.33016187445127304,-3.8004856233538193,8.609039179104478,0.4,0.4866666666666667,-0.6255555555555555,4.551501454126426,1.6527415770412643,-2.3005549001316945
1589995459.1491406,-0.4759251536435469,-4.237775460930641,8.217779850746268,0.4,0.4866666666666667,-0.6255555555555555,0.5717803446005263,-0.025454071553994595,-0.43056546312554866
1589995459.1591406,-0.2615953787393543,-4.477236970085166,8.433930681090313,0.3922222222222223,0.4933333333333334,-0.6488888888888888,-0.5153177116693948,-0.3976155315161436,-0.09508664863710768
1589995459.1691406,-0.2689147997001749,-4.420852002998251,8.556744399100525,0.3922222222222223,0.4933333333333334,-0.6488888888888888,0.048934996252186225,-0.16036999250437245,0.0625
1589995459.1791406,-0.26192837511451655,-4.4907162488548344,8.53578512534355,0.3922222222222223,0.4933333333333334,-0.6488888888888888,-0.03839531106854335,0.014290622137086706,0.0625
1589995459.1891406,-0.26944373681108724,-4.530556263188913,8.39778768464478,0.3922222222222223,0.4933333333333334,-0.6488888888888888,0.12152335506929526,0.00347664493070474,0.0
1589995459.1991405,-0.2614699340316724,-4.538530065968327,8.509420923556586,0.3922222222222223,0.4933333333333334,-0.6488888888888888,0.07168708769795251,0.053312912302047495,0.0
1589995459.2091405,-0.28844385458742067,-4.432334218118869,8.648443854587422,0.4066666666666667,0.4666666666666667,-0.6611111111111111,0.10554818234275823,-0.0048629544143104445,0.22568522792844778
1589995459.2191405,-0.27137453640782294,-4.4563345695791385,8.627250927184354,0.4066666666666667,0.4666666666666667,-0.6611111111111111,-0.11640914745110686,-0.0625,-0.056772764967404576
1589995459.2291405,-0.29949733471622564,-4.381633662172266,8.56861767046962,0.4066666666666667,0.4666666666666667,-0.6611111111111111,0.057787512964615644,-0.06328541450589739,0.06092917098820522
1589995459.2391405,-0.26019825613509034,-4.508612207054368,8.463172098161447,0.4066666666666667,0.4666666666666667,-0.6611111111111111,-0.3050653949341119,-0.12376089915568532,-0.06126089915568531
1589995459.2491405,-0.2684723427759804,-4.450693600568138,8.595557484415686,0.4066666666666667,0.4666666666666667,-0.6611111111111111,0.005212854099266195,-0.07204785765012231,-0.00954785765012231
1589995459.2591405,-0.27,-4.447614838235622,8.627614838235623,0.4117432254904143,0.48697290196165754,-0.6661876699348588,-0.12787095589053907,-0.0625,-0.04759273897263477
1589995459.2691405,-0.27,-4.45,8.592836828796669,0.4133333333333333,0.4933333333333334,-0.6677777777777778,0.04476982002082405,-0.0625,-0.0625
1589995459.2791405,-0.27963386406677426,-4.488901592200323,8.433295223399032,0.4133333333333333,0.4933333333333334,-0.6677777777777778,-0.1737699025040331,-0.2454233008346777,0.0022883495826611488
1589995459.2891405,-0.27014037356868414,-4.46,8.520140373568683,0.4133333333333333,0.4933333333333334,-0.6677777777777778,0.18574533039144825,-0.125,0.061622665195724124
1589995459.2991405,-0.2781182713888995,-4.46,8.528118271388898,0.4133333333333333,0.4933333333333334,-0.6677777777777778,0.0860216076387568,-0.125,0.011760803819378399
1589995459.3091404,-0.29,-4.498663369251605,8.638663369251605,0.4066666666666667,0.4866666666666667,-0.6677777777777778,0.30275373412628315,-0.12639232369624526,0.0
1589995459.3191404,-0.29,-4.449269269269269,8.58926926926927,0.4066666666666667,0.4866666666666667,-0.6677777777777778,-0.057411578244911554,-0.1778445111778445,0.0
1589995459.3291404,-0.28374561741652443,-4.465017530333903,8.542473704499146,0.4066666666666667,0.4866666666666667,-0.6677777777777778,-0.08591010885327753,-0.07023032655983259,-0.03908989114672247
1589995459.3391404,-0.28864875717785005,-4.488648757177851,8.52864875717785,0.4066666666666667,0.4866666666666667,-0.6677777777777778,-0.11655473236156286,-0.10810946472312571,-0.008445267638437143
1589995459.3491404,-0.28220473236476795,-4.49,8.576771605811393,0.4066666666666667,0.4866666666666667,-0.6677777777777778,0.11860211360100223,-0.2711612681606014,0.04872042272020045
1589995459.3591404,-0.28989635488088783,-4.49,8.560310935357338,0.4264593764284424,0.4866666666666667,-0.6402879031086449,0.063795563988902,-0.065091127977804,0.0625
1589995459.3691404,-0.29,-4.476356319766584,8.594109200583539,0.4266666666666667,0.4866666666666667,-0.64,0.019863499270575506,-0.019863499270575506,0.0625
1589995459.3791404,-0.27169169575452556,-4.479154152122738,8.44522526179073,0.4266666666666667,0.4866666666666667,-0.64,-0.11442690153421545,-0.17164035230132316,0.11971345076710772
1589995459.3891404,-0.27,-4.47019217519685,8.518270423228346,0.4266666666666667,0.4866666666666667,-0.64,0.12019562007874016,-0.0036032849409448897,0.06370109498031495
1589995459.3991404,-0.2777900792974886,-4.5089503964874424,8.543370237892466,0.4266666666666667,0.4866666666666667,-0.64,0.17368799560930373,-0.09737599121860747,0.0625
1589995459.4091403,-0.26167141040392417,-4.455849936413735,8.614150063586266,0.4144476069359494,0.4734293519583897,-0.6654563744389942,0.30205368497547386,-0.010446315024526129,0.11977684248773693
1589995459.4191403,-0.27946111055925305,-4.488922221118506,8.571347223601867,0.4133333333333333,0.4722222222222222,-0.6677777777777778,0.008420147511671805,0.06081597049766564,0.0033680590046687164
1589995459.4291403,-0.28867528717328067,-4.463974138480158,8.526623564133596,0.4133333333333333,0.4722222222222222,-0.6677777777777778,-0.10844108966600845,0.0625,0.0
1589995459.4391403,-0.26125050326113214,-4.479166331159246,8.500833668840755,0.4133333333333333,0.4722222222222222,-0.6677777777777778,-0.18489478487264138,0.0625,-0.11978956974528276
1589995459.4491403,-0.2675866862015853,-4.464826627596829,8.560693489612683,0.4133333333333333,0.4722222222222222,-0.6677777777777778,-0.09266642248018334,-0.032333577519816664,0.01725036627972501
1589995459.4591403,-0.27,-4.479030643948066,8.560969356051935,0.42602042929871037,0.485966576184714,-0.6677777777777778,-0.12197076233770482,-0.12197076233770482,0.003029237662295188
1589995459.4691403,-0.2605847721878345,-4.470584772187834,8.607076139060826,0.4266666666666667,0.4866666666666667,-0.6677777777777778,-0.007309652347931309,0.05153552147810306,-0.17653552147810306
1589995459.4791403,-0.28852647000307474,-4.484263235001538,8.524420589990775,0.4266666666666667,0.4866666666666667,-0.6677777777777778,-0.044572609379804305,0.017927390620195695,-0.09835478124039139
1589995459.4891403,-0.25549564920662005,-4.49,8.552306091110733,0.4266666666666667,0.4866666666666667,-0.6677777777777778,0.16002175396689985,0.055630438491724964,-0.006869561508275036
1589995459.4991403,-0.25556838608550597,-4.49,8.554431613914495,0.4266666666666667,0.4866666666666667,-0.6677777777777778,0.11789517393117531,-0.007104826068824691,0.034802413034412345
1589995459.5091403,-0.2640753085967547,-4.481849382806491,8.56630123438702,0.4126294926111783,0.4839497942688302,-0.6677777777777778,0.11344135745943372,-0.03702932127028314,-0.013912036189150587
1589995459.5191402,-0.2803968205935161,-4.475198410296758,8.569206358812968,0.3922222222222223,0.48,-0.6677777777777778,0.15500993564526216,-0.03249006435473784,0.037450321773689205
1589995459.5291402,-0.28298073202816687,-4.472980732028167,8.5289421960845,0.3922222222222223,0.48,-0.6677777777777778,0.125,-0.15024084964791456,0.14362957517604272
1589995459.5391402,-0.28,-4.444918933437515,8.52,0.3922222222222223,0.48,-0.6677777777777778,-0.1362611100258827,-0.030743333984470378,-0.08400888802070616
1589995459.5491402,-0.28,-4.475322664741507,8.541193598844904,0.3922222222222223,0.48,-0.6677777777777778,-0.09919333814623191,-0.08830666185376809,-0.03669333814623191
1589995459.5591402,-0.27425133689839576,-4.4785026737967915,8.567245989304814,0.38902852049910874,0.4838324420677362,-0.6556417112299465,-0.13435828877005346,-0.16092914438502673,0.0
1589995459.5691402,-0.26199484725800515,-4.47,8.61202061096798,0.38666666666666666,0.4866666666666667,-0.6466666666666666,-0.03740338608759661,-0.0874355907250644,0.0
1589995459.5791402,-0.27285636341235897,-4.476428181706179,8.542861819525847,0.38666666666666666,0.4866666666666667,-0.6466666666666666,0.0,-0.1428522713272436,-0.040176135663621805
1589995459.5891402,-0.28,-4.471050434063662,8.544747829681688,0.38666666666666666,0.4866666666666667,-0.6466666666666666,0.05593478710210831,-0.019695638693675077,-0.17436957420421662
1589995459.5991402,-0.2576603103207151,-4.47,8.572339689679286,0.38666666666666666,0.4866666666666667,-0.6466666666666666,0.015958979834823195,-0.046541020165176805,-0.09441795966964639
1589995459.6091402,-0.2741126250918754,-4.4941126250918755,8.596075083394583,0.40274175006125024,0.4866666666666667,-0.6413083055351388,0.10046927121614746,-0.0625,-0.0625
1589995459.6191401,-0.28846661828737297,-4.491533381712627,8.583066763425254,0.4066666666666667,0.4866666666666667,-0.64,0.07208363570391872,-0.009583635703918722,-0.0625
1589995459.6291401,-0.27773671339510214,-4.477736713395102,8.524815210277959,0.4066666666666667,0.4866666666666667,-0.64,0.0625,0.038322770640305856,0.014145541280611712
1589995459.6391401,-0.2775580989330747,-4.477558098933075,8.527790494665373,0.4066666666666667,0.4866666666666667,-0.64,-0.07921435499515034,-0.07921435499515034,0.015261881668283225
1589995459.6491401,-0.26977117197251194,-4.474885585986256,8.560457656054975,0.4066666666666667,0.4866666666666667,-0.64,-0.09303491241409982,-0.09303491241409982,0.06393017517180036
1589995459.65914,-0.2692626511682517,-4.473087550389417,8.586175100778835,0.4066666666666667,0.48220687165973064,-0.6441167338525563,-0.0625,-0.10109437986771555,0.08640562013228445
1589995459.66914,-0.2737394943914281,-4.471869747195714,8.575609241587141,0.4066666666666667,0.4722222222222222,-0.6533333333333333,-0.011685919973212791,-0.13668591997321278,-0.05081408002678721
1589995459.67914,-0.2843592275186604,-4.47,8.50538347616603,0.4066666666666667,0.4722222222222222,-0.6533333333333333,0.0,0.009617757987441244,0.0272451719916275
1589995459.68914,-0.2846943394778739,-4.475305660522126,8.501222642088504,0.4066666666666667,0.4722222222222222,-0.6533333333333333,0.06632075652657626,-0.0038207565265762633,0.0625
1589995459.69914,-0.29021249232747787,-4.485106246163739,8.550637476982434,0.4066666666666667,0.4722222222222222,-0.6533333333333333,0.15691403852336833,-0.09441403852336831,0.0625
1589995459.70914,-0.2896373056994819,-4.484818652849741,8.595544041450777,0.41012089810017266,0.479706390328152,-0.6510305123776626,0.15511658031088082,-0.02784974093264249,0.12726683937823835
1589995459.71914,-0.28,-4.47269537417114,8.595390748342279,0.4133333333333333,0.4866666666666667,-0.6488888888888888,0.2163078228607515,0.0625,0.004884354278497011
1589995459.72914,-0.2679968551309223,-4.463998427565461,8.529984275654611,0.4133333333333333,0.4866666666666667,-0.6488888888888888,0.09996068913652834,-0.012519655431735832,0.05002948314760375
1589995459.73914,-0.26,-4.47428219441771,8.525705486044274,0.4133333333333333,0.4866666666666667,-0.6488888888888888,-0.08926371511068334,-0.15176371511068334,0.035736284889316655
1589995459.74914,-0.27268471050842474,-4.467315289491576,8.571711776271062,0.4133333333333333,0.4866666666666667,-0.6488888888888888,-0.08536027966117267,-0.1875,0.03963972033882733
1589995459.75914,-0.25749259524052703,-4.467502468253158,8.59,0.4083316878312282,0.47582976807877225,-0.6522233192236256,-0.015609573417764616,-0.09371914683552923,0.10939042658223538
1589995459.76914,-0.2651875013714261,-4.485187501371426,8.552031246571435,0.4066666666666667,0.4722222222222222,-0.6533333333333333,0.0,0.1273437671428258,-0.017382825357119353
1589995459.77914,-0.27,-4.482029384520379,8.492176307122273,0.4066666666666667,0.4722222222222222,-0.6533333333333333,0.04981634674763277,-0.01176538699053109,-0.012683653252367227
1589995459.78914,-0.2779596129575095,-4.464080774084981,8.527757677745056,0.4066666666666667,0.4722222222222222,-0.6533333333333333,0.11224758098443416,-0.012752419015565841,0.0
1589995459.79914,-0.28,-4.464629828400964,8.563149142004823,0.4066666666666667,0.4722222222222222,-0.6533333333333333,0.038190717481913106,-0.028936427506028966,0.0
1589995459.80914,-0.28,-4.4726870480980825,8.587312951901918,0.4066666666666667,0.47416286807083724,-0.6533333333333333,-0.0625,-0.07089702530650739,0.016794050613014776
1589995459.81914,-0.2866626518117033,-4.463349392753187,8.58998795543511,0.4066666666666667,0.4866666666666667,-0.6533333333333333,-0.020858426176854364,-0.04171685235370873,0.04171685235370873
1589995459.82914,-0.29,-4.462785665720114,8.523286005679319,0.4066666666666667,0.4866666666666667,-0.6533333333333333,0.0,0.0,0.03995520537535496
1589995459.83914,-0.2833551077136901,-4.48328978457262,8.519869353717858,0.4066666666666667,0.4866666666666667,-0.6533333333333333,0.04153057678943711,-0.04153057678943711,-0.020561153578874225
1589995459.84914,-0.28615798478695553,-4.49,8.558473954360867,0.4066666666666667,0.4866666666666667,-0.6533333333333333,-0.0144748098369442,-0.1009874049184721,-0.0625
1589995459.85914,-0.28561499237962634,-4.476844977138879,8.578770015240748,0.40374332825308423,0.4866666666666667,-0.6440760950236556,-0.0350937023726645,-0.0975937023726645,-0.0350937023726645
1589995459.86914,-0.2751738852995135,-4.464826114700487,8.609304458801947,0.4,0.4866666666666667,-0.6322222222222222,0.0,-0.092663216878041,0.0
1589995459.87914,-0.27509730091142626,-4.480194601822853,8.548443185417181,0.4,0.4866666666666667,-0.6322222222222222,0.03185813069641412,0.002432522785656477,-0.06371626139282824
1589995459.88914,-0.27428171073473867,-4.484281710734739,8.51002802485683,0.4,0.4866666666666667,-0.6322222222222222,0.09823930790788352,0.05352138418423297,-0.08926069209211648
1589995459.89914,-0.27,-4.4859771580850865,8.551954316170173,0.4,0.4866666666666667,-0.6322222222222222,0.125,-0.03735723803178833,0.01221447606357666
1589995459.9091399,-0.282822898693616,-4.477177101306384,8.59205724673404,0.4042742995645387,0.482392367102128,-0.6322222222222222,0.08492844158245008,-0.02242844158245009,0.18271467525264973
1589995459.9191399,-0.29,-4.456216246957392,8.596216246957392,0.4066666666666667,0.48,-0.6322222222222222,-0.02364845651629928,0.0,0.12077731522555107
1589995459.9291399,-0.26954035739262544,-4.45,8.501341548701378,0.4066666666666667,0.48,-0.6322222222222222,0.022748510864060587,0.04262425543203029,0.0625
1589995459.9391398,-0.2703778555703923,-4.465566783355588,8.480755711140786,0.4066666666666667,0.48,-0.6322222222222222,0.0625,0.12736159731495184,-0.0023615973149518216
1589995459.9491398,-0.282768246952048,-4.477231753047953,8.52768246952048,0.4066666666666667,0.48,-0.6322222222222222,0.027896913099400372,0.13559536964910057,-0.010595369649100565
1589995459.9591398,-0.2885613710709714,-4.470719314464514,8.6,0.40618712369032384,0.47944053319426666,-0.6322222222222222,-0.07149143080642867,0.004495715403214337,0.10701713838714265
1589995459.9691398,-0.26456385972136437,-4.485436140278636,8.605436140278636,0.4,0.4722222222222222,-0.6322222222222222,-0.1875,0.0625,-0.023072369775581636
1589995459.9791398,-0.28251232978995144,-4.473115752657536,8.53120684573517,0.4,0.4722222222222222,-0.6322222222222222,-0.22267551529679916,-0.007851030593598332,0.0625
1589995459.9891398,-0.27583384464351457,-4.46,8.506249233034728,0.4,0.4722222222222222,-0.6322222222222222,-0.17448076451098293,-0.024740382255491473,0.024740382255491473
1589995459.9991398,-0.2544066719312776,-4.476779984206168,8.541186656137445,0.4,0.4722222222222222,-0.6322222222222222,-0.05508339914096959,0.0,0.034958300429515206
1589995460.0091398,-0.2606653737132627,-4.482889750857825,8.567775622855438,0.40948033218956686,0.47735740215823763,-0.6298521391748305,0.04443905713859466,-0.02221952856929733,0.040280471430702666
1589995460.0191398,-0.28,-4.4727050892170155,8.586474553914924,0.4266666666666667,0.4866666666666667,-0.6255555555555555,0.0911863847873081,-0.028686384787308103,0.01690680760634595
1589995460.0291398,-0.28,-4.48,8.514408048246402,0.4266666666666667,0.4866666666666667,-0.6255555555555555,0.0,0.013066733675557309,0.013066733675557309
1589995460.0391397,-0.2858800085403174,-4.477059995729841,8.471760017080635,0.4266666666666667,0.4866666666666667,-0.6255555555555555,-0.036750053376983845,-0.0073749199345242294,-0.0073749199345242294
1589995460.0491397,-0.296339290150549,-4.473660709849451,8.53660709849451,0.4266666666666667,0.4866666666666667,-0.6255555555555555,-0.10212056344093146,0.05636169032279434,0.10212056344093146
1589995460.0591397,-0.2914367433295459,-4.48,8.6,0.4237931800075749,0.4845913707462115,-0.6289079566578293,-0.07147964580966187,-0.04454070838067625,0.07147964580966187
1589995460.0691397,-0.28331690706237367,-4.48,8.588877938041582,0.4066666666666667,0.4722222222222222,-0.6488888888888888,-0.125,0.02774355637994519,0.02073066913983554
1589995460.0791397,-0.27668947354832046,-4.473310526451679,8.519794738065116,0.4066666666666667,0.4722222222222222,-0.6488888888888888,-0.1668092096770029,0.08361841935400584,-0.10430920967700291
