time,acc_x,acc_y,acc_z,mag_x,mag_y,mag_z,gyr_x,gyr_y,gyr_z
1589996798.033281,-3.78,-0.9,8.85,0.3288888888888889,-0.3033333333333333,-0.6088888888888889,-0.25,0.0625,-0.0625
1589996798.043281,-3.7870243338748306,-0.8789269983755087,8.934292006497966,0.3288888888888889,-0.3033333333333333,-0.6088888888888889,-0.1621958265646196,0.1064020867176902,-0.018597913282309794
1589996798.053281,-3.79,-0.8786259187896953,9.004503675158782,0.3403901139418159,-0.31004238128087414,-0.5954707929938073,0.03673597730678657,0.017176015128808952,0.10782398487119105
1589996798.063281,-3.7802809175107797,-0.8994381649784401,9.01971908248922,0.3422222222222222,-0.3111111111111111,-0.5933333333333334,0.12324426555762509,0.12148853111525018,-0.05723279667287526
1589996798.073281,-3.7707208906054754,-0.9,8.89937157787118,0.3422222222222222,-0.3111111111111111,-0.5933333333333334,0.18299443371577873,0.24098886743155742,-0.12049443371577871
1589996798.083281,-3.760180586907449,-0.9097291196388262,8.959819413092552,0.3422222222222222,-0.3111111111111111,-0.5933333333333334,0.24830699774266365,0.2505643340857788,-0.12782167042889392
1589996798.093281,-3.771319346700305,-0.8930209799495419,8.948680653299695,0.3422222222222222,-0.3111111111111111,-0.5933333333333334,0.14388112468463682,0.2853729584384544,-0.3018647921922719
1589996798.103281,-3.78,-0.8835993156011821,8.95439726240473,0.334623667064171,-0.3111111111111111,-0.5933333333333334,-0.004987167522165187,0.2675085549852232,-0.3925085549852232
1589996798.113281,-3.770456162690536,-0.89,8.903649301524288,0.3211111111111111,-0.3111111111111111,-0.5933333333333334,-0.1846489831841504,0.1278510168158496,-0.3721489831841504
1589996798.123281,-3.778338622821925,-0.8983386228219251,8.824952394602674,0.3211111111111111,-0.3111111111111111,-0.5933333333333334,-0.03115082208890435,0.17711639263703188,-0.47923278527406377
1589996798.133281,-3.7739949231370042,-0.9060050768629957,8.858040614903967,0.3211111111111111,-0.3111111111111111,-0.5933333333333334,0.0750634607874463,0.22503173039372315,-0.6501269215748926
1589996798.143281,-3.780594936363884,-0.9047025318180579,8.927082277273595,0.3211111111111111,-0.3111111111111111,-0.5933333333333334,0.09189082386286213,0.18378164772572425,-0.7831091761371378
1589996798.153281,-3.784183257545414,-0.9116334849091723,8.994900454727517,0.3295130724344022,-0.3065869780908774,-0.5894555050302759,-0.04656392102349033,-0.02041856136465378,-0.8488546403411634
1589996798.163281,-3.771486695762354,-0.8944600872870618,9.002973391524709,0.33555555555555555,-0.3033333333333333,-0.5866666666666667,0.034624454455863735,0.08783260594115164,-0.9282081514852879
1589996798.173281,-3.783579953556192,-0.89,8.925310255440946,0.33555555555555555,-0.3033333333333333,-0.5866666666666667,0.10493735486309877,-0.0023120645892963088,-0.8950626451369013
1589996798.183281,-3.781562204724409,-0.9153133858267717,8.923751181102363,0.33555555555555555,-0.3033333333333333,-0.5866666666666667,0.125,0.14844488188976376,-0.822263779527559
1589996798.193281,-3.7729239512139863,-0.92,8.93,0.33555555555555555,-0.3033333333333333,-0.5866666666666667,0.03654939017482914,0.1875,-0.9009506098251708
1589996798.203281,-3.760780275309287,-0.9292197246907127,8.95765917407214,0.3222381754467484,-0.31050423031499874,-0.5733492865578594,0.0,0.1875,-0.9951232793169542
1589996798.213281,-3.795383655645664,-0.9123081721771679,8.968845913911418,0.3211111111111111,-0.3111111111111111,-0.5722222222222222,-0.1105739238927012,0.2980739238927012,-1.0
1589996798.223281,-3.835474392685692,-0.8922628036571539,8.899051214628615,0.3211111111111111,-0.3111111111111111,-0.5722222222222222,-0.014142522857211778,0.25707126142860587,-1.1662862157141825
1589996798.233281,-3.8226087159496744,-0.9160869260754885,8.924782568100651,0.3211111111111111,-0.3111111111111111,-0.5722222222222222,0.0,0.0869567120281973,-0.8614134240563946
1589996798.243281,-3.8143263573513115,-0.9086527147026234,8.941347285297375,0.3211111111111111,-0.3111111111111111,-0.5722222222222222,0.07092053310860372,0.13342053310860372,-0.7770397334456981
1589996798.2532809,-3.8043047657188627,-0.9056952342811374,8.967085702843413,0.3331343834824011,-0.2997206425488364,-0.5804486717394206,0.16059521425710854,0.11630957148578294,-0.46523828594313177
1589996798.2632809,-3.7730202387130256,-0.9189932537623249,8.953020238713025,0.3422222222222222,-0.2911111111111111,-0.5866666666666667,0.24370783601453036,0.0625,-0.47483134405812144
1589996798.2732809,-3.761794669341243,-0.9364106613175135,8.884357354729945,0.3422222222222222,-0.2911111111111111,-0.5866666666666667,0.14743336676554064,0.2676332664689187,-0.5
1589996798.2832808,-3.76,-0.9256604661107548,8.884339533889245,0.3422222222222222,-0.2911111111111111,-0.5866666666666667,0.08018895659610861,0.26768895659610864,-0.5896220868077827
1589996798.2932808,-3.754045263136059,-0.9021357894081773,8.943592631775468,0.3422222222222222,-0.2911111111111111,-0.5866666666666667,0.13693421079926152,0.21278289460036925,-0.8110855269981538
1589996798.3032808,-3.75,-0.89,8.964841607565011,0.33885369057000264,-0.3012167060677699,-0.5911580422029594,0.09276004728132387,0.12434003152088258,-1.0638199369582348
1589996798.3132808,-3.7734895118604195,-0.9056596745736131,8.965659674573613,0.33555555555555555,-0.3111111111111111,-0.5955555555555555,-0.04893648304254068,0.0625,-1.4811188982552441
1589996798.3232808,-3.8106759011172335,-0.9038648197765533,8.91478337798898,0.33555555555555555,-0.3111111111111111,-0.5955555555555555,-0.13918975279308426,0.10084487639654213,-1.7158795055861686
1589996798.3332808,-3.83,-0.9,8.90962016440064,0.33555555555555555,-0.3111111111111111,-0.5955555555555555,-0.1412184931240017,0.1712815068759983,-1.7199369862480034
1589996798.3432808,-3.8364537489253507,-0.9,8.939361246776052,0.33555555555555555,-0.3111111111111111,-0.5955555555555555,-0.04432813843311566,0.3085077923503265,-1.6875
1589996798.3532808,-3.831551110611679,-0.9084488893883208,8.975346668164963,0.32335160421687,-0.2998459252600167,-0.6133920998197884,-0.052805558677004906,0.05816664793797055,-1.3706666479379706
1589996798.3632808,-3.8139044537171083,-0.91,8.93976113429277,0.3211111111111111,-0.2977777777777777,-0.6166666666666667,-0.012201417865962697,-0.10059716426807461,-1.1113056714638507
1589996798.3732808,-3.8185122464351573,-0.9014877535648425,8.86190202851874,0.3211111111111111,-0.2977777777777777,-0.6166666666666667,-0.1064030804394691,-0.018596919560530903,-0.7432907586815927
1589996798.3832808,-3.8071171427555046,-0.8935585713777525,8.87576571448899,0.3211111111111111,-0.2977777777777777,-0.6166666666666667,-0.125,-0.040258928889046995,-0.606982142221906
1589996798.3932807,-3.8,-0.9006739331419396,8.918463821711839,0.3211111111111111,-0.2977777777777777,-0.6166666666666667,-0.10276263928762591,-0.08473736071237409,-0.4513131964381295
1589996798.4032807,-3.798316378625723,-0.9208418106871384,8.97,0.3211111111111111,-0.29824545038174344,-0.6141412346052516,-0.06776131679461483,-0.11973868320538517,-0.25
1589996798.4132807,-3.78,-0.93,8.97,0.3211111111111111,-0.3033333333333333,-0.5866666666666667,-0.125,-0.0625,-0.1706279552944548
1589996798.4232807,-3.792756563485527,-0.9363782817427636,8.912595464315128,0.3211111111111111,-0.3033333333333333,-0.5866666666666667,-0.125,-0.022635739107727537,-0.2445927826768174
1589996798.4332807,-3.7851162356455976,-0.910232471291196,8.909767528708803,0.3211111111111111,-0.3033333333333333,-0.5866666666666667,0.0610470544300252,0.0,-0.2194764727849874
1589996798.4432807,-3.78,-0.9176618774113581,8.937661877411358,0.3211111111111111,-0.3033333333333333,-0.5866666666666667,0.1985911558806585,0.22077346764197553,-0.22429557794032925
1589996798.4532807,-3.78,-0.9165646009938615,8.95447846633538,0.3245943627052952,-0.3068165849275174,-0.5841786298136781,0.222009585403878,0.29102875621163404,-0.33397124378836596
1589996798.4632807,-3.787399048057731,-0.9,8.900807615538156,0.3288888888888889,-0.3111111111111111,-0.5811111111111111,0.23374405036081683,0.09501189927836634,-0.5762321510824505
1589996798.4732807,-3.7822854008994184,-0.9,8.833712405396513,0.3288888888888889,-0.3111111111111111,-0.5811111111111111,0.2017837556213667,0.0625,-0.625
1589996798.4832807,-3.78,-0.9,8.850420727588535,0.3288888888888889,-0.3111111111111111,-0.5811111111111111,0.1875,0.0625,-0.5489481810286596
1589996798.4932806,-3.776075506579186,-0.9078489868416283,8.897471453945698,0.3288888888888889,-0.3111111111111111,-0.5811111111111111,0.1875,0.08702808388008845,-0.5735842516402654
1589996798.5032806,-3.764086297089492,-0.9229568514552541,8.957741108731524,0.3288888888888889,-0.3111111111111111,-0.5827538063640301,0.15053935680932487,0.16196064319067513,-0.6690196784046625
1589996798.5132806,-3.7549267139479903,-0.920146572104019,8.980293144208039,0.3288888888888889,-0.3111111111111111,-0.5866666666666667,0.0317080378250591,0.2807919621749409,-0.7481678486997636
1589996798.5232806,-3.745936311270514,-0.924063688729486,8.903745245082057,0.3288888888888889,-0.3111111111111111,-0.5866666666666667,0.0,0.3125,-0.9189490272796436
1589996798.5332806,-3.75654303640285,-0.9189713090647671,8.89654303640285,0.3288888888888889,-0.3111111111111111,-0.5866666666666667,0.0344646591726031,0.3814293183452062,-1.0408939775178092
1589996798.5432806,-3.7836495525200187,-0.91,8.920237164390015,0.3288888888888889,-0.3111111111111111,-0.5866666666666667,0.12648227743758833,0.41617257418747056,-1.1676548516250589
1589996798.5532806,-3.8062068684674903,-0.91,8.94,0.32593867547471456,-0.3035248480460914,-0.5845593713708279,0.17887878376544047,0.28017171168725397,-1.2262929279218135
1589996798.5632806,-3.807150352271024,-0.9171503522710238,8.932849647728975,0.3211111111111111,-0.2911111111111111,-0.5811111111111111,0.10718970169389896,0.21437940338779793,-1.142810298306101
1589996798.5732806,-3.7937621468258658,-0.903762146825866,8.865048587303463,0.3211111111111111,-0.2911111111111111,-0.5811111111111111,0.125,-0.05445974701501355,-0.7697969618158175
1589996798.5832806,-3.8059092824041567,-0.9079546412020784,8.905682488414548,0.3211111111111111,-0.2911111111111111,-0.5811111111111111,0.07528349248701025,0.024149522538969265,-0.7372165075129897
1589996798.5932806,-3.7983660062017135,-0.91,8.93745099069743,0.3211111111111111,-0.2911111111111111,-0.5811111111111111,-0.010212461239291537,0.09885623061964577,-0.7863562306196458
1589996798.6032805,-3.79,-0.9036891745554896,8.968932476333531,0.3260195309012859,-0.29882434220995713,-0.5846171252469502,-0.02305734097180983,0.04611468194361966,-0.6941720229154295
1589996798.6132805,-3.7830496987951805,-0.9208509036144579,8.966099397590362,0.3288888888888889,-0.3033333333333333,-0.5866666666666667,0.04343938253012048,-0.04343938253012048,-0.538121234939759
1589996798.6232805,-3.78,-0.93,8.903632862323372,0.3288888888888889,-0.3033333333333333,-0.5866666666666667,0.0625,0.11364730523946479,-0.5
1589996798.6332805,-3.78,-0.93,8.891604467552474,0.3288888888888889,-0.3033333333333333,-0.5866666666666667,0.0625,0.042444155594068944,-0.5362639611014828
1589996798.6432805,-3.7862566778481797,-0.9206149832277302,8.90312833892409,0.3288888888888889,-0.3033333333333333,-0.5866666666666667,0.04294788172443782,0.015708473102248724,-0.5820521182755621
1589996798.6532805,-3.7992840725555967,-0.9010738911666045,8.909642036277798,0.3288888888888889,-0.3033333333333333,-0.5866666666666667,0.0022372732637594775,0.1785509069449621,-0.6227627267362406
1589996798.6632805,-3.8228012436153676,-0.9056024872307351,8.915602487230736,0.3211111111111111,-0.3111111111111111,-0.5866666666666667,-0.125,0.0625,-0.5274844548079058
1589996798.6732805,-3.816954229571052,-0.9232614426072371,8.900647016534867,0.3211111111111111,-0.3111111111111111,-0.5866666666666667,-0.10461598370476875,-0.019036065180924988,-0.4375
1589996798.6832805,-3.79,-0.9256295772712101,8.888074650016689,0.3211111111111111,-0.3111111111111111,-0.5866666666666667,-0.0625,-0.13286971589012586,-0.30092428972531465
1589996798.6932805,-3.793288156590684,-0.9232881565906839,8.956576313181367,0.3211111111111111,-0.3111111111111111,-0.5866666666666667,-0.10360195738354806,-0.04194902130822597,-0.14555097869177402
1589996798.7032804,-3.7934423768845327,-0.9267211884422666,8.979836434673201,0.3211111111111111,-0.3111111111111111,-0.5895811658290964,-0.14651485552833146,0.020492572235834273,-0.20799257223583428
1589996798.7132804,-3.78,-0.9240339732565894,9.012101919769767,0.3211111111111111,-0.3111111111111111,-0.5955555555555555,-0.11292466570736671,-0.0635616642684168,-0.14915066858526657
1589996798.7232804,-3.7866034838777995,-0.93,8.944154709588606,0.3211111111111111,-0.3111111111111111,-0.5955555555555555,0.018858871181235776,-0.12618467729125854,-0.0825435484724943
1589996798.7332804,-3.7826976522524327,-0.922697652252433,8.914604695495134,0.3211111111111111,-0.3111111111111111,-0.5955555555555555,-0.011919020266880714,-0.0625,-0.07936032657770642
1589996798.7432804,-3.7901548229548228,-0.9250774114774115,8.909845177045177,0.3211111111111111,-0.3111111111111111,-0.5955555555555555,0.06443528693528694,0.032701465201465205,-0.12596764346764347
1589996798.7532804,-3.7914914958569557,-0.9172372437854339,8.912762756214565,0.3187476377380433,-0.3078022483888162,-0.5856289673886708,0.1875,0.125,-0.1875
1589996798.7632804,-3.78,-0.9056831872648587,8.918633625470282,0.31555555555555553,-0.3033333333333333,-0.5722222222222222,0.045420318378531194,0.1605199204053672,-0.2585398408107344
1589996798.7732804,-3.78,-0.9160121914714127,8.861902468228699,0.31555555555555553,-0.3033333333333333,-0.5722222222222222,0.012652393392657904,0.14992380330367105,-0.12461901651835525
1589996798.7832804,-3.7997231858918763,-0.9331487905945841,8.849723185891875,0.31555555555555553,-0.3033333333333333,-0.5722222222222222,-0.1018598824323022,-0.08044985304037774,-0.0821799412161511
1589996798.7932804,-3.7946449802459106,-0.9348816600819703,8.911183399180297,0.31555555555555553,-0.3033333333333333,-0.5722222222222222,-0.251479248975372,-0.12352075102462799,-0.06102075102462799
1589996798.8032804,-3.783836121560087,-0.9261638784399129,8.975344486240349,0.31555555555555553,-0.3033333333333333,-0.5756321080534108,-0.21659696099782222,-0.038524240249455555,0.0
1589996798.8132803,-3.79,-0.9244084463306076,8.991183107338784,0.31555555555555553,-0.3033333333333333,-0.5811111111111111,-0.03494721043370251,0.11021115826518994,0.027552789566297486
1589996798.8232803,-3.79,-0.9237834367643912,8.92405093087952,0.31555555555555553,-0.3033333333333333,-0.5811111111111111,-0.0777070404451102,-0.060828161780440815,0.0625
1589996798.8332803,-3.79,-0.92,8.912689739851125,0.31555555555555553,-0.3033333333333333,-0.5811111111111111,-0.06827565037218938,-0.10818912593047347,0.09086217481390531
1589996798.8432803,-3.79,-0.9182237687964672,8.941776231203532,0.31555555555555553,-0.3033333333333333,-0.5811111111111111,-0.011101445022080608,0.04029710995583878,0.1138985549779194
1589996798.8532803,-3.7874835688300204,-0.91,8.952516431169979,0.32058841789551495,-0.298580074456705,-0.5825091284277665,-0.07822769481237313,-0.04677230518762687,0.0625
1589996798.8632803,-3.78,-0.9137183232020211,8.950704191994948,0.33555555555555555,-0.28444444444444444,-0.5866666666666667,-0.125,0.023239520012631246,0.07411976000631562
1589996798.8732803,-3.7857192295310655,-0.9357192295310656,8.852807704689345,0.33555555555555555,-0.28444444444444444,-0.5866666666666667,-0.05350963086168044,0.08925481543084021,0.08925481543084021
1589996798.8832803,-3.777194283602316,-0.933597141801158,8.835611432795368,0.33555555555555555,-0.28444444444444444,-0.5866666666666667,-0.12005359122828631,0.022482136257237897,0.0625
1589996798.8932803,-3.787126929942689,-0.9342817324856723,8.88853559237105,0.33555555555555555,-0.28444444444444444,-0.5866666666666667,-0.10721751589364567,0.08028248410635433,0.0625
1589996798.9032803,-3.8120846943088806,-0.9337459170733582,8.946254082926641,0.33416575934963516,-0.29000362926812606,-0.5850452377597596,-0.013029339430503786,0.16144132113899243,0.049470660569496214
1589996798.9132802,-3.8046890466967938,-0.9151036511010688,8.964896348898932,0.3288888888888889,-0.3111111111111111,-0.5788888888888889,-0.03060218061832006,0.03060218061832006,0.09569345814503981
1589996798.9232802,-3.7955124682195227,-0.9144875317804771,8.926925190682864,0.3288888888888889,-0.3111111111111111,-0.5788888888888889,0.0,0.0,0.1875
1589996798.9332802,-3.787806044900705,-0.9282909326489422,8.912193955099294,0.3288888888888889,-0.3111111111111111,-0.5788888888888889,0.0,-0.03810610968529639,0.1875
1589996798.9432802,-3.776748976284438,-0.9367489762844383,8.93950614229337,0.3288888888888889,-0.3111111111111111,-0.5788888888888889,0.020318898222260712,0.018775592889042847,0.1875
1589996798.9532802,-3.7715601301448665,-0.9315601301448666,8.9706392191308,0.3288888888888889,-0.3111111111111111,-0.5788888888888889,0.05274918659458389,0.14849674637833557,0.1875
1589996798.9632802,-3.8,-0.9272256595844035,8.951387170207799,0.3211111111111111,-0.28444444444444444,-0.5866666666666667,-0.017339627597478403,0.03649055860378239,0.2048396275974784
1589996798.9732802,-3.8,-0.9038850495560857,8.917195346892601,0.3211111111111111,-0.28444444444444444,-0.5866666666666667,-0.125,-0.10589077986276776,0.35071844027446447
1589996798.9832802,-3.7954243961030296,-0.8991512077939411,8.833726811690912,0.3211111111111111,-0.28444444444444444,-0.5866666666666667,-0.06780495128786868,-0.03390247564393434,0.46609752435606566
1589996798.9932802,-3.785364471475753,-0.919271057048494,8.882448699669728,0.3211111111111111,-0.28444444444444444,-0.5866666666666667,-0.057944106553087044,0.028972053276543522,0.5289720532765435
1589996799.0032802,-3.78,-0.9262888382687927,8.942266970387244,0.3211111111111111,-0.28939266008605413,-0.5866666666666667,-0.125,0.039305239179954446,0.6320842824601367
1589996799.0132802,-3.7842423939751093,-0.9284847879502187,8.967272818074672,0.3211111111111111,-0.2977777777777777,-0.5866666666666667,-0.045455112966699296,0.026514962344433568,0.8295448870333006
1589996799.0232801,-3.792601824310926,-0.9373981756890739,8.926583581201665,0.3211111111111111,-0.2977777777777777,-0.5866666666666667,0.0625,-0.01880700971643863,1.0188070097164386
1589996799.0332801,-3.798152459931425,-0.9244573797942748,8.867390160274299,0.3211111111111111,-0.2977777777777777,-0.5866666666666667,0.08559425085718841,-0.19226437285702894,1.2730942508571885
1589996799.0432801,-3.79,-0.9,8.920615738742628,0.3211111111111111,-0.2977777777777777,-0.5866666666666667,0.05865163285858149,-0.02339891142761233,1.4179494557138062
1589996799.05328,-3.7903469645535646,-0.9003469645535644,8.96,0.3213809724305501,-0.2977777777777777,-0.5861654956448514,-0.18099441462066787,-0.18966852845977739,1.5043370569195547
1589996799.06328,-3.7968038599312814,-0.916392280137437,8.96,0.3288888888888889,-0.2977777777777777,-0.5722222222222222,0.0,-0.15012062285254768,1.625
1589996799.07328,-3.795738103930875,-0.9261745973794167,8.935134882966208,0.3288888888888889,-0.2977777777777777,-0.5722222222222222,0.011954383189322949,0.0625,1.6608631495679689
1589996799.08328,-3.8047916426712125,-0.8998610951141416,8.860416714657575,0.3288888888888889,-0.2977777777777777,-0.5722222222222222,-0.032552233304922726,-0.0008681555366151505,2.0026044666098453
1589996799.09328,-3.785868734411457,-0.89,8.910656327942714,0.3288888888888889,-0.2977777777777777,-0.5722222222222222,-0.17664081985678654,-0.0625,2.368242869498753
1589996799.10328,-3.7826044556879386,-0.8873955443120614,8.942604455687938,0.3288888888888889,-0.2977777777777777,-0.5782992854940789,-0.21744430390076708,-0.02994430390076709,2.673833544148849
1589996799.11328,-3.7920070509430635,-0.8820070509430636,8.947992949056935,0.3288888888888889,-0.2977777777777777,-0.5955555555555555,-0.125,0.03741186321170457,2.799955931605852
1589996799.12328,-3.804630670895809,-0.9038920126874279,8.893693291041906,0.3288888888888889,-0.2977777777777777,-0.5955555555555555,-0.1828833861976163,-0.1782667723952326,2.7789416930988082
1589996799.13328,-3.8054053547146807,-0.92,8.872162516997234,0.3288888888888889,-0.2977777777777777,-0.5955555555555555,-0.16385040090026726,-0.34121653303324423,3.042232264265954
1589996799.14328,-3.8,-0.916074857641631,8.945326281225322,0.3288888888888889,-0.2977777777777777,-0.5955555555555555,-0.08703213973980631,-0.30140358078058105,3.4351606986990317
1589996799.15328,-3.791872382596464,-0.91,9.0,0.33159809469006746,-0.30003544927875986,-0.5955555555555555,-0.125,-0.1875,3.9043868482465394
1589996799.16328,-3.771914279042817,-0.9019142790428173,8.979785697607044,0.33555555555555555,-0.3033333333333333,-0.5955555555555555,-0.11236606100440194,-0.1495981830132058,4.299866061004402
1589996799.17328,-3.757405021144849,-0.8874050211448488,8.943512552862122,0.33555555555555555,-0.3033333333333333,-0.5955555555555555,-0.08969534553882609,-0.08158603661647829,4.277195345538826
1589996799.18328,-3.7428957632468802,-0.8728957632468801,8.907239408117201,0.33555555555555555,-0.3033333333333333,-0.5955555555555555,-0.06702463007325024,-0.01357389021975075,4.25452463007325
1589996799.19328,-3.763127768122442,-0.8731277681224421,8.887819420306107,0.33555555555555555,-0.3033333333333333,-0.5955555555555555,-0.125,0.04295144923473679,3.775191666199473
1589996799.20328,-3.787453447408153,-0.89,8.937453447408153,0.32810210814740254,-0.3033333333333333,-0.5972118772018118,-0.125,-0.015915953699043785,2.329579768495219
1589996799.21328,-3.80371629839854,-0.8974325967970809,8.95,0.31555555555555553,-0.3033333333333333,-0.6,-0.125,0.03927313500912224,1.9142731350091222
1589996799.22328,-3.7996160157532,-0.9030773438354666,8.934424023629798,0.31555555555555553,-0.3033333333333333,-0.6,-0.1574499507712504,-0.03244995077125041,1.8317333989716662
1589996799.23328,-3.754710743801653,-0.8605785123966943,8.878842975206611,0.31555555555555553,-0.3033333333333333,-0.6,-0.22417355371900827,-0.21694214876033058,1.4483471074380165
1589996799.24328,-3.7456704940296666,-0.85,8.917911882462917,0.31555555555555553,-0.3033333333333333,-0.6,-0.14738985307864613,-0.20522029384270773,1.070881175370831
1589996799.25328,-3.7137645870736087,-0.8524941651705565,8.958729578096948,0.31472416716537,-0.30430328645521637,-0.5994457410732096,-0.17191146768402155,-0.13279426615798923,0.6876458707360862
1589996799.26328,-3.664797012706615,-0.8720811949173539,9.017918805082646,0.3088888888888889,-0.3111111111111111,-0.5955555555555555,-0.07550746823346194,-0.1484775952996142,0.11992531766538067
1589996799.27328,-3.616598277660728,-0.8968034446785444,8.965982776607278,0.3088888888888889,-0.3111111111111111,-0.5955555555555555,-0.10245694151819501,0.2938038231022562,-1.68034446785444
1589996799.28328,-3.5935811956153234,-0.9209458695897842,8.908209402192337,0.3088888888888889,-0.3111111111111111,-0.5955555555555555,0.09670584246807548,0.568411684936151,-3.7183226918295853
1589996799.29328,-3.5816087701534385,-0.9563217540306878,8.939482631046031,0.3088888888888889,-0.3111111111111111,-0.5955555555555555,0.22701096269179843,0.927799332113093,-6.513996660565464
1589996799.3032799,-3.652404795486601,-0.9627856135401974,8.96,0.3104920858799561,-0.3111111111111111,-0.5955555555555555,0.25238011283497885,1.462799717912553,-8.963549012693935
1589996799.3132799,-3.6557026412233036,-0.9442973587766965,8.964297358776697,0.31555555555555553,-0.3111111111111111,-0.5955555555555555,-0.044933969417414385,2.4478113547327185,-11.00101889296095
1589996799.3232799,-3.623136824716723,-0.9653503858761583,8.893248070619208,0.31555555555555553,-0.3111111111111111,-0.5955555555555555,-0.3793798234519784,3.604699558629946,-11.33210515447952
1589996799.3332798,-3.5670979720079976,-0.9813986480053318,8.778601351994668,0.31555555555555553,-0.3111111111111111,-0.5955555555555555,-1.2519637246500999,4.9394637246501,-10.417398600399885
1589996799.3432798,-3.5388251819889174,-0.9672062954972294,8.812349636022164,0.31555555555555553,-0.3111111111111111,-0.5955555555555555,-2.2619097971347415,5.9668704502770575,-8.968837793161253
1589996799.3532798,-3.512784546851475,-0.9606961367128688,8.864430906297049,0.31555555555555553,-0.3111111111111111,-0.5955555555555555,-2.872237183168547,6.6178863287131175,-7.585429051484626
1589996799.3632798,-3.3673768074386596,-0.9839343792241838,8.990983492401588,0.33,-0.3033333333333333,-0.5722222222222222,-2.308401261622906,8.24897595543358,-7.716191168639659
1589996799.3732798,-3.0771825661552143,-0.9075694907716256,8.831160773849232,0.33,-0.3033333333333333,-0.5722222222222222,-2.0151906826773405,8.644686735601512,-12.081811485434734
1589996799.3832798,-2.9655250412475382,-0.8036846026930651,8.673157698653467,0.33,-0.3033333333333333,-0.5722222222222222,-3.4342301346532547,6.924327399010059,-21.79942053861302
1589996799.3932798,-2.8581552364505214,-0.8472458659601144,8.673796692768091,0.33,-0.3033333333333333,-0.5722222222222222,-4.635027560265903,6.332717761585958,-27.68766264105415
1589996799.4032798,-2.6555052608014327,-0.9901455115289903,8.802320125363778,0.33,-0.3027696938039449,-0.5722222222222222,-3.6358629952988584,9.248181105887621,-32.99459368703828
1589996799.4132798,-2.3205626528948082,-1.08,9.008410670601483,0.33,-0.2977777777777777,-0.5722222222222222,-2.4629193686172486,7.748272045975226,-37.51955840096299
1589996799.4232798,-1.9422592182576854,-1.0616111726134718,9.012731840245252,0.33,-0.2977777777777777,-0.5722222222222222,0.07060057055266972,3.1714106276079366,-39.30341480030656
1589996799.4332798,-1.973355412714588,-1.016644587285412,8.787256408246453,0.33,-0.2977777777777777,-0.5722222222222222,0.9404959042094536,4.077065532648742,-39.035950850513444
1589996799.4432797,-2.0205158394348577,-0.9532473600941903,9.045568637551051,0.33,-0.2977777777777777,-0.5722222222222222,1.5479920158946245,2.840855991758343,-39.85148000294345
1589996799.4532797,-2.016066185798688,-0.9656946609155823,8.896575084272717,0.33885836142423914,-0.29377042380014573,-0.5739095291601725,2.485814092573127,2.641507937946283,-40.07436387690746
1589996799.4632797,-2.17,-0.994108505997819,8.981240458015266,0.37666666666666665,-0.2766666666666667,-0.5811111111111111,1.496609187568157,3.439442475463468,-40.20203448745911
1589996799.4732797,-2.195096831185304,-1.0156855194908152,8.914903168814694,0.37666666666666665,-0.2766666666666667,-0.5811111111111111,1.175251704455367,2.442389691725747,-40.29289310063648
1589996799.4832797,-2.2618444676143734,-1.05,8.839272181674847,0.37666666666666665,-0.2766666666666667,-0.5811111111111111,1.0600698064745824,3.0185069806474583,-40.25
1589996799.4932797,-2.297621015138023,-1.0576210151380232,8.800161353517364,0.37666666666666665,-0.2766666666666667,-0.5811111111111111,1.4841228851291184,3.0783771148708814,-40.25
1589996799.5032797,-2.320056488776572,-1.080070610970715,8.830042366582429,0.37665568273788874,-0.27667765059544464,-0.5811111111111111,1.437058681433031,3.124470417719637,-40.25070610970715
1589996799.5132797,-2.3629833891884013,-1.13,8.86059667783768,0.3688888888888889,-0.28444444444444444,-0.5811111111111111,1.14364618242751,2.757458472971004,-40.77610465539851
1589996799.5232797,-2.419624656880296,-1.1332082189600985,8.850750686239408,0.3688888888888889,-0.28444444444444444,-0.5811111111111111,1.4776027370012332,2.9351541055018497,-41.34791094800493
1589996799.5332797,-2.4451586015281315,-1.1477379022921972,8.81902755267423,0.3688888888888889,-0.28444444444444444,-0.5811111111111111,1.5625,3.0705603148877056,-41.80840472331558
1589996799.5432796,-2.472905103694638,-1.1893576555419574,8.867583931465617,0.3688888888888889,-0.28444444444444444,-0.5811111111111111,1.5625,3.113914224522872,-42.45871336784309
1589996799.5532796,-2.5190359185970177,-1.2390359185970177,8.919035918597018,0.3688888888888889,-0.28444444444444444,-0.5811111111111111,1.4405127543843197,3.2469872456156805,-43.17394260527056
1589996799.5632796,-2.50218857476585,-1.2578114252341503,8.955622850468302,0.37383650700948623,-0.2666330192102942,-0.5979330127211419,1.6044821115701586,3.3613214077134392,-44.13373196556423
1589996799.5732796,-2.4611299663299664,-1.294435016835017,8.950084848484849,0.3744444444444445,-0.2644444444444444,-0.6,1.645921717171717,3.4513594276094275,-45.589688552188555
1589996799.5832796,-2.432885521885522,-1.308557239057239,8.822984848484849,0.3744444444444445,-0.2644444444444444,-0.6,1.5135258838383838,3.495491372053872,-46.47232744107744
1589996799.5932796,-2.454270022803628,-1.3564050342054417,8.816405034205442,0.3744444444444445,-0.2644444444444444,-0.6,1.5133438212613366,3.66503146378401,-48.33359553153341
1589996799.6032796,-2.4688723519069753,-1.3783085278604625,8.838308527860463,0.3744444444444445,-0.2644444444444444,-0.6,1.5589760997092972,3.801928299127892,-49.47440249273243
1589996799.6132796,-2.5339532453963693,-1.4141471855818204,8.807170562883636,0.3944444444444444,-0.2644444444444444,-0.5955555555555555,1.9021320360454486,3.9375,-51.86070344129555
1589996799.6232796,-2.6153671531155895,-1.4476835765577947,8.793050729673384,0.3944444444444444,-0.2644444444444444,-0.5955555555555555,1.8704105860551308,3.9664552930275656,-53.78567292100996
1589996799.6332796,-2.602750602903035,-1.4510024116121398,8.789254220321245,0.3944444444444444,-0.2644444444444444,-0.5955555555555555,2.1140738044319063,4.131265072575875,-56.23295945761478
1589996799.6432796,-2.616336303770412,-1.4926726075408239,8.852672607540823,0.3944444444444444,-0.2644444444444444,-0.5955555555555555,2.2599004746412685,4.3224004746412685,-58.42572040957455
1589996799.6532795,-2.6427043550693887,-1.5454087101387777,8.905408710138778,0.3944444444444444,-0.2644444444444444,-0.5955555555555555,2.30110055479592,4.36360055479592,-60.19732385622456
1589996799.6632795,-2.6357006721433907,-1.5787716206123974,8.917543241224795,0.42777777777777776,-0.24444444444444444,-0.5955555555555555,2.2615160567587753,4.871161314413742,-63.54390216579537
1589996799.6732795,-2.560857440708887,-1.5737138389366694,8.859429241594997,0.42777777777777776,-0.24444444444444444,-0.5955555555555555,2.3803590044305447,4.798214751107636,-66.81069194683346
1589996799.6832795,-2.538031962785114,-1.628031962785114,8.794819177671068,0.42777777777777776,-0.24444444444444444,-0.5955555555555555,2.2075799069627853,4.820279674369748,-69.59687781362545
1589996799.6932795,-2.573063124573273,-1.6786710942834089,8.82,0.42777777777777776,-0.24444444444444444,-0.5955555555555555,2.3883720749798276,5.1875,-72.56108792129601
1589996799.7032795,-2.5332945419572015,-1.7190420774224573,8.818084154844914,0.42964040501188855,-0.2447105340493174,-0.5957684272394539,2.752993508054821,5.1904935080548205,-75.08418189468622
1589996799.7132795,-2.4093423968526677,-1.7040872986230422,8.782919499016458,0.4666666666666667,-0.25,-0.6,2.786954383605986,5.330286222952616,-78.17516994098753
1589996799.7232795,-2.5691516215467063,-1.778388986417814,8.824661554097755,0.4666666666666667,-0.25,-0.6,2.436964104222489,6.563035895777511,-81.22879053866765
1589996799.7332795,-2.662160214358311,-1.863646863161785,8.770406541624318,0.4666666666666667,-0.25,-0.6,3.0667097847177307,5.933290215282269,-83.55400535895778
1589996799.7432795,-2.6973464270789806,-1.9410614291684078,8.862653572921019,0.4666666666666667,-0.25,-0.6,2.891584830756373,6.378316966151274,-86.69517864605098
1589996799.7532794,-2.6608310697868784,-1.9556675720852486,8.899168930213122,0.4666666666666667,-0.25,-0.6,3.11980581383201,6.423961162766402,-88.52094651065607
1589996799.7632794,-2.583404834320474,-2.0534048343204736,8.87978549703858,0.4744444444444445,-0.20444444444444448,-0.6166666666666667,3.375,6.853719785497039,-92.51072514807107
1589996799.7732794,-2.5977388946819606,-2.0835666319082375,8.809650052137643,0.4744444444444445,-0.20444444444444448,-0.6166666666666667,3.332604275286757,6.8630552659019814,-95.74899113660062
1589996799.7832794,-2.5862111862082475,-2.130947203447938,8.738105593104125,0.4744444444444445,-0.20444444444444448,-0.6166666666666667,3.205260064648839,7.255920021549613,-98.59666103438143
1589996799.7932794,-2.5533437163287296,-2.139164070917818,8.721671858164365,0.4744444444444445,-0.20444444444444448,-0.6166666666666667,3.3593263297090803,7.30727544323636,-101.06172127534528
1589996799.8032794,-2.4901778342330902,-2.219762887689214,8.83964433153382,0.4744444444444445,-0.20444444444444448,-0.6166666666666667,3.375,7.3125,-104.3659230443527
1589996799.8132794,-2.4547355828727,-2.2552644171272997,8.8035096114182,0.5066666666666667,-0.16444444444444445,-0.6377777777777778,3.6359675356818744,7.7829026070456235,-108.03740924841185
1589996799.8232794,-2.435466386362598,-2.310065124994287,8.79540126136831,0.5066666666666667,-0.16444444444444445,-0.6377777777777778,3.738747372149353,7.971664914766236,-111.31412812485718
1589996799.8332794,-2.461800982057667,-2.401800982057667,8.746521374880734,0.5066666666666667,-0.16444444444444445,-0.6377777777777778,3.904502455144167,8.165758593004584,-113.90254910288334
1589996799.8432794,-2.4910893412330615,-2.445346395260163,8.807128527013552,0.5066666666666667,-0.16444444444444445,-0.6377777777777778,4.011138323458673,8.522276646917346,-116.2691712618056
1589996799.8532794,-2.450082125887253,-2.4699507244676484,8.839934299290197,0.5066666666666667,-0.16444444444444445,-0.6377777777777778,4.062397342640934,8.624794685281868,-118.37079104827829
1589996799.8632793,-2.449454622067942,-2.527977205690551,8.842022794309448,0.5333333333333333,-0.12,-0.6588888888888889,4.264346770471738,8.76605107650942,-121.0279812187732
1589996799.8732793,-2.3867617349970294,-2.5848573975044564,8.781904337492572,0.5333333333333333,-0.12,-0.6588888888888889,4.114880421865716,8.822619578134285,-122.50655451574569
1589996799.8832793,-2.35907110318875,-2.626393345216875,8.712677757971875,0.5333333333333333,-0.12,-0.6588888888888889,4.028347197464845,8.909152802535155,-123.63148643295702
1589996799.8932793,-2.318852402913808,-2.680491827322654,8.740327884881768,0.5333333333333333,-0.12,-0.6588888888888889,4.063524640255529,9.123975359744472,-125.71004208562162
1589996799.9032793,-2.2710058178381107,-2.70099750664081,8.753998337760539,0.5333333333333333,-0.12,-0.6588888888888889,4.106244805501687,9.081255194498313,-126.64988572103711
1589996799.9132793,-2.207536545749865,-2.752463454250135,8.785478072550081,0.5559805089334056,-0.06432569331648919,-0.6532270949888709,4.125,9.221737953438007,-128.17716567406606
1589996799.9232793,-2.164596500324044,-2.8436023331173037,8.742795333765391,0.56,-0.054444444444444434,-0.6522222222222223,4.3237572909915745,9.630628645495788,-129.74320155541153
1589996799.9332793,-2.1029102853708577,-2.889925600480799,8.685597372184112,0.56,-0.054444444444444434,-0.6522222222222223,4.428637856713572,9.73181071643214,-131.14132929558784
1589996799.9432793,-2.059381998977743,-2.9506180010222574,8.780247200408903,0.56,-0.054444444444444434,-0.6522222222222223,4.376545002555643,10.0,-132.39045002555645
1589996799.9532793,-2.010658658984248,-2.999341341015752,8.799736536406302,0.56,-0.054444444444444434,-0.6522222222222223,4.49835335253938,10.0,-133.6085335253938
1589996799.9632792,-1.9858214188320542,-3.0644762164478556,8.816119054111963,0.5653730180373213,-0.01146030014587418,-0.6746097973777276,4.550372044099887,10.050372044099888,-134.53169679379798
1589996799.9732792,-1.9350403907570919,-3.084079893429884,8.770960497327208,0.5666666666666667,-0.0011111111111111113,-0.68,4.48300044404215,10.0964991119157,-136.16149578159957
1589996799.9832792,-1.8562445989103888,-3.105569654842621,8.670674944067768,0.5666666666666667,-0.0011111111111111113,-0.68,4.393459771489078,10.275580457021844,-137.01213217085376
1589996799.9932792,-1.7731574345844001,-3.1547361518766004,8.6923680759383,0.5666666666666667,-0.0011111111111111113,-0.68,4.120066508461875,10.32236698307625,-138.2417684069194
1589996800.0032792,-1.808081558733529,-3.2071223381002936,8.718561169050147,0.5666666666666667,-0.0011111111111111113,-0.68,4.065497564478861,10.431504871042279,-138.84202679073252
1589996800.0132792,-1.7381115170696517,-3.2569963463731355,8.764334551208954,0.5733333333333334,0.06222222222222223,-0.7022222222222222,4.113196981685323,10.383318109888064,-139.44930301831468
1589996800.0232792,-1.7258771342971,-3.331030716425725,8.72969283574275,0.5733333333333334,0.06222222222222223,-0.7022222222222222,4.075383955321563,10.700383955321563,-139.4742320893569
1589996800.0332792,-1.701476773611798,-3.3371308065970506,8.668691934029495,0.5733333333333334,0.06222222222222223,-0.7022222222222222,4.151635082463131,10.776635082463132,-139.32172983507374
1589996800.0432792,-1.6575870873609337,-3.34,8.656206456319532,0.5733333333333334,0.06222222222222223,-0.7022222222222222,4.238145175998541,10.761854824001459,-138.6422578880175
1589996800.0532792,-1.6138557890940093,-3.382168246056989,8.73831245696298,0.5733333333333334,0.06222222222222223,-0.7022222222222222,3.9864484621438177,10.71234978030626,-138.08584758336886
1589996800.0632792,-1.5260976666907462,-3.390829300007224,8.77721953333815,0.5818536444412339,0.09133328517421561,-0.7164227407353897,3.8923779166365673,10.647561041681717,-136.8939039586795
1589996800.0732791,-1.4964702904127345,-3.4188217424764065,8.776470290412734,0.5866666666666667,0.10777777777777778,-0.7244444444444444,3.7757427396816396,10.50368205476123,-135.20225986269188
1589996800.0832791,-1.4087613517939555,-3.503867053744231,8.624894298049725,0.5866666666666667,0.10777777777777778,-0.7244444444444444,3.5734516897424444,10.66559662051511,-132.7947511910079
1589996800.0932791,-1.3613675397166167,-3.51,8.579094031773293,0.5866666666666667,0.10777777777777778,-0.7244444444444444,3.417628273937312,11.218696328896522,-130.934829862602
1589996800.103279,-1.3060841958771854,-3.5802652865965032,8.640265286596504,0.5866666666666667,0.10777777777777778,-0.7244444444444444,3.210315734539445,9.947736366008524,-128.6808678350874
1589996800.113279,-1.270025609973993,-3.5150640249349827,8.754910365091025,0.6099800811313388,0.11194088750361209,-0.7286075541702788,2.344470280518552,9.75,-126.56410062337456
1589996800.123279,-1.19,-3.5822021653875744,8.565872441033532,0.6177777777777778,0.11333333333333333,-0.73,2.8990674197361757,10.289560777212767,-122.27060777212768
1589996800.133279,-1.19,-3.6058129585499032,8.628834556133077,0.6177777777777778,0.11333333333333333,-0.73,1.8169060664627625,10.043615015105173,-119.81115015105173
1589996800.143279,-1.1684406572877348,-3.6592203286438676,8.648830492965802,0.6177777777777778,0.11333333333333333,-0.73,1.564936472987914,9.980508216096688,-115.79131162072515
1589996800.153279,-1.13645850013344,-3.64322925006672,8.62484387510008,0.6177777777777778,0.11333333333333333,-0.73,1.6149085935415,9.580731251668,-112.79298438751
1589996800.163279,-1.0006904134692476,-3.5134520673462375,8.62828496163097,0.6288888888888889,0.14555555555555555,-0.7511111111111111,1.092636868629023,8.465479326537624,-108.3446569694193
1589996800.173279,-1.0199060817775742,-3.6095304088878706,8.85887298133089,0.6288888888888889,0.14555555555555555,-0.7511111111111111,0.19190241667621122,7.504695911121292,-104.02113160004582
1589996800.183279,-1.028177988518134,-3.6836018966632054,8.770042126300527,0.6288888888888889,0.14555555555555555,-0.7511111111111111,1.618647990673433,7.755562141191684,-100.01323059740972
1589996800.193279,-0.9552398946524676,-3.7280350395053246,8.56309973663117,0.6288888888888889,0.14555555555555555,-0.7511111111111111,2.755188652238635,7.929312664605519,-94.27727441887095
1589996800.203279,-0.9564730175312591,-3.7494190525937774,8.757136561000294,0.6288888888888889,0.14555555555555555,-0.7511111111111111,1.4369837746074239,6.157420178903725,-91.5101184257778
1589996800.213279,-0.9259163663789491,-3.7514790915947374,8.708102740300008,0.5881778820637448,0.09348333752339451,-0.7331225267000009,1.326568130394704,5.98633516299338,-85.44774469957261
1589996800.223279,-0.8557381162918528,-3.7224591926965087,8.597377578089525,0.5811111111111111,0.08444444444444445,-0.73,2.1260201825872906,5.72336322682408,-79.80535872188896
1589996800.233279,-0.8577670666532218,-3.7899035998789956,8.566698800040335,0.5811111111111111,0.08444444444444445,-0.73,1.5564258344257336,5.638955833417364,-75.0545691741454
1589996800.243279,-0.8470870456351696,-3.8487388630944914,8.656847157736228,0.5811111111111111,0.08444444444444445,-0.73,1.5767649119504747,5.261823158489145,-70.42284947923203
1589996800.253279,-0.84,-3.885524575402863,8.702237712298569,0.5811111111111111,0.08444444444444445,-0.73,1.5419571055981618,4.8199285093302695,-64.39027036048064
1589996800.263279,-0.8195586417936798,-3.8831862139312268,8.713627572137547,0.5364429579935965,0.14803978108632967,-0.6565625279254421,1.6703446517193354,4.494483022420997,-59.48250382510445
1589996800.273279,-0.80210784915858,-3.88789215084142,8.68843139663432,0.5155555555555555,0.17777777777777778,-0.6222222222222222,1.7993259427588748,3.9803924579290015,-53.65594675101339
1589996800.283279,-0.7715896252201907,-3.8828974063050476,8.651589625220192,0.5155555555555555,0.17777777777777778,-0.6222222222222222,1.546152736439288,3.5198703152523843,-48.87802952074348
1589996800.293279,-0.7301114075569657,-3.88,8.590185679261609,0.5155555555555555,0.17777777777777778,-0.6222222222222222,1.5620358018459763,2.8145888916931066,-42.33130002523796
1589996800.303279,-0.5955831884496183,-3.919534356338348,10.05277118451886,0.5155555555555555,0.17777777777777778,-0.6222222222222222,0.9694846549247864,2.2194846549247864,-38.35906436616524
1589996800.313279,-0.4624523014256619,-3.5024637067209774,8.314038778004072,0.5133333333333333,0.24444444444444444,-0.5788888888888889,10.620709775967413,-3.3096160896130344,-32.47511405295316
1589996800.323279,-0.2506017107942974,-2.983088065173116,7.268453604887983,0.5133333333333333,0.24444444444444444,-0.5788888888888889,13.95223116089613,-6.171307535641548,-29.399863543788186
1589996800.333279,-0.8492675546181885,-4.350972925884322,11.590236354049654,0.5133333333333333,0.24444444444444444,-0.5788888888888889,-7.946689954379771,3.0823657183466677,-21.958817140826667
1589996800.343279,-0.63970135386249,-3.5902389169100077,9.440025219007167,0.5133333333333333,0.24444444444444444,-0.5788888888888889,-20.139658547916113,16.749941929917707,-15.049807539155827
1589996800.3532789,-0.6118655428723122,-3.61250756570215,8.510309131935227,0.5133333333333333,0.24444444444444444,-0.5788888888888889,-4.029682937350678,5.093696077780727,-13.866785572073267
1589996800.3632789,-0.5960732489451477,-3.690732489451477,8.123138565400843,0.5096219034224098,0.26232678856071256,-0.5741652508204407,6.252637130801688,-1.4054535864978903,-11.210419831223629
1589996800.3732789,-0.6309261683466423,-3.802098442204477,8.791418379369027,0.5011111111111111,0.3033333333333333,-0.5633333333333334,-1.803271043330279,-1.1979848474931272,-6.378076318889907
1589996800.3832788,-0.5990024656274813,-3.6191769401145053,8.179700363575577,0.5011111111111111,0.3033333333333333,-0.5633333333333334,0.3508439027957708,-0.5897733921183503,-2.4554215073759873
1589996800.3932788,-0.6548777010594583,-3.876949654767562,8.938336734408631,0.5011111111111111,0.3033333333333333,-0.5633333333333334,-0.23093534229726354,-0.24816551589187386,1.8082195370810386
1589996800.4032788,-0.6342616580310881,-3.646962435233161,8.693024611398963,0.5011111111111111,0.3033333333333333,-0.5633333333333334,0.5394672927461139,-1.0061528497409327,5.879655116580311
1589996800.4132788,-0.664266514897356,-3.6917709082195063,8.680742271746944,0.505326969672764,0.32019676757994514,-0.5640359764269421,0.24905019370556758,-0.9669053039380142,9.839275551162233
1589996800.4232788,-0.6566030439564339,-3.8217461950544576,8.596316741760386,0.5077777777777778,0.33,-0.5644444444444444,1.2214340830879482,-1.6055584134530103,15.6849367616277
1589996800.4332788,-0.7186758399326475,-3.9673516798652955,8.923000868215423,0.5077777777777778,0.33,-0.5644444444444444,0.02837485858612432,-1.811317714225578,21.037510852692783
1589996800.4432788,-0.6639777128490861,-3.913977712849086,8.668562659962403,0.5077777777777778,0.33,-0.5644444444444444,0.5835654911553532,-1.9292130982310707,25.443384634549613
1589996800.4532788,-0.6754791612941621,-3.855822935470433,8.680958322588324,0.5077777777777778,0.33,-0.5644444444444444,-0.0038409275753307215,-2.2277342742655373,28.70071512169963
1589996800.4632788,-0.6999016254601127,-3.8698524381901693,8.829311378220789,0.5099890694955681,0.3565355006134836,-0.5865573616223475,-0.1253074204371478,-2.4990777386885568,32.67212897814261
1589996800.4732788,-0.691023476598578,-3.8071643361900467,8.641493008570139,0.51,0.3566666666666667,-0.5866666666666667,-0.5738261700710956,-2.7244130850355477,35.324353749167685
1589996800.4832788,-0.7167544617156015,-3.8445907695260026,8.530818460947994,0.51,0.3566666666666667,-0.5866666666666667,-0.8479538476300135,-2.9729538476300132,37.40863078104011
1589996800.4932787,-0.741061327831958,-3.871061327831958,8.632327081770443,0.51,0.3566666666666667,-0.5866666666666667,-1.0066332989497375,-3.0877555326331585,38.89745522318079
1589996800.5032787,-0.7582428307049873,-3.871757169295013,8.688242830704986,0.51,0.3566666666666667,-0.5866666666666667,-0.9337057702345739,-3.1765176919061706,39.97843576501479
1589996800.5132787,-0.7738641326324303,-3.8561358673675694,8.727048928427012,0.5151521768432403,0.3553786224558566,-0.5892427550882868,-0.6896229276182774,-3.2862262434290335,41.03980994743227
1589996800.5232787,-0.7984812372247291,-3.8145562883258126,8.687337729954876,0.5366666666666666,0.35,-0.6,-0.9145695938910101,-3.649530930618227,43.52218558370936
1589996800.5332787,-0.7741579782411605,-3.8789120580235723,8.668614007252947,0.5366666666666666,0.35,-0.6,-0.9461624546690843,-3.5798249093381687,45.25745126926564
1589996800.5432787,-0.784942341778751,-3.792874778438119,8.58781712021687,0.5366666666666666,0.35,-0.6,-0.8441103638828068,-3.6558896361171933,47.507877176519656
1589996800.5532787,-0.8180614573774735,-3.788061457377473,8.630153643443684,0.5366666666666666,0.35,-0.6,-1.250960271523023,-3.9067301357615114,49.98518711324439
1589996800.5632787,-0.7931116434470151,-3.9014429805207085,8.752220891382462,0.5663822872232378,0.35,-0.6,-1.3222238857719222,-4.0,53.228436455903676
1589996800.5732787,-0.6863764311532016,-3.8063764311532013,8.847681481331906,0.5688888888888889,0.35,-0.6,-0.7644907416755851,-4.548009258324415,55.480079962845544
1589996800.5832787,-0.7078961436809226,-3.636311568957232,8.735890797693417,0.5688888888888889,0.35,-0.6,0.27305269401729937,-5.22633161641038,57.85597556763575
1589996800.5932786,-0.911453315034783,-3.773895225024845,9.334359945104348,0.5688888888888889,0.35,-0.6,-6.222741469878378,-3.451309687189437,58.89680150016564
1589996800.6032786,-0.8004289436410373,-3.554925070383129,8.537069788588315,0.5688888888888889,0.35,-0.6,-2.5875647000192354,-3.8585594190987464,59.64085915505272
1589996800.6132786,-0.8414190178333777,-3.634527215863721,8.464257053500132,0.6907809126667258,0.3278378138585751,-0.6258558838316624,0.04940985161032729,-4.633868861458611,60.145270495075856
1589996800.6232786,-0.9288815881666018,-3.675740132347217,8.531480264694434,0.7155555555555555,0.3233333333333333,-0.6311111111111111,-2.584190346438303,-4.96525496302063,59.29060432074737
1589996800.6332786,-0.991466310244516,-3.7029326204890323,8.528533689755482,0.7155555555555555,0.3233333333333333,-0.6311111111111111,-2.179244634012108,-4.695013365830647,58.625
1589996800.6432786,-1.0342830362065798,-3.731427678735527,8.719984377871715,0.7155555555555555,0.3233333333333333,-0.6311111111111111,-1.6695368498437788,-4.375,57.83934708693255
1589996800.6532786,-1.0817311900107944,-3.7237016074919045,8.766776847448726,0.7155555555555555,0.3233333333333333,-0.6311111111111111,-2.14422024973014,-4.239180062432535,56.87649517168947
1589996800.6632786,-1.1271699361266718,-3.6828300638733285,8.750641833929347,1.0017455494231646,0.32212578061659236,-0.7053756031906806,-1.823349680633359,-4.260849680633359,56.05306369762491
1589996800.6732786,-1.100543397032134,-3.6458695420091813,8.647499733105583,1.242222222222222,0.3211111111111111,-0.7677777777777778,-1.9375,-4.154211593893455,55.315896231450836
1589996800.6832786,-1.1557629659238533,-3.6736724292994904,8.68101728789847,1.242222222222222,0.3211111111111111,-0.7677777777777778,-2.095339512341361,-4.0625,54.92443414609773
1589996800.6932786,-1.1615445436413714,-3.603900892772343,8.623900892772342,1.242222222222222,0.3211111111111111,-0.7677777777777778,-2.336386408965714,-4.0625,54.24084077310286
1589996800.7032785,-1.1738470254957507,-3.673082152974504,8.720776203966006,1.242222222222222,0.3211111111111111,-0.7677777777777778,-1.6393767705382436,-4.105771954674221,53.60573654390935
1589996800.7132785,-1.1883363034623218,-3.684991089613035,8.77,1.1801630742249378,-0.08366273478162484,-0.8326156935958361,-2.0419265529531567,-3.7081848268839104,52.12455448065173
1589996800.7232785,-1.147661778555092,-3.616492667832638,8.671210816628548,1.1677777777777778,-0.16444444444444445,-0.8455555555555555,-1.4377606619130903,-3.757306942015337,50.860646777882415
1589996800.7332785,-1.169129731953915,-3.6369556783446977,8.614348107218433,1.1677777777777778,-0.16444444444444445,-0.8455555555555555,-1.369560824711968,-3.8614121649423936,48.82339855690101
1589996800.7432785,-1.1930732261116366,-3.6434633869441817,8.662292904446547,1.1677777777777778,-0.16444444444444445,-0.8455555555555555,-1.1106693472090823,-3.7115846736045413,46.9859697256386
1589996800.7532785,-1.2165510239803956,-3.6524132679852968,8.72723980395589,1.1677777777777778,-0.16444444444444445,-0.8455555555555555,-1.1185268247855769,-3.4956951251531594,45.26728295116401
1589996800.7632785,-1.2437791191594008,-3.6586626425217976,8.776220880840599,0.9855402538688924,-0.04729175050301812,-0.774592095784584,-1.233283031522468,-3.3125,42.88298122065728
1589996800.7732785,-1.266589725378788,-3.634470091540404,8.709171006944445,0.6855555555555556,0.14555555555555555,-0.6577777777777778,-0.9654380721275253,-3.2088142163825757,39.902084812973484
1589996800.7832785,-1.2738195045348204,-3.6238195045348203,8.66,0.6855555555555556,0.14555555555555555,-0.6577777777777778,-1.1306404832868635,-3.0477438066852547,37.22874803704772
1589996800.7932785,-1.2752201957682077,-3.62,8.68088078307283,0.6855555555555556,0.14555555555555555,-0.6577777777777778,-1.1847475528974043,-2.6737377644870213,34.683941269537705
1589996800.8032784,-1.2979342868666812,-3.5572299959666163,8.655164282833297,0.6855555555555556,0.14555555555555555,-0.6577777777777778,-0.9848883838540535,-2.4310446464583784,31.70877222239459
1589996800.8132784,-1.3047875175757067,-3.5459207571719373,8.74705399676817,0.642171809382571,0.18217819842885422,-0.6684828580022805,-0.7808073282827223,-2.278151297979056,27.784169010094228
1589996800.8232784,-1.247922936616507,-3.574935780513756,8.763768809849521,0.6,0.21777777777777774,-0.6788888888888889,-0.9691513717890257,-1.8433486282109743,22.700550520595836
1589996800.8332784,-1.3066122407274956,-3.51821150505773,8.61249351180137,0.6,0.21777777777777774,-0.6788888888888889,-0.23543603760089915,-1.401762542147747,18.15380351486666
1589996800.8432784,-1.1456154990964176,-3.5071994259593917,8.577199425959392,0.6,0.21777777777777774,-0.6788888888888889,-0.5499461836929946,-1.1600071755076007,13.555254730519826
1589996800.8532784,-1.0466713712672708,-3.533328628732729,8.626657257465459,0.6,0.21777777777777774,-0.6788888888888889,0.49973536621601555,-0.6146862464715496,9.359970426013966
1589996800.8632784,-1.082809749492214,-3.6424170616113742,8.778821936357481,0.6168697810877906,0.22144512149251483,-0.6986925449484691,0.3235443466486121,-0.12622714962762357,2.629146919431279
1589996800.8732784,-1.064744308106958,-3.6145738468449298,8.658977232427832,0.6255555555555555,0.22333333333333333,-0.7088888888888889,0.12713076577535048,-0.0625,-5.642668215239852
1589996800.8832784,-1.0358508801435138,-3.604149119856486,8.684894719138917,0.6255555555555555,0.22333333333333333,-0.7088888888888889,0.9132399932727885,0.9102519901334231,-13.045283944388384
1589996800.8932784,-0.9709837069982754,-3.5575410728873558,8.811803122447127,0.6255555555555555,0.22333333333333333,-0.7088888888888889,1.1875,1.5993847576472724,-20.845277468911682
1589996800.9032784,-0.8706114370537923,-3.3975309252845123,8.658142362338305,0.6255555555555555,0.22333333333333333,-0.7088888888888889,2.527960875097194,2.3413797978369972,-29.74264861808157
1589996800.9132783,-0.7542853300545609,-3.3654288019672634,8.741905786521171,0.5958305369843832,0.18912151950613487,-0.6830898161667392,3.691073349727196,2.908334454007531,-38.266096883885346
1589996800.9232783,-0.68,-3.4014057100324315,8.875542825243233,0.5666666666666667,0.15555555555555556,-0.6577777777777778,3.4447854085809984,3.8232860598649583,-47.78007370141953
1589996800.9332783,-0.608024448503583,-3.4043951102992835,8.480505128565406,0.5666666666666667,0.15555555555555556,-0.6577777777777778,4.199465188984123,5.6047096740199525,-61.47741762680905
1589996800.9432783,-0.9690366219855742,-2.879017583506176,2.9976033185772213,0.5666666666666667,0.15555555555555556,-0.6577777777777778,-26.862441181933566,86.24201893013033,-120.49294570163762
1589996800.9532783,0.06976917401538829,-3.5038738010750796,-1.1848231036784598,0.5666666666666667,0.15555555555555556,-0.6577777777777778,-65.01698037803465,50.43440826687279,-391.34091408143905
1589996800.9632783,1.973052192066806,-5.4245746821028655,0.13453178971341806,0.5447176567343582,0.21408624870837817,-0.634260981421733,-80.7677358132473,-58.46725659517936,-754.8263475042703
1589996800.9732783,0.9820012663885578,-5.0674631257449345,0.019062872467222935,0.52,0.28,-0.6077777777777778,-81.24284630140048,18.21247625521454,-772.5360594830155
1589996800.9832783,-0.855794020264383,-4.577022330652992,1.1536538126415894,0.52,0.28,-0.6077777777777778,-76.94754194777067,49.54377287211531,-731.9524664542308
1589996800.9932783,-1.1747430129833802,-5.013399454558169,3.8390328896762314,0.52,0.28,-0.6077777777777778,-33.2590528192816,121.73725554182886,-683.3009894874245
1589996801.0032783,-5.5036684664556565,-5.690379817538633,9.983893129770992,0.52,0.28,-0.6077777777777778,14.665832712716437,184.19376823062123,-640.497509774716
1589996801.0132782,0.42030320311757485,-4.98780629217755,17.40846497481228,0.4072519511242066,0.478138115303784,-0.5862230037279937,135.75304153597568,161.57953141336375,-582.5245580268036
1589996801.0232782,0.7545026856825339,-1.987942211520652,7.149688831265049,0.3688888888888889,0.5455555555555556,-0.5788888888888889,229.60638544174847,68.51146045563993,-542.8978398777551
1589996801.0332782,-0.5609368036942551,-0.957058158685052,-1.2763758194206738,0.3688888888888889,0.5455555555555556,-0.5788888888888889,181.99047574837732,34.196483353247004,-496.1088335970549
1589996801.0432782,-0.3607197833523375,-0.961439566704675,-0.8093921037628278,0.3688888888888889,0.5455555555555556,-0.5788888888888889,68.16662806442417,25.730259407069557,-453.6797275869441
1589996801.0532782,0.6411724219303074,-1.8968988437032959,14.067586328954611,0.3688888888888889,0.5455555555555556,-0.5788888888888889,-1.700985211987728,22.48237040824353,-426.7456466805632
1589996801.0632782,-0.8122025704515978,-2.5902959556656056,16.234187202766968,0.25925019760947127,0.5834874250503304,-0.5830458060937957,-58.05076052352317,34.38287299060645,-403.5145373973195
1589996801.0732782,-1.925448581902373,-2.303737217827513,7.27278024310245,0.13444444444444445,0.6266666666666667,-0.5877777777777777,-65.75461846420991,37.36402662550646,-378.51167277638433
1589996801.0832782,0.957947195750664,-2.2735523467315373,9.572813622871427,0.13444444444444445,0.6266666666666667,-0.5877777777777777,8.375412881915771,23.506866951592386,-348.3381600531167
1589996801.0932782,4.119848226631081,-4.169269751438953,9.913087237531753,0.13444444444444445,0.6266666666666667,-0.5877777777777777,61.53619891314833,28.314443390462717,-320.3439077623075
1589996801.1032782,13.318516536676867,-11.598128541810643,9.161138118274263,0.13444444444444445,0.6266666666666667,-0.5877777777777777,31.688336706486325,8.688866126962186,-299.28128640537074
1589996801.1132782,7.548600017788846,-6.392448634706037,9.15901627679445,0.03207101702787907,0.6344913872335379,-0.5877777777777777,-7.469770079160366,1.0431268344747853,-280.2297596282131
1589996801.1232781,0.06042616683895374,0.3474281757718789,8.382997991067075,-0.04,0.64,-0.5877777777777777,-0.07524112071151201,30.164012063349652,-269.61245757835815
1589996801.1332781,0.9850401500621747,-0.3140955171032942,8.914013109364133,-0.04,0.64,-0.5877777777777777,8.772625245010222,42.621037684152846,-261.60480509832024
1589996801.1432781,1.586224,-1.0114944000000001,9.346656,-0.04,0.64,-0.5877777777777777,2.6063799999999997,18.32142,-248.7017
1589996801.153278,1.5068486819269626,-0.8157982425692833,8.641183799484828,-0.04,0.64,-0.5877777777777777,7.549525932150751,12.618877765395787,-235.6125728456859
1589996801.163278,1.444973344689442,-0.8243727327213652,8.247653701775969,-0.09950229400404473,0.6272495084277048,-0.5877777777777777,5.885226412416013,13.330584997318697,-216.92004589760575
1589996801.173278,1.5279158301354545,-0.9078106178047727,8.850700144857557,-0.14888888888888888,0.6166666666666667,-0.5877777777777777,0.1875,8.625,-206.375
1589996801.183278,5.5423802933849995,-1.8642879878217549,9.43126210905065,-0.14888888888888888,0.6166666666666667,-0.5877777777777777,5.143743080542485,15.320275740381954,-198.2015464987545
1589996801.193278,4.827268214291397,-1.6256317522951838,9.147108148101005,-0.14888888888888888,0.6166666666666667,-0.5877777777777777,10.77145121640758,13.161625483301247,-206.37399958631005
1589996801.203278,1.7231690487925087,-0.7049926071956629,8.345296533596189,-0.14888888888888888,0.6166666666666667,-0.5877777777777777,12.637115984885822,10.216177920157714,-218.97620954493183
1589996801.213278,1.3475965559655596,-0.4946156770658616,8.523753326624176,-0.18590843241765753,0.5974357349634103,-0.5940278305813361,2.1039318461366436,22.640654702001566,-207.28238566476574
1589996801.223278,2.072283105022831,-0.6445710165825522,9.737140110550348,-0.2344444444444445,0.5722222222222222,-0.6022222222222222,0.5469238163902905,19.749519346310983,-191.67808219178082
1589996801.233278,3.5230202342036665,-1.1258497124177598,8.973142094591799,-0.2344444444444445,0.5722222222222222,-0.6022222222222222,10.378155128894775,7.685133653328919,-190.6843629743038
1589996801.243278,2.8528153860801675,0.08460344663429464,10.577767304579645,-0.2344444444444445,0.5722222222222222,-0.6022222222222222,12.28745358469009,-24.838909121203468,-115.1635544606303
1589996801.253278,4.787900378510766,1.437275040554725,8.104511911956488,-0.2344444444444445,0.5722222222222222,-0.6022222222222222,9.118451604694807,-25.460260345430832,-23.860080234740288
1589996801.263278,5.723458643382511,1.2376295754656115,4.582548496709536,-0.26831997553060827,0.5487086182918262,-0.6105914710788038,3.7440561959654177,12.764981827175362,7.793243795432062
1589996801.273278,2.6119734823811225,-0.30098674119056124,9.62258641339749,-0.3288888888888889,0.5066666666666667,-0.6255555555555555,-13.57844970687735,35.41262265974659,-11.439412126242356
1589996801.283278,3.623716632443532,-1.1253388090349077,10.542053388090348,-0.3288888888888889,0.5066666666666667,-0.6255555555555555,-10.642325462012321,10.560061601642712,-4.48305954825462
1589996801.293278,4.246126254992983,-1.0161249055381627,8.744605959192487,-0.3288888888888889,0.5066666666666667,-0.6255555555555555,1.2490199584367916,-5.805622840872287,1.083114609197884
1589996801.303278,4.3194143713887545,-0.5860820819566885,8.372632979972755,-0.3288888888888889,0.5066666666666667,-0.6255555555555555,1.2054064951536885,-0.7759471446690573,0.4067975588368852
1589996801.313278,3.7700771418553005,-0.7222780223633459,9.275946156543421,-0.33197767994355054,0.504693272381744,-0.6249549572949269,-0.6872589317021857,1.326737639770912,-0.0625
1589996801.323278,3.8819304463395725,-0.6704430169453982,8.751329050836196,-0.3688888888888889,0.4811111111111111,-0.6177777777777778,-0.12707664193155388,0.75,-0.10462814265145642
1589996801.333278,3.646471713582946,-0.7335282864170538,8.998235856791473,-0.3688888888888889,0.4811111111111111,-0.6177777777777778,-0.3713147376332331,0.5569721064498496,-0.14889442128996994
1589996801.343278,3.7368618549592,-0.7076065969428802,9.13207504884496,-0.3688888888888889,0.4811111111111111,-0.6177777777777778,0.05784536260199977,-0.053190725203999534,0.0
1589996801.353278,3.8289998664708236,-0.6857858192014955,8.924286286553611,-0.3688888888888889,0.4811111111111111,-0.6177777777777778,0.030803511817332086,0.0008929763653358277,-0.030803511817332086
1589996801.363278,3.8588173773129526,-0.6616789405284981,8.77522680858964,-0.36959286534507774,0.47935116997063903,-0.6156658484092112,0.04270066216968872,0.036496689151556405,-0.0031019865090661583
1589996801.373278,3.808725676664228,-0.7106371616678859,9.003504389173372,-0.3711111111111111,0.4755555555555556,-0.6111111111111112,-0.020169623262618876,0.088643013899049,0.125
1589996801.383278,3.8335683190804755,-0.690154171756973,8.888832527487654,-0.3711111111111111,0.4755555555555556,-0.6111111111111112,-0.012114570607567494,-0.3003854293924325,0.07461457060756749
1589996801.393278,3.7800840045632107,-0.7049579977183945,8.969775987831438,-0.3711111111111111,0.4755555555555556,-0.6111111111111112,0.09383750475334462,-0.31232499049331075,-0.015668752376672312
1589996801.4032779,3.861454591449532,-0.672818112825702,8.819726789779914,-0.3711111111111111,0.4755555555555556,-0.6111111111111112,0.1875,-0.07159119655957501,-0.035795598279787504
1589996801.4132779,3.831484382342805,-0.6853710955857013,8.935371095585701,-0.3654535612714127,0.4817274281079538,-0.6141970473873103,0.07177738964253266,0.14465326294683417,0.0
1589996801.4232779,3.805456810479069,-0.6890863790418613,8.99360465329303,-0.3588888888888889,0.4888888888888889,-0.6177777777777778,-0.03410506549418338,0.3125,0.0
1589996801.4332778,3.7934954521134294,-0.7,9.014711342964151,-0.3588888888888889,0.4888888888888889,-0.6177777777777778,-0.040653424291064735,0.2718465757089353,0.040653424291064735
1589996801.4432778,3.8258679102942184,-0.6808883707107423,8.861776741421485,-0.3588888888888889,0.4888888888888889,-0.6177777777777778,-0.07722092677685571,0.06805231694213931,0.07722092677685571
1589996801.4532778,3.8736885981787865,-0.6643516737206618,8.843055021161986,-0.3588888888888889,0.4888888888888889,-0.6177777777777778,0.014949660125689367,-0.15489932025137873,-0.014949660125689367
1589996801.4632778,3.799722168782865,-0.7046969988457099,8.96409099653713,-0.3588888888888889,0.4888888888888889,-0.6177777777777778,0.05697604046428113,-0.23895208092856227,-0.05697604046428113
1589996801.4732778,3.854966683751922,-0.68,8.939933367503844,-0.3711111111111111,0.4933333333333334,-0.6255555555555555,-0.062083546899026135,0.04677088672475653,0.0625
1589996801.4832778,3.840634546386468,-0.68,8.911269092772937,-0.3711111111111111,0.4933333333333334,-0.6255555555555555,0.11706817016914403,0.001982957457713992,0.0625
1589996801.4932778,3.845106898263027,-0.6775178163771712,8.854893101736973,-0.3711111111111111,0.4933333333333334,-0.6255555555555555,-0.0314727047146402,-0.2495545905707196,0.0469863523573201
1589996801.5032778,3.80117991365072,-0.6735397409521602,8.9058995682536,-0.3711111111111111,0.4933333333333334,-0.6255555555555555,0.07724892063400075,-0.41537661904899886,0.0
1589996801.5132778,3.807577289192149,-0.6975772891921489,8.964536264847105,-0.3633045985080355,0.48902629189715374,-0.6255555555555555,0.14207417235279252,-0.11372251705837755,0.015141942549069162
1589996801.5232778,3.7977537105401944,-0.6810148421607775,8.99427597378136,-0.3388888888888889,0.4755555555555556,-0.6255555555555555,-0.01403930912378513,0.38269654561892563,0.04846069087621487
1589996801.5332778,3.7987133882679287,-0.667426776535857,8.913859835196215,-0.3388888888888889,0.4755555555555556,-0.6255555555555555,-0.0625,0.5977706616627233,-0.027229338337276657
1589996801.5432777,3.7877844062872854,-0.6974051979042382,8.931836385329667,-0.3388888888888889,0.4755555555555556,-0.6255555555555555,-0.0625,0.3310875654925559,-0.0625
1589996801.5532777,3.782102938771059,-0.6971588244915763,8.981476473474729,-0.3388888888888889,0.4755555555555556,-0.6255555555555555,-0.02237132653617578,-0.14275734692764844,-0.10262867346382422
1589996801.5632777,3.8412901387041614,-0.6752259167775033,8.920903667110014,-0.34256638588046534,0.48000726244009545,-0.6255555555555555,0.0625,-0.2907253467604028,-0.16572534676040282
1589996801.5732777,3.833361786413261,-0.7,8.962808366148694,-0.36,0.5011111111111111,-0.6255555555555555,-0.056649237190219054,-0.038563453512226176,-0.032712690702445237
1589996801.5832777,3.842169786944164,-0.7,8.913915106527918,-0.36,0.5011111111111111,-0.6255555555555555,-0.10053058420051209,0.15398980526649597,0.02898980526649597
1589996801.5932777,3.8242636160159162,-0.6809818453121114,8.920490922656056,-0.36,0.5011111111111111,-0.6255555555555555,0.05943173339965183,0.09835239990052225,0.09221586669982591
1589996801.6032777,3.84,-0.6629666780490582,8.930766746343407,-0.36,0.5011111111111111,-0.6255555555555555,0.14354173780661317,-0.07416695122645268,0.08791652438677366
1589996801.6132777,3.84,-0.6689343236013887,8.972540265209721,-0.36,0.5011111111111111,-0.6255555555555555,0.18083952250867907,-0.2233580900347163,0.013320954982641853
1589996801.6232777,3.8500612013046505,-0.6682823322461245,8.916625865796899,-0.36,0.4888888888888889,-0.6022222222222222,0.09394125407703302,-0.05252959284641037,-0.041794169384688676
1589996801.6332777,3.8039480338622784,-0.7067099717814344,8.947367977425147,-0.36,0.4888888888888889,-0.6022222222222222,-0.05016239418037893,0.2837122530875509,0.05427492945358596
1589996801.6432776,3.7918930983395223,-0.69,8.897037885055703,-0.36,0.4888888888888889,-0.6022222222222222,-0.011831864622015277,0.4290088122679083,0.0625
1589996801.6532776,3.7999632501491156,-0.69,8.969669251342044,-0.36,0.4888888888888889,-0.6022222222222222,-0.06227031343197429,0.12637811940815424,0.0625
1589996801.6632776,3.7984535949399767,-0.7129553375500194,8.985773202530012,-0.3610958363811081,0.4881061486166688,-0.6044138949844384,-0.125,-0.20511165612495158,0.1522766877500968
1589996801.6732776,3.8492345190037325,-0.6707654809962679,8.958469038007465,-0.36777777777777776,0.4833333333333333,-0.6177777777777778,-0.11064723131997867,-0.2933629750933049,-0.05771574377332622
1589996801.6832776,3.84,-0.6888983690095044,8.904406523961983,-0.36777777777777776,0.4833333333333333,-0.6177777777777778,0.0625,0.04872961261880415,0.0
1589996801.6932776,3.84,-0.709990445379419,8.820038218482324,-0.36777777777777776,0.4833333333333333,-0.6177777777777778,0.0625,0.3123805672427376,0.0
1589996801.7032776,3.81,-0.68,8.944190073742647,-0.36777777777777776,0.4833333333333333,-0.6177777777777778,0.02618796089154031,0.09671990222885078,-0.018156019554229845
1589996801.7132776,3.81,-0.6844277489925159,8.943283246977547,-0.36457995906096075,0.4887450265464082,-0.6163018614469392,-0.020989853195164075,-0.1803468624064479,-0.03482656879677605
1589996801.7232776,3.8176977543478823,-0.6923022456521177,8.970755614130294,-0.3533333333333333,0.5077777777777778,-0.6111111111111112,0.07688903532573585,-0.1585006589658113,0.014389035325735842
1589996801.7332776,3.8172495958388977,-0.6714997305592653,8.92299946111853,-0.3533333333333333,0.5077777777777778,-0.6111111111111112,0.0,0.2406266840045922,-0.009373315995407791
1589996801.7432775,3.8093268303140744,-0.6662178868760497,8.9124357737521,-0.3533333333333333,0.5077777777777778,-0.6111111111111112,-0.058292689462964946,0.37079268946296495,0.04306910351234501
1589996801.7532775,3.827016946152825,-0.6822372903853812,8.94596610769435,-0.3533333333333333,0.5077777777777778,-0.6111111111111112,-0.1828389783637892,0.4533897836378921,0.009322043272421575
1589996801.7632775,3.7901468948783528,-0.709779657682471,9.019706210243294,-0.35340678077250964,0.5077247324050393,-0.6110784678048106,-0.12454095350514788,-0.12545904649485212,0.12454095350514788
1589996801.7732775,3.83,-0.655628774595753,8.93155683810637,-0.37333333333333335,0.4933333333333334,-0.6022222222222222,0.0,-0.26758992061172804,0.017589920611728035
1589996801.7832775,3.8273786387302122,-0.6726213612697878,8.894271832381273,-0.37333333333333335,0.4933333333333334,-0.6022222222222222,0.032767015872346705,-0.26334947619147997,0.07888350793617335
1589996801.7932775,3.8220416090398137,-0.68,8.852041609039814,-0.37333333333333335,0.4933333333333334,-0.6022222222222222,0.11223994350116234,-0.07395977400464938,0.11223994350116234
1589996801.8032775,3.8242863717425073,-0.6771431858712536,8.894281769544957,-0.37333333333333335,0.4933333333333334,-0.6022222222222222,0.0625,0.10714491169533452,0.04464491169533452
1589996801.8132775,3.8115391680881774,-0.6746175042645323,8.978460831911823,-0.37128110921576346,0.49179416524515596,-0.6058136144279694,0.05288019944889122,0.05288019944889122,-0.009619800551108778
1589996801.8232775,3.8165972105174446,-0.6897916315523344,8.973402789482556,-0.36,0.4833333333333333,-0.6255555555555555,0.0,-0.021267434265969998,-0.019965131468060004
1589996801.8332775,3.8157260337923975,-0.6719086779307992,8.955187186899611,-0.36,0.4833333333333333,-0.6255555555555555,0.0,-0.03864152586500996,0.0625
1589996801.8432775,3.838319357908534,-0.6794397859695115,8.857282782396352,-0.36,0.4833333333333333,-0.6255555555555555,0.0,0.055497324618892854,0.0625
1589996801.8532774,3.8081584782759337,-0.69,8.945524565172198,-0.36,0.4833333333333333,-0.6255555555555555,-0.011509510775414039,0.30099048922458593,0.011509510775414039
1589996801.8632774,3.8008923498025085,-0.69,8.967322950592475,-0.36,0.4833333333333333,-0.6255555555555555,-0.056922813734321946,0.25557718626567805,0.056922813734321946
1589996801.8732774,3.815503167204494,-0.7,8.99615294211386,-0.36,0.4888888888888889,-0.6322222222222222,0.0,-0.21042986335205768,0.11353506832397116
1589996801.8832774,3.839661439771917,-0.7,8.887630078403422,-0.36,0.4888888888888889,-0.6322222222222222,0.0042320028510335,-0.3082679971489665,0.06461600142551675
1589996801.8932774,3.83,-0.6901036361614589,8.833195151784722,-0.36,0.4888888888888889,-0.6322222222222222,0.14561742466362726,-0.12564772600911822,0.14561742466362726
1589996801.9032774,3.823961141883255,-0.6740259054111633,8.87207771623349,-0.36,0.4888888888888889,-0.6322222222222222,0.14975713677034513,0.012580954409884958,0.17491904559011504
1589996801.9132774,3.8025160630592243,-0.6883226246271836,8.914967873881551,-0.36,0.4888888888888889,-0.6322222222222222,0.01572539412015339,0.057258201959948865,0.13024179804005115
1589996801.9232774,3.82,-0.6998340730624786,8.989834073062479,-0.3533333333333333,0.4933333333333334,-0.6466666666666666,-0.06042591328098327,0.3667036531239331,0.18335182656196655
1589996801.9332774,3.82,-0.69,8.945660722542772,-0.3533333333333333,0.4933333333333334,-0.6466666666666666,0.04599073199171709,-0.07547219597515128,-0.029481463983434188
1589996801.9432774,3.8168017964071854,-0.6915991017964072,8.864391916167664,-0.3533333333333333,0.4933333333333334,-0.6466666666666666,-0.00999438622754491,0.07249438622754491,0.05250561377245509
1589996801.9532773,3.797426649120531,-0.7051467017589383,8.952866754397345,-0.3533333333333333,0.4933333333333334,-0.6466666666666666,-0.046416557003317704,0.1089165570033177,0.016083442996682296
1589996801.9632773,3.7927203576820347,-0.7183677853907792,8.991088143072814,-0.3536960476909379,0.4933333333333334,-0.6455180712009186,0.006800894205086517,0.06590044710254325,0.05909955289745674
1589996801.9732773,3.8303718541345657,-0.6875929635336415,9.014814072932717,-0.36,0.4933333333333334,-0.6255555555555555,0.07986806625577811,0.09491204417051874,0.030087955829481254
1589996801.9832773,3.810155916625636,-0.6820311833251272,8.98734515017233,-0.36,0.4933333333333334,-0.6255555555555555,-0.02441531265386509,-0.03808468734613491,0.07422041687182013
1589996801.9932773,3.844574922041687,-0.6889149844083374,8.842785327424915,-0.36,0.4933333333333334,-0.6255555555555555,0.10465595765632693,-0.16715595765632693,-0.09787461020843594
1589996802.0032773,3.84882852072915,-0.6817572189062753,8.90117147927085,-0.36,0.4933333333333334,-0.6255555555555555,0.12133912727859332,0.06616087272140668,0.0036608727214066782
1589996802.0132773,3.8352963381190515,-0.7020554928214228,8.91470366188095,-0.36,0.4933333333333334,-0.6255555555555555,0.07905105662203582,0.10844894337796418,0.04594894337796419
1589996802.0232773,3.7925360484314803,-0.70063401210787,9.00429389102917,-0.3537560080719134,0.4933333333333334,-0.6317995474836422,0.003962575674188229,0.24207484865162354,0.0625
1589996802.0332773,3.8162511423473604,-0.682499238435093,8.966248096087734,-0.3533333333333333,0.4933333333333334,-0.6322222222222222,-0.05468987989033466,0.25,0.007810120109665343
1589996802.0432773,3.8318259776868344,-0.6781740223131655,8.87,-0.3533333333333333,0.4933333333333334,-0.6322222222222222,-0.0625,-0.09076291837185213,0.03967527891456808
1589996802.0532773,3.8389483604747916,-0.6710516395252085,8.87,-0.3533333333333333,0.4933333333333334,-0.6322222222222222,-0.0625,0.042781758902341704,-0.04935450593489446
1589996802.0632772,3.8114935013156845,-0.67,8.965021662281051,-0.3533333333333333,0.4933333333333334,-0.6322222222222222,-0.0031114610743428195,0.0625,0.17505415570262872
1589996802.0732772,3.81,-0.67,8.996887805314485,-0.35930840118099666,0.48437073156183824,-0.6192762418856183,-0.056016261071843966,0.28656504428737584,0.13148373892815604
1589996802.0832772,3.83,-0.6920796029583495,8.983363176333203,-0.36,0.4833333333333333,-0.6177777777777778,0.1379975184896847,-0.0625,-0.023507444530945894
1589996802.0932772,3.83,-0.6933136263266614,8.911084835102216,-0.36,0.4833333333333333,-0.6177777777777778,0.13178021938884535,-0.07642994515278866,0.08321016454163402
1589996802.1032772,3.8318263817302354,-0.6718263817302356,8.889131908651178,-0.36,0.4833333333333333,-0.6177777777777778,-0.039670228372056145,-0.0907553425580842,-0.0625
1589996802.1132772,3.8402302046622907,-0.6802302046622911,8.930920818649163,-0.3598465302251393,0.48346122481238385,-0.6181102956233093,0.061061220860680915,0.06393877913931909,-0.061061220860680915
1589996802.1232772,3.8400282756128155,-0.6949858621935923,8.962521206709612,-0.3533333333333333,0.4888888888888889,-0.6322222222222222,-0.015580819354975869,0.15616163870995173,0.031161638709951738
1589996802.1332772,3.81161787665886,-0.7051463700234192,8.930292740046838,-0.3533333333333333,0.4888888888888889,-0.6322222222222222,-0.07261172911787667,0.20955308352849336,0.10477654176424668
1589996802.1432772,3.818485943614727,-0.6830281127705455,8.88454216915582,-0.3533333333333333,0.4888888888888889,-0.6322222222222222,-0.13446285240795464,0.0,-0.009462852407954636
1589996802.1532772,3.8101114128264517,-0.6997771743470969,8.909665761520646,-0.3533333333333333,0.4888888888888889,-0.6322222222222222,-0.18680366983467775,0.0,-0.06180366983467775
1589996802.1632771,3.8164729803706887,-0.693527019629311,8.916472980370688,-0.3533333333333333,0.4888888888888889,-0.6322222222222222,-0.0661316180495816,-0.040456127316806124,-0.0625
1589996802.1732771,3.8041818923327892,-0.69,8.991181484502446,-0.35860603588907014,0.4888888888888889,-0.6322222222222222,-0.04943158646003263,-0.01306841353996737,-0.0625
1589996802.1832771,3.799422417341199,-0.7,8.974801756070793,-0.36,0.4888888888888889,-0.6322222222222222,0.18028021676498834,-0.0625,-0.0625
1589996802.1932771,3.790436452168405,-0.6995635478315947,8.890436452168405,-0.36,0.4888888888888889,-0.6322222222222222,0.0625,-0.0634092753508442,-0.0634092753508442
1589996802.203277,3.8153427287662556,-0.6746572712337444,8.915342728766255,-0.36,0.4888888888888889,-0.6322222222222222,0.0625,-0.11529735159636587,-0.11529735159636587
1589996802.213277,3.829324328019469,-0.67,8.92,-0.36,0.4888888888888889,-0.6322222222222222,0.1207770501216811,-0.2998311503650433,0.04983115036504332
1589996802.223277,3.8383753103184874,-0.6783753103184876,8.945125930955463,-0.3665141302477125,0.4888888888888889,-0.6266386820098971,0.020308621018905557,-0.20780862101890557,-0.04219137898109444
1589996802.233277,3.8184353983139148,-0.69,8.969047788197406,-0.36777777777777776,0.4888888888888889,-0.6255555555555555,-0.125,0.1679424789239367,-0.009778760538031638
1589996802.243277,3.808398601752875,-0.6883986017528749,8.911601398247125,-0.36777777777777776,0.4888888888888889,-0.6255555555555555,-0.0949737828664066,0.07250873904453113,-0.07250873904453113
1589996802.253277,3.8016322398484226,-0.6865289593936917,8.924896719545268,-0.36777777777777776,0.4888888888888889,-0.6255555555555555,0.08290299810528662,0.08419400378942676,-0.1352014990526433
1589996802.263277,3.8094234127131554,-0.717693650852621,8.948270238139465,-0.36777777777777776,0.4888888888888889,-0.6255555555555555,0.18029265891444068,-0.1105853178288814,-0.18389632945722034
1589996802.273277,3.826707357307819,-0.6849389640382713,8.99506103596173,-0.36,0.4933333333333334,-0.6111111111111112,0.052210491586935005,0.04192098317387001,0.09413147476080502
1589996802.283277,3.8115180199130556,-0.7084819800869443,8.9563378207825,-0.36,0.4933333333333334,-0.6111111111111112,0.0,-0.02454950217360819,-0.07198762445659795
1589996802.293277,3.8212392019294015,-0.697521596141197,8.883717605788204,-0.36,0.4933333333333334,-0.6111111111111112,0.007745012058759044,0.15651995176496383,-0.10950997588248192
1589996802.303277,3.83,-0.68,8.911218782138855,-0.36,0.4933333333333334,-0.6111111111111112,0.06440434709196126,-0.06630869418392252,0.0
1589996802.313277,3.83,-0.68,8.936971618033063,-0.36,0.4933333333333334,-0.6111111111111112,0.10464315317666201,-0.14678630635332401,0.0
1589996802.323277,3.83,-0.6879524174980813,8.957952417498081,-0.3661852136096188,0.48538091583525195,-0.6164127227764987,-0.02410782808902534,-0.13779739063699156,-0.14910782808902534
1589996802.333277,3.81,-0.6982090035875477,8.991940516143965,-0.36777777777777776,0.4833333333333333,-0.6177777777777778,-0.11940313621108668,0.0625,-0.0625
1589996802.343277,3.81,-0.68,8.910902950955943,-0.36777777777777776,0.4833333333333333,-0.6177777777777778,-0.056856556525353284,0.06814344347464672,-0.06814344347464672
1589996802.353277,3.81,-0.68,8.92543017456359,-0.36777777777777776,0.4833333333333333,-0.6177777777777778,0.0339385910224439,0.1589385910224439,-0.1589385910224439
1589996802.363277,3.8275861752561555,-0.6975861752561553,8.956379262884234,-0.36777777777777776,0.4833333333333333,-0.6177777777777778,0.0625,-0.08728398837742773,0.08728398837742773
1589996802.373277,3.8158894087938204,-0.7,8.97411059120618,-0.3528832648379217,0.4833333333333333,-0.6177777777777778,0.018404402480689246,-0.16909559751931075,-0.007286792557932242
1589996802.383277,3.819874040971288,-0.6898740409712885,8.909370204856442,-0.3466666666666667,0.4833333333333333,-0.6177777777777778,0.125,-0.3093510242822115,-0.125
1589996802.393277,3.811580321126315,-0.681580321126315,8.867901605631575,-0.3466666666666667,0.4833333333333333,-0.6177777777777778,0.125,-0.10200802815787391,-0.125
1589996802.403277,3.82,-0.6789012140964797,8.93329635771056,-0.3466666666666667,0.4833333333333333,-0.6177777777777778,-0.06936741189700192,-0.125,-0.006867411897001925
1589996802.413277,3.82,-0.6709070463338861,8.957278860998343,-0.3466666666666667,0.4833333333333333,-0.6177777777777778,-0.11933096041321212,-0.125,-0.05683096041321212
1589996802.423277,3.8193201012733082,-0.6993201012733086,8.987960303819927,-0.3466666666666667,0.4933333333333334,-0.6177777777777778,0.0,-0.125,0.008498734083642882
1589996802.433277,3.811568812256288,-0.691568812256288,8.964706436768864,-0.3466666666666667,0.4933333333333334,-0.6177777777777778,0.0,-0.125,0.1053898467964
1589996802.443277,3.801351656796709,-0.6972966864065819,8.884054970390128,-0.3466666666666667,0.4933333333333334,-0.6177777777777778,-0.04560429004113738,-0.1165521450205687,-0.05405214502056869
1589996802.4532769,3.8105394671278248,-0.6810789342556497,8.913776269894774,-0.3466666666666667,0.4933333333333334,-0.6177777777777778,0.059128330451094765,-0.059128330451094765,-0.003371669548905238
1589996802.4632769,3.816686402673154,-0.6933728053463083,8.95680481871208,-0.3466666666666667,0.4933333333333334,-0.6177777777777778,0.020709983292786588,-0.020709983292786588,-0.04179001670721341
1589996802.4732769,3.8128954137880346,-0.7071045862119653,8.987104586211965,-0.3466666666666667,0.49017573946134874,-0.6130413869698009,0.0,0.0,-0.10690366382478318
1589996802.4832768,3.8393290627107213,-0.6606709372892785,8.995974376264328,-0.3466666666666667,0.4888888888888889,-0.6111111111111112,0.06459667902899528,-0.12290332097100472,-0.00838671611598112
1589996802.4932768,3.82,-0.6809958050156626,8.881327740020884,-0.3466666666666667,0.4888888888888889,-0.6111111111111112,0.1270745937826302,-0.0666491875652604,-0.2437762186521094
1589996802.5032768,3.82,-0.704046053234168,8.912061404312224,-0.3466666666666667,0.4888888888888889,-0.6111111111111112,0.17509594423785013,-0.16269188847570024,-0.09971216728644966
1589996802.5132768,3.827602209134674,-0.6871933725959777,8.958011045673372,-0.3466666666666667,0.4888888888888889,-0.6111111111111112,0.1399861929082867,-0.04495857872486009,-0.014986192908286698
1589996802.5232768,3.8234687779494267,-0.68,8.98959366615172,-0.3640832588015286,0.48526043219412596,-0.6248992465512102,0.002539586551752168,0.0,0.0
1589996802.5332768,3.8285441494659476,-0.6714558505340523,8.931646804272418,-0.37333333333333335,0.4833333333333333,-0.6322222222222222,-0.009099065837826707,-0.21360373664869317,0.0
1589996802.5432768,3.8156171202960194,-0.6771914398519904,8.884042800740048,-0.37333333333333335,0.4833333333333333,-0.6322222222222222,-0.08989299814987889,-0.20505350092506056,0.044946499074939444
1589996802.5532768,3.81,-0.6894809809112442,8.898442942733734,-0.37333333333333335,0.4833333333333333,-0.6322222222222222,0.05276839208582973,0.10878065347638288,0.0032438693047234235
1589996802.5632768,3.8019536548980604,-0.6819536548980607,8.964370760815514,-0.37333333333333335,0.4833333333333333,-0.6322222222222222,0.012210343112879163,0.07471034311287916,-0.10057931377424167
1589996802.5732768,3.81,-0.69,8.98021957573502,-0.3466666666666667,0.4833333333333333,-0.6111111111111112,0.0625,-0.0041170450316337925,-0.12088295496836621
1589996802.5832767,3.81,-0.69,8.98765271944282,-0.3466666666666667,0.4833333333333333,-0.6111111111111112,0.0625,-0.14348848955287363,0.018488489552873633
1589996802.5932767,3.83906274791281,-0.6806248347247932,8.88187450417438,-0.3466666666666667,0.4833333333333333,-0.6111111111111112,0.125,0.06054739148502134,0.05664217445506403
1589996802.6032767,3.815295417626837,-0.6964697215821087,8.929409164746327,-0.3466666666666667,0.4833333333333333,-0.6111111111111112,0.125,0.011032120055910241,-0.09190363983226926
1589996802.6132767,3.7944110755104967,-0.7,8.955588924489504,-0.3466666666666667,0.4833333333333333,-0.6111111111111112,-0.06986155611878916,0.0,-0.0762846109703027
1589996802.6232767,3.817957191378463,-0.6790321064661525,8.973978595689232,-0.3466666666666667,0.47789721278752106,-0.6212067635533339,0.006049334586546468,0.13104933458654647,-0.14986622305769765
1589996802.6332767,3.82,-0.6804943536474961,8.927528231762519,-0.3466666666666667,0.4755555555555556,-0.6255555555555555,-0.05941028970314957,-0.0030897102968504312,0.05941028970314957
1589996802.6432767,3.82,-0.69,8.881341031360714,-0.3466666666666667,0.4755555555555556,-0.6255555555555555,0.005587630669640904,-0.054118553995538644,0.005587630669640904
1589996802.6532767,3.82,-0.69,8.908859073612387,-0.3466666666666667,0.4755555555555556,-0.6255555555555555,0.12024614005161177,0.11786921007741766,0.12024614005161177
1589996802.6632767,3.811780340202813,-0.6653410206084397,8.95931795878312,-0.3466666666666667,0.4755555555555556,-0.6255555555555555,-0.029118621197252198,0.0736271262675826,0.0736271262675826
1589996802.6732767,3.81,-0.669361708120898,9.007446832483591,-0.3591489441611973,0.4880378330500862,-0.6255555555555555,-0.17952135151122506,0.0625,-0.054521351511225044
1589996802.6832767,3.794035648902569,-0.6939465266461464,8.978071297805139,-0.36,0.4888888888888889,-0.6255555555555555,0.012054388717886805,-0.0372771943589434,-0.012611402820528299
1589996802.6932766,3.807915567282322,-0.7089577836411609,8.898337730870713,-0.36,0.4888888888888889,-0.6255555555555555,0.11848614775725594,0.10545844327176779,0.05598614775725594
1589996802.7032766,3.802442573043925,-0.6797702921757008,8.9202297078243,-0.36,0.4888888888888889,-0.6255555555555555,-0.016701755426402565,0.03053216304906496,0.10973391847546751
1589996802.7132766,3.8224330881795434,-0.6756082720448859,8.946824816134658,-0.36,0.4888888888888889,-0.6255555555555555,0.04265510084161042,0.07010340056107363,0.05489659943892637
1589996802.7232766,3.8333933912798677,-0.6733933912798677,8.98642643488053,-0.35119118837315694,0.4888888888888889,-0.6255555555555555,0.04241739099834606,0.16629130450082696,-0.04129130450082697
1589996802.7332766,3.823363059157129,-0.676636940842871,8.99336305915713,-0.3466666666666667,0.4888888888888889,-0.6255555555555555,0.04148088026794337,0.14601911973205664,-0.0625
1589996802.7432766,3.829660069496903,-0.6703399305030971,8.864419096540262,-0.3466666666666667,0.4888888888888889,-0.6255555555555555,0.0021245656443571598,0.18537543435564285,-0.0021245656443571598
1589996802.7532766,3.8147125430673245,-0.7005749138653505,8.905862370798026,-0.3466666666666667,0.4888888888888889,-0.6255555555555555,-0.09554660582922059,0.1397266970853897,0.09554660582922059
1589996802.7632766,3.8172666153960653,-0.71,8.941799846188196,-0.3466666666666667,0.4888888888888889,-0.6255555555555555,-0.125,0.03416730754918257,-0.011249038676226147
1589996802.7732766,3.826848935840365,-0.69630212831927,8.970546807521096,-0.3466666666666667,0.48508392453313054,-0.6202286054574939,-0.125,0.042805849002281134,0.023111698004562267
1589996802.7832766,3.820964071465832,-0.7080718570683359,8.961928142931665,-0.3466666666666667,0.4833333333333333,-0.6177777777777778,0.15737276669274913,0.11897455333854981,0.006025446661450183
1589996802.7932765,3.7919161504106036,-0.6912774336070691,8.866387168035345,-0.3466666666666667,0.4833333333333333,-0.6177777777777778,0.12899198002209095,0.00798396004418192,-0.05850801997790904
1589996802.8032765,3.8298691323962566,-0.6898691323962566,8.900327169009358,-0.3466666666666667,0.4833333333333333,-0.6177777777777778,-0.061682077476604154,0.00040896126169792326,-0.06290896126169793
1589996802.8132765,3.814231013012192,-0.674231013012192,8.93942246746952,-0.3466666666666667,0.4833333333333333,-0.6177777777777778,0.036056168673800376,0.04927808433690019,-0.11177808433690019
1589996802.8232765,3.8272560631697687,-0.7045121263395375,8.958628031584885,-0.3466666666666667,0.48812668421382466,-0.6177777777777778,-0.04535039481105471,0.008574802594472644,0.036775592216582054
1589996802.8332765,3.813663200563976,-0.6773264011279521,8.968168399718012,-0.3466666666666667,0.4888888888888889,-0.6177777777777778,-0.1135524982375749,0.0,0.1646049964751498
1589996802.8432765,3.81,-0.679777577484445,8.89177938012444,-0.3466666666666667,0.4888888888888889,-0.6177777777777778,-0.06389014072221899,0.12221971855556202,0.004170422166656973
1589996802.8532765,3.8181806261919897,-0.6881806261919898,8.92272250476796,-0.3466666666666667,0.4888888888888889,-0.6177777777777778,-0.011371086300063574,-0.028386741099809265,0.051128913699936426
1589996802.8632765,3.82,-0.6848135668296078,8.935186433170392,-0.3466666666666667,0.4888888888888889,-0.6177777777777778,0.09724562194485312,-0.0625,-0.002330414629902078
