time,acc_x,acc_y,acc_z,mag_x,mag_y,mag_z,gyr_x,gyr_y,gyr_z
1589996857.1539006,-3.75,-0.93,8.94,0.31777777777777777,-0.3055555555555556,-0.6088888888888889,0.0625,0.0,-0.0625
1589996857.1639006,-3.760648650233022,-0.9346756748834891,8.977270275815576,0.31777777777777777,-0.2911111111111111,-0.6022222222222222,0.037331095934578076,-0.09577703197819269,-0.03327703197819269
1589996857.1739006,-3.759498851493059,-0.9542482772395885,8.906754019774294,0.31777777777777777,-0.2911111111111111,-0.6022222222222222,-0.1218678218316189,-0.003132178168381107,-0.029683910915809446
1589996857.1839006,-3.77,-0.9660541371575472,8.877891725684906,0.31777777777777777,-0.2911111111111111,-0.6022222222222222,-0.08885342893867984,0.08716164276533003,-0.11182328553066008
1589996857.1939006,-3.7616533159463486,-0.96,8.894173342026827,0.31777777777777777,-0.2911111111111111,-0.6022222222222222,0.010333224664679584,0.1771667753353204,-0.10924983699701937
1589996857.2039006,-3.7565839186008056,-0.96,8.903291959300404,0.3225328301005817,-0.29988966924551835,-0.6029537687334228,-0.0625,0.20885050874496605,-0.020574745627516974
1589996857.2139006,-3.7640966619205822,-0.9570483309602911,8.91,0.3322222222222222,-0.31777777777777777,-0.6044444444444445,-0.08094793149818066,0.08810413700363867,-0.044052068501819336
1589996857.2239006,-3.757849019767347,-0.9421509802326528,8.878603920930612,0.3322222222222222,-0.31777777777777777,-0.6044444444444445,-0.026887252908159104,0.0981127470918409,0.0
1589996857.2339005,-3.766531573986805,-0.93,8.83693685202639,0.3322222222222222,-0.31777777777777777,-0.6044444444444445,0.1358388312912347,0.22832233741753064,0.010838831291234684
1589996857.2439005,-3.75,-0.9381200689585235,8.89436020687557,0.3322222222222222,-0.31777777777777777,-0.6044444444444445,0.2636256464861576,0.09962478450461414,0.037124784504614136
1589996857.2539005,-3.7589111071994368,-0.95,8.965644428797747,0.3376678988441002,-0.31480740871129886,-0.6034543214222848,0.3193055800035205,0.006805580003520509,-0.05569441999647949
1589996857.2639005,-3.7647183126991166,-0.9552816873008831,9.01,0.34444444444444444,-0.3111111111111111,-0.6022222222222222,0.2169894543694802,0.0035210912610396383,-0.05897890873896036
1589996857.2739005,-3.750188629328818,-0.9550943146644091,8.931509034630546,0.34444444444444444,-0.3111111111111111,-0.6022222222222222,0.06485786661022779,0.0625,-0.030660533347443054
1589996857.2839005,-3.7557603334491145,-0.9394931110339239,8.865760333449115,0.34444444444444444,-0.3111111111111111,-0.6022222222222222,-0.1938361120759523,0.029665971981011924,-0.0625
1589996857.2939005,-3.7669871731831015,-0.93,8.889038480450695,0.34444444444444444,-0.3111111111111111,-0.6022222222222222,-0.331330167605614,-0.018830167605614016,-0.02483966478877197
1589996857.3039005,-3.7610945644080416,-0.93,8.906716306775875,0.34444444444444444,-0.3111111111111111,-0.6022222222222222,-0.3681589724497394,-0.05565897244973939,0.048817944899478785
1589996857.3139005,-3.762422907488987,-0.9375770925110132,8.882422907488987,0.3377777777777778,-0.2977777777777777,-0.6088888888888889,-0.4138215859030837,0.0388215859030837,0.0302863436123348
1589996857.3239005,-3.755948938571126,-0.9678468157133789,8.846204245715494,0.3377777777777778,-0.2977777777777777,-0.6088888888888889,-0.15191480358276324,-0.037180866069539464,-0.05063826786092107
1589996857.3339005,-3.748280849852983,-0.9624212747794745,8.859297875367544,0.3377777777777778,-0.2977777777777777,-0.6088888888888889,0.10986703262828418,0.010744688418856119,-0.03662234420942806
1589996857.3439004,-3.7585708867480845,-0.9407145566259577,8.931069938557233,0.3377777777777778,-0.2977777777777777,-0.6088888888888889,0.21651701054388228,0.17856804217552907,-0.03348298945611773
1589996857.3539004,-3.7720973047844404,-0.9326342317385199,8.99526846347704,0.33426546879308466,-0.2977777777777777,-0.6039131178272403,0.20060815490275294,0.2631081549027529,0.016463948365749024
1589996857.3639004,-3.751423896528887,-0.9414238965288869,9.008576103471112,0.3244444444444444,-0.2977777777777777,-0.59,0.0625,0.125,0.05360064669445635
1589996857.3739004,-3.7532509270704573,-0.95,8.956131025957973,0.3244444444444444,-0.2977777777777777,-0.59,-0.0007725587144623014,0.125,-0.04218170580964153
1589996857.3839004,-3.7409764473273444,-0.9490235526726559,8.870976447327344,0.3244444444444444,-0.2977777777777777,-0.59,-0.125,0.11889720420410003,-0.11889720420410003
1589996857.3939004,-3.75,-0.945994092080754,8.882997046040378,0.3244444444444444,-0.2977777777777777,-0.59,-0.125,0.09996307550471317,-0.043768462247643414
1589996857.4039004,-3.75,-0.9581447146168047,8.89,0.3269181582887047,-0.30025149162203796,-0.5965965702513607,-0.11340446635503004,0.17590446635503004,0.0
1589996857.4139004,-3.7602281057098765,-0.9448859471450617,8.874657841435186,0.3377777777777778,-0.3111111111111111,-0.6255555555555555,-0.0625,0.1569628303433642,0.031962830343364196
1589996857.4239004,-3.77,-0.9345605539804802,8.84368166194144,0.3377777777777778,-0.3111111111111111,-0.6255555555555555,0.039489612865995935,0.2554930752439973,0.16448961286599595
1589996857.4339004,-3.77,-0.933977906100929,8.853867436605574,0.3377777777777778,-0.3111111111111111,-0.6255555555555555,0.07527617373838814,0.26277617373838813,0.1505523474767763
1589996857.4439003,-3.771676363942997,-0.9416763639429968,8.90005818365798,0.3377777777777778,-0.3111111111111111,-0.6255555555555555,0.020954549287461,0.208454549287461,-0.0104772746437305
1589996857.4539003,-3.774688321199328,-0.9526558394003359,8.957967518201007,0.3324660989771058,-0.3075699919106631,-0.6175880373545475,0.10840100374789988,0.2959010037478999,-0.045901003747899884
1589996857.4639003,-3.7627745562548616,-0.9572254437451382,8.977225443745139,0.31777777777777777,-0.2977777777777777,-0.5955555555555555,0.04515902340711407,0.1459541404426844,-0.034681953185771865
1589996857.4739003,-3.77,-0.95,8.931002674402793,0.31777777777777777,-0.2977777777777777,-0.5955555555555555,0.0,-0.003133357508725801,-0.125
1589996857.4839003,-3.765383898932486,-0.9407677978649727,8.89,0.31777777777777777,-0.2977777777777777,-0.5955555555555555,0.02885063167196045,0.0672987366560791,-0.0672987366560791
1589996857.4939003,-3.7523056481040773,-0.9338471759479613,8.89,0.31777777777777777,-0.2977777777777777,-0.5955555555555555,0.038455150325241945,0.07213454902427416,-0.07213454902427416
1589996857.5039003,-3.745958414436703,-0.94,8.89794455258227,0.32064664398804216,-0.30175005406891303,-0.5955555555555555,0.03724009022939368,0.1999133634097979,-0.15025990977060633
1589996857.5139003,-3.768848483745975,-0.94,8.928464644994634,0.33166778847028433,-0.3170101002750945,-0.5955555555555555,0.1803030234123447,0.2476010078041149,-0.007196976587655307
1589996857.5239003,-3.7538596686931784,-0.96,8.90298231914775,0.3322222222222222,-0.31777777777777777,-0.5955555555555555,0.05263121200290033,0.014254141335266882,-0.13925414133526687
1589996857.5339003,-3.7558688395430324,-0.9558688395430325,8.87652464182787,0.3322222222222222,-0.31777777777777777,-0.5955555555555555,-0.03668024714395306,-0.08831975285604694,-0.03668024714395306
1589996857.5439003,-3.7560031254814783,-0.9469984372592608,8.915007813703696,0.3322222222222222,-0.31777777777777777,-0.5955555555555555,0.03751953425923888,-0.16251953425923887,0.01875976712961944
1589996857.5539002,-3.7668318346446856,-0.9368318346446859,8.95,0.32975809361253344,-0.3139055756768383,-0.6025959230118091,0.10519896652928687,-0.1707958661171475,0.022897933058573752
1589996857.5639002,-3.753068085620994,-0.9369319143790059,8.93960212843149,0.3244444444444444,-0.3055555555555556,-0.6177777777777778,0.019175535131212965,-0.021662232434393518,-0.10582446486878704
1589996857.5739002,-3.74315692731868,-0.95,8.90737229072528,0.3244444444444444,-0.3055555555555556,-0.6177777777777778,-0.07236539787087386,-0.10196159148349544,-0.16776920425825229
1589996857.5839002,-3.76,-0.9464491786356274,8.850652464093118,0.3244444444444444,-0.3055555555555556,-0.6177777777777778,-0.125,-0.22372946589068646,-0.08469263352732839
1589996857.5939002,-3.7585610549406216,-0.9414389450593782,8.880072615415648,0.3244444444444444,-0.3055555555555556,-0.6177777777777778,-0.10701318675777212,-0.07149340662111395,-0.11600659337888605
1589996857.6039002,-3.751877953033544,-0.9481220469664559,8.938122046966456,0.3259050745816454,-0.3065988627964134,-0.6161084861924052,0.0,-0.07805117416139724,-0.05076279354034931
1589996857.6139002,-3.76,-0.94,8.927645503488261,0.3322222222222222,-0.3111111111111111,-0.6088888888888889,-0.044146809595106876,0.11028439680163105,-0.01471560319836896
1589996857.6239002,-3.751020867737577,-0.9444895661312115,8.88857303708152,0.3322222222222222,-0.3111111111111111,-0.6088888888888889,-0.04720105839963967,0.03444021167992794,0.02167936496021619
1589996857.6339002,-3.7491546221190744,-0.9454226889404628,8.872886555297686,0.3322222222222222,-0.3111111111111111,-0.6088888888888889,-0.018040970610537943,0.0,0.09639180587789242
1589996857.6439002,-3.7634037815671793,-0.94,8.910211344701539,0.3322222222222222,-0.3111111111111111,-0.6088888888888889,-0.14495273041025736,0.04254726958974264,0.08377363479487132
1589996857.6539001,-3.7660769395956684,-0.9439230604043316,8.93392306040433,0.3322222222222222,-0.3071880507067794,-0.6080170976879263,-0.08701912752707304,0.125,0.08822130870939043
1589996857.6639001,-3.7536309111880044,-0.9527381776239907,8.94273817762399,0.3322222222222222,-0.2911111111111111,-0.6044444444444445,-0.21019319492502883,0.05692041522491349,-0.0625
1589996857.6739001,-3.7527223336464495,-0.94,8.904528167762573,0.3322222222222222,-0.2911111111111111,-0.6044444444444445,-0.22725729264515473,-0.017014585290309477,-0.039757292645154735
1589996857.6839,-3.753367635708773,-0.94,8.876709544635967,0.3322222222222222,-0.2911111111111111,-0.6044444444444445,-0.2710477231798302,-0.00016079238487265446,0.020886930794957553
1589996857.6939,-3.7773792907443076,-0.94,8.913931063883538,0.3322222222222222,-0.2911111111111111,-0.6044444444444445,-0.3965514178798118,-0.10862056715192472,0.04612056715192472
1589996857.7039,-3.764134272270818,-0.94,8.933798591593773,0.3322222222222222,-0.2911111111111111,-0.6044444444444445,-0.1895980042315344,-0.025839201692613764,-0.036660798307386236
1589996857.7139,-3.76,-0.9306694479479966,8.958661104104008,0.34362623028578204,-0.3097722152151181,-0.6241422765542296,-0.125,0.11663190065004365,-0.12081595032502182
1589996857.7239,-3.7689359270298737,-0.9389359270298738,8.933192218910378,0.34444444444444444,-0.3111111111111111,-0.6255555555555555,-0.125,0.1808495439367114,0.04254863181013424
1589996857.7339,-3.755679792330744,-0.9356797923307438,8.833786528220497,0.34444444444444444,-0.3111111111111111,-0.6255555555555555,-0.19933290068904966,0.10133419862190071,-0.050667099310950356
1589996857.7439,-3.779697085377259,-0.9596970853772594,8.849798056918173,0.34444444444444444,-0.3111111111111111,-0.6255555555555555,-0.24936892786929055,0.0012621442614189349,-0.0006310721307094674
1589996857.7539,-3.77,-0.95,8.944549005021386,0.3430544706879094,-0.31186927861467567,-0.6236601367966441,-0.1803921796540822,-0.0625,0.1321078203459178
1589996857.7639,-3.768810799028461,-0.9476215980569221,8.978810799028462,0.3322222222222222,-0.31777777777777777,-0.6088888888888889,-0.11756749392788192,-0.06993250607211808,0.16520248178364577
1589996857.7739,-3.756506335594522,-0.9369873288109561,8.942050684756175,0.3322222222222222,-0.31777777777777777,-0.6088888888888889,-0.08433540253423781,-0.16867080506847562,-0.02183540253423781
1589996857.7839,-3.757444647160844,-0.95,8.901166970741267,0.3322222222222222,-0.31777777777777777,-0.6088888888888889,-0.14826452237763812,-0.20347095524472375,-0.039235477622361875
1589996857.7939,-3.772555200464846,-0.952555200464846,8.922555200464846,0.3322222222222222,-0.31777777777777777,-0.6088888888888889,-0.17152999709471237,-0.125,0.015970002905287623
1589996857.8039,-3.7796667726774795,-0.9596667726774797,8.930333227322519,0.33196304541581756,-0.3171113231327373,-0.6084445857921953,-0.12708267076575144,-0.12291732923424856,0.05416931693699424
1589996857.8139,-3.7635166007378107,-0.9467583003689053,8.927033201475622,0.3244444444444444,-0.2977777777777777,-0.5955555555555555,-0.14697875461131607,-0.08276062269434196,-0.1267181319169741
1589996857.8239,-3.75,-0.94,8.866451032768243,0.3244444444444444,-0.2977777777777777,-0.5955555555555555,-0.11968573959958742,-0.10593808680013753,0.019061913199862474
1589996857.8339,-3.7538437377306635,-0.94,8.820749901845307,0.3244444444444444,-0.2977777777777777,-0.5955555555555555,-0.25,-0.08652336081664704,0.01445327836670593
1589996857.8439,-3.76,-0.94,8.892122325764536,0.3244444444444444,-0.2977777777777777,-0.5955555555555555,-0.23617354639716498,-0.08352063919149494,-0.034847092794329966
1589996857.8539,-3.76,-0.94,8.947172857330358,0.3244444444444444,-0.2977777777777777,-0.5955555555555555,-0.20176696416852605,0.019699107494421858,0.03396607166294789
1589996857.8639,-3.769169374416433,-0.9491693744164332,9.006677497665732,0.3244444444444444,-0.30490951343500367,-0.6016684718331777,-0.1875,0.0625,0.0625
1589996857.8739,-3.7531788247750133,-0.9415894123875066,9.001589412387506,0.3244444444444444,-0.3055555555555556,-0.6022222222222222,-0.24006617257808366,-0.25289703546850184,0.009933827421916355
1589996857.8839,-3.7589123657776238,-0.96,8.902175268444752,0.3244444444444444,-0.3055555555555556,-0.6022222222222222,-0.048904572220297884,0.05570228611014894,-0.042106858330446834
1589996857.8939,-3.751265928937342,-0.96,8.917468142125317,0.3244444444444444,-0.3055555555555556,-0.6022222222222222,0.04667588828322973,0.007912055858385135,0.10126383242484457
1589996857.9039,-3.76877903066271,-0.9493895153313551,8.936947576656776,0.32566541378173425,-0.30589471370480276,-0.602357885481921,0.31631552917903066,0.14026211671612265,0.0625
1589996857.9139,-3.752184371909001,-0.9410921859545004,8.895460929772502,0.34226007253544344,-0.31050434113638864,-0.6042017364545554,0.3681738377843719,0.3476953511374876,0.0625
1589996857.9239,-3.7312799325463746,-0.9075199550309163,8.825039910061832,0.34444444444444444,-0.3111111111111111,-0.6044444444444445,0.4349997657860221,0.1875,0.125
1589996857.9338999,-3.660549747048904,-0.8603664980326026,8.730732996065205,0.34444444444444444,-0.3111111111111111,-0.6044444444444445,0.18940884391980517,0.1875,0.125
1589996857.9438999,-3.7076713121955116,-0.9204568325213641,8.776484705694434,0.34444444444444444,-0.3111111111111111,-0.6044444444444445,0.05821719511221149,1.2976674187365225,0.9083914024438943
1589996857.9538999,-3.7438110899164636,-0.98,8.979207393277642,0.34444444444444444,-0.3102585746965146,-0.600863791503139,-0.6246834506347432,3.447091034664211,1.0628165493652568
1589996857.9638999,-3.8230736981883715,-0.9738526036232571,9.011557810869771,0.34444444444444444,-0.3055555555555556,-0.5811111111111111,-1.2932893863226786,3.36552570425875,0.31736815896803566
1589996857.9738998,-3.8284449979957627,-0.9584449979957624,8.956004981961863,0.34444444444444444,-0.3055555555555556,-0.5811111111111111,-1.1430936122086697,2.868124749470309,0.13890618736757715
1589996857.9838998,-3.7967370584937394,-0.95,8.871276396935153,0.34444444444444444,-0.3055555555555556,-0.5811111111111111,-0.4898033077929359,1.4671907120164456,-0.08865165389646795
1589996857.9938998,-3.724859954438511,-0.9456742726967173,8.858651454606566,0.34444444444444444,-0.3055555555555556,-0.5811111111111111,-0.25842840870896666,0.625,-0.04055369346827502
1589996858.0038998,-3.6700365985734025,-0.930010456735258,8.889979086529484,0.34444444444444444,-0.3055555555555556,-0.5811111111111111,-0.06263070919072339,0.625,-0.18740196810695747
1589996858.0138998,-3.67,-0.93,8.916217630624244,0.3337631875234561,-0.31623681247654395,-0.6015026015966344,-0.39022038280305243,1.5535410846086486,-0.6244605104040699
1589996858.0238998,-3.6197435897435897,-0.9084615384615385,8.927179487179487,0.3322222222222222,-0.31777777777777777,-0.6044444444444445,-0.8413461538461539,2.2708333333333335,-1.001602564102564
1589996858.0338998,-3.2180098298967095,-0.9098318166109896,8.799747724916484,0.3322222222222222,-0.31777777777777777,-0.6044444444444445,-1.1255255730906577,3.314602292362631,-2.130606112967016
1589996858.0438998,-2.646272126867104,-0.8615159543831356,8.727273931574704,0.3322222222222222,-0.31777777777777777,-0.6044444444444445,-1.2765126425527014,3.9185505702108054,-3.7411348538954807
1589996858.0538998,-1.6387431162941368,-0.6872191627973941,8.549074613972573,0.3327005322999276,-0.3172038056845313,-0.6048270925066088,-2.0815494187092827,7.935457384011806,-9.046386279379476
1589996858.0638998,-2.2718906181269767,-1.0398850045034667,9.146274899981147,0.3377777777777778,-0.3111111111111111,-0.6088888888888889,-5.479225141911565,15.766654971617687,-22.02882218638068
1589996858.0738997,-2.7155067258496257,-1.3691095449462949,9.23534273032223,0.3377777777777778,-0.3111111111111111,-0.6088888888888889,-5.54349778063904,13.387596144072104,-32.202218090333076
1589996858.0838997,-2.8149886490699014,-1.4046388032392505,9.022167180564496,0.3377777777777778,-0.3111111111111111,-0.6088888888888889,-1.8129256598786974,4.904985726628944,-38.59748458306509
1589996858.0938997,-2.492991479754116,-1.3955979828276668,8.615512780368826,0.3377777777777778,-0.3111111111111111,-0.6088888888888889,5.9527256134741835,0.6760215642973681,-44.87687358888578
1589996858.1038997,-2.5068160319056014,-1.2366156330855815,8.594775952141598,0.3377777777777778,-0.3111111111111111,-0.6088888888888889,6.600751495575075,4.088957876695398,-46.907354686135236
1589996858.1138997,-2.5837803468208094,-1.2975606936416186,8.850242774566475,0.3322222222222222,-0.2977777777777777,-0.6177777777777778,1.5815751445086705,8.44284682080925,-50.22203757225434
1589996858.1238997,-2.6076274045295174,-1.3452548090590355,9.041019236236142,0.3322222222222222,-0.2977777777777777,-0.6177777777777778,-1.8464394011181655,6.505273381976689,-52.80546882403108
1589996858.1338997,-2.3398989718600913,-1.159848457790137,8.919848457790138,0.3322222222222222,-0.2977777777777777,-0.6177777777777778,-2.2324412582595605,5.078795889991581,-57.955532311146264
1589996858.1438997,-2.2174921692636116,-0.9825078307363885,8.775109630309439,0.3322222222222222,-0.2977777777777777,-0.6177777777777778,0.47002249466312873,6.03173942102428,-61.86265412086268
1589996858.1538997,-2.207444108057755,-0.992555891942245,8.896613297624594,0.3356300781452155,-0.29607384981628104,-0.6177777777777778,1.5277567536096879,6.515974324639031,-65.511178388449
1589996858.1638997,-2.204762198127156,-1.0277146377525874,8.992285362247411,0.3588888888888889,-0.28444444444444444,-0.6177777777777778,0.7142912148841793,6.145228560867422,-69.8119208969936
1589996858.1738997,-2.275559199737619,-1.0973532305673992,8.887087569694982,0.3588888888888889,-0.28444444444444444,-0.6177777777777778,1.6998196129878649,5.188053460150869,-72.17739422761561
1589996858.1838996,-2.3684323698864596,-1.1731352602270808,8.724702890340621,0.3588888888888889,-0.28444444444444444,-0.6177777777777778,2.6310838174673963,5.765881505677024,-73.57703758165995
1589996858.1938996,-2.3712460631510943,-1.1984345473633207,8.75843454736332,0.3588888888888889,-0.28444444444444444,-0.6177777777777778,2.9824280263264153,6.169928026326415,-75.19329171040943
1589996858.2038996,-2.4389889364451265,-1.2492417023338447,8.809241702333845,0.3588888888888889,-0.28444444444444444,-0.6177777777777778,2.87657978680449,6.0640797868044904,-76.35762234515062
1589996858.2138996,-2.527711106082735,-1.356866681751795,8.973133318248205,0.3911111111111111,-0.27111111111111114,-0.59,1.6875,4.875,-79.1875
1589996858.2238996,-2.521921990556071,-1.3838439811121412,8.93750706138554,0.3911111111111111,-0.27111111111111114,-0.59,1.7655808663403696,4.929055984389486,-79.25356842536493
1589996858.2338996,-2.539940381558029,-1.4200119236883941,8.819952305246423,0.3911111111111111,-0.27111111111111114,-0.59,2.500260830683625,5.4377980922098565,-79.8759315381558
1589996858.2438996,-2.456889300102161,-1.4503934154474836,8.751692592378419,0.3911111111111111,-0.27111111111111114,-0.59,2.905020576726614,5.986219134910079,-81.55117798145685
1589996858.2538996,-2.56199136452129,-1.5150716089361784,8.8244555600532,0.3911111111111111,-0.27111111111111114,-0.59,2.7029012220744426,6.289398166888336,-82.25859572273946
1589996858.2638996,-2.608547843783992,-1.5709681041440051,8.859031895855994,0.41,-0.25222222222222224,-0.59,2.496974674549984,6.398170769149795,-82.8306519527001
1589996858.2738996,-2.586471806028282,-1.5856854626478123,8.844314537352188,0.41,-0.25222222222222224,-0.59,2.450982929225587,5.800278079932629,-83.10660242464648
1589996858.2838995,-2.6797988988820713,-1.7102011011179288,8.74,0.41,-0.25222222222222224,-0.59,2.757541291922333,6.554958708077667,-83.00125688198706
1589996858.2938995,-2.670985122299739,-1.7190148777002605,8.74,0.41,-0.25222222222222224,-0.59,3.0880579137597715,6.224442086240229,-83.05634298562663
1589996858.3038995,-2.679616923513772,-1.748850770541315,8.807318464596403,0.41,-0.25222222222222224,-0.59,2.8845769121557088,6.307711543922146,-82.88218268411678
1589996858.3138995,-2.644441807835124,-1.812226836288533,8.81888954804122,0.42777909608243797,-0.22160266785802343,-0.5949386378006771,2.819440324742381,6.145820974227144,-82.93055967525761
1589996858.3238995,-2.6680218356772762,-1.8907912657290895,8.836439304219097,0.43,-0.21777777777777774,-0.5955555555555555,2.6398362324204294,5.884890821613619,-82.55755458919319
1589996858.3338995,-2.629214470762398,-1.9063142116950407,8.766586047372316,0.43,-0.21777777777777774,-0.5955555555555555,2.930891469282013,6.078927646188009,-82.46053617690599
1589996858.3438995,-2.624594740495103,-1.9514868512377574,8.761486851237757,0.43,-0.21777777777777774,-0.5955555555555555,2.790962153929205,6.007179282023598,-82.4662171280944
1589996858.3538995,-2.6569406956119384,-2.032351739029845,8.842351739029844,0.43,-0.21777777777777774,-0.5955555555555555,2.6393404893190406,6.057719836893654,-82.66837934757461
1589996858.3638995,-2.5740527791071304,-2.0681055582142616,8.807973610446435,0.4711111111111111,-0.19111111111111112,-0.6088888888888889,3.0245051958706504,6.0625,-83.16381947767826
1589996858.3738995,-2.5947524887805544,-2.1047524887805547,8.782574207804634,0.4711111111111111,-0.19111111111111112,-0.6088888888888889,2.8948020365856437,6.082302036585643,-83.64170814634258
1589996858.3838995,-2.616449031769329,-2.1359182803844514,8.697101936461342,0.4711111111111111,-0.19111111111111112,-0.6088888888888889,3.0147957009611286,6.202295700961129,-84.17346775720847
1589996858.3938994,-2.586439283766588,-2.183560716233412,8.75284857298673,0.4711111111111111,-0.19111111111111112,-0.6088888888888889,3.120549104708235,6.3080491047082345,-85.05341074350117
1589996858.4038994,-2.554670059989093,-2.215329940010907,8.778263952008725,0.4711111111111111,-0.19111111111111112,-0.6088888888888889,3.080837574986366,6.268337574986366,-85.5299491001636
1589996858.4138994,-2.54,-2.2471516486856102,8.807151648685611,0.49207423728241234,-0.152043466882777,-0.6088888888888889,3.0089010978574686,6.357197804285063,-86.82197804285063
1589996858.4238994,-2.4785809317538896,-2.3113525459688824,8.831552112800566,0.4955555555555556,-0.14555555555555555,-0.6088888888888889,3.1338691765381896,6.4016075296145685,-88.30238353076379
1589996858.4338994,-2.4692848454247094,-2.3814303091505815,8.720715154575291,0.4955555555555556,-0.14555555555555555,-0.6088888888888889,3.191969716095568,6.558030283904432,-89.47780347019807
1589996858.4438994,-2.4587660412563492,-2.4006169793718253,8.730616979371826,0.4955555555555556,-0.14555555555555555,-0.6088888888888889,3.246143878926091,6.51735254483259,-90.85877345288691
1589996858.4538994,-2.42398382916969,-2.418008085415155,8.748008085415155,0.4955555555555556,-0.14555555555555555,-0.6088888888888889,3.1374494661552816,7.0064774023012335,-92.16310640613662
1589996858.4638994,-2.368245540691193,-2.4569674709348623,8.735213011626055,0.5152715400541488,-0.11762457751588186,-0.6154608837217532,3.356046693342889,7.016290661331422,-93.37531478937728
1589996858.4738994,-2.298861318365391,-2.521138681634609,8.766014614278868,0.5222222222222223,-0.10777777777777778,-0.6177777777777778,3.13923352043261,7.069616760216305,-95.45684274248751
1589996858.4838994,-2.2845061263604625,-2.5354938736395374,8.71577144226162,0.5222222222222223,-0.10777777777777778,-0.6177777777777778,3.318673420494216,7.159336710247108,-96.48862216784174
1589996858.4938993,-2.2865402815214138,-2.5621623240491167,8.67518957771788,0.5222222222222223,-0.10777777777777778,-0.6177777777777778,3.4483116202455824,7.255405810122792,-98.4425726265349
1589996858.5038993,-2.2195453728661274,-2.60403414195867,8.775681940700808,0.5222222222222223,-0.10777777777777778,-0.6177777777777778,3.657670709793351,7.360085354896675,-99.75106693620845
1589996858.5138993,-2.19,-2.662231645166428,8.78334746774964,0.5488888888888889,-0.06222222222222223,-0.6466666666666666,3.7221044354196526,7.576447782290174,-101.41039949633699
1589996858.5238993,-2.19,-2.678931358496576,8.808397037744864,0.5488888888888889,-0.06222222222222223,-0.6466666666666666,3.5133580187928013,7.680820990603599,-102.61069139194139
1589996858.5338993,-2.101682705526533,-2.758504261754193,8.702056640087983,0.5488888888888889,-0.06222222222222223,-0.6466666666666666,3.5613314544954635,7.7488314544954635,-103.54614036293648
1589996858.5438993,-2.1194508711459465,-2.818352613437839,8.72917630671892,0.5488888888888889,-0.06222222222222223,-0.6466666666666666,3.684067944662165,7.871567944662165,-104.59582752962841
1589996858.5538993,-2.1128973264826265,-2.7986919794478795,8.765513367586868,0.5488888888888889,-0.06222222222222223,-0.6466666666666666,3.7318917094835844,7.919391709483585,-105.37965906122093
1589996858.5638993,-2.0866682031898223,-2.8677726560339267,8.772222734396607,0.554073732624484,-0.03543386292164756,-0.6518515104022617,3.798607910021204,7.888892089978796,-106.07636328016963
1589996858.5738993,-2.03,-2.9495172114131223,8.728068845652489,0.5555555555555556,-0.027777777777777776,-0.6533333333333333,3.8780174286679863,8.117456428330033,-106.88405228600396
1589996858.5838993,-2.027473952138541,-2.9321651838812506,8.651443455920834,0.5555555555555556,-0.027777777777777776,-0.6533333333333333,3.995489200247395,7.82152159950521,-107.27480939863932
1589996858.5938993,-1.9583129004192044,-2.99140591631733,8.691968282844261,0.5555555555555556,-0.027777777777777776,-0.6533333333333333,3.873242604603338,8.064257395396663,-107.94980176777663
1589996858.6038992,-1.9085505813493633,-3.0328745155421974,8.750024321759076,0.5555555555555556,-0.027777777777777776,-0.6533333333333333,3.8214068555722536,8.116093144427747,-108.31265201099423
1589996858.6138992,-1.9,-3.0612856179912984,8.76,0.5555555555555556,0.011640033317219418,-0.6738305951027318,3.8125,8.125,-108.72976029985497
1589996858.6238992,-1.8591923446880494,-3.1008076553119506,8.77475024047232,0.5555555555555556,0.027777777777777776,-0.6822222222222222,3.75,8.307452154300309,-109.21021530564862
1589996858.6338992,-1.8452804404789547,-3.1147195595210455,8.684322863113204,0.5555555555555556,0.027777777777777776,-0.6822222222222222,3.75,8.220502752993466,-109.60148761152941
1589996858.6438992,-1.6322986583558206,-2.922189198434115,8.630218919843413,0.5555555555555556,0.027777777777777776,-0.6822222222222222,4.182711128425374,8.125684124510661,-109.68818412451066
1589996858.6538992,-1.723010108801559,-3.1567530042221503,8.680732786619032,0.5555555555555556,0.027777777777777776,-0.6822222222222222,3.870420083631049,8.600619874553427,-109.74034665272816
1589996858.6638992,-1.7,-3.200621614038117,8.814405473656947,0.5633333333333334,0.08888888888888889,-0.6888888888888889,3.4138508773823144,8.284965789644083,-109.66807456130884
1589996858.6738992,-1.7,-3.2096745159828193,8.732929356154626,0.5633333333333334,0.08888888888888889,-0.6888888888888889,3.979657248926205,8.794191524033584,-109.3851713755369
1589996858.6838992,-1.631896489497365,-3.2878325834315825,8.73,0.5633333333333334,0.08888888888888889,-0.6888888888888889,3.574353059358533,8.569273176776305,-109.01015976516446
1589996858.6938992,-1.5929752590879198,-3.30851237045604,8.50785155452752,0.5633333333333334,0.08888888888888889,-0.6888888888888889,3.9096069460507517,8.273244211624373,-108.24793495022337
1589996858.7038991,-1.5837301548690506,-3.3413492256547475,8.665555663666586,0.5633333333333334,0.08888888888888889,-0.6888888888888889,3.1537693586313145,8.445932660342171,-107.87400774345252
1589996858.7138991,-1.5111173743067552,-3.3686103282116555,8.675286389671788,0.5566364113909346,0.1376807487549373,-0.7089796547160853,3.6561619238112555,8.401056346031458,-106.61120897354304
1589996858.7238991,-1.4806093547421961,-3.41847661314451,8.776343871546823,0.5555555555555556,0.14555555555555555,-0.7122222222222222,3.14594656926299,8.556787299291912,-105.22558467138725
1589996858.733899,-1.44825182730728,-3.38825182730728,8.63713322288276,0.5555555555555556,0.14555555555555555,-0.7122222222222222,3.22421303966475,8.3640739206705,-103.7985174446935
1589996858.743899,-1.3139792637839576,-3.3043875582703746,8.642006912072015,0.5555555555555556,0.14555555555555555,-0.7122222222222222,2.934948159459894,8.207482719819964,-102.07227535765954
1589996858.753899,-1.2977334479793639,-3.313200343938091,8.704134135855547,0.5555555555555556,0.14555555555555555,-0.7122222222222222,2.72999785038693,8.04249785038693,-100.1691423043852
1589996858.763899,-1.3118542708824918,-3.39112562529495,8.690364322793771,0.5601655497876357,0.18441122122594517,-0.7247350637092967,2.7245445965077866,8.074089193015574,-98.42798371873525
1589996858.773899,-1.299970168824783,-3.44,8.67667661039174,0.5633333333333334,0.2111111111111111,-0.7333333333333333,2.5830847402065236,7.958084740206523,-96.22717792165218
1589996858.783899,-1.2599935845425212,-3.464005132365983,8.601983319810556,0.5633333333333334,0.2111111111111111,-0.7333333333333333,2.5,7.912508019321848,-94.21221130441346
1589996858.793899,-1.2326454013822434,-3.509418394471026,8.623545986177566,0.5633333333333334,0.2111111111111111,-0.7333333333333333,2.1322700691121743,7.9375,-91.74964779372674
1589996858.803899,-1.2081012718525221,-3.52,8.688322774258086,0.5633333333333334,0.2111111111111111,-0.7333333333333333,1.965783237269566,7.663765898156528,-89.92147977897395
1589996858.813899,-1.179852041971767,-3.5504438740846984,8.694630104929418,0.5774277194836567,0.21844019190927927,-0.769414961878161,1.9057876311617725,7.532637106514683,-87.79677945950026
1589996858.823899,-1.13864404940201,-3.554915239521608,8.663728809880402,0.5911111111111111,0.2255555555555556,-0.8044444444444444,1.4830506175251243,7.3898303705150745,-85.33898222309045
1589996858.833899,-1.0876667972320146,-3.564249902075989,8.579166993080037,0.5911111111111111,0.2255555555555556,-0.8044444444444444,1.0984381120250686,7.25,-82.42865419767594
1589996858.843899,-1.0727781448335236,-3.5772218551664765,9.0510861513204,0.5911111111111111,0.2255555555555556,-0.8044444444444444,1.6041391374857348,6.5729510781428315,-80.26744599275231
1589996858.853899,-0.8908354096740317,-3.3314813747091407,8.315279533801453,0.5911111111111111,0.2255555555555556,-0.8044444444444444,8.206075098325886,2.2307260671704796,-78.21624616477565
1589996858.863899,-0.6390946331930246,-2.8759478352375227,7.277283899579074,0.6045450407563305,0.19062733847798494,-0.8402682568316964,6.1748275894467834,3.935082963770295,-74.2152430659952
1589996858.873899,-0.9760885003362474,-3.5916484196368526,9.188645326160055,0.6077777777777778,0.18222222222222226,-0.8488888888888889,-13.1235322797579,11.864820107599193,-70.90275050437121
1589996858.883899,-0.98,-3.492974434928199,9.73620902826969,0.6077777777777778,0.18222222222222226,-0.8488888888888889,-10.97131576405435,4.96968977397128,-69.25846802756134
1589996858.893899,-0.7956155666579017,-3.412068892979227,7.694135682356035,0.6077777777777778,0.18222222222222226,-0.8488888888888889,8.418123849592426,6.4298054167762295,-63.60375032868788
1589996858.903899,-0.8305937049375963,-3.511484262343991,8.333624218918336,0.6077777777777778,0.18222222222222226,-0.8488888888888889,3.4183655710805025,4.6394551903601675,-62.42265737656009
1589996858.913899,-0.8924160475482913,-3.638772659732541,9.12445765230312,0.5754607891695559,0.11758824500577846,-0.8488888888888889,-1.5601597325408618,3.3334138187221396,-60.725612927191676
1589996858.923899,-0.8727373019398785,-3.6629927439656447,8.80558492521842,0.5544444444444444,0.07555555555555556,-0.8488888888888889,1.748167481119502,3.8220790759662373,-57.11017788390345
1589996858.933899,-0.8382930995912224,-3.6909741514307215,8.732431107766773,0.5544444444444444,0.07555555555555556,-0.8488888888888889,1.3552792804701959,3.9314115535579917,-54.10371713001566
1589996858.943899,-0.8042495320775755,-3.711416510692525,8.615328342160806,0.5544444444444444,0.07555555555555556,-0.8488888888888889,0.6713765879495042,3.589059575484847,-50.469746824100994
1589996858.953899,-0.8,-3.737709121358242,8.57,0.5544444444444444,0.07555555555555556,-0.8488888888888889,1.0481820084890134,3.4239543932087892,-48.399952718505475
1589996858.963899,-0.7686422902494331,-3.7644796728215093,8.574479672821509,0.5250777003923263,0.10840648957995896,-0.7612863981571465,1.0195122691933918,3.2845020448655653,-45.802592018950435
1589996858.973899,-0.721680625348967,-3.7949581239530987,8.663193746510329,0.4888888888888889,0.14888888888888888,-0.6533333333333333,1.3324609156895588,2.8860273590173087,-41.91017587939699
1589996858.9838989,-0.7279885323629948,-3.7760344029110153,8.656034402911017,0.4888888888888889,0.14888888888888888,-0.6533333333333333,0.9382167273128239,2.562858363656412,-39.09086861837027
1589996858.9938989,-0.7214982127130498,-3.77,8.573483914417448,0.4888888888888889,0.14888888888888888,-0.6533333333333333,1.2375893643475107,2.5,-36.480825519349324
1589996859.0038989,-0.7813826762296822,-4.007857870390018,9.074079913423589,0.4888888888888889,0.14888888888888888,-0.6533333333333333,0.9768134893689259,2.212268705173365,-34.110880936213555
1589996859.0138988,-0.6490301198947266,-3.602935178867336,9.127340481528414,0.48419204817450257,0.19854120501240102,-0.6150876303733307,4.30956477239497,6.163444292816063,-30.70705721805244
1589996859.0238988,-0.413989936362291,-3.017979872724582,6.627820038478615,0.4811111111111111,0.2311111111111111,-0.59,11.012829288145626,10.912655394405801,-25.924781707858518
1589996859.0338988,-0.5961405957930105,-3.382281191586021,9.469603908856445,0.4811111111111111,0.2311111111111111,-0.59,-8.786602642973762,-10.933051664576581,-30.482944596928753
1589996859.0438988,-0.5584262529950844,-3.53052046538053,9.133221599189783,0.4811111111111111,0.2311111111111111,-0.59,-6.750385964478917,-1.6884263147494014,-26.27997091371687
1589996859.0538988,-0.5044453624035303,-3.403336087210591,7.982243335281198,0.4811111111111111,0.2311111111111111,-0.59,5.453470389102707,1.568251657363935,-22.175996685272132
1589996859.0638988,-0.6074010894027855,-3.7904706611435466,9.039246224599628,0.48654634673161046,0.27568004319920564,-0.5736942931385021,-3.5934513519684277,0.9020719853876511,-19.961864786848885
1589996859.0738988,-0.5961628452668275,-3.832286694377402,8.705621592026459,0.4866666666666667,0.2766666666666667,-0.5733333333333334,-0.9634320248949675,0.9038274056941092,-17.343033487530167
1589996859.0838988,-0.5821031107535531,-3.8650927415750425,8.335381916510235,0.4866666666666667,0.2766666666666667,-0.5733333333333334,1.9949704456065076,0.9331185192634308,-14.70683326629123
1589996859.0938988,-0.6604805956678701,-4.0399034797432805,8.941729342158043,0.4866666666666667,0.2766666666666667,-0.5733333333333334,-0.6364116400922581,0.3786069745286802,-12.412263713397513
1589996859.1038988,-0.6365590140872976,-4.032132511739414,8.855581819262547,0.4866666666666667,0.2766666666666667,-0.5733333333333334,0.0798651700976798,0.3299171801628658,-11.368892532345306
1589996859.1138988,-0.5695915238245007,-4.0100672275515015,8.606323714420506,0.4898109853051668,0.28827645856266715,-0.5781707466233336,2.1947387560937255,0.33418432536562354,-8.692185779996855
1589996859.1238987,-0.6076413598731725,-4.028206799365862,8.799922494275146,0.5011111111111111,0.33,-0.5955555555555555,1.0443456050731021,0.06615509952439669,-5.110016293817157
1589996859.1338987,-0.6258931302287924,-3.948973282557198,8.42540076164203,0.5011111111111111,0.33,-0.5955555555555555,2.0864980958949295,-0.3925811118774176,-1.6701812648055414
1589996859.1438987,-0.6366367442581713,-4.05618790813074,8.642286049035993,0.5011111111111111,0.33,-0.5955555555555555,0.756171496752184,-0.1471424387050087,0.36714536776994766
1589996859.1538987,-0.6173567948297191,-4.0760351922445786,8.641123172856025,0.5011111111111111,0.33,-0.5955555555555555,0.8408601777284088,-0.2830400646285123,2.8421003635353816
1589996859.1638987,-0.610367500785258,-4.0914700031410325,8.65367500785258,0.5045669447061971,0.34036750078525807,-0.5926756942263172,0.757132760967438,-0.6943906397235892,5.099250078525809
1589996859.1738987,-0.6139954989222771,-4.154018004310891,8.737990997844555,0.5077777777777778,0.35,-0.59,0.27511252694307087,-0.8374718682642323,7.225872083808799
1589996859.1838987,-0.6243553359103586,-4.198710671820717,8.665400988403386,0.5077777777777778,0.35,-0.59,0.10583745168077507,-0.9470812741596124,9.16637104271664
1589996859.1938987,-0.6223753761283851,-4.187126128385155,8.571378385155468,0.5077777777777778,0.35,-0.59,0.14296169759277835,-1.0953077983951856,10.81634747993982
1589996859.2038987,-0.6511821761259964,-4.26107365792759,8.63107365792759,0.5077777777777778,0.35,-0.59,0.10954455968500913,-1.125,11.694210362047441
1589996859.2138987,-0.6627420350102303,-4.288226105030691,8.629194245071611,0.5182615049852229,0.35725796498976975,-0.6004837272074451,0.0625,-1.3064491247442436,12.680434217790912
1589996859.2238986,-0.6372294725394236,-4.097835780315389,8.723852637302882,0.5222222222222223,0.36,-0.6044444444444445,0.10993859887620083,-1.2326842033713974,13.601640384266812
1589996859.2338986,-0.5850162544677335,-4.0737378091492,8.664409540743934,0.5222222222222223,0.36,-0.6044444444444445,0.4764355119708317,-1.2577871023941662,14.515371023941663
1589996859.2438986,-0.6153050675675676,-4.022821283783784,8.554379054054053,0.5222222222222223,0.36,-0.6044444444444445,0.23052787162162158,-1.4238154560810812,15.878813344594594
1589996859.2538986,-0.6381117387105271,-4.000643565805262,8.565021218063157,0.5222222222222223,0.36,-0.6044444444444445,-0.125,-1.5,16.87526522578946
1589996859.2638986,-0.6114359706362154,-4.038564029363784,8.608564029363784,0.5278065524741707,0.3649461210802972,-0.6050826536160957,-0.08910073409461663,-1.4641007340946166,17.625971146003263
1589996859.2738986,-0.6315616892078388,-4.076246756831355,8.69249351366271,0.5611111111111111,0.3944444444444444,-0.6088888888888889,-0.38082390284294787,-1.6113027877449628,19.25582390284295
1589996859.2838986,-0.64,-4.151721641820245,8.640050279766795,0.5611111111111111,0.3944444444444444,-0.6088888888888889,-0.5870248366396682,-1.7772149019838008,19.885760261376532
1589996859.2938986,-0.6363016074450085,-4.19,8.570682318104907,0.5611111111111111,0.3944444444444444,-0.6088888888888889,-0.3450401861252115,-1.6412700930626059,20.05565513959391
1589996859.3038986,-0.6727067404868617,-4.200676685121715,8.63644110495943,0.5611111111111111,0.3944444444444444,-0.6088888888888889,-0.2987154700178692,-1.6069861880071477,19.737312153967835
1589996859.3138986,-0.6872927959776888,-4.188646397988844,8.63783840050279,0.600738580319655,0.4179596459528111,-0.6293558235350599,-0.4755049984287847,-1.7119950015712153,19.081059981145415
1589996859.3238986,-0.6588181476375485,-4.13541212349083,8.68211513556419,0.6622222222222223,0.4544444444444444,-0.6611111111111111,-0.4375,-1.6926515436353762,18.28090926181226
1589996859.3338985,-0.7281589804338058,-4.082635921735223,8.631192353253544,0.6622222222222223,0.4544444444444444,-0.6611111111111111,-0.4375,-1.7730127445774273,17.689984069278214
1589996859.3438985,-0.7139460993689547,-4.025784397475819,8.600269503155225,0.6622222222222223,0.4544444444444444,-0.6611111111111111,-0.5510106368320978,-1.6101418473917717,17.638173757888065
1589996859.3538985,-0.71,-3.9712207693233323,8.658779230676666,0.6622222222222223,0.4544444444444444,-0.6611111111111111,-0.694248626208335,-1.4721243131041675,17.756748626208335
1589996859.3638985,-0.7363925258681311,-3.966392525868131,8.696598131467033,0.9452087495860727,0.6399252512399215,-0.8905794610201403,-0.6675233566620902,-1.541238321668955,18.14240657335164
1589996859.3738985,-0.7552197332982986,-4.032197332982986,8.668681600210208,1.0911111111111111,0.7355555555555555,-1.0088888888888892,-0.6902466662287329,-1.4972533337712672,18.67135666425803
1589996859.3838985,-0.7720774424239573,-4.092077442423958,8.627922557576044,1.0911111111111111,0.7355555555555555,-1.0088888888888892,-0.8632260227245995,-1.4563710037874333,19.1132260227246
1589996859.3938985,-0.8044697438886663,-4.146818463331997,8.626818463331997,1.0911111111111111,0.7355555555555555,-1.0088888888888892,-1.097064100695836,-1.472064100695836,19.45880769791249
1589996859.4038985,-0.81,-4.18,8.656280436957973,1.0911111111111111,0.7355555555555555,-1.0088888888888892,-0.9230163859239493,-1.460747269012675,19.51600546197465
1589996859.4138985,-0.81,-4.18,8.650451134089394,1.0911111111111111,0.7355555555555555,-1.0088888888888892,-0.7044175283522349,-1.4971804119412941,19.443139176117413
1589996859.4238985,-0.7801507640764419,-4.135527674267546,8.67090458445865,1.1033333333333333,-0.2966666666666667,-1.2177777777777778,-0.43655772452223857,-1.5615577245222385,18.746230898088953
1589996859.4338984,-0.7663103789410297,-4.134465568411545,8.670775947352574,1.1033333333333333,-0.2966666666666667,-1.2177777777777778,-0.1899248354767947,-1.3149248354767946,17.907759473525743
1589996859.4438984,-0.7448815197541312,-4.099763039508263,8.614644559262393,1.1033333333333333,-0.2966666666666667,-1.2177777777777778,0.0014810030733597573,-1.21949050153668,16.892180470803083
1589996859.4538984,-0.7306545632744499,-4.09,8.632709028539425,1.1033333333333333,-0.2966666666666667,-1.2177777777777778,0.033295510232655826,-1.25,15.61159224558374
1589996859.4638984,-0.72,-4.107488715383677,8.693318287178236,0.8332298401854337,-0.026563173518767025,-0.921117346454665,0.03643482371599366,-1.1042607051360254,13.573715993656215
1589996859.4738984,-0.730939380453921,-4.141878760907842,8.649833407503435,0.64,0.16666666666666666,-0.7088888888888889,-0.04005669175550955,-1.0341855639185031,11.285891879341369
1589996859.4838984,-0.7335206490191278,-4.134082596076512,8.593520649019128,0.64,0.16666666666666666,-0.7088888888888889,-0.02376014092387313,-1.0017560845543239,9.234089240130084
1589996859.4938984,-0.7247586557305654,-4.094275967191696,8.584758655730566,0.64,0.16666666666666666,-0.7088888888888889,0.17262920084198302,-0.8378230021049575,7.003230021049576
1589996859.5038984,-0.7398059118030313,-4.1353789177697005,8.632116452918181,0.64,0.16666666666666666,-0.7088888888888889,0.11298522049242166,-0.41104433852273503,2.9878694876894585
1589996859.5138984,-0.7041365803185395,-4.0810439377702235,8.708634196814604,0.6009105354569306,0.24810305113139453,-0.6965105584502503,0.1875,-0.2607927460182551,-0.8905505155020137
1589996859.5238984,-0.7118621248360466,-4.098137875163953,8.666965126147673,0.5733333333333334,0.3055555555555556,-0.6877777777777778,0.4099148406758738,-0.05301601921148058,-4.314233566082864
1589996859.5338984,-0.7253441337058778,-4.084655866294122,8.58862346517649,0.5733333333333334,0.3055555555555556,-0.6877777777777778,0.3954958216913178,0.2252025069852093,-7.5245459613955035
1589996859.5438983,-0.7072880303717676,-4.08,8.615423939256464,0.5733333333333334,0.3055555555555556,-0.6877777777777778,0.5693870728970177,0.4899372627205654,-11.076809889926219
1589996859.5538983,-0.6801947317554646,-4.040778927021859,8.640194731755464,0.5733333333333334,0.3055555555555556,-0.6877777777777778,0.843141463264173,0.8088487795850383,-14.186497553001171
1589996859.5638983,-0.6745008264896493,-3.9864975205310524,8.706514050324037,0.5583305783678361,0.32855977983598483,-0.7042808082398249,0.7343491721984625,1.056260331120615,-17.365898774696298
1589996859.5738983,-0.6346749226006192,-3.97,8.73453044375645,0.54,0.3566666666666667,-0.7244444444444444,0.9402089783281734,1.40828173374613,-20.509481424148607
1589996859.5838983,-0.5697084158533967,-3.97,8.67,0.54,0.3566666666666667,-0.7244444444444444,1.058855198167458,1.6557943997709323,-23.52460241236966
1589996859.5938983,-0.44097361825972137,-3.929832385674634,8.606879463202997,0.54,0.3566666666666667,-0.7244444444444444,1.3145951790670727,1.8760475895335365,-26.837241302648952
1589996859.6038983,-0.245948990833316,-4.008620008730175,8.652327007420649,0.54,0.3566666666666667,-0.7244444444444444,1.7214437527281798,2.232218763640899,-29.895462647321708
1589996859.6138983,-0.16204707302353652,-4.106023536511768,8.687835244417622,0.5487006638503319,0.32989539328103,-0.7291294172869308,1.7123528968014483,2.563235515992758,-34.26103273989137
1589996859.6238983,-0.12992775831873907,-4.1786952714535905,8.717246059544658,0.5544444444444444,0.31222222222222223,-0.7322222222222222,1.7232787872154116,2.9021727232924692,-39.201975700525395
1589996859.6338983,-0.11035189354651016,-4.0436659161628175,8.66683295808141,0.5544444444444444,0.31222222222222223,-0.7322222222222222,2.170545675326975,3.2889476713299097,-44.92906473728149
1589996859.6438982,-0.09711272538072083,-3.8837323647715674,8.639506914010127,0.5544444444444444,0.31222222222222223,-0.7322222222222222,2.819981839466891,3.9577454923855835,-51.35782753997319
1589996859.6538982,-0.07564744370054778,-3.9367083840535604,8.704352556299453,0.5544444444444444,0.31222222222222223,-0.7322222222222222,2.9661656459220938,4.535296523128424,-57.287643126141205
1589996859.6638982,-0.07403138384565819,-4.01083766061479,8.731518402001289,0.5459278491621288,0.3056573466921039,-0.7091564433326174,2.662303850964636,4.704843080771709,-63.882528522154416
1589996859.6738982,2.3531896072104153,-6.821568932903082,6.900167464114832,0.5011111111111111,0.27111111111111114,-0.5877777777777777,0.5518700623122283,7.187666907755647,-76.02336360854568
1589996859.6838982,-0.11273315131484285,-12.992388274177324,2.5648081620922545,0.5011111111111111,0.27111111111111114,-0.5877777777777777,-33.329698950998704,29.36980888058629,-268.41812311395313
1589996859.6938982,-9.948034389567047,-9.490749279016196,0.7821780059129742,0.5011111111111111,0.27111111111111114,-0.5877777777777777,-143.4587928282517,81.96721790941905,-708.6085976184862
1589996859.7038982,0.37268835192069394,0.04522397769516731,0.9857026022304832,0.5011111111111111,0.27111111111111114,-0.5877777777777777,-195.07930219950433,63.01628717472119,-498.56748954460966
1589996859.7138982,-0.3928677337385063,-1.003948078484793,4.185532706363136,0.48292734538955684,0.3507987903026281,-0.5802903448336083,-186.02272876116626,-4.105237995441804,-44.23430173159039
1589996859.7238982,1.7055399697138762,-1.6794349246831912,10.347275577163199,0.4633333333333333,0.43666666666666665,-0.5722222222222222,-168.64965894901835,0.9008577747668767,-28.10967429133126
1589996859.7338982,1.7582988678614697,-0.9948151397418223,6.359060450348832,0.4633333333333333,0.43666666666666665,-0.5722222222222222,-91.41141329322807,-24.17866952834524,-22.500530037180933
1589996859.7438982,0.5520893489512395,-0.8535984745301006,6.121618087714519,0.4633333333333333,0.43666666666666665,-0.5722222222222222,6.498178289294465,-15.308635249250887,-18.262275265595207
1589996859.7538981,0.9452036693240145,-1.490903352626406,9.023460085180735,0.4633333333333333,0.43666666666666665,-0.5722222222222222,86.37318717920716,11.334604674019875,-15.458731025445015
1589996859.7638981,1.0809744137800967,-1.6214635066323002,6.6021858301376755,0.4021946312943987,0.5385645033982244,-0.5569375467124885,173.00873632677437,6.6181221317658885,-17.433702536619098
1589996859.7738981,0.7945200140232208,-1.9809599719535584,7.570841187024396,0.3566666666666667,0.6144444444444445,-0.5455555555555556,247.98548828648615,4.2794500525870784,-20.661649842238766
1589996859.783898,0.43902959252181994,-0.6301074213706555,2.4140954397562355,0.3566666666666667,0.6144444444444445,-0.5455555555555556,287.6120306770645,-3.54616084800909,-20.126010303155503
1589996859.793898,0.2650360103001529,0.33301943349159085,-1.3712855073629997,0.3566666666666667,0.6144444444444445,-0.5455555555555556,186.8512286754647,-26.93898617928704,-7.293976824655992
1589996859.803898,0.29881181304356896,0.07800738315223059,-0.15919557010866167,0.3566666666666667,0.6144444444444445,-0.5455555555555556,54.27937748972825,-34.876105387198365,9.907473355997247
1589996859.813898,0.8400435052827844,-0.51655562461156,3.8678558110627717,0.35744451350044887,0.5907201160140875,-0.5622792624818729,-8.442106898694842,-4.020633934120573,26.006727781230577
1589996859.823898,1.198196558915537,-1.383999478623566,8.401155370177268,0.3588888888888889,0.5466666666666666,-0.5933333333333334,-57.32086483315954,34.887522810218975,41.09321884775808
1589996859.833898,0.34548483094982224,-1.3817136480119037,5.54498222699843,0.3588888888888889,0.5466666666666666,-0.5933333333333334,-74.7826062246838,41.2436761180458,48.380476564437465
1589996859.843898,0.5388978085351788,-2.8826528258362165,11.5187876970396,0.3588888888888889,0.5466666666666666,-0.5933333333333334,-3.7289753940791996,-8.016831026528259,44.55952518262207
1589996859.853898,0.2294349295118257,-2.397664375315546,8.59700337877199,0.3588888888888889,0.5466666666666666,-0.5933333333333334,39.73728591401608,3.653360324672803,47.38559507165327
1589996859.863898,0.22553270232904393,-2.4037115814101884,7.706822290758268,0.35927389603790755,0.5424315880274617,-0.5952583690784266,18.140098904604912,-6.566115867276402,52.09328538764224
1589996859.873898,0.36885410084670794,-3.349608555541514,11.560078352078857,0.36,0.5344444444444445,-0.5988888888888889,-23.71556892139517,-5.002179957032731,58.5009339852142
1589996859.883898,0.20558255659121172,-3.009560585885486,9.933428761651133,0.36,0.5344444444444445,-0.5988888888888889,-23.81206308255659,-2.910723202396804,65.11676098535287
1589996859.893898,0.2248442254745689,-2.8173453122735834,8.744225474568903,0.36,0.5344444444444445,-0.5988888888888889,6.119337324300826,-6.490497301115781,70.03001603028547
1589996859.903898,0.13117466174661746,-2.893809963099631,8.660096863468635,0.36,0.5344444444444445,-0.5988888888888889,11.684079028290283,-3.4613122693726934,76.64059617158672
1589996859.913898,-0.693846433890452,-6.254393182194274,9.640876385901043,0.36350881644510635,0.5289305900307059,-0.609415338224208,-10.313523911964257,-6.842553367532682,80.65886356114513
1589996859.923898,-1.83,-9.35,7.16,0.36777777777777776,0.5222222222222223,-0.6222222222222222,-18.375,-4.75,83.4375
1589996859.933898,11.130623659756969,-28.259434715272814,6.95934655706457,0.36777777777777776,0.5222222222222223,-0.6222222222222222,-18.84586646711937,-11.371932332618536,94.38917307005003
1589996859.943898,-1.3300075808625338,-0.34803066037735847,11.00409871967655,0.36777777777777776,0.5222222222222223,-0.6222222222222222,-31.159103352425873,-9.320259855121293,22.429934930929917
1589996859.953898,-2.1117791805482495,-0.05261938161201704,18.28901046232977,0.36777777777777776,0.5222222222222223,-0.6222222222222222,23.80786976152902,7.363571439008709,0.19213389151908356
1589996859.963898,-0.8921999087174806,0.34584664536741205,1.4743267914194433,0.37438257518129725,0.5150169886911101,-0.625524620923982,68.19075193975354,7.033375171154724,7.150587631218622
1589996859.973898,-0.6349424202378705,-1.636579825058209,7.984766849159902,0.3922222222222223,0.4955555555555556,-0.6344444444444445,26.129621326537034,-18.941857812598325,4.518988735762381
1589996859.983898,-1.2791272544314576,-3.395550739221302,15.032059756947131,0.3922222222222223,0.4955555555555556,-0.6344444444444445,-35.07358831952938,1.4981229197306294,3.5550787599659417
1589996859.993898,-0.18029276117906556,-2.638738720673752,9.613547222779227,0.3922222222222223,0.4955555555555556,-0.6344444444444445,-37.95369209945859,7.748734208943252,6.378659514738319
1589996860.003898,-0.47465911369560854,-2.8069480649689194,10.307410767996792,0.3922222222222223,0.4955555555555556,-0.6344444444444445,-0.3694167335071157,-2.5015227090435133,10.058238921195107
1589996860.013898,-1.8978212203044893,-12.349351101718133,8.520116238112012,0.39611182863032113,0.4921845633352033,-0.6326292947873317,23.613036182536888,-2.0001614418222378,-1.1464057179758118
1589996860.023898,-4.086979028611523,-6.027841662118968,10.371047400015591,0.4088888888888889,0.4811111111111111,-0.6266666666666667,-4.73295587432759,-2.549302740313401,-46.75221213066189
1589996860.0338979,1.0169947566921167,-2.774881795602981,8.358414129334928,0.4088888888888889,0.4811111111111111,-0.6266666666666667,0.026705224910310577,4.636170775457639,-14.297276009566737
1589996860.0438979,0.8052188702261425,-6.945718776391105,8.50266256920334,0.4088888888888889,0.4811111111111111,-0.6266666666666667,7.243696924556629,-6.72937828422633,11.723020960401614
1589996860.0538979,-0.16013863907358383,-6.281051918918373,8.88952688910895,0.4088888888888889,0.4811111111111111,-0.6266666666666667,-3.9940355894181607,0.29419878337139505,11.024724136537257
1589996860.0638978,0.06387708541280478,-3.0366120062740625,8.493500641665477,0.41109716875009905,0.4858957174770664,-0.6314512730326219,-2.1664854555824897,1.81720554684158,0.7660772850420643
1589996860.0738978,-0.11,-4.12,8.44,0.4155555555555556,0.4955555555555556,-0.6411111111111111,4.4375,0.3125,-4.375
1589996860.0838978,-0.05602722802257697,-4.3309844722753805,8.425280153097066,0.4155555555555556,0.4955555555555556,-0.6411111111111111,1.8921931397010732,0.5578307817155592,-2.0750239214166326
1589996860.0938978,0.0,-4.55,8.41,0.4155555555555556,0.4955555555555556,-0.6411111111111111,-0.75,0.8125,0.3125
1589996860.1038978,0.0,-4.646254513497507,8.560157041056112,0.4155555555555556,0.4955555555555556,-0.6411111111111111,-0.10028203389182888,0.4756092027587261,0.19218185812811647
1589996860.1138978,-0.039166824151941795,-4.717058490031182,8.71936242086365,0.4106917015759027,0.4940196016672441,-0.6377832110197696,0.7215064844562034,-0.04810043229708022,-0.014399567702919778
1589996860.1238978,-0.1290168616972266,-4.46588408734912,8.52765226204736,0.3944444444444444,0.4888888888888889,-0.6266666666666667,0.13481295494333365,0.02696259098866673,-0.0625
1589996860.1338978,0.01779154661668858,-4.579876080449803,8.728287224817478,0.3944444444444444,0.4888888888888889,-0.6266666666666667,0.37654899437746514,0.0421829981258217,-0.07630283364569639
1589996860.1438978,0.0033541407883771763,-4.667722291230994,8.457722291230994,0.3944444444444444,0.4888888888888889,-0.6266666666666667,-0.4307722998789289,-0.20846337992735736,-0.09730891995157157
1589996860.1538978,-0.016430604254783876,-4.720481611346091,8.51048161134609,0.3944444444444444,0.4888888888888889,-0.6266666666666667,-0.22468120567933458,-0.08480872340760076,-0.014872482271733822
1589996860.1638978,-0.05897763150341555,-4.5769328945102465,8.615452631981784,0.3946716374436854,0.4891160818881299,-0.6271589181650222,-0.15342105011385163,0.06462993436788428,-0.05824013126423146
1589996860.1738977,-0.034900595090028894,-4.504701785270087,8.743863492853178,0.40002208997999356,0.49446653442443805,-0.6387515653270232,0.6491468303323702,0.11479042689577314,0.042080853791546274
1589996860.1838977,-0.037859568949546105,-4.641070215525227,8.633946767121596,0.4011111111111111,0.4955555555555556,-0.6411111111111111,0.5357446118693262,-0.17412230593466313,-0.0625
1589996860.1938977,-0.020591613660223555,-4.649704193169889,8.504437102451677,0.4011111111111111,0.4955555555555556,-0.6411111111111111,0.3198951707527944,-0.06619758537639721,-0.0625
1589996860.2038977,-0.02,-4.614126888876766,8.561746222246468,0.4011111111111111,0.4955555555555556,-0.6411111111111111,-0.45237916643936504,0.044146527739894165,-0.125
1589996860.2138977,-0.02,-4.594105750332847,8.609647498890508,0.4011111111111111,0.4955555555555556,-0.643185013771776,-0.11382187916059089,0.012279686806568187,-0.11272031319343181
1589996860.2238977,-0.022718556119571347,-4.561748448956571,8.741065989847716,0.4011111111111111,0.4955555555555556,-0.6622222222222223,0.5625,0.125,0.0
1589996860.2338977,-0.03,-4.610512442698101,8.606837480899367,0.4011111111111111,0.4955555555555556,-0.6622222222222223,0.4241397893473041,0.125,-0.02964861656843484
1589996860.2438977,-0.0352519416556166,-4.5810077666224664,8.59,0.4011111111111111,0.4955555555555556,-0.6622222222222223,-0.29608768232619814,0.125,-0.17108768232619814
1589996860.2538977,-0.03898082024076719,-4.624573148337074,8.603223015711079,0.4011111111111111,0.4955555555555556,-0.6622222222222223,-0.11226025300958989,0.08367807590287696,-0.09745205060191797
1589996860.2638977,-0.0033083772648739643,-4.5741354715810925,8.65,0.4011111111111111,0.49601505239789917,-0.6587300462204109,0.3905080184290967,-0.05216132104726886,-0.00516933947636557
1589996860.2738976,-0.03982108561609219,-4.618747599312646,8.652146972606895,0.4011111111111111,0.5011111111111111,-0.62,0.5625,0.05914535530172849,-0.06138178510057617
1589996860.2838976,-0.03269209729001851,-4.558076291870055,8.71346595690961,0.4011111111111111,0.5011111111111111,-0.62,0.34376709518599563,-0.125,-0.01682560806261572
1589996860.2938976,-0.04,-4.5837321738230195,8.56746434764604,0.4011111111111111,0.5011111111111111,-0.62,-0.2966521727877423,-0.09001087040919326,-0.08582608639387115
1589996860.3038976,-0.04,-4.60984607318078,8.592123141455376,0.4011111111111111,0.5011111111111111,-0.62,-0.45076963409610127,0.037884817048050634,-0.15057722557207595
1589996860.3138976,-0.04,-4.649117074266882,8.560706340586496,0.4011111111111111,0.5011111111111111,-0.62,-0.25441462866559306,-0.06029268566720347,-0.0033109714991947925
1589996860.3238976,-0.02412002588159172,-4.597639922355225,8.648240051763183,0.4088888888888889,0.5155555555555555,-0.6622222222222223,0.375,-0.11212491912002588,0.09924983824005176
1589996860.3338976,-0.04063388625592417,-4.552535545023696,8.673661137440758,0.4088888888888889,0.5155555555555555,-0.6622222222222223,0.35915284360189575,-0.046652843601895734,-0.007923578199052133
1589996860.3438976,-0.048136799116430797,-4.59,8.577515732155241,0.4088888888888889,0.5155555555555555,-0.6622222222222223,0.10170998895538488,0.1875,-0.12888166850743585
1589996860.3538976,-0.021107890762134138,-4.594431563048537,8.548863126097073,0.4088888888888889,0.5155555555555555,-0.6622222222222223,-0.23615136547332327,0.1875,-0.17365136547332327
1589996860.3638976,-0.029668734947136385,-4.628674939788546,8.617349879577091,0.4088888888888889,0.5155555555555555,-0.6622222222222223,-0.12914081316079518,0.1875,-0.06664081316079519
1589996860.3738976,-0.03,-4.576810976422006,8.612756094311974,0.4088888888888889,0.4955555555555556,-0.6266666666666667,0.24729419208738512,-0.0625,-0.1050686026375383
1589996860.3838975,-0.03,-4.562843013187691,8.668627947249234,0.4088888888888889,0.4955555555555556,-0.6266666666666667,0.5091935027307846,-0.0625,-0.017768832423071784
1589996860.3938975,-0.04600274627713725,-4.555995880584294,8.60199862686143,0.4088888888888889,0.4955555555555556,-0.6266666666666667,0.13757723904448496,0.16251716423210777,-0.11250858211605388
1589996860.4038975,-0.03,-4.588135748956315,8.613254299582525,0.4088888888888889,0.4955555555555556,-0.6266666666666667,-0.3430090585861814,0.042160627609212395,-0.07266968619539381
1589996860.4138975,-0.02999443159427739,-4.629994431594278,8.630011136811445,0.40888455790666023,0.4955555555555556,-0.6266790409016059,-0.4997563822496359,-0.0625,-0.12489559239270111
1589996860.4238975,-0.021011522316456782,-4.621011522316457,8.647976955367087,0.4018978506905775,0.4955555555555556,-0.6466410615189849,-0.10675410134498414,-0.0625,0.043533956566435356
1589996860.4338975,-0.01,-4.60304238030263,8.61840396717105,0.4011111111111111,0.4955555555555556,-0.6488888888888888,0.21649008207237846,-0.033509917927621535,-0.09600991792762154
1589996860.4438975,-0.013263101026472178,-4.58,8.581087700342158,0.4011111111111111,0.4955555555555556,-0.6488888888888888,0.2853074914460652,0.0692981271384837,0.0
1589996860.4538975,-0.037104208814312346,-4.58,8.595791582371374,0.4011111111111111,0.4955555555555556,-0.6488888888888888,0.017253262723630453,0.11595065254472608,-0.02714804236582173
1589996860.4638975,-0.02046610337577849,-4.58,8.629067793248444,0.4011111111111111,0.4955555555555556,-0.6488888888888888,-0.24271713475346107,0.0639565730493078,-0.18313028085207664
1589996860.4738975,-0.028076762517496256,-4.604230287552489,8.623846474965006,0.4155555555555556,0.4888888888888889,-0.6266666666666667,0.12260117132824203,0.012020234265648405,-0.0625
1589996860.4838974,-0.021804769120344524,-4.58,8.623757077916899,0.4155555555555556,0.4888888888888889,-0.6266666666666667,0.39755961400430656,0.05122019299784672,-0.07377980700215328
1589996860.4938974,-0.030240676993689042,-4.579759323006311,8.551925415949514,0.4155555555555556,0.4888888888888889,-0.6266666666666667,0.4924788439472174,0.0030084624211130237,-0.12199153757888698
1589996860.5038974,-0.04,-4.574623015873017,8.628844246031747,0.4155555555555556,0.4888888888888889,-0.6266666666666667,0.1441592261904762,0.1177765376984127,-0.007223462301587302
1589996860.5138974,-0.04,-4.5990995564892625,8.622725110877685,0.4155555555555556,0.4888888888888889,-0.6266666666666667,-0.08530834208683474,0.07953194298552754,-0.04546805701447246
1589996860.5238974,-0.02108002602472349,-4.638379960962914,8.610540013012361,0.40924889756379673,0.49519554688064776,-0.6403310923154775,-0.1875,0.003375081327260894,-0.0625
1589996860.5338974,-0.02,-4.624632120627353,8.640735758745294,0.4088888888888889,0.4955555555555556,-0.6411111111111111,0.05262311519760865,0.09604924607904344,-0.11052462303952172
1589996860.5438974,-0.03801803306061112,-4.571321311292926,8.545945900818166,0.4088888888888889,0.4955555555555556,-0.6411111111111111,0.375,0.1291290977903935,-0.0583709022096065
1589996860.5538974,-0.014673568208382035,-4.5868842878610785,8.615979295374855,0.4088888888888889,0.4955555555555556,-0.6411111111111111,0.375,0.17776339956587076,-0.009736600434129238
1589996860.5638974,-0.037427777172135614,-4.59,8.657427777172137,0.4088888888888889,0.4955555555555556,-0.6411111111111111,0.032152785348304846,0.016076392674152423,-0.1142824048838984
1589996860.5738974,-0.015137565685478704,-4.614862434314522,8.63513756568548,0.4144138742921159,0.4835847538485638,-0.6355861257078842,-0.2071869526210108,0.1553902144657581,-0.021406523689494597
1589996860.5838974,-0.04830156910510855,-4.624904707315325,8.57830156910511,0.4155555555555556,0.4811111111111111,-0.6344444444444445,0.15684557927921472,0.11438480690692843,-0.05188480690692842
1589996860.5938973,-0.03327577559647489,-4.579827326789425,8.563275775596475,0.4155555555555556,0.4811111111111111,-0.6344444444444445,0.43857920756609586,0.020473597477968036,0.042026402522031964
1589996860.6038973,-0.028461047374054114,-4.563077905251891,8.609233715755675,0.4155555555555556,0.4811111111111111,-0.6344444444444445,0.21152618435135287,-0.03364463826351466,-0.10576309217567643
1589996860.6138973,-0.020585462943838367,-4.578829074112323,8.65648722233697,0.4155555555555556,0.4811111111111111,-0.6344444444444445,0.01463657359595924,0.11402256980303058,-0.00731828679797962
1589996860.6238973,-0.028809086395233365,-4.612381827209534,8.655236345580933,0.4011111111111111,0.4955555555555556,-0.6488888888888888,-0.3452271598808342,-0.01488642005958292,-0.0625
1589996860.6338973,-0.02307487267361607,-4.63,8.606163072968727,0.4011111111111111,0.4955555555555556,-0.6488888888888888,-0.04812818315959827,-0.11539102289494979,-0.052891022894949784
1589996860.6438973,-0.03750200504684963,-4.623755012617124,8.539991979812601,0.4011111111111111,0.4955555555555556,-0.6488888888888888,0.39061246845718983,-0.039081297314215294,-0.007806234228594903
1589996860.6538973,-0.02109270162946734,-4.582731754073668,8.60562919348213,0.4011111111111111,0.4955555555555556,-0.6488888888888888,0.49317061481582913,0.11475592222374367,-0.05908530740791456
1589996860.6638973,-0.02,-4.593631378283804,8.650894134851413,0.4011111111111111,0.4955555555555556,-0.6488888888888888,0.28700971431555855,-0.0027941714106648474,-0.019901942863111713
1589996860.6738973,-0.028001894580147506,-4.575994316259558,8.67,0.4073348068956703,0.4955555555555556,-0.6426651931043297,-0.012547364503687652,0.037523682251843826,-0.15003552337776577
1589996860.6838973,-0.011296641791044776,-4.61,8.632220149253731,0.4088888888888889,0.4955555555555556,-0.6411111111111111,-0.10473997201492538,0.0625,-0.05844799440298507
1589996860.6938972,-0.02913826156076121,-4.608707392341142,8.524739561415814,0.4088888888888889,0.4955555555555556,-0.6411111111111111,0.1901929326226212,0.057114134754757566,0.0026929326226212183
1589996860.7038972,-0.010214656909534416,-4.579785343090466,8.630643970728604,0.4088888888888889,0.4955555555555556,-0.6411111111111111,0.25,-0.061158394315409904,0.05981678863081981
1589996860.7138972,-0.019111252518824902,-4.570888747481176,8.657333757556476,0.4088888888888889,0.4955555555555556,-0.6411111111111111,0.25,-0.005554671757344365,-0.05139065648531127
1589996860.7238972,-0.027741346784776903,-4.577741346784777,8.667741346784776,0.3934061953193351,0.49985630376932044,-0.6247682678988044,0.10484974778543307,0.09676683480971128,0.03426683480971128
1589996860.7338972,-0.02930825956224488,-4.61,8.612390855184692,0.3888888888888889,0.5011111111111111,-0.62,-0.178853244528061,-0.05385324452806101,-0.0625
1589996860.7438972,-0.02226268666745057,-4.61,8.534889553341955,0.3888888888888889,0.5011111111111111,-0.62,-0.09078358334313215,0.03421641665686785,-0.0625
1589996860.7538972,-0.010495105803988465,-4.597524470980058,8.554951058039885,0.3888888888888889,0.5011111111111111,-0.62,0.25309441127492793,0.1219055887250721,-0.11881117745014419
1589996860.7638972,-0.019012834572113238,-4.554935827139434,8.640128345721132,0.3888888888888889,0.5011111111111111,-0.62,0.3063302160757077,0.06866978392429227,-0.012339567848584546
1589996860.7738972,-0.0305577093745621,-4.570557709374563,8.668884581250875,0.4155555555555556,0.4888888888888889,-0.6344444444444445,0.17007158204493436,0.18052863281797374,0.003485683591013125
1589996860.7838972,-0.03960671674768007,-4.58117984975696,8.64528060097216,0.4155555555555556,0.4888888888888889,-0.6344444444444445,-0.125,0.057583959346000885,0.06004197967300044
1589996860.7938972,-0.03,-4.608928026148851,8.535359869255746,0.4155555555555556,0.4888888888888889,-0.6344444444444445,-0.0982006537212653,-0.04910032686063265,0.006699836569683677
1589996860.8038971,-0.03007638664222294,-4.5998472267155535,8.580458319853337,0.4155555555555556,0.4888888888888889,-0.6344444444444445,0.12595483302778676,0.06297741651389338,0.06106775045831985
1589996860.8138971,-0.03761493942988605,-4.584770121140228,8.625689636579317,0.4155555555555556,0.4888888888888889,-0.6344444444444445,0.22018674287357562,0.11009337143678781,-0.08028011431036342
1589996860.8238971,-0.04,-4.571063703796049,8.657872592407903,0.40264757214984725,0.4998110286937189,-0.640401975247079,0.19414814872530076,-0.04255555382409776,0.04255555382409776
1589996860.833897,-0.030439298415777562,-4.58175719366311,8.59648561267378,0.4011111111111111,0.5011111111111111,-0.6411111111111111,-0.11950876980278047,0.11401753960556094,-0.06524561509860977
1589996860.843897,-0.03891468638861946,-4.6156587455544775,8.528682508891045,0.4011111111111111,0.5011111111111111,-0.6411111111111111,-0.013566420142256702,-0.0978671597154866,-0.11821678992887165
1589996860.853897,-0.020826355222565006,-4.609173644777435,8.557437197003086,0.4011111111111111,0.5011111111111111,-0.6411111111111111,0.2654941604230939,0.18233527985896872,-0.11467055971793742
1589996860.863897,-0.028528536800352576,-4.601471463199647,8.626756831203174,0.4011111111111111,0.5011111111111111,-0.6411111111111111,0.40991006500661087,0.13419664499779638,-0.018393289995592782
1589996860.873897,-0.03,-4.59294682575978,8.675265871201097,0.3964089949509647,0.49249056481750947,-0.6199515883904526,0.34933532199725603,-0.007247017004115924,0.0
1589996860.883897,-0.04,-4.580438064679558,8.66474322384531,0.3944444444444444,0.4888888888888889,-0.6111111111111112,-0.005475808494469306,0.010951616988938612,-0.00821371274170396
1589996860.893897,-0.04,-4.5875212361732665,8.579745165920798,0.3944444444444444,0.4888888888888889,-0.6111111111111112,-0.09401545216583636,0.18803090433167272,-0.14102317824875454
1589996860.903897,-0.03,-4.619568711002891,8.60107822249277,0.3944444444444444,0.4888888888888889,-0.6111111111111112,-0.05710888753614366,0.12095666565210775,-0.18480444376807184
1589996860.913897,-0.03,-4.606802617562015,8.632993456094963,0.3944444444444444,0.4888888888888889,-0.6111111111111112,0.10246728047481357,0.0012745396438898215,-0.10501635976259321
1589996860.923897,-0.03,-4.6,8.664669262157002,0.3993341984967785,0.4888888888888889,-0.6111111111111112,0.1416585557593681,-0.2000243327218957,0.07502433272189571
1589996860.933897,-0.03,-4.592369234140462,8.677630765859538,0.4011111111111111,0.4888888888888889,-0.6111111111111112,0.125,-0.15461542675577955,0.125
1589996860.943897,-0.02087604322234912,-4.5713140648335235,8.541314064833523,0.4011111111111111,0.4888888888888889,-0.6111111111111112,-0.24178709479047703,0.065237635069841,-0.005475270139681982
1589996860.953897,-0.035614864271281736,-4.5934222964069225,8.563422296406923,0.4011111111111111,0.4888888888888889,-0.6111111111111112,-0.1036106474567337,0.11129645084775543,-0.09759290169551085
1589996860.963897,-0.033938446346280446,-4.6,8.600307768268598,0.4011111111111111,0.4888888888888889,-0.6111111111111112,-0.024615289664252797,0.0871152896642528,-0.011345868992758384
1589996860.973897,-0.015972867382409946,-4.6,8.683122096779156,0.4011111111111111,0.4888888888888889,-0.6220211031470145,0.13150436828990678,0.19400436828990678,0.018665210570031066
1589996860.983897,-0.020534539276912404,-4.571069078553825,8.647594573253894,0.4011111111111111,0.4888888888888889,-0.6266666666666667,0.11831825903859498,0.12332956475964875,0.0625
1589996860.993897,-0.04,-4.609722228312104,8.560277771687897,0.4011111111111111,0.4888888888888889,-0.6266666666666667,-0.12673607304934997,0.060763926950650034,0.060763926950650034
1589996861.003897,-0.04,-4.600526823493302,8.569473176506698,0.4011111111111111,0.4888888888888889,-0.6266666666666667,-0.18420735316686032,0.0032926468331396785,0.0032926468331396785
1589996861.013897,-0.03219363882253065,-4.615612722354939,8.632450889419754,0.4011111111111111,0.4888888888888889,-0.6266666666666667,-0.1875,-0.1463692720775503,-0.048789757359183436
1589996861.023897,-0.04596561634259379,-4.588068767314812,8.665965616342595,0.4073199619110087,0.49421076100308686,-0.6328755174665643,-0.03782234678818319,0.012070204282422392,-0.012607448929394402
1589996861.033897,-0.04239867346257428,-4.58,8.67,0.4088888888888889,0.4955555555555556,-0.6344444444444445,0.04750829085891072,-0.17504145429455362,0.0
1589996861.043897,-0.02199399144937026,-4.58,8.609979971497902,0.4088888888888889,0.4955555555555556,-0.6344444444444445,-0.050037553441435886,-0.062437410930940185,0.037512517813811964
1589996861.053897,-0.017868578433193418,-4.58,8.601474313732773,0.4088888888888889,0.4955555555555556,-0.6344444444444445,-0.17417861520745886,-0.0850358456223766,-0.035857230414917715
1589996861.063897,-0.02,-4.585552147709672,8.61,0.4088888888888889,0.4955555555555556,-0.6344444444444445,-0.1875,0.013803692741799434,-0.09720092318544986
1589996861.073897,-0.014737462886891447,-4.595262537113109,8.625787611339325,0.4012874463921765,0.501987545360466,-0.6379528025198501,-0.08882742912921462,0.05921828608614309,-0.05921828608614309
1589996861.0838969,-0.0164086562870198,-4.58718268742596,8.620774031138941,0.3944444444444444,0.5077777777777778,-0.6411111111111111,0.0801082035877475,0.0,-0.04005410179387375
1589996861.0938969,-0.03789420871559633,-4.571052895642202,8.574211582568807,0.3944444444444444,0.5077777777777778,-0.6411111111111111,-0.04275820670871561,0.0,0.04933880447247707
1589996861.1038969,-0.019269934628943965,-4.590730065371056,8.611460130742113,0.3944444444444444,0.5077777777777778,-0.6411111111111111,-0.14887527237940015,0.0,0.0625
1589996861.1138968,-0.020040570445045487,-4.610040570445046,8.624979714777478,0.3944444444444444,0.5077777777777778,-0.6411111111111111,-0.15612321735923285,-0.031376782640767154,0.0625
1589996861.1238968,-0.03292246520874752,-4.60831013916501,8.634612326043737,0.40223768500110446,0.5022575657168102,-0.6391628009719461,-0.08846918489065606,-0.0625,0.0625
1589996861.1338968,-0.03987127236580517,-4.580514910536779,8.669356361829026,0.4207678374199249,0.48913204108681246,-0.634530262867241,-0.0016090954274353975,-0.0625,0.0625
1589996861.1438968,-0.04,-4.588263112467131,8.570842650394429,0.4211111111111111,0.4888888888888889,-0.6344444444444445,0.05164445291956884,-0.010855547080431162,0.010855547080431162
1589996861.1538968,-0.04,-4.580616720220982,8.615682958453124,0.4211111111111111,0.4888888888888889,-0.6344444444444445,0.003854501381137604,-0.11729099723772479,0.0
1589996861.1638968,-0.0322727802830042,-4.595454439433992,8.635454439433992,0.4211111111111111,0.4888888888888889,-0.6344444444444445,0.0,0.019885369693671273,-0.09659024646244752
1589996861.1738968,-0.03910048134777377,-4.609100481347774,8.658200962695547,0.4211111111111111,0.4888888888888889,-0.6000648482417436,0.0,-0.16501203369434414,0.10251203369434414
1589996861.1838968,-0.011167994868125634,-4.600389331622708,8.669610668377292,0.4211111111111111,0.4888888888888889,-0.5966666666666667,0.0600666773580716,0.052766709432286396,0.125
1589996861.1938968,-0.01,-4.563946140276443,8.579865350691112,0.4211111111111111,0.4888888888888889,-0.5966666666666667,0.0625,0.0625,0.012331688363888094
1589996861.2038968,-0.032443181818181815,-4.589924242424242,8.592443181818181,0.4211111111111111,0.4888888888888889,-0.5966666666666667,-0.07776988636363638,0.10925662878787878,-0.046756628787878785
1589996861.2138968,-0.04,-4.604808689374549,8.619234757498194,0.4211111111111111,0.4888888888888889,-0.5966666666666667,-0.15505430859092997,0.004782765636280106,-0.03244569140907003
1589996861.2238967,-0.03269264867548495,-4.61,8.647307351324516,0.41908129129874583,0.4888888888888889,-0.6157469729029004,-0.16466452711089047,-0.07932905422178091,0.0
1589996861.2338967,-0.02,-4.61,8.644787119630545,0.4155555555555556,0.4888888888888889,-0.6488888888888888,-0.1725402511545518,0.0,0.0
1589996861.2438967,-0.02,-4.594442080966712,8.57776832386685,0.4155555555555556,0.4888888888888889,-0.6488888888888888,-0.04164450906293138,0.048618496979022874,-0.09723699395804575
1589996861.2538967,-0.03214164241714221,-4.59,8.56,0.4155555555555556,0.4888888888888889,-0.6488888888888888,0.0758852651071388,-0.05132789766070822,-0.049114734892861195
1589996861.2638967,-0.02842767639736259,-4.584213838198681,8.612075456211869,0.4155555555555556,0.4888888888888889,-0.6488888888888888,0.08883648874175809,-0.125,0.0
1589996861.2738967,-0.025681472760355345,-4.591362945520711,8.644318527239646,0.4155555555555556,0.4958329111515454,-0.6444699656308347,-0.07953681900888365,-0.053981590495558174,0.07101840950444183
1589996861.2838967,-0.03,-4.5922142346208865,8.66335729613734,0.4155555555555556,0.5011111111111111,-0.6411111111111111,0.00714413447782547,-0.09732206723891274,0.07633896638054363
1589996861.2938967,-0.03,-4.581123690352054,8.572360593872586,0.4155555555555556,0.5011111111111111,-0.6411111111111111,0.007023064700332683,-0.18047693529966732,0.007023064700332683
1589996861.3038967,-0.04792602884108657,-4.5889630144205436,8.61377808652326,0.4155555555555556,0.5011111111111111,-0.6411111111111111,0.0,-0.07546231974320892,0.05601884012839554
1589996861.3138967,-0.02865347508607317,-4.59,8.627115508304643,0.4155555555555556,0.5011111111111111,-0.6411111111111111,0.0,-0.018028073095985774,0.018028073095985774
1589996861.3238966,-0.02,-4.59,8.653590491339695,0.40419717083644263,0.5011111111111111,-0.6358687797022898,-0.09829371391540002,0.0,0.0
1589996861.3338966,-0.028249506551568333,-4.59,8.61050296069059,0.4011111111111111,0.5011111111111111,-0.6344444444444445,-0.2281188318946042,-0.05155941594730209,0.0
1589996861.3438966,-0.021173332652696598,-4.607653334694607,8.564693330610787,0.4011111111111111,0.5011111111111111,-0.6344444444444445,0.08100002552387758,-0.11766667092064625,0.05516667092064626
1589996861.3538966,-0.005597099828380803,-4.595597099828381,8.56720145008581,0.4011111111111111,0.5011111111111111,-0.6344444444444445,0.07999093696369,-0.03498187392738002,0.10750906303631
1589996861.3638966,-0.012712021503383075,-4.59,8.60813606451015,0.4011111111111111,0.5011111111111111,-0.6344444444444445,0.0625,-0.03972506719807211,0.04554986560385578
1589996861.3738966,-0.02536705699312152,-4.595367056993121,8.651468227972487,0.3975330731156967,0.49812941278159917,-0.6344444444444445,0.028955893792990503,-0.028955893792990503,0.10063231862102849
1589996861.3838966,-0.02598152232718798,-4.6,8.661963044654376,0.3944444444444444,0.4955555555555556,-0.6344444444444445,-0.05023097091015023,-0.025115485455075116,0.1623845145449249
1589996861.3938966,-0.030157398499134118,-4.605078699249567,8.59921300750433,0.3944444444444444,0.4955555555555556,-0.6344444444444445,-0.061516259380411775,-0.030758129690205888,0.09325812969020589
1589996861.4038966,-0.04,-4.604702847072076,8.597674376351316,0.3944444444444444,0.4955555555555556,-0.6344444444444445,0.09932161739857191,-0.033107205799523975,0.0625
1589996861.4138966,-0.035691056910569105,-4.591382113821138,8.652926829268292,0.3944444444444444,0.4955555555555556,-0.6344444444444445,0.07977642276422764,-0.0625,0.00863821138211382
1589996861.4238966,-0.03,-4.588987190879733,8.665506404560134,0.40093519341314043,0.5010477277598369,-0.6409351934131405,-0.03441502850083443,-0.03441502850083443,0.04983988599666227
1589996861.4338965,-0.03618737606166049,-4.6,8.672374752123321,0.4088888888888889,0.5077777777777778,-0.6488888888888888,-0.07734220077075617,-0.038671100385378084,0.032815598458487666
1589996861.4438965,-0.02167602816142808,-4.581676028161428,8.600596122032856,0.4088888888888889,0.5077777777777778,-0.6488888888888888,-0.04865011733928365,0.01384988266071635,-0.10067494133035818
1589996861.4538965,-0.0326862656309868,-4.585124177087325,8.58024835417465,0.4088888888888889,0.5077777777777778,-0.6488888888888888,0.047263053397889165,0.10976305339788917,-0.03047389320422167
1589996861.4638965,-0.03399308957763911,-4.583993089577639,8.620034552111806,0.4088888888888889,0.5077777777777778,-0.6488888888888888,0.10004319013975556,0.20008638027951112,-0.07508638027951112
1589996861.4738965,-0.023389147944044085,-4.586610852055956,8.679665112335735,0.41329612359285955,0.4901488389618953,-0.6532961235928595,0.04236434930055108,0.1260465239508266,-0.0010465239508266194
