time,acc_x,acc_y,acc_z,mag_x,mag_y,mag_z,gyr_x,gyr_y,gyr_z
1589996885.313616,-3.75,-0.86,8.83,0.3211111111111111,-0.31777777777777777,-0.6377777777777778,-0.0625,-0.0625,0.0
1589996885.323616,-3.76,-0.84,8.963989746123913,0.3211111111111111,-0.3194032299023342,-0.6346746419036245,-0.045876057817036256,0.045876057817036256,-0.01662394218296374
1589996885.333616,-3.76,-0.84,8.989898078942492,0.3211111111111111,-0.32995847660620037,-0.6145237163780619,0.06207532892704923,-0.06207532892704923,-0.12457532892704923
1589996885.343616,-3.76,-0.8198355375530721,8.980493387340784,0.3211111111111111,-0.33,-0.6144444444444445,0.125,-0.021518593528866328,-0.0635278902932995
1589996885.353616,-3.76,-0.8324910029729307,8.931263495540604,0.3211111111111111,-0.33,-0.6144444444444445,0.07806876858081677,0.03903438429040838,0.03903438429040838
1589996885.363616,-3.76,-0.8299684228020607,8.953322807600687,0.3211111111111111,-0.33,-0.6144444444444445,0.041535095008586785,0.041535095008586785,-0.041535095008586785
1589996885.373616,-3.76,-0.8481718186990328,8.958171818699034,0.3172516172535137,-0.3287812124660219,-0.6118037381208252,0.11357386686895506,0.09072160060686515,-0.11357386686895506
1589996885.383616,-3.764039823231055,-0.8359601767689449,8.91768141415156,0.3,-0.3233333333333333,-0.6,0.012002209611811379,-0.0625,-0.03725110480590569
1589996885.393616,-3.7617829982172273,-0.8382170017827725,8.833023491977523,0.3,-0.3233333333333333,-0.6,-0.0625,-0.03682186942883578,-0.025678130571164217
1589996885.403616,-3.752959612760947,-0.8440807744781056,8.803676902087577,0.3,-0.3233333333333333,-0.6,-0.08099757975591979,0.03699515951183957,-0.044002420244080215
1589996885.413616,-3.760654181278042,-0.83,8.866541812780422,0.3,-0.3233333333333333,-0.6,-0.11682273402447055,0.12908863298776474,0.004088632987764728
1589996885.423616,-3.7670770102445523,-0.83,8.930770102445523,0.3,-0.3233333333333333,-0.6,-0.03653737194309603,0.16923131402845198,0.044231314028451985
1589996885.433616,-3.7607649102957814,-0.8392350897042185,8.996940358816873,0.306156726469479,-0.3233333333333333,-0.6,0.05771931065136576,-0.04337724260546305,0.004780689348634237
1589996885.443616,-3.767904403899636,-0.8520955961003637,8.992757250695272,0.30666666666666664,-0.3233333333333333,-0.6,0.07559747562727301,-0.04940252437272699,0.138097475627273
1589996885.453616,-3.7649841136994153,-0.8500317726011686,8.897476170549124,0.30666666666666664,-0.3233333333333333,-0.6,0.10942464468932596,0.03115071062134809,0.12519857875730384
1589996885.463616,-3.7779854620976114,-0.8240290758047767,8.916978193146418,0.30666666666666664,-0.3233333333333333,-0.6,0.06879543094496365,0.11240913811007269,-0.037318276220145385
1589996885.473616,-3.742286079450218,-0.811524052966812,8.92,0.30725935393153797,-0.32426469903527394,-0.6006773568741386,0.1297626655212873,0.0577373344787127,-0.05297466895742541
1589996885.4836159,-3.768649849145156,-0.8290998994301039,8.92,0.3140944053339294,-0.33500549409617464,-0.6084888441911573,0.18468718571907478,0.0028128142809252382,0.056874371438149524
1589996885.4936159,-3.754860867837989,-0.8274304339189945,8.891456508784918,0.3144444444444445,-0.33555555555555555,-0.6088888888888889,-0.032119576012567944,-0.016059788006283972,0.04644021199371603
1589996885.5036159,-3.740295694920304,-0.8214784746015193,8.78236555936243,0.3144444444444445,-0.33555555555555555,-0.6088888888888889,-0.1213038134962014,-0.0643480932518993,0.0018480932518993
1589996885.5136158,-3.75,-0.8615689188471949,8.87686216230561,0.3144444444444445,-0.33555555555555555,-0.6088888888888889,0.0,-0.1074352475983228,0.044935247598322806
1589996885.5236158,-3.7504309348479343,-0.84,8.924309348479344,0.31497114259192,-0.33531614730670306,-0.6095113503359054,0.005386685599181059,-0.06788668559918105,0.005386685599181059
1589996885.5336158,-3.7623551744809167,-0.8376448255190829,9.017644825519083,0.32666666666666666,-0.33,-0.6233333333333333,0.125,-0.1875,0.125
1589996885.5436158,-3.769974386455703,-0.8300256135442968,9.010025613544297,0.32666666666666666,-0.33,-0.6233333333333333,0.125,-0.1875,0.125
1589996885.5536158,-3.7605412220691585,-0.8329725186205608,8.901082444138318,0.32666666666666666,-0.33,-0.6233333333333333,0.1875,-0.08107824137850522,0.08107824137850522
1589996885.5636158,-3.774496100935257,-0.82,8.936330733956838,0.32666666666666666,-0.33,-0.6233333333333333,0.1301677180755978,0.0,-0.022932912769760876
1589996885.5736158,-3.7581965854037667,-0.82,8.925464390269179,0.32666666666666666,-0.33,-0.6233333333333333,-0.039618902044094434,0.0,-0.09084756081763776
1589996885.5836158,-3.75,-0.8284691307879772,8.945407392363931,0.32196159400667934,-0.31400275295604296,-0.6035720281613863,-0.125,-0.10586413484971567,-0.01913586515028433
1589996885.5936158,-3.76,-0.8516963524799727,8.8813401227203,0.3211111111111111,-0.3111111111111111,-0.6,-0.22879559400034089,0.00948898500085222,0.021204405999659108
1589996885.6036158,-3.759425514212186,-0.8588510284243726,8.794021400514696,0.3211111111111111,-0.3111111111111111,-0.6,-0.12859053617383565,-0.25,0.125
1589996885.6136158,-3.7513097656779086,-0.8426195313558174,8.850831640254638,0.3211111111111111,-0.3111111111111111,-0.6,-0.17931396451307058,-0.25,0.125
1589996885.6236157,-3.76,-0.83,8.961037574212058,0.32041939496973965,-0.3119181132760445,-0.5998270709646571,0.0,-0.18263637088098178,0.0625
1589996885.6336157,-3.76,-0.83,8.994462286329043,0.29813625355841555,-0.3379151115892559,-0.5942562856118262,0.0,-0.025958032832609473,0.0625
1589996885.6436157,-3.77212168738612,-0.85,8.968783126138801,0.29444444444444445,-0.3422222222222222,-0.5933333333333334,0.1609789076735014,0.02271836151025209,0.013260546163249303
1589996885.6536157,-3.7769417218282886,-0.8484708609141443,8.891529139085856,0.29444444444444445,-0.3422222222222222,-0.5933333333333334,0.04338576142680364,-0.11544288071340182,0.07205711928659818
1589996885.6636157,-3.7604647325725282,-0.8402323662862642,8.899767633713736,0.29444444444444445,-0.3422222222222222,-0.5933333333333334,-0.05959542142169669,-0.06395228928915166,0.12354771071084834
1589996885.6736157,-3.7688819158440654,-0.8311180841559347,8.908881915844065,0.29444444444444445,-0.3422222222222222,-0.5933333333333334,0.10403592207622409,-0.0069880259745919715,0.06948802597459197
1589996885.6836157,-3.7681520788482237,-0.8263041576964477,8.91,0.30666666666666664,-0.3233333333333333,-0.6,-0.19904950719860065,-0.07404950719860065,0.03940098560279871
1589996885.6936157,-3.7610976184068887,-0.8121952368137783,8.91,0.30666666666666664,-0.3233333333333333,-0.6,-0.24313988495694294,-0.11813988495694294,-0.048779769913885884
1589996885.7036157,-3.7621131986571648,-0.8278868013428352,8.849018787914483,0.30666666666666664,-0.3233333333333333,-0.6,-0.09858501678544083,-0.11179250839272042,0.036085016785440835
1589996885.7136157,-3.769214014520749,-0.8196070072603743,8.92078598547925,0.30666666666666664,-0.3233333333333333,-0.6,0.0,-0.06741240924532071,-0.055131386132018914
1589996885.7236156,-3.7505888230200495,-0.8102944115100247,8.93941117697995,0.30666666666666664,-0.3233333333333333,-0.6,0.0,-0.18381985612469193,0.11947978418703789
1589996885.7336156,-3.7616712881270478,-0.8466574237459037,8.991671288127048,0.3,-0.31777777777777777,-0.6077777777777778,0.14589110158810184,-0.21866334761784723,0.01044555079405092
1589996885.7436156,-3.77,-0.83,8.961823697433438,0.3,-0.31777777777777777,-0.6077777777777778,0.21818641452786525,-0.014779621791797842,0.046593207263932616
1589996885.7536156,-3.7683033045385987,-0.83,8.853393390922802,0.3,-0.31777777777777777,-0.6077777777777778,0.1143956533662416,0.1037913067324832,0.0
1589996885.7636156,-3.76,-0.834178682094177,8.876268023141265,0.3,-0.31777777777777777,-0.6077777777777778,0.0625,0.0,-0.013058381544303345
1589996885.7736156,-3.76,-0.849203668213,8.898805502319501,0.3,-0.31777777777777777,-0.6077777777777778,0.0625,0.0,-0.060011463165624834
1589996885.7836156,-3.75,-0.8466289025339444,8.936628902533943,0.3,-0.3233333333333333,-0.6144444444444445,0.03089596125572948,0.10393064083715299,0.010534679581423505
1589996885.7936156,-3.752732972803511,-0.8309109909345037,8.90997909972046,0.3,-0.3233333333333333,-0.6144444444444445,-0.11361261331870313,0.011387386681296862,0.0625
1589996885.8036156,-3.7754426911886507,-0.8430382058742327,8.816076411748465,0.3,-0.3233333333333333,-0.6144444444444445,-0.018988786713955017,0.09651681992906747,0.0719943933569775
1589996885.8136156,-3.75,-0.8583084954112992,8.854228761471752,0.3,-0.3233333333333333,-0.6144444444444445,-0.11707107224046476,-0.054571072240464764,0.11707107224046476
1589996885.8236156,-3.75,-0.8229940220594426,8.942514944851393,0.3,-0.3233333333333333,-0.6144444444444445,0.04846552159636272,0.11096552159636272,-0.04846552159636272
1589996885.8336155,-3.7531817110534997,-0.82,8.9968182889465,0.3,-0.3233333333333333,-0.6,0.24005715295781288,0.0625,0.009942847042187132
1589996885.8436155,-3.767303457796034,-0.82,8.982696542203966,0.3,-0.3233333333333333,-0.6,0.19592669438739435,0.0625,0.054073305612605635
1589996885.8536155,-3.77720356131121,-0.83,8.84559287737758,0.3,-0.3233333333333333,-0.6,0.10752225819506273,0.10752225819506273,0.02621661270740591
1589996885.8636155,-3.764146561653644,-0.83,8.871706876692713,0.3,-0.3233333333333333,-0.6,0.025916010335273784,0.025916010335273784,0.1486259844970893
1589996885.8736155,-3.76,-0.83,8.92038917423943,0.3,-0.3233333333333333,-0.6,0.05048646779928882,-0.05048646779928882,0.036040596602133546
1589996885.8836155,-3.749686472522311,-0.83,8.914529708783466,0.3,-0.3170306220969678,-0.6074486587338865,-0.06641909347111322,-0.030270226632221696,0.032229773367778304
1589996885.8936155,-3.7433007452224603,-0.83,8.89339850955508,0.3,-0.3111111111111111,-0.6144444444444445,-0.1875,-0.010314828820187411,0.05218517117981259
1589996885.9036155,-3.7587744410831547,-0.83,8.86245111783369,0.3,-0.3111111111111111,-0.6144444444444445,-0.1875,-0.05867012838485944,0.003829871615140562
1589996885.9136155,-3.7621702366510346,-0.8210851183255173,8.89868094660414,0.3,-0.3111111111111111,-0.6144444444444445,-0.1671540313965489,0.04893602093103261,0.0625
1589996885.9236155,-3.7773589961795433,-0.8286794980897716,8.959435984718175,0.3,-0.3111111111111111,-0.6144444444444445,-0.02475941081678104,-0.04599372612214596,0.0625
1589996885.9336154,-3.776391036561394,-0.8212029878128685,8.951202987812868,0.30666666666666664,-0.33555555555555555,-0.6,-0.17246265233914296,-0.11748132616957148,0.07753734766085703
1589996885.9436154,-3.75,-0.8304438697981925,8.955561302018076,0.30666666666666664,-0.33555555555555555,-0.6,-0.06527418623870332,-0.07082255871610994,0.18195162752259336
1589996885.9536154,-3.754391174917175,-0.8385362750276084,8.864391174917174,0.30666666666666664,-0.33555555555555555,-0.6,-0.13414828107744756,-0.24085171892255244,0.0625
1589996885.9636154,-3.7788529242707285,-0.83,8.893441227187814,0.30666666666666664,-0.33555555555555555,-0.6,-0.20900766992383962,-0.19466922330794653,0.04816155338410691
1589996885.9736154,-3.771318975427504,-0.83,8.916043073717487,0.30666666666666664,-0.33555555555555555,-0.6,-0.3502692107343009,-0.2417564035781003,-0.04601280715620061
1589996885.9836154,-3.7674856481015206,-0.830838117299493,8.970838117299493,0.3,-0.3233333333333333,-0.6233333333333333,-0.390714699365495,-0.36452353375633667,0.010476466243663343
1589996885.9936154,-3.746364185718602,-0.8378786047604659,8.977878604760466,0.3,-0.3233333333333333,-0.6233333333333333,-0.522723839258737,-0.2765174404941753,0.09848255950582468
1589996886.0036154,-3.73,-0.7664731704883686,8.876465854104657,0.3,-0.3233333333333333,-0.6233333333333333,-0.6323475614825654,-0.3125,0.06617378074128269
1589996886.0136154,-3.73,-0.7246271138529075,8.953183624603003,0.3,-0.3233333333333333,-0.6233333333333333,-0.7195268461397761,-0.3125,0.1097634230698881
1589996886.0236154,-3.73,-0.6189292317173377,9.001016331142154,0.3,-0.3233333333333333,-0.6233333333333333,-0.6624319535743632,-0.3125,-0.05013609285127363
1589996886.0336154,-3.5385231504250685,-1.189889224572004,9.073825616524976,0.30472782344629457,-0.32806115677962794,-0.6170295687382739,-0.3590599311459285,-0.3125,-0.3466167240450596
1589996886.0436153,-3.986348524571875,-0.8314200182220486,8.683245755936111,0.30666666666666664,-0.33,-0.6144444444444445,1.2271782785742176,0.6199285063498261,-2.0447497722243915
1589996886.0536153,-3.845969208456518,-0.8860119744891318,8.808027370260872,0.30666666666666664,-0.33,-0.6144444444444445,0.34980755285323806,0.42495723396738627,-1.362350318885852
1589996886.0636153,-3.7793807731118525,-0.8281423193355585,8.819288403322208,0.30666666666666664,-0.33,-0.6144444444444445,0.375,0.40653865559264146,-0.7383894958472406
1589996886.0736153,-3.7712415586431733,-0.8037246759295196,8.941376620352402,0.30666666666666664,-0.33,-0.6144444444444445,0.375,-0.00042206784134124486,-0.585779224559497
1589996886.0836153,-3.7578228539386105,-0.8132657190920838,8.982177146061389,0.30666666666666664,-0.31777777777777777,-0.6,0.16028567423263526,-0.19430358144184118,-0.3125
1589996886.0936153,-3.7288333716915996,-0.8412407364787111,8.9888333716916,0.30666666666666664,-0.31777777777777777,-0.6,-0.046990794016110476,-0.23449079401611048,-0.32800920598388955
1589996886.1036153,-3.642773281235464,-0.8454833007721648,8.915420039073402,0.30666666666666664,-0.31777777777777777,-0.6,0.056854125965206066,-0.09112475579123638,-0.46572937017396965
1589996886.1136153,-3.5669940140424456,-0.7973697622871402,8.970375748244695,0.30666666666666664,-0.31777777777777777,-0.6,-0.011742132646695777,0.2640905591760349,-0.7969685305867831
1589996886.1236153,-3.5224584898397993,-0.7584011786098244,8.975942688770026,0.30666666666666664,-0.31777777777777777,-0.6,-0.1857090240632839,0.47285082887594065,-1.4928360962531357
1589996886.1336153,-3.450792830058601,-0.7201982075146501,8.965297311271975,0.31047847485541386,-0.31777777777777777,-0.6070790723505305,-0.34313060151671837,1.1457202257842125,-2.8576568424681144
1589996886.1436152,-3.452574943438914,-0.6856714608920491,8.901342921784098,0.3144444444444445,-0.31777777777777777,-0.6144444444444445,-0.6791067388493859,2.5237935318358113,-5.118480324822237
1589996886.1536152,-3.5037014716187804,-0.7332039243167484,8.759393132445691,0.3144444444444445,-0.31777777777777777,-0.6144444444444445,-1.1218903293622986,3.7044148563419763,-7.72823230553609
1589996886.1636152,-3.5608743565704986,-0.769077883713937,8.780874356570498,0.3144444444444445,-0.31777777777777777,-0.6144444444444445,-1.4259735464242125,4.391692683919127,-9.379867732121062
1589996886.1736152,-3.5613975831017974,-0.8300542295718542,8.852903625347302,0.3144444444444445,-0.31777777777777777,-0.6144444444444445,-1.7859563820172062,5.536634251665383,-11.090399357279148
1589996886.1836152,-3.4961344182393104,-0.950997965801293,8.856533604559827,0.30471871440431997,-0.32151844317782563,-0.6107037790443965,-2.0854124287526936,6.716649715010775,-12.17331977200862
1589996886.1936152,-2.952144426334066,-1.0678555736659345,8.529495429097866,0.3,-0.3233333333333333,-0.6088888888888889,-3.0559758344553893,11.361951668910779,-13.616899050386223
1589996886.2036152,-3.078469810785912,-0.9415301892140884,8.499771809226845,0.3,-0.3233333333333333,-0.6088888888888889,-6.35343991389696,17.95687982779392,-16.821476817730847
1589996886.2136152,-3.2995108773152917,-1.3482734143520354,9.903647584491308,0.3,-0.3233333333333333,-0.6088888888888889,-10.694006187314816,14.875601104368355,-23.950329171486064
1589996886.2236152,-2.781146356535104,-1.1489024448211937,9.2855975789457,0.3,-0.3233333333333333,-0.6088888888888889,-2.30381121955857,5.322408814348865,-27.356249900971275
1589996886.2336152,-2.3919236872299394,-0.7325007933989209,8.643655005736885,0.3211111111111111,-0.3111111111111111,-0.6233333333333333,5.745170946952127,7.278835473476064,-32.9651728389034
1589996886.2436152,-2.4741990020108737,-0.8670226657729451,8.822977334227055,0.3211111111111111,-0.3111111111111111,-0.6233333333333333,2.27135156773665,5.491176050743527,-37.71337758496561
1589996886.2536151,-2.106638855780691,-1.0258402860548272,8.659153754469607,0.3211111111111111,-0.3111111111111111,-0.6233333333333333,1.4740762812872468,3.885354588796186,-41.208581644815254
1589996886.2636151,-1.85,-1.09,8.54,0.3211111111111111,-0.3111111111111111,-0.6233333333333333,2.5625,3.3125,-43.5
1589996886.2736151,-1.9968645525658089,-1.0606270894868384,8.66336622415528,0.3211111111111111,-0.3111111111111111,-0.6233333333333333,2.121906342302574,3.5695129669901653,-44.78506483495082
1589996886.283615,-2.2361078159476913,-1.0636709245126421,8.856519160306888,0.3211111111111111,-0.306508431344764,-0.6068951913106653,1.8864716391020062,3.4171276240409725,-46.72310294742809
1589996886.293615,-2.3603110863664836,-1.08,8.904740761361264,0.3211111111111111,-0.3033333333333333,-0.5955555555555555,2.1585183380889417,3.5979626278794625,-48.226851207460506
1589996886.303615,-2.4515474191020044,-1.0876934273877505,8.833839435673497,0.3211111111111111,-0.3033333333333333,-0.5955555555555555,2.7115874482140856,4.144251763520322,-50.10593018698914
1589996886.313615,-2.490766212614747,-1.101225940183595,8.912145395321291,0.3211111111111111,-0.3033333333333333,-0.5955555555555555,2.431753405389399,3.9990422342315664,-52.338359675747704
1589996886.323615,-2.5295793233639325,-1.163326917382292,9.020822105419011,0.3211111111111111,-0.3033333333333333,-0.5955555555555555,2.1406550747705064,3.9505258457950845,-53.64830216353272
1589996886.333615,-2.6,-1.2189578325524546,9.024789162762273,0.3533333333333333,-0.3033333333333333,-0.6,1.9505270930943166,4.1875,-55.50589223874516
1589996886.343615,-2.6,-1.2018696272153186,8.939348136076594,0.3533333333333333,-0.3033333333333333,-0.6,2.164129659808515,4.1875,-56.6273057139947
1589996886.353615,-2.5742070465569924,-1.2322411918037597,8.723656372455936,0.3533333333333333,-0.3033333333333333,-0.6,2.308404469264099,4.469610428282898,-57.63663277460339
1589996886.363615,-2.551788171092579,-1.2664236578148418,8.626423657814842,0.3533333333333333,-0.3033333333333333,-0.6,2.323676069328619,4.573676069328619,-59.56207005879866
1589996886.373615,-2.566837241503868,-1.286837241503868,8.686124138346228,0.3533333333333333,-0.3033333333333333,-0.6,2.3125,4.597577586466392,-60.85717242105897
1589996886.383615,-2.5972053087028653,-1.3,8.747205308702865,0.361617370856935,-0.2880397255974533,-0.5974510653773533,2.276655606869031,4.553311213738062,-62.52110982827422
1589996886.393615,-2.6965785690816495,-1.339959339576146,8.87321812879908,0.36777777777777776,-0.2766666666666667,-0.5955555555555555,1.9586298155906028,4.3335027517660585,-64.43622936175456
1589996886.403615,-2.7940418815111014,-1.4050349012592513,8.90297905924445,0.36777777777777776,-0.2766666666666667,-0.5955555555555555,2.150261759444386,4.475174506296257,-66.24466615805535
1589996886.413615,-2.791234620470182,-1.4625922771789068,8.908765379529818,0.36777777777777776,-0.2766666666666667,-0.5955555555555555,2.8996870867976963,5.047836220613613,-67.25153795298178
1589996886.423615,-2.7694204699502936,-1.47,8.916859843349902,0.36777777777777776,-0.2766666666666667,-0.5955555555555555,2.957125979063112,5.210748041873776,-68.27535443967464
1589996886.433615,-2.763418994262206,-1.4870949713110317,8.916581005737793,0.3719565485426966,-0.2766666666666667,-0.6077119795989558,2.5742318596405758,5.335474856555159,-69.34993013830248
1589996886.443615,-2.769094944245967,-1.5154747212298365,8.910905055754032,0.37889382074507116,-0.2766666666666667,-0.6278931350967726,1.9711621738659737,5.4773736061491825,-70.44964544765617
1589996886.453615,-2.8063819302907564,-1.538190965145378,8.673517453110085,0.38,-0.2766666666666667,-0.6311111111111111,2.216080596475839,5.5,-71.19346766079306
1589996886.463615,-2.782618018617021,-1.603891289893617,8.65912732712766,0.38,-0.2766666666666667,-0.6311111111111111,2.25,5.5,-71.8775037400266
1589996886.473615,-2.7867443294971888,-1.636977317988756,8.700465976983134,0.38,-0.2766666666666667,-0.6311111111111111,2.3764561780722935,5.415695881285138,-72.31686853421688
1589996886.483615,-2.8478339972894164,-1.6981949977411803,8.797111996385889,0.4174849982431403,-0.2509626678713705,-0.615046111864051,2.557987494352951,5.375,-72.92170623023533
1589996886.493615,-2.9077079283288443,-1.7577079283288441,8.896179880548074,0.4188888888888889,-0.25,-0.6144444444444445,2.802949701370184,5.375,-73.17794970137018
1589996886.503615,-2.881725758372786,-1.8024113624408207,8.857588637559179,0.4188888888888889,-0.25,-0.6144444444444445,2.8566785025425214,5.375,-73.40839251271261
1589996886.513615,-2.896178553823003,-1.8330892769115015,8.879267830734504,0.4188888888888889,-0.25,-0.6144444444444445,2.834096009651558,5.497711971045326,-73.58180798069688
1589996886.523615,-2.91,-1.8569025311971028,8.9,0.4188888888888889,-0.25,-0.6144444444444445,2.8125,5.456859180018108,-73.94192245994567
1589996886.5336149,-2.8479139176877157,-1.9251876287220302,8.86550773204873,0.45951311558705005,-0.22777164954251558,-0.6106119702276368,2.6831539951827414,5.461230669878172,-74.44619200963452
1589996886.5436149,-2.856260728878164,-2.0043910933172455,8.831869635560919,0.4777777777777778,-0.21777777777777774,-0.6088888888888889,2.398370444511476,5.443342611127869,-74.90244433323278
1589996886.5536149,-2.8128616865111726,-2.0178563855814713,8.69644144511499,0.4777777777777778,-0.21777777777777774,-0.6088888888888889,2.522307229652585,5.63390963953678,-75.52672891861035
1589996886.5636148,-2.8119900810681924,-2.0319900810681926,8.66,0.4777777777777778,-0.21777777777777774,-0.6088888888888889,2.5625,5.762438006676204,-75.98725202670482
1589996886.5736148,-2.796732018883643,-2.0690849763954455,8.700718966953625,0.4777777777777778,-0.21777777777777774,-0.6088888888888889,2.5625,5.667075118022772,-76.66013086642599
1589996886.5836148,-2.757324588227851,-2.1013377058860745,8.764013117658223,0.4809271405239096,-0.20392058169479768,-0.6120382516350208,2.6333606617879664,5.5625,-77.49602463251577
1589996886.5936148,-2.748243539877537,-2.1594612392652213,8.831217699387684,0.4833333333333333,-0.19333333333333333,-0.6144444444444445,2.893588496938422,5.768588496938422,-78.39022124234606
1589996886.6036148,-2.7758174869929553,-2.230240802983563,8.814182513007045,0.4833333333333333,-0.19333333333333333,-0.6144444444444445,3.0988592937059716,5.920072862470648,-79.4143693310005
1589996886.6136148,-2.78,-2.280241085445167,8.842192868356133,0.4833333333333333,-0.19333333333333333,-0.6144444444444445,3.2256027136129175,6.088404070419377,-80.36732170890335
1589996886.6236148,-2.759429420137385,-2.3311411597252305,8.85,0.4833333333333333,-0.19333333333333333,-0.6144444444444445,3.078578501144873,6.125,-81.11961987127917
1589996886.6336148,-2.7417377718652354,-2.35,8.841737771865235,0.4989397642545556,-0.1657925728841176,-0.6282148246690523,2.896722148315441,6.021722148315441,-82.6143342202147
1589996886.6436148,-2.703698684894272,-2.386301315105728,8.745616580725107,0.5022222222222222,-0.16,-0.6311111111111111,2.82962335611784,6.04537664388216,-83.51027301435025
1589996886.6536148,-2.668010552754035,-2.4,8.677015829131053,0.5022222222222222,-0.16,-0.6311111111111111,2.88121702264364,6.02814148867818,-84.29973618114911
1589996886.6636147,-2.6431819993478025,-2.447726004565383,8.656818000652198,0.5022222222222222,-0.16,-0.6311111111111111,2.9801125040762346,6.255675024457408,-85.38918756114352
1589996886.6736147,-2.615709430258281,-2.479716227896688,8.664858113948345,0.5022222222222222,-0.16,-0.6311111111111111,3.0,6.283910363468554,-86.14294818265724
1589996886.6836147,-2.5595802359405297,-2.4982962992889464,8.7059506302521,0.5062167366946779,-0.147709186238598,-0.6347983552395317,3.0,6.152932086296057,-86.90154330963155
1589996886.6936147,-2.508721135175504,-2.5415408513816278,8.785639432412248,0.5166666666666667,-0.11555555555555555,-0.6444444444444445,3.314137415982076,6.1522535474234505,-88.20839805825243
1589996886.7036147,-2.52,-2.590101165875023,8.753265889416651,0.5166666666666667,-0.11555555555555555,-0.6444444444444445,3.60458819114593,6.479904334505377,-89.02230866901076
1589996886.7136147,-2.498406006232093,-2.6369924922098837,8.783187987535815,0.5166666666666667,-0.11555555555555555,-0.6444444444444445,3.6200187694752914,6.692481230524709,-89.64990615262354
1589996886.7236147,-2.4581969274506585,-2.6709015362746706,8.836352304412006,0.5166666666666667,-0.11555555555555555,-0.6444444444444445,3.4262307965666174,6.75,-90.3122403094418
1589996886.7336147,-2.4351815879182617,-2.704092060408692,8.830726351673047,0.5225558369887914,-0.10002956106995414,-0.6551520268483075,3.3125,6.840345226532595,-91.01649598164124
1589996886.7436147,-2.4250935668620137,-2.759438598827917,8.79528070058604,0.5288888888888889,-0.08333333333333333,-0.6666666666666666,3.3125,6.9375,-91.59082603556207
1589996886.7536147,-2.3756195869420385,-2.78013768598712,8.701101487896956,0.5288888888888889,-0.08333333333333333,-0.6666666666666666,3.2200408061292474,6.814221074838996,-92.02737758161226
1589996886.7636147,-2.3180952186183483,-2.7997619534541287,8.643809562763304,0.5288888888888889,-0.08333333333333333,-0.6666666666666666,2.976190232729355,6.6875,-92.46130976727065
1589996886.7736146,-2.3227436126851577,-2.8391154190277366,8.685487225370315,0.5288888888888889,-0.08333333333333333,-0.6666666666666666,2.994471368923352,6.767147579282235,-92.64214757928224
1589996886.7836146,-2.2144108751504117,-2.8422940583433607,8.7,0.5400196935040344,-0.05165335096714979,-0.6649542351874135,3.1588242707079903,6.71617572929201,-92.73566213535399
1589996886.7936146,-2.2278696546992913,-2.9038262062657214,8.779782757832152,0.5433333333333333,-0.042222222222222223,-0.6644444444444444,3.337092670935285,6.6875,-92.65027155270981
1589996886.8036146,-2.2291641160777127,-2.9308358839222874,8.751238522349707,0.5433333333333333,-0.042222222222222223,-0.6644444444444444,3.2734135882285544,6.958397098057188,-92.52341358822855
1589996886.8136146,-2.209923785443381,-2.960152429113238,8.73015242911324,0.5433333333333333,-0.042222222222222223,-0.6644444444444444,3.376429022936608,7.061547318042261,-92.3430354885317
1589996886.8236146,-2.1829969105568536,-3.00550463416472,8.77550463416472,0.5433333333333333,-0.042222222222222223,-0.6644444444444444,3.5093653454901665,7.123471290784417,-92.17029801823524
1589996886.8336146,-2.1584578489553694,-3.046168604178522,8.80537354686611,0.5455608848422441,-0.033654716418719345,-0.6688995474622659,3.3893077798552964,7.3460846679131775,-92.02394622388424
1589996886.8436146,-2.0925419120978703,-3.0863842319891255,8.748078840054372,0.5577777777777778,0.013333333333333334,-0.6933333333333334,3.204802899864069,7.1875,-91.53318985047576
1589996886.8536146,-2.0272168263551644,-3.116226538915868,8.638207113794461,0.5577777777777778,0.013333333333333334,-0.6933333333333334,3.0860841317758236,7.105542065887912,-91.17010516471979
1589996886.8636146,-1.9964430340450483,-3.1435569659549514,8.630670897864855,0.5577777777777778,0.013333333333333334,-0.6933333333333334,2.915268962781553,6.949525283708737,-90.86479424649029
1589996886.8736145,-1.98,-3.1700049222287854,8.669995077771215,0.5577777777777778,0.013333333333333334,-0.6933333333333334,2.895874351906543,6.8333435879766355,-90.41656412023364
1589996886.8836145,-1.9669608197709463,-3.207385573638738,8.68911754068716,0.5553631147723975,0.03071890697207153,-0.7000943897483982,3.0353350411894717,6.956494876431585,-89.8098452883263
1589996886.8936145,-1.8965313938976633,-3.206236175065628,8.734059043766408,0.5522222222222222,0.05333333333333334,-0.7088888888888889,3.0,6.988238047080088,-89.15405925894048
1589996886.9036145,-1.8442200038829926,-3.2005199974113383,8.714220003882993,0.5522222222222222,0.05333333333333334,-0.7088888888888889,2.9013750242687033,6.838875024268703,-88.57912507280611
1589996886.9136145,-1.825192183401133,-3.224423449796601,8.719231266395468,0.5522222222222222,0.05333333333333334,-0.7088888888888889,3.0228419762004335,6.960341976200433,-87.98196260882789
1589996886.9236145,-1.7968928826712958,-3.24,8.716892882671296,0.5522222222222222,0.05333333333333334,-0.7088888888888889,3.1777902583477995,7.1513951291739,-87.1556366792607
1589996886.9336145,-1.7667427288880577,-3.2532572711119423,8.746400448891798,0.5559047975310951,0.07984787555721812,-0.7420320666687449,2.7521392499766204,7.00071308332554,-86.31535233330216
1589996886.9436145,-1.745471178529755,-3.2963220536756124,8.697355892648774,0.5577777777777778,0.09333333333333334,-0.7588888888888888,2.4262922987164526,7.073707701283547,-85.33605892648775
1589996886.9536145,-1.7188560833974673,-3.3522878332050654,8.634760138995778,0.5577777777777778,0.09333333333333334,-0.7588888888888888,2.2428505212341707,6.904750868723617,-84.40175260617086
1589996886.9636145,-1.6638174731909525,-3.363402496170136,8.613402496170135,0.5577777777777778,0.09333333333333334,-0.7588888888888888,2.1462656010633503,6.771265601063351,-83.34154642020366
1589996886.9736145,-1.6323671937208508,-3.3638164031395745,8.625265612558298,0.5577777777777778,0.09333333333333334,-0.7588888888888888,2.1727050392446823,6.773852519622341,-82.43659708793083
1589996886.9836144,-1.620439369810033,-3.3697803150949834,8.649121260379934,0.5577777777777778,0.09333333333333334,-0.7588888888888888,2.247253938687294,6.811126969343647,-81.65383364378341
1589996886.9936144,-1.5453587089984213,-3.349198386248027,8.705358708998421,0.5788888888888889,0.11888888888888888,-0.7866666666666666,2.0530060515699002,6.702004034379933,-79.65005042974917
1589996887.0036144,-1.5489721321055072,-3.4052334414733916,8.696355411368812,0.5788888888888889,0.11888888888888888,-0.7866666666666666,1.9375,6.703854504604348,-77.92523978882463
1589996887.0136144,-1.5117334977119334,-3.4372444992373112,8.661022003050755,0.5788888888888889,0.11888888888888888,-0.7866666666666666,1.9030562404663895,6.829721879766805,-76.47889676536347
1589996887.0236144,-1.4801742772223723,-3.4250871386111865,8.694912861388813,0.5788888888888889,0.11888888888888888,-0.7866666666666666,1.7817946163199134,6.798236540799784,-74.97691924479871
1589996887.0336144,-1.4337166524799136,-3.422212510640065,8.71,0.5920060299467362,0.1107472151288457,-0.8020453837689704,1.4585154254987855,6.587942730500135,-72.87554627649635
1589996887.0436144,-1.4386309184255561,-3.358879064460924,9.306477467199088,0.6111111111111112,0.09888888888888887,-0.8244444444444444,0.9758806332002282,6.475880633200228,-71.01010767256132
1589996887.0536144,-1.325845429774585,-3.2069323755263808,8.865326232350757,0.6111111111111112,0.09888888888888887,-0.8244444444444444,4.585295392618281,2.5960149863760216,-69.38677545206836
1589996887.0636144,-1.1814272245993183,-3.145713612299659,7.423147436362318,0.6111111111111112,0.09888888888888887,-0.8244444444444444,9.030363877003408,-0.32685473928493725,-67.30541101602726
1589996887.0736144,-1.3492486386962823,-3.387519880910409,8.94489638422063,0.6111111111111112,0.09888888888888887,-0.8244444444444444,-2.167819857405883,9.55971373447722,-63.265500744309946
1589996887.0836143,-1.3547026668875268,-3.495878333609409,10.278683534868312,0.621359762943331,0.10209159258645757,-0.8532687777225627,-14.474239585058804,7.80047001822097,-62.01177374937883
1589996887.0936143,-1.195799368326064,-3.225698601293428,8.566390434651828,0.6288888888888889,0.10444444444444444,-0.8744444444444445,1.19325274477365,3.495647841780719,-58.5730936983005
1589996887.1036143,-1.216890480349345,-3.3454986899563317,8.53544978165939,0.6288888888888889,0.10444444444444444,-0.8744444444444445,10.487349344978165,7.745558951965066,-53.95483624454148
1589996887.1136143,-1.216323879430949,-3.417996148185832,9.037525209396973,0.6288888888888889,0.10444444444444444,-0.8744444444444445,0.3327424644343102,4.8196778647867875,-53.33199186031723
1589996887.1236143,-1.1578357337485403,-3.2966913195796033,8.683382639159205,0.6288888888888889,0.10444444444444444,-0.8744444444444445,-4.505133320358116,0.27549630206305953,-53.21533184118334
1589996887.1336143,-1.2266016562944086,-3.4908727397461656,8.916796687411182,0.5649417683474625,0.046031209334487615,-0.817260961652592,0.1686369873082767,2.902273117067673,-49.799792963198904
1589996887.1436143,-1.1861240407915994,-3.5519724353796445,8.8361240407916,0.5133333333333333,-0.0011111111111111113,-0.7711111111111111,1.839308928210824,4.138189115508886,-46.85292874091276
1589996887.1536143,-1.131459050240881,-3.522918100481762,8.645492085340676,0.5133333333333333,-0.0011111111111111113,-0.7711111111111111,0.26957157604955273,3.010452512044047,-44.99569855471439
1589996887.1636143,-1.1373729136327995,-3.5694916545311974,8.584745827265598,0.5133333333333333,-0.0011111111111111113,-0.7711111111111111,0.3488714013666405,2.944209980956648,-42.891063627198385
1589996887.1736143,-1.1548362573099413,-3.6538538011695905,8.759923976608187,0.5133333333333333,-0.0011111111111111113,-0.7711111111111111,0.9959064327485381,2.9800073099415205,-40.75456871345029
1589996887.1836143,-1.1438182501644583,-3.654400150361808,8.832618550888075,0.5075798222806962,0.029454416356023347,-0.7128568117031607,1.0036368762334367,2.5440912508222913,-38.91704844469505
1589996887.1936142,-1.1124001772835328,-3.625603368387123,8.724405495789517,0.4955555555555556,0.09333333333333334,-0.5911111111111111,0.855007756154559,2.480007756154559,-36.852456787138884
1589996887.2036142,-1.1012687669409684,-3.702567560987486,8.761448929574264,0.4955555555555556,0.09333333333333334,-0.5911111111111111,1.1875,2.7422578760286314,-34.180508553667366
1589996887.2136142,-1.0752110848156349,-3.6043304832429954,8.469083136117261,0.4955555555555556,0.09333333333333334,-0.5911111111111111,1.1875,2.5924307199022825,-32.56008807924269
1589996887.2236142,-1.0862351919617939,-3.6554409849283633,8.87853005023879,0.4955555555555556,0.09333333333333334,-0.5911111111111111,1.1503674874403027,2.263602462320908,-30.31801231160454
1589996887.2336142,-1.0342064131985362,-3.5578870247472554,9.20370991750915,0.4955555555555556,0.09333333333333334,-0.5911111111111111,1.069072520622713,2.0197175618681387,-29.098587809340692
1589996887.2436142,-0.9059965912318909,-3.3519931824637816,7.9258091089858915,0.5022222222222222,0.16444444444444445,-0.5988888888888889,5.624360855979547,5.324531294385001,-24.461882160780227
1589996887.2536142,-0.9931972581873573,-3.462321401370906,8.533622239146991,0.5022222222222222,0.16444444444444445,-0.5988888888888889,-1.9801218583396798,-1.2520182787509517,-24.35793983244478
1589996887.2636142,-1.0233334531727485,-3.5225000898795615,8.788334711486607,0.5022222222222222,0.16444444444444445,-0.5988888888888889,-4.533861001258314,-2.625008987956139,-23.34375561747259
1589996887.2736142,-0.9867840422781974,-3.540880317086481,8.36462446506017,0.5022222222222222,0.16444444444444445,-0.5988888888888889,0.22711426889163366,0.9642021139098716,-20.082892337076714
1589996887.2836142,-1.0271633155617186,-3.7124355081645826,8.799742032658331,0.5057433927580005,0.18708054074587654,-0.5963737670776187,2.28241476797284,1.087392712840988,-16.95182687020346
1589996887.2936141,-1.0144455735549047,-3.6804196305816244,8.722927252077232,0.51,0.21444444444444444,-0.5933333333333334,0.22914549584553767,0.4730893956602307,-14.63892417359077
1589996887.3036141,-1.0035037555479687,-3.6546353277569135,8.570402227722772,0.51,0.21444444444444444,-0.5933333333333334,1.2055215623933084,0.6101738541311028,-11.98334142412086
1589996887.3136141,-1.036216448767896,-3.716216448767896,8.738649346303687,0.51,0.21444444444444444,-0.5933333333333334,0.7280303664045508,0.48479439040130023,-9.82768768374005
1589996887.3236141,-1.0637145616612005,-3.807715849413469,8.876001931628403,0.51,0.21444444444444444,-0.5933333333333334,0.7250120726775187,0.3125,-7.708903851184129
1589996887.333614,-1.0363321552478844,-3.817516293246004,8.786216724490128,0.51,0.22037464558362063,-0.5890204597775688,1.1949008624882462,0.06990086248824615,-5.1886287733860765
1589996887.343614,-1.0360631764965762,-3.8048526618069363,8.70818952948973,0.51,0.22666666666666666,-0.5844444444444444,1.2253948531036007,-0.2594737132759002,-2.766973161033797
1589996887.353614,-1.0596145238638959,-3.818458095455583,8.669796072162594,0.51,0.22666666666666666,-0.5844444444444444,1.3401361612240237,-0.47477306462662705,-0.8064069993149121
1589996887.363614,-1.033767215089062,-3.7637672150890618,8.580581962277344,0.51,0.22666666666666666,-0.5844444444444444,1.25,-0.625,1.139549056933626
1589996887.373614,-1.004161116967936,-3.731241675451904,8.619563909387777,0.51,0.22666666666666666,-0.5844444444444444,1.1405209431488006,-0.6432465094751999,3.1359022653055977
1589996887.383614,-1.0087411374428135,-3.753729320699898,8.635593981049848,0.5138176391087212,0.24124310689996603,-0.5889561997547514,0.7969119273216105,-0.7265440363391947,4.902094490579129
1589996887.393614,-1.047992778083052,-3.8580288876677917,8.78,0.5222222222222223,0.2733333333333333,-0.5988888888888889,0.5999097260381505,-0.8501354109427741,6.413763835465892
1589996887.403614,-1.039020950846092,-3.8865733279613215,8.766293311845285,0.5222222222222223,0.2733333333333333,-0.5988888888888889,0.49388094278807415,-0.9938809427880742,7.870631043513296
1589996887.413614,-1.0364104307984179,-3.8364104307984177,8.585334240151772,0.5222222222222223,0.2733333333333333,-0.5988888888888889,0.3339739230039554,-0.8544869615019777,9.389747731462423
1589996887.423614,-1.0686870010723222,-3.864748004289289,8.742931013940188,0.5222222222222223,0.2733333333333333,-0.5988888888888889,0.24179375670201358,-0.8289124865959728,10.368037352555701
1589996887.433614,-1.067337365308427,-3.8471205190529965,8.63978315374457,0.526026782011777,0.2695287735437786,-0.604052220031856,0.23335853317766847,-0.998644710903558,11.914082087695459
1589996887.443614,-1.0869641541861037,-3.901011948604632,8.678095588837056,0.5377777777777778,0.2577777777777778,-0.62,0.3497012848841967,-1.1811753212210492,13.139142933136919
1589996887.453614,-1.0935410370796756,-3.905208423274332,8.668543195663645,0.5377777777777778,0.2577777777777778,-0.62,0.3346314817479733,-1.2747367726771237,15.033841799779346
1589996887.463614,-1.049076767391509,-3.938081521227525,8.599040760613763,0.5377777777777778,0.2577777777777778,-0.62,0.14598336157394332,-1.5267535653770121,16.10701426150805
1589996887.473614,-0.9781571565660293,-3.943685686867941,8.605474274747175,0.5377777777777778,0.2577777777777778,-0.62,0.02794668561305086,-1.5115177714623165,16.97662535985827
1589996887.483614,-1.0154558132706988,-3.874544186729301,8.659109292425132,0.5520235124290468,0.2614149866249103,-0.6206062014745221,0.42040700234879624,-1.3977470823546683,17.880697665883734
1589996887.493614,-0.9986757107467265,-3.86,8.729040698360269,0.59,0.27111111111111114,-0.6222222222222222,-0.125,-1.4944821281113603,18.12775893594432
1589996887.503614,-0.994693691641995,-3.840245046686404,8.624693691641996,0.59,0.27111111111111114,-0.6222222222222222,-0.125,-1.2206644272375313,18.002297312685037
1589996887.513614,-1.0246705352913312,-3.852693747039318,8.60796518237802,0.59,0.27111111111111114,-0.6222222222222222,-0.15419084557081952,-1.120881691141639,17.34544647086689
1589996887.523614,-1.0509504310344828,-3.8847623922413796,8.609757273706897,0.59,0.27111111111111114,-0.6222222222222222,-0.20386752424568966,-1.2366025727370689,16.517884563577585
1589996887.533614,-1.096147629310345,-3.873463092672414,8.717100619612069,0.59,0.27111111111111114,-0.6222222222222222,-0.2391778353987069,-1.3425335061961208,15.882298962823276
1589996887.543614,-1.15894934184284,-3.93684802552852,8.764746709214199,0.7155555555555555,0.2911111111111111,-0.65,-0.5,-1.4375,13.0625
1589996887.553614,-1.1422189868368566,-3.8866569605105705,8.681094934184284,0.7155555555555555,0.2911111111111111,-0.65,-0.5,-1.4375,13.0625
1589996887.563614,-1.1582866409439132,-3.9531465637756527,8.553706872448693,0.7155555555555555,0.2911111111111111,-0.65,-0.21612355309511827,-1.1857490353967455,12.058998070793491
1589996887.573614,-1.1504686014650785,-3.921874405860314,8.61625118827937,0.7155555555555555,0.2911111111111111,-0.65,0.22364116758933061,-0.8925725549404462,11.472645109880892
1589996887.5836139,-1.1382235114612163,-3.875788091689731,8.671776488538784,0.8012217806480101,0.31538978780782057,-0.6989521286242598,-0.1875,-1.0180877865304094,11.743015266836988
1589996887.5936139,-1.130782059470584,-3.8162564757646726,8.679217940529416,1.1600651321962798,0.4170896316797956,-0.9040054723661282,-0.1875,-0.8320514867646015,11.975560641544249
1589996887.6036139,-1.1167563927089446,-3.8964872145821112,8.68891655260814,1.1977777777777778,0.42777777777777776,-0.9255555555555556,-0.31081763670729323,-0.75,12.168909817723609
1589996887.6136138,-1.092500277438686,-3.941249583841971,8.589999630081753,1.1977777777777778,0.42777777777777776,-0.9255555555555556,-0.5937511559945252,-0.75,11.562506935967152
1589996887.6236138,-1.0466784736169437,-4.016660763191528,8.66,1.1977777777777778,0.42777777777777776,-0.9255555555555556,-0.31238930984115393,-0.7291297699470513,9.582152638305642
1589996887.6336138,-1.062079969535415,-4.005840060929169,8.662079969535416,1.1866846069222308,0.26970009308623166,-0.9581417449437252,-0.1875,-0.6485005712109673,7.665008568164509
1589996887.6436138,-1.0665488819977151,-3.9658421739840053,8.65619552799086,1.1444444444444444,-0.3322222222222222,-1.0822222222222222,0.07133385017137261,-0.4137220499428758,4.359025624285947
1589996887.6536138,-1.0572603978300181,-3.9193150994575046,8.63,1.1444444444444444,-0.3322222222222222,-1.0822222222222222,0.5582193716094033,-0.2414387432188065,2.0556622965641953
1589996887.6636138,-1.02,-3.9134786737518437,8.623042652496313,1.1444444444444444,-0.3322222222222222,-1.0822222222222222,0.6087085547451154,0.04893368759218475,-2.8724529226355244
1589996887.6736138,-1.0244590511773797,-3.908852372056551,8.618918102354758,1.1444444444444444,-0.3322222222222222,-1.0822222222222222,0.8543036047879333,0.4864762794344888,-6.5657865149104
1589996887.6836138,-1.04,-3.8717220077220076,8.663776061776062,1.0608314028314028,-0.25817589017589015,-1.014872586872587,1.0,0.875,-10.837403474903475
1589996887.6936138,-1.0394661638284417,-3.8848045255440256,8.728398491485326,0.6588888888888889,0.09777777777777777,-0.6911111111111111,1.01334590428896,0.9016918085779204,-14.796053325056803
1589996887.7036138,-1.0262387399683355,-3.9591341376863025,8.701671671125183,0.6588888888888889,0.09777777777777777,-0.6911111111111111,1.2604479445324015,1.375,-19.115115057050826
1589996887.7136137,-0.956427006094083,-3.76544114556753,8.74616012728528,0.6588888888888889,0.09777777777777777,-0.6911111111111111,1.3074960223349645,1.516169583621026,-23.880514319594127
1589996887.7236137,-1.0262000841531587,-3.989300126229738,8.760699873770262,0.6588888888888889,0.09777777777777777,-0.6911111111111111,0.7175021038289687,1.9462484221282734,-27.647514726802783
1589996887.7336137,-1.0052809991079394,-3.9380820695807315,8.707760927743086,0.6396005550599663,0.13167013579145606,-0.6911111111111111,1.2794937555753791,1.7494982158786798,-30.713481266726138
1589996887.7436137,-0.9,-3.8558333670537777,8.644928580099542,0.5811111111111111,0.2344444444444445,-0.6911111111111111,1.5008927487557155,2.3013393760369034,-33.75476216970825
1589996887.7536137,-0.8443729997622574,-4.076418500027432,8.680744499917704,0.5811111111111111,0.2344444444444445,-0.6911111111111111,1.1735406265430406,2.981975000457197,-36.29330000365758
1589996887.7636137,-0.6449402900459027,-4.099429966533164,8.611710100400504,0.5811111111111111,0.2344444444444445,-0.6911111111111111,2.467935617490536,3.365499442219418,-39.361495537755346
1589996887.7736137,-0.6752632131974362,-4.021523589366397,8.509224545550069,0.5811111111111111,0.2344444444444445,-0.6911111111111111,1.7056779972680467,2.82825470211201,-46.451698276767885
1589996887.7836137,-0.7941345389779422,-4.029085354158104,8.7580271270037,0.5775266627087424,0.2543218401303071,-0.6930662647851304,1.0673191533086723,3.0315574051239897,-51.36389916426908
1589996887.7936137,-0.787735647231624,-3.869306628775784,8.566348904783192,0.5688888888888889,0.3022222222222222,-0.6977777777777778,2.7362539114886006,4.1835725461396,-55.80539047033655
1589996887.8036137,-0.8078245737275689,-4.023321731911361,8.89446803755029,0.5688888888888889,0.3022222222222222,-0.6977777777777778,1.5643998658918195,3.84875710454052,-59.195396816527236
1589996887.8136137,-0.7376806980071332,-3.9253613960142664,8.569428133878734,0.5688888888888889,0.3022222222222222,-0.6977777777777778,3.3505261752674955,4.7934869123662525,-64.83171207205756
1589996887.8236136,-0.7187398832589394,-3.8959248540736744,8.697184970814734,0.5688888888888889,0.3022222222222222,-0.6977777777777778,3.074229288271938,5.007875729631628,-68.28736756266248
1589996887.8336136,-0.602296252230815,-3.758899464604402,8.694211778703153,0.5664432546764492,0.2968418269548549,-0.7019353559389253,3.1462299226650803,5.632473230220107,-71.4201740035693
1589996887.8436136,-0.540658039881205,-3.7460517607127706,8.876181162494698,0.5466666666666666,0.2533333333333333,-0.7355555555555555,2.8824167373780227,5.257416737378023,-74.48112271955875
1589996887.8536136,-0.4904568159501345,-3.5539012936003074,8.850123382999616,0.5466666666666666,0.2533333333333333,-0.7355555555555555,4.566126243435939,6.5158177859369,-78.01801647952867
1589996887.8636136,-0.3575562981620489,-3.3625080425945786,8.84400334172922,0.5466666666666666,0.2533333333333333,-0.7355555555555555,5.359525798648345,7.06229893513554,-80.56923177635352
1589996887.8736136,-0.2665857559316544,-3.397799416956839,8.648026155964045,0.5466666666666666,0.2533333333333333,-0.7355555555555555,4.719558516883958,7.054914618592599,-83.33829029678516
1589996887.8836136,-0.23641250548211265,-3.5165359313326237,8.888475032892675,0.5279932335066725,0.2539885415143857,-0.6929670237871478,0.2703817116722007,9.275370434183323,-90.50512577532736
1589996887.8936136,-0.4941725455614345,-7.333749895019736,2.78472978080121,0.4833333333333333,0.25555555555555554,-0.5911111111111111,-49.96465576971529,45.873190402704296,-389.9449732825229
1589996887.9036136,-4.157693686892517,-11.323726526375388,-2.6285326035670478,0.4833333333333333,0.25555555555555554,-0.5911111111111111,-135.58546050769087,94.0305982825328,-798.8865126922714
1589996887.9136136,-7.656683028592465,-5.724300936720251,2.5432386386877734,0.4833333333333333,0.25555555555555554,-0.5911111111111111,-187.4006473186894,71.61760006340246,-594.1307752484968
1589996887.9236135,0.7234688854220835,0.9506181313919223,-0.06559577049748658,0.4833333333333333,0.25555555555555554,-0.5911111111111111,-182.5559932397296,-16.21050225342347,-86.7495233142659
1589996887.9336135,-0.178062055815566,-0.2998925290344947,-0.036514127231755934,0.4833333333333333,0.25555555555555554,-0.5911111111111111,-172.19565782631307,-19.663947391228984,-61.98468647079217
1589996887.9436135,0.3061411027478662,-0.641725429466633,3.2180592069723053,0.38333333333333336,0.4811111111111111,-0.5966666666666667,-157.8434067418158,-2.30764261533475,-37.52849380559657
1589996887.9536135,1.1369348507220802,-2.1296015053840893,15.770597471819064,0.38333333333333336,0.4811111111111111,-0.5966666666666667,-108.98706985810495,22.946599155472324,-32.00560354917708
1589996887.9636135,-0.08465362717589692,-0.05895802119371271,0.970071644555831,0.38333333333333336,0.4811111111111111,-0.5966666666666667,55.285199133727424,9.43956182407584,-29.110638739818572
1589996887.9736135,1.092565060416971,-1.212565060416971,6.357655529352839,0.38333333333333336,0.4811111111111111,-0.5966666666666667,131.73342707181166,-1.7257588642861612,-23.705514222509755
1589996887.9836135,1.3498862645636838,-1.5582295712134422,7.208256518982325,0.37819165940133687,0.5001197238294013,-0.5877855935113999,198.40542645834984,6.301874455100261,-21.793821084647696
1589996887.9936135,0.9343457240231434,-1.6662701117539827,5.953324086549893,0.34771868642836384,0.612777381487059,-0.5351504583762648,259.3340582151066,4.016401482127288,-22.053533922485535
1589996888.0036135,0.5284581142721061,-1.4205394859770284,4.893801315283299,0.3466666666666667,0.6166666666666667,-0.5333333333333333,289.2373978731979,-8.205977852680943,-15.81182678744802
1589996888.0136135,0.6283425232189636,0.5079979483046031,-2.4284942021286344,0.3466666666666667,0.6166666666666667,-0.5333333333333333,171.39300385608823,-40.95653886314093,-3.086168916814742
1589996888.0236135,0.4248390429691457,0.265963209821519,-0.4469494135045886,0.3466666666666667,0.6166666666666667,-0.5333333333333333,18.160354328315876,-25.452510585279875,22.831438281234174
1589996888.0336134,0.9034223219293327,-0.9478914750420642,4.64822265844083,0.34066124509254064,0.6021150682370536,-0.5518115535614133,-25.396203729669097,8.630583987661245,35.67823717049916
1589996888.0436134,2.720387641527538,-4.042571483400499,17.504822490884667,0.31777777777777777,0.5466666666666666,-0.6222222222222222,-67.9502494722702,41.6029792746114,48.38024131644598
1589996888.0536134,0.8676826225569468,-1.7625416993947236,6.653127108071894,0.31777777777777777,0.5466666666666666,-0.6222222222222222,-37.14384558517766,15.733431421244745,48.06468892944601
1589996888.0636134,0.8600626629465307,-2.4714124319626767,9.76522343685679,0.31777777777777777,0.5466666666666666,-0.6222222222222222,19.44400356767141,-12.981715684032384,46.57895474088643
1589996888.0736134,0.4783767750248302,-1.9608619440045099,6.776784554264085,0.31777777777777777,0.5466666666666666,-0.6222222222222222,18.258339093495827,18.92053240678603,56.37443544815183
1589996888.0836134,0.4333409389847797,-1.4992446245939925,4.7107655759267715,0.31777777777777777,0.5466666666666666,-0.6222222222222222,-2.535550828121224,10.86333986524575,58.309569027997746
1589996888.0936134,0.7091560556707137,-3.9524045010364235,13.529244468886164,0.3196771813058458,0.5438175613745646,-0.6155743098739842,-13.953548690722958,-13.665795930453914,59.36592072422691
1589996888.1036134,0.632539511791477,-2.9043729830368226,8.526290649565578,0.32,0.5433333333333333,-0.6144444444444445,-1.0675049131154317,-12.444810198593299,64.90160710591643
1589996888.1136134,0.38507496481243497,-2.7489186708279787,8.237055871733675,0.32,0.5433333333333333,-0.6144444444444445,0.7941489198947433,8.964135456826387,74.44519536748057
1589996888.1236134,0.26003677853470974,-2.7561503740544153,7.797216951560998,0.32,0.5433333333333333,-0.6144444444444445,-5.6472721716053,-11.81451785639654,76.3502502403143
1589996888.1336133,0.361325128450233,-3.9185995937387976,11.759965348309235,0.3226988489265942,0.5412128091767237,-0.6164685811393901,-4.778901302425618,-4.207223085195364,82.97967947186044
1589996888.1436133,0.27779663042179475,-2.557085075875254,6.656374118771657,0.34868549275766386,0.5207947318808831,-0.6359585640126924,2.1644050961883146,-1.3881362767355716,88.20021059863782
1589996888.1536133,12.216560421379613,-19.1459638045717,3.503997704021339,0.3511111111111111,0.5188888888888888,-0.6377777777777778,-23.582011598068675,-16.199477918087585,161.6667982071108
1589996888.1636133,4.080606914947497,-8.198893203227875,7.5047059121450514,0.3511111111111111,0.5188888888888888,-0.6377777777777778,-26.502882634973158,-39.25665686092447,150.91268211668975
1589996888.1736133,-1.799469809123389,0.9335881644657626,11.646077653421763,0.3511111111111111,0.5188888888888888,-0.6377777777777778,23.652035096030477,16.158878377844893,-29.104230818578394
1589996888.1836133,-2.4898455479662793,0.771343917297397,10.276526367608147,0.3559726239069049,0.5174525328355861,-0.6384407113408406,44.35879330502738,31.216198233954835,-25.857054950464587
1589996888.1936133,-1.127121212121212,-1.7296969696969695,9.654545454545454,0.4,0.5044444444444445,-0.6444444444444445,-8.106060606060606,-9.125946969696969,-23.410984848484848
1589996888.2036133,-0.9899472583431845,-2.6398431390379193,10.294293443666454,0.4,0.5044444444444445,-0.6444444444444445,-20.861561675911613,2.5706726834591254,-18.83147392470674
1589996888.2136133,-1.4097838592836343,-4.794813096280865,10.021652423001349,0.4,0.5044444444444445,-0.6444444444444445,3.851966987050496,-2.9909951232215146,-11.363786072772898
1589996888.2236133,-3.3678467292194143,-12.459596716808155,7.98465504972778,0.4,0.5044444444444445,-0.6444444444444445,5.837219091826771,7.026663522480928,2.3313320177398262
1589996888.2336133,3.302331992917308,-12.660882026841417,8.414989160833375,0.4,0.5044444444444445,-0.6444444444444445,-8.651852794188223,0.17255167221036238,31.65651942775819
1589996888.2436132,0.21674618400200182,-2.1968384908388248,9.001569216225985,0.3922222222222223,0.4844444444444445,-0.6522222222222223,-2.458606152862346,-14.184231378763867,22.679327578057663
1589996888.2536132,-1.341272403031654,-1.8578419527418637,9.546286000891662,0.3922222222222223,0.4844444444444445,-0.6522222222222223,13.892698116362016,13.009093568880964,-8.04383080695497
1589996888.2636132,-2.0698670838756126,-8.146794229224932,8.770044305374796,0.3922222222222223,0.4844444444444445,-0.6522222222222223,2.9776950128762496,3.8933746157893276,-8.407211392019494
1589996888.2736132,0.36404904098978824,-4.782887222029719,9.412495668657385,0.3922222222222223,0.4844444444444445,-0.6522222222222223,-6.309864250626771,-7.369190905199649,-0.4521029942316708
1589996888.2836132,-0.01895297616806596,-3.5387398817815594,8.53139603177591,0.3919895502595703,0.4844444444444445,-0.6527263448079683,0.10754960280109935,-2.761572418207146,1.3720610105041227
1589996888.2936132,0.004733820262791309,-4.415151349723279,8.562978427017056,0.38672581771937964,0.4844444444444445,-0.6641310986450476,-0.2872303377131885,-0.19550280486427463,-0.10836376642445678
1589996888.3036132,-0.034016201236410144,-4.4835493498188015,8.64858026007248,0.3855555555555555,0.4844444444444445,-0.6666666666666666,-0.2667341718183756,0.0,-0.09989874227243659
1589996888.3136132,-0.05636911106373907,-4.781588147516521,8.529364740993392,0.3855555555555555,0.4844444444444445,-0.6666666666666666,-0.3598712960989128,0.0,0.03980694414836922
1589996888.3236132,-0.045514225557415106,-4.4738949774154655,8.580218827043856,0.3855555555555555,0.4844444444444445,-0.6666666666666666,0.5510120300887186,0.13648796991128148,0.011487969911281471
1589996888.3336132,-0.06815796577228311,-4.5720178516798935,8.663245874498372,0.3855555555555555,0.4844444444444445,-0.6666666666666666,0.5038375713077435,0.18366242869225646,0.05866242869225648
1589996888.3436131,-0.010995559128670418,-4.47190230083075,8.66,0.3922222222222223,0.4711111111111111,-0.6444444444444445,0.0814442881206692,0.05627775544580989,0.04383326633742965
1589996888.3536131,-0.019024156808697984,-4.6485314497913555,8.66,0.3922222222222223,0.4711111111111111,-0.6444444444444445,-0.2698068603805367,0.006099019945637607,-0.10670294016308718
1589996888.3636131,-0.04844886197347982,-4.587755690132601,8.504653414079561,0.3922222222222223,0.4711111111111111,-0.6444444444444445,-0.10024848600823971,0.27372154933699544,-0.11530538733424886
1589996888.373613,-0.04140193743052247,-4.62439225027791,8.539813562013657,0.3922222222222223,0.4711111111111111,-0.6444444444444445,0.4144294902334445,0.0625,-0.06688105447038273
1589996888.383613,-0.05472351913609655,-4.5711059234556135,8.633064633952676,0.3922222222222223,0.4711111111111111,-0.6444444444444445,0.7890989757027156,0.0625,-0.10851099730030173
1589996888.393613,-0.04011539820230012,-4.490346194606901,8.7495384071908,0.40658332352056104,0.47773931171034445,-0.65217734514355,0.6889424775287514,0.0625,-0.0007212387643757145
1589996888.403613,-0.030788913599732164,-4.536311308797858,8.611321950402946,0.4066666666666667,0.4777777777777778,-0.6522222222222223,-0.03944567998660832,0.014792129994978118,-0.00986141999665208
1589996888.413613,-0.040791267182626774,-4.614747603095761,8.511582534365253,0.4066666666666667,0.4777777777777778,-0.6522222222222223,-0.46538206076007854,0.18255458010858264,-0.11016374032574795
1589996888.423613,-0.049203380755698335,-4.663627046045587,8.533584786599357,0.4066666666666667,0.4777777777777778,-0.6522222222222223,-0.045073954030901024,0.125,0.05752112972311458
1589996888.433613,-0.03316276579470705,-4.5353021263576565,8.605767553923817,0.4066666666666667,0.4777777777777778,-0.6522222222222223,0.3058144982407833,0.125,-0.04273271378308094
1589996888.443613,-0.05750107193172306,-4.5443763399146535,8.668126875880514,0.3967357240246556,0.4877087204197889,-0.6468747915688317,0.5039112746799518,-0.08985212446658636,-0.019529575106682732
1589996888.453613,-0.0411657526338577,-4.51194292105643,8.70922283157743,0.3922222222222223,0.4922222222222222,-0.6444444444444445,0.20207190792322122,0.1128567433973156,-0.06007134867946312
1589996888.463613,-0.03236563358179678,-4.639784229109455,8.549678305217732,0.3922222222222223,0.4922222222222222,-0.6444444444444445,-0.14650353079639072,0.07728520988622989,-0.0625
1589996888.473613,-0.04,-4.577355414328453,8.590735541432846,0.3922222222222223,0.4922222222222222,-0.6444444444444445,-0.03951433022358335,0.0,0.0
1589996888.483613,-0.04,-4.651605268282321,8.59816052682823,0.3922222222222223,0.4922222222222222,-0.6444444444444445,0.19251646338225142,0.0,0.0
1589996888.493613,-0.040158063176410234,-4.530316126352821,8.671106442234871,0.3855555555555555,0.4922222222222222,-0.6444444444444445,0.6845363154423082,0.002963684557691838,0.0
1589996888.503613,-0.0487496855978671,-4.549583228532622,8.73124779918507,0.3855555555555555,0.4922222222222222,-0.6444444444444445,0.4817662483022285,0.18489517832888977,0.005209643342220433
1589996888.513613,-0.02085018809471122,-4.5485018809471125,8.535951316662977,0.3855555555555555,0.4922222222222222,-0.6444444444444445,0.030617946448329277,0.125,0.10905897322416463
1589996888.523613,-0.03022682652536073,-4.640340239788041,8.599773173474638,0.3855555555555555,0.4922222222222222,-0.6444444444444445,-0.3096646684329909,0.1207470026494863,-0.061082334216495435
1589996888.533613,-0.04621638106856261,-4.664324571602844,8.583783618931438,0.3855555555555555,0.4922222222222222,-0.6444444444444445,-0.10979523664296742,-0.17905714503554887,0.03885238167851629
1589996888.543613,-0.056710680751173706,-4.629735915492958,8.653817488262911,0.3997225482524778,0.4922222222222222,-0.6496638628064685,0.3149757922535211,-0.08223298122065728,0.0625
1589996888.553613,-0.06951849371139392,-4.569839497903798,8.658555481134181,0.4066666666666667,0.4922222222222222,-0.6522222222222223,0.49297803329116124,-0.0010031381012626827,-0.060493723797474634
1589996888.563613,-0.04,-4.565964691046658,8.567831021437579,0.4066666666666667,0.4922222222222222,-0.6522222222222223,0.04216582597730138,-0.04894388398486759,0.0591109709962169
1589996888.573613,-0.04040660053768425,-4.66715379623621,8.533659404839158,0.4066666666666667,0.4922222222222222,-0.6522222222222223,-0.2947112264763141,0.17987623991842033,-0.00508250672105312
1589996888.583613,-0.04818318346157412,-4.612717715768981,8.603648651154167,0.4066666666666667,0.4922222222222222,-0.6522222222222223,0.045514276443867574,0.0340653100954853,-0.10228979326967647
1589996888.593613,-0.03050520059435364,-4.619494799405646,8.639494799405647,0.3925870893181444,0.4846409113422487,-0.6792983325078422,0.5514487369985142,-0.06092124814264487,-0.0031575037147102553
1589996888.603613,-0.011100038699690402,-4.540366679566564,8.68889996130031,0.3922222222222223,0.4844444444444445,-0.68,0.6135412635448917,0.004583494582043344,-0.11812475812693499
1589996888.613613,-0.039018037467790236,-4.551472943798315,8.656563131137267,0.3922222222222223,0.4844444444444445,-0.68,0.2879509366947559,0.1280686329131555,0.05636273417368898
1589996888.6236129,-0.020396443726005253,-4.58079288745201,8.589735704182663,0.3922222222222223,0.4844444444444445,-0.68,-0.18832592442917762,0.18667407557082238,-0.06167407557082239
1589996888.6336129,-0.03734653465346535,-4.614693069306931,8.578435643564356,0.3922222222222223,0.4844444444444445,-0.68,-0.22363861386138614,0.15136138613861386,-0.026361386138613864
1589996888.6436129,-0.045518273405555795,-4.631036546811112,8.592408632972221,0.3922222222222223,0.48145662671481504,-0.6705385771895067,-0.025913670277789486,0.04096762635417105,-0.05602158243055263
1589996888.6536129,-0.04737092200393429,-4.605258155992131,8.62,0.3922222222222223,0.4777777777777778,-0.6588888888888889,0.3421365250491787,0.1678413126229466,-0.125
1589996888.6636128,-0.04007712082262211,-4.55038560411311,8.570385604113111,0.3922222222222223,0.4777777777777778,-0.6588888888888889,0.375,0.06394601542416453,-0.0009640102827763453
1589996888.6736128,-0.04,-4.571261324041812,8.626696864111498,0.3922222222222223,0.4777777777777778,-0.6588888888888889,0.286411149825784,0.0625,0.044294425087108014
1589996888.6836128,-0.019794455456298026,-4.606940726058269,8.623059273941731,0.3922222222222223,0.4777777777777778,-0.6588888888888889,-0.0025693067962747063,0.0625,0.0625
1589996888.6936128,-0.02309623339388501,-4.59380753321223,8.63619246678777,0.3922222222222223,0.4777777777777778,-0.6494304981044164,0.07962864677945328,-0.019351458711781316,0.021574270644109342
1589996888.7036128,-0.03956787189704968,-4.599135743794099,8.65956787189705,0.3922222222222223,0.4777777777777778,-0.6444444444444445,0.4864959967828026,-0.0625,-0.05979919935656053
1589996888.7136128,-0.04,-4.540685389988359,8.590799621653085,0.3922222222222223,0.4777777777777778,-0.6444444444444445,0.5617860520954598,0.06107210419091967,0.06107210419091967
1589996888.7236128,-0.04,-4.5850400747192595,8.608016029887704,0.3922222222222223,0.4777777777777778,-0.6444444444444445,0.16839934620647706,0.11880009339907469,0.0625
1589996888.7336128,-0.04,-4.59,8.647467420506034,0.3922222222222223,0.4777777777777778,-0.6444444444444445,-0.06233710253017363,0.07816572436745658,0.0625
1589996888.7436128,-0.03115992073024261,-4.6342003963487866,8.615799603651213,0.3922222222222223,0.4777777777777778,-0.6513200616542558,-0.125,0.11775049543598366,0.0625
1589996888.7536128,-0.03,-4.62226073183798,8.64547853632404,0.3922222222222223,0.4777777777777778,-0.6522222222222223,0.20761127803787294,0.125,0.007064786993687837
1589996888.7636127,-0.04881117817112137,-4.610594410914439,8.565349698229955,0.3922222222222223,0.4777777777777778,-0.6522222222222223,0.5439246589237714,0.125,-0.05878493178475427
1589996888.7736127,-0.03280584442369901,-4.584208766635548,8.602985388940752,0.3922222222222223,0.4777777777777778,-0.6522222222222223,0.4013047914721782,0.017536527648118805,0.044963472351881195
1589996888.7836127,-0.014361566150003672,-4.590425622566664,8.63606405641666,0.3922222222222223,0.4777777777777778,-0.6522222222222223,0.27725978843752297,0.03258007052082568,0.029919929479174323
1589996888.7936127,-0.015534899161756162,-4.592232550419122,8.652232550419122,0.3922222222222223,0.4881343772189486,-0.6548113720825149,0.11468016017926799,0.038226720059756,0.024273279940244006
1589996888.8036127,-0.03159618176763152,-4.596807636464737,8.64,0.3922222222222223,0.5044444444444445,-0.6588888888888889,0.05252386395230299,0.05252386395230299,0.00997613604769701
1589996888.8136127,-0.04473456468608518,-4.585265435313914,8.58106174125566,0.3922222222222223,0.5044444444444445,-0.6588888888888889,0.24668205857606473,0.20063654393204855,-0.04604551464401618
1589996888.8236127,-0.041681300906937786,-4.555043902720813,8.618230893651436,0.3922222222222223,0.5044444444444445,-0.6588888888888889,0.3125,0.19800813066836115,0.04148373866327769
1589996888.8336127,-0.047061008268663135,-4.578244033074652,8.65118302480599,0.3922222222222223,0.5044444444444445,-0.6588888888888889,0.04771218992513243,0.23163130167914459,-0.06989390503743378
1589996888.8436127,-0.05,-4.578361339994377,8.665819330002812,0.39674836777996453,0.49280578443882156,-0.650483189995939,-0.09887081251757174,0.17725837496485652,-0.05225837496485651
1589996888.8536127,-0.041283296711769016,-4.596150109864693,8.635133186847076,0.4,0.4844444444444445,-0.6444444444444445,0.03843818665433099,0.01604120889711269,-0.054479395551443655
1589996888.8636127,-0.0229796799929475,-4.6,8.561918719971791,0.4,0.4844444444444445,-0.6444444444444445,0.32844250011019527,0.15956550006611714,-0.009311499977960942
1589996888.8736126,-0.036558653959289325,-4.5917206730203555,8.624513942816803,0.4,0.4844444444444445,-0.6444444444444445,0.5302373808683375,0.23924579362277915,-0.051745793622779146
1589996888.8836126,-0.05407535360104048,-4.568886969598439,8.65407535360104,0.4,0.4844444444444445,-0.6444444444444445,0.298587119980491,0.29398548000325153,-0.018514519996748496
1589996888.8936126,-0.04179120367289906,-4.56910439816355,8.66,0.41112759775545055,0.4965836419958451,-0.6575952417917951,0.07369502295561914,0.1417925344334287,-0.05690248852219043
1589996888.9036126,-0.04903630545387573,-4.579036305453876,8.59674586182287,0.4122222222222222,0.4977777777777778,-0.6588888888888889,0.006023090913276706,0.125,-0.006023090913276706
1589996888.9136126,-0.058560319223705984,-4.58,8.530077765434058,0.4122222222222222,0.4977777777777778,-0.6588888888888889,0.10700399029632485,0.125,0.10700399029632485
1589996888.9236126,-0.051147561369910714,-4.588852438630089,8.599671947670803,0.4122222222222222,0.4977777777777778,-0.6588888888888889,0.18032774143805805,-0.09631096575223222,0.01434451712388389
1589996888.9336126,-0.044049638154748626,-4.578099276309497,8.621900723690503,0.4122222222222222,0.4977777777777778,-0.6588888888888889,0.2618795230656422,-0.05062047693435777,-0.07437952306564223
1589996888.9436126,-0.05976495896741296,-4.576588319655804,8.649764958967413,0.4122222222222222,0.48899335157003876,-0.6449802140599686,0.024261015058561042,0.12353099354633096,-0.08382300215122301
1589996888.9536126,-0.02725135114366948,-4.58,8.642900540457468,0.4122222222222222,0.4844444444444445,-0.6377777777777778,-0.01812837785917369,0.02719256678876053,-0.0625
1589996888.9636126,-0.027199325329893838,-4.587199325329894,8.560807421371168,0.4122222222222222,0.4844444444444445,-0.6377777777777778,0.04499578331183649,0.08999156662367298,-0.15249156662367297
1589996888.9736125,-0.03,-4.583180169582905,8.598198304170955,0.4122222222222222,0.4844444444444445,-0.6377777777777778,0.2756197005342351,0.125,0.02561970053423515
1589996888.9836125,-0.02337647489252721,-4.58,8.643247050214946,0.4122222222222222,0.4844444444444445,-0.6377777777777778,0.4991910957651148,0.16639703192170494,-0.12338219153022961
1589996888.9936125,-0.03693411706060733,-4.574355294313131,8.678223528434346,0.40093281084848403,0.4806813073198651,-0.6459312415476999,0.3155441261994766,0.1875,-0.07360294728534042
1589996889.0036125,-0.042301141577652975,-4.585397716844694,8.67690342473296,0.3922222222222223,0.4777777777777778,-0.6522222222222223,0.125,0.09126426972066219,-0.03373573027933781
1589996889.0136125,-0.046396399627053005,-4.59,8.593243204475364,0.3922222222222223,0.4777777777777778,-0.6522222222222223,0.16497749766908126,0.10247749766908126,-0.0625
1589996889.0236125,-0.04215168498958109,-4.59,8.604938205072932,0.3922222222222223,0.4777777777777778,-0.6522222222222223,0.2856039376302364,0.1740519688151182,-0.0625
1589996889.0336125,-0.03320597127739985,-4.59,8.647176114890401,0.3922222222222223,0.4777777777777778,-0.6522222222222223,0.35496267951625093,0.14503732048374907,-0.0625
1589996889.0436125,-0.04637191924488726,-4.6063719192448875,8.66,0.4040463861213075,0.4777777777777778,-0.6458553647380995,0.32383775235972734,0.125,-0.21598674292081804
1589996889.0536125,-0.03374751690734995,-4.618126241546325,8.61124255072205,0.4066666666666667,0.4777777777777778,-0.6444444444444445,0.10934396134187441,-0.07815603865812559,-0.04684396134187441
1589996889.0636125,-0.037723191675491506,-4.604553616649016,8.538214466596068,0.4066666666666667,0.4777777777777778,-0.6444444444444445,0.0625,-0.07673005202817809,-0.04826994797182191
1589996889.0736125,-0.032138477386441676,-4.584276954772883,8.543584567840675,0.4066666666666667,0.4777777777777778,-0.6444444444444445,0.16076903266947906,0.03576903266947906,-0.0625
1589996889.0836124,-0.03,-4.575401395194331,8.600584652862363,0.4066666666666667,0.4777777777777778,-0.6444444444444445,0.30246512014173405,0.09124128003543351,-0.11998256007086702
1589996889.0936124,-0.0323614594288488,-4.571180729714425,8.661180729714424,0.4066666666666667,0.4785649309207274,-0.6461499429208353,0.4301204392848475,0.1323795607151525,-0.1801204392848475
1589996889.1036124,-0.05,-4.58,8.676678161681808,0.4066666666666667,0.4844444444444445,-0.6588888888888889,0.24978446846607866,0.14576148948869289,0.0002155315339213426
1589996889.1136124,-0.043975392047706216,-4.598073823856882,8.607704704572475,0.4066666666666667,0.4844444444444445,-0.6588888888888889,0.07453860089449152,0.125,-0.16342279821101696
1589996889.1236124,-0.05171154493436553,-4.604144227532817,8.571711544934367,0.4066666666666667,0.4844444444444445,-0.6588888888888889,0.07319715583978459,0.05180284416021541,-0.16610568832043082
1589996889.1336124,-0.04223346049046321,-4.588155640326975,8.627377438692099,0.4066666666666667,0.4844444444444445,-0.6588888888888889,0.16201362397820163,-0.14805449591280653,-0.13652724795640325
1589996889.1436124,-0.03441497244917348,-4.584414972449173,8.664414972449174,0.3973461692739671,0.4844444444444445,-0.6495683914961893,0.1875,-0.11203211096332888,-0.10471926657799734
1589996889.1536124,-0.026422749567224468,-4.585474249855741,8.647371249278708,0.3855555555555555,0.4844444444444445,-0.6377777777777778,0.2157859384016157,0.0907859384016157,-0.056571876803231384
1589996889.1636124,-0.019240117383048504,-4.584620058691525,8.592279647850853,0.3855555555555555,0.4844444444444445,-0.6377777777777778,0.27887536682202657,0.06724926635594683,-0.09612463317797341
1589996889.1736124,-0.03,-4.59,8.568806897115307,0.3855555555555555,0.4844444444444445,-0.6377777777777778,0.2574568930293373,0.02752155348533137,-0.11754310697066274
1589996889.1836123,-0.03,-4.59,8.597221070601146,0.3855555555555555,0.4844444444444445,-0.6377777777777778,0.22337723041905458,0.026622769580945414,-0.04399107832378166
1589996889.1936123,-0.044692948673062116,-4.567960576990407,8.654078846019186,0.390453205113243,0.4901583689284131,-0.6483893518194338,0.3877463938099573,0.0459154646033191,0.0625
1589996889.2036123,-0.042599707123783276,-4.58220087862865,8.67,0.3922222222222223,0.4922222222222222,-0.6522222222222223,0.25249267809458176,0.0625,0.10875183047635456
1589996889.2136123,-0.025941735692771084,-4.597029132153614,8.599708678463855,0.3922222222222223,0.4922222222222222,-0.6522222222222223,0.055703772119728934,0.018567924039909638,0.08106792403990964
1589996889.2236123,-0.025289002742098426,-4.605289002742098,8.591156010968394,0.3922222222222223,0.4922222222222222,-0.6522222222222223,-0.13222506855246066,-0.06611253427623033,0.029443732861884835
1589996889.2336123,-0.03,-4.607415800042447,8.61775259987266,0.3922222222222223,0.4922222222222222,-0.6522222222222223,-0.2015462507958794,-0.10884875026529313,0.0
1589996889.2436123,-0.03,-4.600568298695574,8.638295103913277,0.3922222222222223,0.4922222222222222,-0.6522222222222223,-0.07315560054201425,-0.0660518668473381,0.0
1589996889.2536123,-0.03,-4.584166692995482,8.678333385990964,0.38,0.4711111111111111,-0.6733333333333333,-0.010416337556475308,-0.07291633755647531,0.0
1589996889.2636123,-0.0345604630384959,-4.594560463038496,8.63527444353805,0.38,0.4711111111111111,-0.6733333333333333,0.005494212018801223,0.02850289399059939,0.05700578798119878
1589996889.2736123,-0.04,-4.58988533275274,8.585172000870891,0.38,0.4711111111111111,-0.6733333333333333,-0.0625,0.0625,0.125
1589996889.2836123,-0.04,-4.591413948052471,8.622827896104942,0.38,0.4711111111111111,-0.6733333333333333,-0.0625,0.09816858766397324,0.05366282467205352
1589996889.2936122,-0.03625369856051117,-4.588761095681534,8.658731507197444,0.38999013717197023,0.47610617969709623,-0.6654244747388569,0.007743151990415503,0.07817123200638966,0.0
1589996889.3036122,-0.03867665225447807,-4.578676652254478,8.678431130327363,0.4066666666666667,0.4844444444444445,-0.6522222222222223,0.125,0.018076358863495987,0.018076358863495987
1589996889.3136122,-0.05224065158609774,-4.584481303172195,8.61120325793049,0.4066666666666667,0.4844444444444445,-0.6522222222222223,0.07650407241311086,0.014004072413110864,0.03825203620655543
1589996889.3236122,-0.04,-4.565170121515368,8.556893495353824,0.4066666666666667,0.4844444444444445,-0.6522222222222223,-0.0215421729807005,-0.0409578270192995,0.0215421729807005
1589996889.3336122,-0.04,-4.597285808478455,8.60457161695691,0.4066666666666667,0.4844444444444445,-0.6522222222222223,-0.17053630299034248,0.01696369700965753,0.07946369700965752
1589996889.3436122,-0.04,-4.603564881474978,8.639652677787533,0.404521627158326,0.48229940493610385,-0.6475746366208175,-0.20978050921861283,-0.0625,-0.02010974539069359
1589996889.3536122,-0.04,-4.5794910374291815,8.665254481285409,0.4,0.4777777777777778,-0.6377777777777778,0.006362032135228013,0.03602152410142101,0.03602152410142101
1589996889.3636122,-0.04623893933679538,-4.582477878673591,8.620088485305637,0.4,0.4777777777777778,-0.6377777777777778,0.08600662914502888,-0.030973483419884512,0.008019887435086595
1589996889.3736122,-0.05,-4.59,8.604698711662666,0.4,0.4777777777777778,-0.6377777777777778,-0.029366947891657932,-0.15562231596388598,-0.0012553680722280497
1589996889.3836122,-0.04662627130783555,-4.59,8.623373728692163,0.4,0.4777777777777778,-0.6377777777777778,-0.125,-0.14532839134794442,0.04141419567397221
1589996889.3936121,-0.035863145627652325,-4.594136854372348,8.63,0.3967824465992852,0.48053568069267627,-0.6405356806926763,-0.125,-0.0625,0.05171067965434596
1589996889.4036121,-0.05011586570111916,-4.58994206714944,8.61994206714944,0.3922222222222223,0.4844444444444445,-0.6444444444444445,-0.06213791968400263,0.0003620803159973679,0.030706879526003955
1589996889.4136121,-0.04490733166616029,-4.58627316708346,8.5786341645827,0.3922222222222223,0.4844444444444445,-0.6444444444444445,-0.07841458854324912,-0.05512188281487368,-0.02329270572837544
1589996889.423612,-0.04318339714495804,-4.570224904282562,8.579775095717437,0.3922222222222223,0.4844444444444445,-0.6444444444444445,-0.08380188392200613,-0.08380188392200613,-0.04119811607799387
1589996889.433612,-0.055313583653380065,-4.5759407509601395,8.61125433461352,0.3922222222222223,0.4844444444444445,-0.6444444444444445,-0.0625,-0.1289197956672508,-0.0625
1589996889.443612,-0.054199026612819716,-4.57839805322564,8.65320389354872,0.3967340904122514,0.4921790756273515,-0.6489563126344736,-0.09875608366987677,-0.042475665320492906,-0.026243916330123226
1589996889.453612,-0.04441983359568248,-4.581160332808635,8.653259500787048,0.4,0.4977777777777778,-0.6522222222222223,-0.05524791994603104,0.02762395997301552,0.0
1589996889.463612,-0.04,-4.585118208653565,8.600945669228519,0.4,0.4977777777777778,-0.6522222222222223,0.03051119591521953,-0.06102239183043906,-0.03051119591521953
1589996889.473612,-0.044599469066001984,-4.584599469066002,8.58299734533001,0.4,0.4977777777777778,-0.6522222222222223,0.005006636674975175,-0.06750663667497517,-0.09124668166251242
1589996889.483612,-0.05,-4.59,8.622503679236027,0.4,0.4977777777777778,-0.6522222222222223,-0.0312408019099323,0.01562959904503385,-0.0624816038198646
1589996889.493612,-0.05,-4.59,8.656796611832423,0.4,0.4977777777777778,-0.6522222222222223,0.05449152958105766,0.05849576479052883,0.10898305916211531
1589996889.503612,-0.03201400095956732,-4.597985999040432,8.654028001919135,0.3922222222222223,0.4777777777777778,-0.6444444444444445,-0.049912494002704234,0.11241249400270423,0.11241249400270423
1589996889.513612,-0.04,-4.584387518448239,8.649420900976878,0.3922222222222223,0.4777777777777778,-0.6444444444444445,0.0,0.039114660200997964,0.07419266989950102
1589996889.523612,-0.043540717593464104,-4.567081435186928,8.574162870373856,0.3922222222222223,0.4777777777777778,-0.6444444444444445,0.022129484959150635,0.02601793983660254,0.125
1589996889.533612,-0.05,-4.582228452933789,8.611142264668944,0.3922222222222223,0.4777777777777778,-0.6444444444444445,0.006788676655276146,0.1875,0.09714433832763808
1589996889.543612,-0.04653891296496931,-4.583077825929939,8.656922174070061,0.39491417880502394,0.48277712571726655,-0.6521357489667349,-0.1875,0.1442364120621163,0.021631793968941857
1589996889.553612,-0.04787961613216715,-4.5896990403304185,8.65818057580175,0.4,0.4922222222222222,-0.6666666666666666,-0.0890047983479106,0.11174760082604471,0.0132523991739553
1589996889.563612,-0.05486033519553073,-4.594301675977654,8.588603351955307,0.4,0.4922222222222222,-0.6666666666666666,0.09462290502793297,0.12325418994413408,0.0017458100558659234
1589996889.573612,-0.05534671486715373,-4.57,8.566733574335768,0.4,0.4922222222222222,-0.6666666666666666,0.0915830320802892,-0.0377509037591324,0.0959169679197108
1589996889.583612,-0.0557595084950363,-4.565759508495036,8.611202457524818,0.4,0.4922222222222222,-0.6666666666666666,-0.043512287624092386,-0.04549078428193071,0.125
1589996889.593612,-0.05,-4.567500187955792,8.647500187955794,0.397083260239414,0.49430560776549803,-0.6612498642541497,-0.23437617472370498,0.03906191263814751,0.125
1589996889.603612,-0.05,-4.568971510716152,8.665514244641924,0.3922222222222223,0.4977777777777778,-0.6522222222222223,-0.174643883951908,0.068928058024046,0.090535970987977
1589996889.613612,-0.05,-4.576651240185117,8.60339503925953,0.3922222222222223,0.4977777777777778,-0.6522222222222223,-0.0625,0.09030991628100463,0.027809916281004626
