time,acc_x,acc_y,acc_z,mag_x,mag_y,mag_z,gyr_x,gyr_y,gyr_z
1589997121.8052108,-4.12,-0.91,8.92,0.3388888888888889,-0.29444444444444445,-0.5777777777777777,-0.1875,-0.0625,0.125
1589997121.8152108,-4.1395156337241765,-0.8514530988274707,8.900484366275824,0.3388888888888889,-0.29444444444444445,-0.5777777777777777,-0.24848635538805136,-0.0015136446119486321,0.30795906616415414
1589997121.8252108,-4.149871841285932,-0.8894873651437261,8.821025269712548,0.3388888888888889,-0.29444444444444445,-0.5777777777777777,-0.25,0.1850970241112157,0.6209950401853594
1589997121.8352108,-4.086197207510833,-0.9617781415503129,8.883802792489167,0.3388888888888889,-0.29444444444444445,-0.5777777777777777,-0.4493837265286471,0.13765406836783822,0.6748459316321618
1589997121.8452108,-4.0536174094344535,-0.9881912952827729,8.940956476413865,0.3388888888888889,-0.29444444444444445,-0.5777777777777777,-0.03923964034401878,0.17619559551733124,0.6875
1589997121.8552108,-4.0711407263728185,-0.9788592736271821,9.008098789378638,0.3511111111111111,-0.29444444444444445,-0.5911111111111111,0.1779939468931844,0.25,0.3077469734465922
1589997121.8652108,-4.092180957795465,-0.9578190422045347,8.973031737007558,0.3511111111111111,-0.29444444444444445,-0.5911111111111111,0.002658685037790126,0.25,0.22007934251889505
1589997121.8752108,-4.127808532339183,-0.9314609784405444,8.895113424541906,0.3511111111111111,-0.29444444444444445,-0.5911111111111111,0.1113033271198959,0.25,0.07163111525340274
1589997121.8852108,-4.122652105796701,-0.93,8.8973478942033,0.3511111111111111,-0.29444444444444445,-0.5911111111111111,-0.05869735508248089,-0.07147037139434154,0.20027301631186067
1589997121.8952107,-4.139094941094942,-0.9109050589050589,8.925459921459922,0.3511111111111111,-0.29444444444444445,-0.5911111111111111,-0.20456225456225458,-0.1477188727188727,0.40912450912450915
1589997121.9052107,-4.132327991188833,-0.9294533480186113,8.934109330396277,0.35569274302511733,-0.2977170386687346,-0.5858749603522468,-0.36045005506979255,-0.19863337004652837,0.5368166850232642
1589997121.9152107,-4.092063835648786,-0.968624109567476,8.911375890432524,0.3588888888888889,-0.3,-0.5822222222222222,-0.08829794560982329,-0.3664006847967256,0.7371010271950884
1589997121.9252107,-4.070730140466945,-0.9796349297665277,8.813650702334725,0.3588888888888889,-0.3,-0.5822222222222222,-0.12271831104079775,-0.3147816889592023,0.509126755836809
1589997121.9352107,-4.060802766906344,-0.98,8.911169564030217,0.3588888888888889,-0.3,-0.5822222222222222,-0.125,-0.08256917265859653,0.27006917265859653
1589997121.9452107,-4.067722849905513,-0.9568314502834626,8.958614249527562,0.3588888888888889,-0.3,-0.5822222222222222,-0.028464376181094445,-0.0625,0.15346437618109443
1589997121.9552107,-4.089351494848619,-0.95,8.999027242272929,0.3513633075588704,-0.3,-0.5908228865993862,0.0,-0.12297342140193414,-0.17736710700967068
1589997121.9652107,-4.099507179701659,-0.95,9.038028718806634,0.3511111111111111,-0.3,-0.5911111111111111,0.29709936567684375,-0.18441987313536876,-0.0686602537292625
1589997121.9752107,-4.080472881189094,-0.9597635594054532,8.851182202972733,0.3511111111111111,-0.3,-0.5911111111111111,0.24408898513633231,-0.005911014863667684,0.0
1589997121.9852107,-4.096987498769564,-0.951506250615218,8.89246874692391,0.3511111111111111,-0.3,-0.5911111111111111,0.037656265380450804,-0.2123437346195492,0.0
1589997121.9952106,-4.094308570669853,-0.9443085706698532,8.9,0.3511111111111111,-0.3,-0.5911111111111111,-0.035571433313416986,-0.17885713337316603,-0.07114286662683397
1589997122.0052106,-4.09,-0.94,8.888744762508363,0.3592398937439605,-0.2968735451412118,-0.5742282548736547,-0.027327382838632445,-0.16017261716136755,-0.05465476567726489
1589997122.0152106,-4.103331978686896,-0.94,8.886665989343449,0.3655555555555556,-0.29444444444444445,-0.5611111111111111,-0.12498730018965051,-0.1875,0.12498730018965051
1589997122.0252106,-4.09,-0.960008741414682,8.860043707073409,0.3655555555555556,-0.29444444444444445,-0.5611111111111111,-0.062281464632949785,-0.18706292926589957,0.125
1589997122.0352106,-4.09,-0.9674912139862635,8.897456069931318,0.3655555555555556,-0.29444444444444445,-0.5611111111111111,0.1247803496565873,0.1870606993131746,0.125
1589997122.0452106,-4.096943268416596,-0.97,8.993319220999153,0.3655555555555556,-0.29444444444444445,-0.5611111111111111,0.23089542760372567,0.44268628281117695,0.125
1589997122.0552106,-4.093638312927504,-0.9636383129275039,9.036361687072496,0.34434993198056857,-0.302219839755273,-0.5745413393752695,0.36928163260930164,0.3409578231875978,-0.03404217681240218
1589997122.0652106,-4.109260430323128,-0.940739569676872,9.030369784838435,0.3322222222222222,-0.30666666666666664,-0.5822222222222222,0.5578776895195496,0.3101888447597748,0.11575537903909924
1589997122.0752106,-4.127356908417152,-0.9226430915828481,8.89982318687136,0.3322222222222222,-0.30666666666666664,-0.5822222222222222,0.4540193223928004,0.3667403388035998,0.0707596611964002
1589997122.0852106,-4.121121334958096,-0.9111213349580961,8.853364004874289,0.3322222222222222,-0.30666666666666664,-0.5822222222222222,0.16004171744050133,0.09754171744050133,0.0625
1589997122.0952106,-4.090547020987825,-0.9247264895060879,8.835273510493913,0.3322222222222222,-0.30666666666666664,-0.5822222222222222,-0.1051013985326226,-0.07556083911957356,-0.029540559413049033
1589997122.1052105,-4.0890450381921335,-0.9390450381921334,8.8571351145764,0.3452872773886371,-0.30666666666666664,-0.5902622561707852,-0.24403148870083358,-0.125,0.1070944661025007
1589997122.1152105,-4.0992262116364495,-0.9492262116364498,8.88767863490935,0.3466666666666667,-0.30666666666666664,-0.5911111111111111,-0.07700853181656594,-0.297991468183434,0.009672354544377287
1589997122.1252105,-4.1,-0.9773143287587391,8.908209552505827,0.3466666666666667,-0.30666666666666664,-0.5911111111111111,-0.0625,-0.3694048515807067,-0.05690485158070667
1589997122.1352105,-4.10907231208373,-0.9709276879162702,9.000723120837298,0.3466666666666667,-0.30666666666666664,-0.5911111111111111,0.2777117031398668,-0.4317019505233111,0.05090390104662226
1589997122.1452105,-4.099147934732999,-0.9537219020994979,9.020852065267,0.3466666666666667,-0.30666666666666664,-0.5911111111111111,0.48206351979689643,-0.4375,0.0625
1589997122.1552105,-4.096971686789522,-0.936514156605239,9.033485843394761,0.34821593039767157,-0.30240619140640324,-0.5783296853303208,0.4942808726964626,-0.3503539151309751,0.0625
1589997122.1652105,-4.095476671337895,-0.93,8.991588904459649,0.3511111111111111,-0.29444444444444445,-0.5544444444444444,0.12897226114912208,-0.15724306528728052,0.0019861305745610403
1589997122.1752105,-4.086334756874204,-0.936334756874204,8.85764816063535,0.3511111111111111,-0.29444444444444445,-0.5544444444444444,0.07918446092754926,-0.08540776953622536,0.056276691391323894
1589997122.1852105,-4.084418196966015,-0.94,8.793254590898046,0.3511111111111111,-0.29444444444444445,-0.5544444444444444,0.020341193112785094,-0.027613731037595034,0.05522746207519007
1589997122.1952105,-4.085040968570381,-0.9500819371407606,8.79512290571114,0.3511111111111111,-0.29444444444444445,-0.5544444444444444,-0.0625,-0.031506053564877096,-0.031506053564877096
1589997122.2052104,-4.084623680635385,-0.954623680635385,8.847634235552304,0.3487216358379489,-0.2974312885358972,-0.5693786649017081,-0.1297039920576863,-0.028898003971156855,-0.0625
1589997122.2152104,-4.095965364478453,-0.95,8.959826822392268,0.3466666666666667,-0.3,-0.5822222222222222,-0.1875,0.049891763995167135,-0.0625
1589997122.2252104,-4.091280513716417,-0.9412805137164172,8.971280513716417,0.3466666666666667,-0.3,-0.5822222222222222,-0.13300321072760754,-0.04649357854478493,-0.008003210727607533
1589997122.2352104,-4.098329873862366,-0.94,9.019979243174197,0.3466666666666667,-0.3,-0.5822222222222222,0.08324684655915696,-0.0625,0.05206171163978924
1589997122.2452104,-4.1,-0.9537926775825664,9.036896338791282,0.3466666666666667,-0.3,-0.5822222222222222,0.21120423489104018,-0.0625,0.14870423489104018
1589997122.2552104,-4.091492835936491,-0.96,8.988957015618949,0.35706431163317703,-0.3,-0.5897841458342298,0.25,0.04383955079385568,0.08116044920614432
1589997122.2652104,-4.09665139740482,-0.9466972051903607,8.900183231142165,0.3588888888888889,-0.3,-0.5911111111111111,0.25,0.020928766219877375,-0.02064246756024525
1589997122.2752104,-4.091846765958945,-0.94,8.754007957466287,0.3588888888888889,-0.3,-0.5911111111111111,0.19904228724340692,0.10191542551318615,-0.011542287243406925
1589997122.2852104,-4.107115407037754,-0.94,8.73,0.3588888888888889,-0.3,-0.5911111111111111,-0.026442587971923615,0.018028706014038193,0.0
1589997122.2952104,-4.103109282562195,-0.9331092825621953,8.840251479004875,0.3588888888888889,-0.3,-0.5911111111111111,-0.1486339679725589,0.0,0.12920095195883838
1589997122.3052104,-4.1,-0.9407428143276375,8.927599850146732,0.3588888888888889,-0.3,-0.5911111111111111,-0.1875,0.06714258954773451,0.12035741045226549
1589997122.3152103,-4.086828583524588,-0.9456095278415294,8.981952360792354,0.3588888888888889,-0.3,-0.5911111111111111,-0.16005954900955904,0.20732135297132287,0.035059549009559036
1589997122.3252103,-4.083337575564747,-0.9466687877823735,8.983324848870506,0.3588888888888889,-0.3,-0.5911111111111111,-0.16667992363983455,0.3125,0.041679923639834554
1589997122.3352103,-4.097625224324754,-0.957625224324754,9.023376570273278,0.3588888888888889,-0.3,-0.5911111111111111,-0.1875,0.4554729560891393,0.014842347970286912
1589997122.3452103,-4.118569182080868,-0.9538102726397106,9.04618972736029,0.3588888888888889,-0.3,-0.5911111111111111,-0.14881420399819156,0.5773715920036169,0.0
1589997122.3552103,-4.122188441428027,-0.9343768828560546,8.971884414280272,0.34934142841203336,-0.3,-0.6023944734928495,0.2167556875238062,0.42971103570068214,0.09764448214965893
1589997122.3652103,-4.126617439441224,-0.93,8.877208166146529,0.3466666666666667,-0.3,-0.6055555555555555,0.1884230104770397,0.375,0.08364100349234656
1589997122.3752103,-4.124740970529581,-0.9352590294704188,8.771632616884556,0.3466666666666667,-0.3,-0.6055555555555555,-0.0064757367604697524,0.1777863948592954,-0.0032378683802348762
1589997122.3852103,-4.12,-0.94,8.743059274037844,0.3466666666666667,-0.3,-0.6055555555555555,-0.24897227764191016,-0.08264818509460678,-0.02117590745269661
1589997122.3952103,-4.101031338687277,-0.9336771128957592,8.797937322625446,0.3466666666666667,-0.3,-0.6055555555555555,-0.3915360888030111,-0.24355413320451663,-0.039518044401505546
1589997122.4052103,-4.082122845544686,-0.9378771544553137,8.94603447128502,0.35629429988982797,-0.3052514363035425,-0.5985536404841656,-0.4375,-0.5586610767285553,0.08519664603713314
1589997122.4152102,-4.086122051988294,-0.952244103976588,9.016732311929763,0.3588888888888889,-0.30666666666666664,-0.5966666666666667,-0.3992371750731623,-0.510211525219487,0.125
1589997122.4252102,-4.09,-0.9741795077776966,8.99746147666691,0.3588888888888889,-0.30666666666666664,-0.5966666666666667,-0.330689038194698,-0.393189038194698,0.08068903819469803
1589997122.4352102,-4.097695600960449,-0.9723043990395506,9.026173605762695,0.3588888888888889,-0.30666666666666664,-0.5966666666666667,-0.07201246998595567,-0.13451246998595567,0.014402493997191138
1589997122.4452102,-4.088110697378515,-0.9640553486892577,9.034055348689257,0.3588888888888889,-0.30666666666666664,-0.5966666666666667,0.14861628276855715,0.16042442415283575,0.0
1589997122.4552102,-4.088652594284251,-0.9556737028578746,9.008368514289373,0.3536011923818468,-0.30137897015962456,-0.5966666666666667,0.30407871427656713,0.2313819285851493,0.0
1589997122.4652102,-4.104055980987589,-0.9418880380248218,8.971888038024822,0.3466666666666667,-0.29444444444444445,-0.5966666666666667,0.273600475310272,0.07430023765513599,0.025349881172432004
1589997122.4752102,-4.105737722896059,-0.93,8.879016735025115,0.3466666666666667,-0.29444444444444445,-0.5966666666666667,0.07172153620073257,0.05327846379926743,0.009221536200732572
1589997122.4852102,-4.1,-0.93,8.775127180586686,0.3466666666666667,-0.29444444444444445,-0.5966666666666667,-0.12817951466718644,0.028865363999610177,-0.09454487866679662
1589997122.4952102,-4.1,-0.952525237746891,8.830681784930505,0.3466666666666667,-0.29444444444444445,-0.5966666666666667,-0.25,-0.16808705193855158,-0.05460863204096561
1589997122.5052102,-4.074599668024747,-0.9509497510185604,8.876350082993813,0.36360022131683517,-0.2902110557819023,-0.5846720654561306,-0.051559906443337855,-0.44844009355666214,-0.03968801871133243
1589997122.5152102,-4.0839712495984575,-0.9579784371988436,8.939928123996145,0.37333333333333335,-0.2877777777777778,-0.5777777777777777,0.17486523249277225,-0.4875898450048185,0.0124101549951815
1589997122.5252101,-4.091510658016682,-0.965755329008341,8.963021316033364,0.37333333333333335,-0.2877777777777778,-0.5777777777777777,0.1969416126042632,-0.22526645041705282,0.0625
1589997122.5352101,-4.098411470186618,-0.9553971324533455,8.976822940373236,0.37333333333333335,-0.2877777777777778,-0.5777777777777777,0.1825358443331816,0.12003584433318161,0.0912679221665908
1589997122.5452101,-4.104124116860798,-0.9394160779071988,9.014708038953598,0.37333333333333335,-0.2877777777777778,-0.5777777777777777,0.3822990261600153,0.28672426962001146,0.025775730379988537
1589997122.55521,-4.095607564551706,-0.93,8.998784870896587,0.350280012398541,-0.29151615414558196,-0.6014541614405374,0.32476360775917995,0.269858164655508,0.007594556896328014
1589997122.56521,-4.1,-0.9346417598221873,8.957507681244689,0.3322222222222222,-0.29444444444444445,-0.62,0.07145600444531608,0.12947800222265804,0.09151099888867098
1589997122.57521,-4.103640520017493,-0.936359479982507,8.865392199737606,0.3322222222222222,-0.29444444444444445,-0.62,-0.0852532501093309,0.0852532501093309,0.05674024967200732
1589997122.58521,-4.103221432676733,-0.9435571346465332,8.803892836616333,0.3322222222222222,-0.29444444444444445,-0.62,-0.33683022885208214,-0.002098137311249304,-0.02013395422958357
1589997122.59521,-4.1,-0.9444053354493755,8.842378658202497,0.3322222222222222,-0.29444444444444445,-0.62,-0.36756669311719475,-0.0625,0.1048999603242079
1589997122.60521,-4.1,-0.9512622063669619,8.893786619100885,0.34285875045768627,-0.30132690389092115,-0.5962242310030803,-0.3125,0.04308318469026817,0.011528025516219731
1589997122.61521,-4.106761602597211,-0.96,8.953808012986055,0.3511111111111111,-0.30666666666666664,-0.5777777777777777,-0.1857199513022947,0.04047996753486313,0.0017800486977052887
1589997122.62521,-4.11,-0.96,8.958802023543146,0.3511111111111111,-0.30666666666666664,-0.5777777777777777,-0.055012647144663876,0.10498102928300418,-0.04248102928300418
1589997122.63521,-4.103978373998941,-0.947956747997881,8.992151382007416,0.3511111111111111,-0.30666666666666664,-0.5777777777777777,0.11290548751986539,0.1498648374933782,0.02554065002648717
1589997122.64521,-4.09446302165373,-0.94,9.03661093503881,0.3511111111111111,-0.30666666666666664,-0.5777777777777777,0.11828777067162621,0.2634244586567476,0.125
1589997122.65521,-4.107959647811819,-0.94,8.990134507293934,0.34379421755814754,-0.2993497731137031,-0.5804384663424917,-0.012331865882582269,0.2627522011761266,0.012752201176126576
1589997122.66521,-4.106131746068943,-0.94,8.880658730344715,0.3388888888888889,-0.29444444444444445,-0.5822222222222222,-0.10583829353455346,0.14416170646544654,-0.019161706465446536
1589997122.67521,-4.106544811320755,-0.94,8.76491745283019,0.3388888888888889,-0.29444444444444445,-0.5822222222222222,-0.32952535377358494,-0.03862028301886791,-0.08181014150943396
1589997122.68521,-4.096798971874845,-0.9333994859374228,8.786005140625774,0.3388888888888889,-0.29444444444444445,-0.5822222222222222,-0.5200064257822155,-0.24875963867332312,-0.04249357421778459
1589997122.69521,-4.09,-0.9419886017267534,8.859962005755845,0.3388888888888889,-0.29444444444444445,-0.5822222222222222,-0.5625,-0.2875237464025972,0.0
1589997122.70521,-4.09,-0.959827324666487,8.919424415554957,0.3388888888888889,-0.29444444444444445,-0.5822222222222222,-0.5625,-0.2503597402781519,0.0
1589997122.71521,-4.1,-0.9768585541416478,9.041990121008464,0.3466666666666667,-0.3,-0.5911111111111111,-0.3196957803117942,-0.457134036614701,-0.0625
1589997122.72521,-4.1,-0.964382187423538,9.065656145501999,0.3466666666666667,-0.3,-0.5911111111111111,0.007722657205774405,-0.5,-0.10931510480384961
1589997122.73521,-4.0961466556969555,-0.94,8.96770668860609,0.3466666666666667,-0.3,-0.5911111111111111,0.3125,-0.4759165981059744,-0.21616639242389762
1589997122.74521,-4.0921505274759875,-0.937849472524012,8.982150527475989,0.3466666666666667,-0.3,-0.5911111111111111,0.2856184065501496,-0.38373681310029917,-0.04905920327507479
1589997122.75521,-4.09642447418738,-0.93,8.954244741873806,0.3438857021457404,-0.3,-0.5887274272360314,0.1875,-0.09811185468451243,0.0
1589997122.76521,-4.09,-0.9378008441135093,8.858796623545963,0.3388888888888889,-0.3,-0.5844444444444444,0.1143670864358508,0.0381223621452836,-0.0243776378547164
1589997122.77521,-4.09,-0.9557376543209876,8.781311728395062,0.3388888888888889,-0.3,-0.5844444444444444,-0.07172067901234568,0.0,-0.0625
1589997122.78521,-4.083860524632118,-0.9538605246321177,8.78455790147153,0.3388888888888889,-0.3,-0.5844444444444444,-0.2401151631477927,-0.038371721049264236,-0.024128278950735764
1589997122.79521,-4.09508819894386,-0.95,8.89052919366316,0.3388888888888889,-0.3,-0.5844444444444444,-0.3125,-0.031066252200292126,-0.031433747799707874
1589997122.8052099,-4.11,-0.9600844793713162,9.020337917485266,0.35625660336171144,-0.2938372626064178,-0.5878059375682165,-0.2809860019646365,-0.06302799607072691,0.0005279960707269132
1589997122.8152099,-4.11,-0.97,9.088324737910044,0.37333333333333335,-0.2877777777777778,-0.5911111111111111,-0.1791881552248901,-0.125,0.0625
1589997122.8252099,-4.11,-0.97,9.044603342252264,0.37333333333333335,-0.2877777777777778,-0.5911111111111111,0.0007628033610289631,-0.06211859831948552,-0.00038140168051448153
1589997122.8352098,-4.104385120705036,-0.9587702414100727,8.946310724230218,0.37333333333333335,-0.2877777777777778,-0.5911111111111111,0.30046497796761373,-0.0701859911870455,0.007685991187045493
1589997122.8452098,-4.096420639559155,-0.946420639559155,8.916420639559155,0.37333333333333335,-0.2877777777777778,-0.5911111111111111,0.3927579944894381,-0.08025799448943809,0.08487100275528095
1589997122.8552098,-4.090584036069132,-0.9405840360691324,8.910584036069134,0.37333333333333335,-0.2877777777777778,-0.5911111111111111,0.3198004508641563,-0.007300450864156302,0.12134977456792184
1589997122.8652098,-4.105114144022296,-0.95,8.867785360055741,0.3466666666666667,-0.3144444444444445,-0.5966666666666667,0.17223170006967498,0.1875,0.015268299930325012
1589997122.8752098,-4.095486840680169,-0.95,8.826342106213222,0.3466666666666667,-0.3144444444444445,-0.5966666666666667,0.11356908191631467,0.21036183616737067,0.051069081916314665
1589997122.8852098,-4.12,-0.95,8.84165112551905,0.3466666666666667,-0.3144444444444445,-0.5966666666666667,0.08447994827711809,0.20260025861440956,-0.021979948277118088
1589997122.8952098,-4.114560496085043,-0.9481868320283476,8.903626335943304,0.3466666666666667,-0.3144444444444445,-0.5966666666666667,0.1589968994684803,-0.0793260987597874,-0.05116770017717323
1589997122.9052098,-4.092719610490569,-0.9427196104905691,8.963513767849106,0.34787538244025296,-0.3105161181802891,-0.5891121930817524,0.295502434433943,-0.3865073033018289,-0.016997565566057034
1589997122.9152098,-4.1,-0.9476764168190127,9.075352833638025,0.3511111111111111,-0.3,-0.5688888888888889,0.3226119744058501,-0.26452239488117,-0.01893281535648994
1589997122.9252098,-4.1,-0.9474787575865762,9.007648696893966,0.3511111111111111,-0.3,-0.5688888888888889,0.5858711174580506,-0.2657577650838986,0.03151553016779721
1589997122.9352098,-4.1,-0.9543912493367617,8.905978123341905,0.3511111111111111,-0.3,-0.5688888888888889,0.5198359250642831,-0.2050273458226195,-0.08994530835476103
1589997122.9452097,-4.096082529043069,-0.94,8.862165058086138,0.3511111111111111,-0.3,-0.5688888888888889,0.25,-0.3724209674040894,-0.04896838696163576
1589997122.9552097,-4.091727149153519,-0.94,8.84827285084648,0.3503434892651023,-0.3,-0.5688888888888889,0.2284106355810026,-0.6596521398854883,-0.1034106355810026
1589997122.9652097,-4.1,-0.94,8.877384983752352,0.3466666666666667,-0.3,-0.5688888888888889,0.09162055022111462,-1.225138349336656,-0.033379449778885385
1589997122.9752097,-4.089509001261323,-0.94,8.889018002522645,0.3466666666666667,-0.3,-0.5688888888888889,0.029715628941635132,-1.3780687421167297,-0.09528437105836488
1589997122.9852097,-4.069606272203846,-0.9451968638980767,8.911574911184612,0.3466666666666667,-0.3,-0.5688888888888889,0.2598431949038344,-1.5674215974519172,-0.027558801911062122
1589997122.9952097,-4.052704322408922,-0.9427043224089224,8.960943516386616,0.3466666666666667,-0.3,-0.5688888888888889,0.5227989924721175,-1.641902015055765,0.08529899247211745
1589997123.0052097,-4.044337105555714,-0.9308674211111428,8.986071947778,0.3477268480247301,-0.3,-0.5712983919753967,0.5462358541660728,-1.4866006527750064,0.1033144722214304
1589997123.0152097,-4.0866065983761,-0.94,9.029639590256604,0.3588888888888889,-0.3,-0.5966666666666667,0.29016495940251463,-0.4542036383569153,-0.04016495940251465
1589997123.0252097,-4.08441652860345,-0.94,8.941418185362052,0.3588888888888889,-0.3,-0.5966666666666667,0.2354132150862489,0.027603303771562226,0.125
1589997123.0352097,-4.082124496564795,-0.94,8.872124496564796,0.3588888888888889,-0.3,-0.5966666666666667,0.3996109482350154,0.0132781035299692,0.07577810352996919
1589997123.0452096,-4.07,-0.927746623549553,8.847746623549552,0.3588888888888889,-0.3,-0.5966666666666667,0.28433279436941217,0.06513933802548982,0.025527867605097967
1589997123.0552096,-4.0721720408572,-0.9165161225716002,8.8365161225716,0.36299163273026686,-0.2973452833967555,-0.590633219841111,0.008198978569997996,0.222849489284999,0.0625
1589997123.0652096,-4.081140235387991,-0.94,8.866841412327947,0.37777777777777777,-0.2877777777777778,-0.5688888888888889,-0.20887941352483544,0.11074705765010971,0.0625
1589997123.0752096,-4.086517135495711,-0.94,8.902585677478559,0.37777777777777777,-0.2877777777777778,-0.5688888888888889,-0.375,-0.043535806303603576,0.040732096848198215
1589997123.0852096,-4.081919365954514,-0.9457580978635424,8.894951757408682,0.37777777777777777,-0.2877777777777778,-0.5688888888888889,-0.3390118883528601,-0.1010079255685734,0.011996037215713302
1589997123.0952096,-4.0825359982806795,-0.9662679991403396,9.01492800343864,0.37777777777777777,-0.2877777777777778,-0.5688888888888889,-0.11752498388136687,0.09330002149151086,0.03917499462712229
1589997123.1052096,-4.07245962600935,-0.9575403739906502,9.047378878028049,0.36821256551919535,-0.29078398734476085,-0.5743547244652217,0.0768633127921802,0.28074532511687206,0.0
1589997123.1152096,-4.075110216644963,-0.9402204332899254,8.996653249674441,0.3388888888888889,-0.3,-0.5911111111111111,0.3125,0.375,0.09168343790694922
1589997123.1252096,-4.065260045630209,-0.93,8.8678605019323,0.3388888888888889,-0.3,-0.5911111111111111,0.3125,0.5823730036783537,0.1875
1589997123.1352096,-4.068187453718396,-0.9259062731408019,8.818187453718396,0.3388888888888889,-0.3,-0.5911111111111111,0.1078136570400931,0.9916005500899185,0.16191420713001164
1589997123.1452096,-4.088765961878971,-0.92,8.838765961878972,0.3388888888888889,-0.3,-0.5911111111111111,-0.42491146755546294,1.3960993646495157,0.14326242058118946
1589997123.1552095,-4.114016945305999,-0.9260254179589984,8.874059308570995,0.34045103428566625,-0.29598305469400105,-0.5911111111111111,-1.1004236326499734,1.7248940918375066,0.17494704591875332
1589997123.1652095,-4.1267458175930924,-0.95,8.926745817593092,0.3466666666666667,-0.28,-0.5911111111111111,-1.3983067997841339,1.3809363194819213,0.14533864004317323
1589997123.1752095,-4.105202021405926,-0.95,8.89533670234321,0.3466666666666667,-0.28,-0.5911111111111111,-0.9408670234320994,0.4742214130771614,0.12584175585802485
1589997123.1852095,-4.09,-0.95,8.942808870116156,0.3466666666666667,-0.28,-0.5911111111111111,-0.5452951755543822,-0.02282289466737064,0.0056180702217529035
1589997123.1952095,-4.093279164359234,-0.95,9.033279164359232,0.3466666666666667,-0.28,-0.5911111111111111,-0.375,-0.04302089101915328,-0.02151044550957664
1589997123.2052095,-4.097312998984609,-0.95,9.041343500507695,0.3466666666666667,-0.28194061184444846,-0.587080609588026,-0.34980936548071756,0.15019063451928247,0.037309365480717546
1589997123.2152095,-4.080611623230533,-0.95,9.049694188384734,0.3466666666666667,-0.2940027165557259,-0.5620285459569112,-0.19323396778625043,0.30676603221374954,-0.11926603221374957
1589997123.2252095,-4.1049698819899225,-0.95,8.97775600308566,0.3466666666666667,-0.29444444444444445,-0.5611111111111111,-0.3435617624370148,0.234845593907463,-0.07840735634447782
1589997123.2352095,-4.1187381620627965,-0.95,8.86072562246623,0.3466666666666667,-0.29444444444444445,-0.5611111111111111,-0.4296135128924779,0.019716217768805278,0.05067026933871682
1589997123.2452095,-4.08,-0.937477600988646,8.835044798022707,0.3466666666666667,-0.29444444444444445,-0.5611111111111111,-0.4065299876419248,-0.5152050185371129,-0.015764993820962386
1589997123.2552094,-4.078946610363678,-0.932106779272644,8.856320337817932,0.34584736361619406,-0.29444444444444445,-0.5619304141615837,-0.49341631477298764,-0.36183262954597534,-0.0625
1589997123.2652094,-4.0768194334251175,-0.946590283287441,8.906590283287441,0.3388888888888889,-0.29444444444444445,-0.5688888888888889,-0.35225708218602697,-0.18606781163952024,-0.019878541093013492
1589997123.2752094,-4.086312276263021,-0.947375447473959,8.877873657578123,0.3388888888888889,-0.29444444444444445,-0.5688888888888889,-0.14140345328775603,-0.0625,0.03945172664387801
1589997123.2852094,-4.076849914821125,-0.96,8.880951107325384,0.3388888888888889,-0.29444444444444445,-0.5688888888888889,-0.042811967632027256,-0.02312393526405452,0.01968803236797274
1589997123.2952094,-4.071829306888913,-0.96,8.97503059394451,0.3388888888888889,-0.29444444444444445,-0.5688888888888889,0.01714975208355312,0.07393316805570208,0.05678341597214896
1589997123.3052094,-4.108700575166347,-0.9574011503326942,9.078700575166348,0.3398995526483967,-0.2917012142400662,-0.5706214553337594,0.3587571895793391,0.2962571895793391,-0.05437859478966956
1589997123.3152094,-4.101261939543769,-0.94,9.064952241824924,0.3466666666666667,-0.2733333333333333,-0.5822222222222222,0.23422575570288798,0.1875,0.015774244297112033
1589997123.3252094,-4.105729329173167,-0.9357293291731669,8.957398595943838,0.3466666666666667,-0.2733333333333333,-0.5822222222222222,0.04492492199687988,0.1608083073322933,0.125
1589997123.3352094,-4.091975600529601,-0.9380243994703991,8.835926801588803,0.3466666666666667,-0.2733333333333333,-0.5822222222222222,-0.31326248344997165,0.22530499337998866,0.09992375165500283
1589997123.3452094,-4.0900423037408595,-0.943305130839427,8.81004230374086,0.3466666666666667,-0.2733333333333333,-0.5822222222222222,-0.8757931951411132,0.43776439838037107,0.08342146612679036
1589997123.3552094,-4.11,-0.9384615141357283,8.855384542407185,0.3466666666666667,-0.2792877321695866,-0.5847293375216973,-1.2852563088988678,0.5801281544494339,0.05448738220226425
1589997123.3652093,-4.096536981316913,-0.9465369813169128,8.888586289739463,0.3466666666666667,-0.29444444444444445,-0.5911111111111111,-1.2347602220511744,0.5969520444102349,-0.06890408882046976
1589997123.3752093,-4.077301241045898,-0.93,8.860795035816407,0.3466666666666667,-0.29444444444444445,-0.5911111111111111,-1.1468362173156854,0.7143051911682339,-0.03373448692627421
1589997123.3852093,-4.071119152197625,-0.93,8.885523391209505,0.3466666666666667,-0.29444444444444445,-0.5911111111111111,-1.340026493824249,1.0620476888836483,-0.1110105975296996
1589997123.3952093,-4.081049028794689,-0.92,9.005245143973445,0.3466666666666667,-0.29444444444444445,-0.5911111111111111,-1.2041049902323586,1.25,-0.2631128599336118
1589997123.4052093,-4.087710560170259,-0.92,9.038552800851294,0.3466666666666667,-0.29444444444444445,-0.5911111111111111,-0.9126629925511809,1.25,-0.34638200212823406
1589997123.4152093,-4.101290745529373,-0.9506453727646865,9.03806388170594,0.3388888888888889,-0.2877777777777778,-0.5911111111111111,-0.35483210110354374,0.983865680882835,-0.6290335797792913
1589997123.4252093,-4.130265833175475,-0.963421944391825,8.96209277851445,0.3388888888888889,-0.2877777777777778,-0.5911111111111111,0.02304860979562627,0.6430642377554672,-0.7088871524489065
1589997123.4352093,-4.15,-0.9759213441654357,8.866052437223042,0.3388888888888889,-0.2877777777777778,-0.5911111111111111,0.17516386632200887,0.41282773264401773,-0.6636470642540621
1589997123.4452093,-4.15,-0.9991541728212703,8.850563884785819,0.3388888888888889,-0.2877777777777778,-0.5911111111111111,0.12676213995568686,0.3160242799113737,-0.32483497968980796
1589997123.4552093,-4.149371342269209,-0.988742684538418,8.863143288653955,0.34133366895307615,-0.2881968829316385,-0.5902729008033898,0.12107088918255617,0.3632126675476685,-0.2928544459127808
1589997123.4652092,-4.140573280473223,-0.9711465609464477,8.90713359763388,0.37554835371524065,-0.29406225746229525,-0.5785421517420761,0.06608300295764899,0.19824900887294697,-0.01791501478824492
1589997123.4752092,-4.123065137593763,-0.9438697248124758,8.908544036843665,0.37777777777777777,-0.29444444444444445,-0.5777777777777777,0.04837156015594721,0.3125,0.4566571099610132
1589997123.4852092,-4.13,-0.9328840956861175,8.885956861175057,0.37777777777777777,-0.29444444444444445,-0.5777777777777777,-0.125,0.3846023921529377,0.5721023921529377
1589997123.4952092,-4.13,-0.9347328393135725,8.968435062402495,0.37777777777777777,-0.29444444444444445,-0.5777777777777777,-0.07562036856474258,0.5954197542901716,0.9804382800312013
1589997123.5052092,-4.118062247398402,-0.9133679152213348,9.022652833911465,0.3752723235280598,-0.29444444444444445,-0.5777777777777777,0.07079010597333163,0.6875,1.7327713776533114
1589997123.5152092,-4.016127609185261,-0.8665896584550372,9.022948292275187,0.3588888888888889,-0.29444444444444445,-0.5777777777777777,0.21025853862406835,0.6661853653439829,2.458814634656017
1589997123.5252092,-3.95462497732632,-0.86,8.956174950117903,0.3588888888888889,-0.29444444444444445,-0.5777777777777777,0.31734366497369854,0.5673436649736985,2.423124886631598
1589997123.5352092,-3.912633743969676,-0.8575445813232253,8.88,0.3588888888888889,-0.29444444444444445,-0.5777777777777777,0.1875,0.406807266540317,2.280692733459683
1589997123.5452092,-3.8776862780029395,-0.8469215695007348,8.88615686099853,0.3588888888888889,-0.29444444444444445,-0.5777777777777777,0.19712009531020352,0.3028799046897965,2.4134803812408143
1589997123.5552092,-3.812503380948356,-0.8283310793677626,8.92,0.3572199682566516,-0.29546434038636726,-0.5777777777777777,0.25,0.25,2.677153769757417
1589997123.5652092,-3.83909221536641,-0.8106051897557265,8.92,0.3394940786446154,-0.3062968284826116,-0.5777777777777777,0.25,0.25,3.2310878201335473
1589997123.5752091,-3.85,-0.8350285884751155,8.894857057624423,0.3388888888888889,-0.30666666666666664,-0.5777777777777777,0.09357132203052752,0.09321396609158256,3.9696433898473624
1589997123.5852091,-3.8206305337194872,-0.8842643773272651,8.82,0.3388888888888889,-0.30666666666666664,-0.5777777777777777,0.0,-0.24868638808440216,4.559872776168804
1589997123.5952091,-3.714253839466821,-1.0214923210663576,8.843619240799768,0.3388888888888889,-0.30666666666666664,-0.5777777777777777,0.04920675166618372,-0.42109774944460543,5.003109002221579
1589997123.605209,-3.355375640295959,-1.1514908224245874,8.966050085372794,0.346197551065579,-0.30525208689053307,-0.5806069373300449,0.3882616854012521,-0.03400460657370519,5.410976629197496
1589997123.615209,-2.613252870673037,-0.7189673958595256,8.864888106613025,0.37333333333333335,-0.3,-0.5911111111111111,-0.08100222110468525,0.7925991115581259,4.431046224122035
1589997123.625209,-2.962109461555506,-0.4961117455555745,8.897611174555557,0.37333333333333335,-0.3,-0.5911111111111111,-0.9319412722221275,0.08195554722255366,3.3218714312498934
1589997123.635209,-3.1479858187458456,-0.4246208389439056,8.890462083894391,0.37333333333333335,-0.3,-0.5911111111111111,-1.289395805280472,-1.1691353184816513,3.7240077809405308
1589997123.645209,-3.207529365293861,-0.479929523294734,9.03244714247105,0.37333333333333335,-0.3,-0.5911111111111111,-2.437646826469304,-1.8907351198519782,6.686031735306958
1589997123.655209,-3.0175172542436113,-0.7170369334079463,9.167165018964123,0.36849261124582894,-0.2989915162317699,-0.589497537081943,-1.943673055400112,-1.5571274793259964,8.698645308711061
1589997123.665209,-2.2377555325837006,-1.3832944452648677,9.288805510432269,0.3466666666666667,-0.29444444444444445,-0.5822222222222222,1.7230214025020567,1.1656254614881543,9.20954858547288
1589997123.675209,-2.0631747555186637,-1.3083165157842858,8.714473813908848,0.3466666666666667,-0.29444444444444445,-0.5822222222222222,6.358531555601671,4.591662667635081,8.04483022489689
1589997123.685209,-2.1495382365564053,-1.08,8.338152946225621,0.3466666666666667,-0.29444444444444445,-0.5822222222222222,4.50866203843525,2.6423121552669646,4.042313744814102
1589997123.695209,-2.302880100459379,-1.08,8.951520401837517,0.3466666666666667,-0.29444444444444445,-0.5822222222222222,-1.0749819189013046,-0.39952373193877033,-0.08291574605394914
1589997123.705209,-2.336202838663313,-1.0862028386633131,9.153042579949695,0.3466666666666667,-0.29444444444444445,-0.5822222222222222,-2.3726419331656485,-1.441480641394179,-3.7200806234279558
1589997123.715209,-2.371624301835176,-1.058375698164824,9.067690641741708,0.3466666666666667,-0.29444444444444445,-0.5892498448522614,0.7975820699874614,0.8194745241080588,-8.316539382195373
1589997123.725209,-2.4637611181702668,-0.9964803049555273,8.84728081321474,0.3466666666666667,-0.29444444444444445,-0.5911111111111111,2.3449809402795427,2.3194885641677256,-14.737055273189327
1589997123.735209,-2.5561389252948885,-1.0240926168632591,8.938648318042814,0.3466666666666667,-0.29444444444444445,-0.5911111111111111,0.6703691568370467,1.4502894276976845,-20.17662734818698
1589997123.745209,-2.578127391874181,-1.0387515945827872,9.041261162079511,0.3466666666666667,-0.29444444444444445,-0.5911111111111111,-0.06257972913936227,1.49609873307121,-24.391083442551334
1589997123.755209,-2.608390716716815,-1.0210728555221231,9.021609283283183,0.3466666666666667,-0.29444444444444445,-0.5911111111111111,0.8805045503872144,2.268915244413752,-29.777522751936072
1589997123.765209,-2.6329602971459365,-0.9893862704720848,8.912851946652298,0.3466666666666667,-0.29869635132332156,-0.5860088228564586,1.3201716190989397,2.838673476261042,-34.3197217624757
1589997123.775209,-2.669309382286296,-0.999539588190864,8.88,0.3466666666666667,-0.3,-0.5844444444444444,1.25431636071065,3.06106121309645,-41.12050917868051
1589997123.785209,-2.67,-1.0159423259050233,8.824201859332419,0.3466666666666667,-0.3,-0.5844444444444444,1.3994593053595934,3.2119593053595934,-45.7337791607878
1589997123.795209,-2.6952101310322787,-1.023907598274209,8.834327860338767,0.3466666666666667,-0.3,-0.5844444444444444,1.744485808165548,3.58954912711729,-53.308829697986575
1589997123.805209,-2.728721636305529,-1.0490412272291467,8.926484499840205,0.3466666666666667,-0.3,-0.5844444444444444,2.1110178970917226,4.165528124001279,-57.70721476510067
1589997123.815209,-2.7413281529574154,-1.0839844588722458,8.897968917744493,0.3588888888888889,-0.3144444444444445,-0.5966666666666667,2.420898088032309,4.628907647870763,-63.93897934665917
1589997123.825209,-2.7484755380604264,-1.1054266141812792,8.940853228362558,0.3588888888888889,-0.3144444444444445,-0.5966666666666667,2.3315557742446704,4.986276903021318,-67.64668536884618
1589997123.835209,-2.8093124313663966,-1.1462082875775979,8.895173572981331,0.3588888888888889,-0.3144444444444445,-0.5966666666666667,2.3189669662266645,5.463367864906658,-74.06692336567984
1589997123.845209,-2.8904177978883863,-1.2008355957767722,8.940417797888385,0.3588888888888889,-0.3144444444444445,-0.5966666666666667,2.377611236802413,5.700556184012067,-78.61767533936651
1589997123.8552089,-2.899455289808231,-1.2189105796164619,8.949455289808231,0.3588888888888889,-0.3144444444444445,-0.5966666666666667,2.4340955613014437,5.982977806507218,-82.51509372979962
1589997123.8652089,-2.877907513937321,-1.2841849721253582,8.935815027874643,0.3855555555555555,-0.28,-0.5688888888888889,2.388078037891744,6.2877890189458725,-87.79356939786331
1589997123.8752089,-2.8248142059955876,-1.3825928970022061,8.837407102997794,0.3855555555555555,-0.28,-0.5688888888888889,2.7118084093956827,6.5104252281870485,-91.38315417225418
1589997123.8852088,-2.7915716711580347,-1.4006286684632137,8.820628668463215,0.3855555555555555,-0.28,-0.5688888888888889,2.894645889475433,7.009822944737716,-94.46340650263944
1589997123.8952088,-2.8302801875299934,-1.4161120750119973,8.836112075011997,0.3855555555555555,-0.28,-0.5688888888888889,3.3785023441249216,7.251751172062461,-96.64076054856214
1589997123.9052088,-2.813746865771438,-1.4637552237142697,8.831248955257147,0.3855555555555555,-0.28,-0.5688888888888889,3.6093880592856746,7.421888059285674,-100.08628357107037
1589997123.9152088,-2.9085325942441043,-1.582934811511792,8.911467405755896,0.4311111111111111,-0.2611111111111111,-0.5844444444444444,3.629585642987175,7.344599500910225,-104.17136779234593
1589997123.9252088,-2.8913741332406064,-1.6172517335187875,8.928625866759393,0.4311111111111111,-0.2611111111111111,-0.5844444444444444,3.6832058336231053,7.719940835361738,-106.90599751477838
1589997123.9352088,-2.898141015855015,-1.7092949207249253,8.800224412797418,0.4311111111111111,-0.2611111111111111,-0.5844444444444444,3.8008813490938436,7.954927976359235,-110.27303829629469
1589997123.9452088,-2.880076058772688,-1.8003042350907519,8.900076058772688,0.4311111111111111,-0.2611111111111111,-0.5844444444444444,3.6870246326707,8.1254753673293,-112.96031763180639
1589997123.9552088,-2.889138936905791,-1.8365557476231635,8.90913893690579,0.4311111111111111,-0.2611111111111111,-0.5844444444444444,3.630381644338807,8.182118355661192,-115.67918107173725
1589997123.9652088,-2.9,-1.891145571889566,8.91427214055217,0.4511111111111111,-0.22666666666666666,-0.6055555555555555,3.826819648619577,8.473299121548942,-118.74537244532091
1589997123.9752088,-2.9,-1.897411706704912,8.882941466475438,0.4511111111111111,-0.22666666666666666,-0.6055555555555555,3.905146333811402,8.669115834528505,-120.42939617694515
1589997123.9852087,-2.8646648485718385,-1.9441689392852015,8.755160757858476,0.4511111111111111,-0.22666666666666666,-0.6055555555555555,3.9375,8.805211174106502,-123.11260226783408
1589997123.9952087,-2.86,-2.017357253384913,8.784904835589943,0.4511111111111111,-0.22666666666666666,-0.6055555555555555,4.031051740812379,8.85927587040619,-124.7315002417795
1589997124.0052087,-2.842723744701176,-2.074552510597648,8.825914382948236,0.4511111111111111,-0.22666666666666666,-0.6055555555555555,4.386429786852946,8.982976595617648,-126.64518404083826
1589997124.0152087,-2.82,-2.191117786474122,8.871956126329714,0.5044444444444445,-0.1811111111111111,-0.6133333333333333,4.498253458634184,9.190993082731632,-128.46893774458468
1589997124.0252087,-2.793421134180353,-2.2270467926867057,8.901608304927176,0.5044444444444445,-0.1811111111111111,-0.6133333333333333,4.511330182832352,9.247898590021691,-129.70093159281066
1589997124.0352087,-2.647740133357362,-2.219288160028834,8.686192106685889,0.5044444444444445,-0.1811111111111111,-0.6133333333333333,4.8697738331230855,8.986264417012075,-130.60158925031539
1589997124.0452087,-2.74,-2.3320069133794226,8.764013826758845,0.5044444444444445,-0.1811111111111111,-0.6133333333333333,4.0537197539650265,10.282396299308662,-131.83256913379424
1589997124.0552087,-2.74,-2.41729158194388,8.93458316388776,0.5044444444444445,-0.1811111111111111,-0.6133333333333333,3.6805993289955268,9.003126270841806,-132.6854158194388
1589997124.0652087,-2.7246070313286994,-2.4467412108391255,8.835955273496525,0.5244444444444445,-0.13666666666666666,-0.6266666666666667,4.39676513548907,9.837779540646721,-133.31741210839127
1589997124.0752087,-2.690805882945502,-2.4889926463181227,8.810604412209127,0.5244444444444445,-0.13666666666666666,-0.6266666666666667,4.924908078976529,9.99622242369296,-133.73992646318123
1589997124.0852087,-2.653410446267761,-2.5757658595157094,8.75329477686612,0.5244444444444445,-0.13666666666666666,-0.6266666666666667,4.395592355413248,9.869851911146688,-133.9948519111467
1589997124.0952086,-2.5862613568140884,-2.6345213127876725,8.786869321592954,0.5244444444444445,-0.13666666666666666,-0.6266666666666667,4.605433259955974,9.817391685011007,-133.94239168501102
1589997124.1052086,-2.567187063084309,-2.6912517476627644,8.757967657710772,0.5244444444444445,-0.13666666666666666,-0.6266666666666667,4.665040427861535,9.89258085572307,-134.25782342289227
1589997124.1152086,-2.535227372891542,-2.7695452542169154,8.814317881325374,0.5492170715529023,-0.08253388891114762,-0.6330891996207113,4.584280720381425,9.9375,-134.64393855923714
1589997124.1252086,-2.442913014941508,-2.8308007412841203,8.808228253735377,0.5544444444444444,-0.07111111111111111,-0.6344444444444445,4.743931218871858,9.982857804717964,-134.9596468283078
1589997124.1352086,-2.3663715539257417,-2.901814223037129,8.763628446074259,0.5544444444444444,-0.07111111111111111,-0.6344444444444445,4.503779631327353,9.933720368672647,-135.7802370506188
1589997124.1452086,-2.325172876694388,-2.922413561652806,8.804827123305612,0.5544444444444444,-0.07111111111111111,-0.6344444444444445,4.546694920110013,9.890805079889988,-136.1235593608801
1589997124.1552086,-2.2773191489361704,-2.946340425531915,8.78731914893617,0.5544444444444444,-0.07111111111111111,-0.6344444444444445,4.5625,10.181382978723404,-136.50531914893617
1589997124.1652086,-2.195125617551336,-3.014874382448664,8.807214638600763,0.5877777777777777,0.006666666666666667,-0.6411111111111111,4.620647872813692,10.200556381558922,-137.5652819077946
1589997124.1752086,-2.1289567189567187,-3.0805216405216407,8.764261954261954,0.5877777777777777,0.006666666666666667,-0.6411111111111111,4.559239746739746,10.38478075978076,-138.4864037989038
1589997124.1852086,-2.108447486640124,-3.093881283399689,8.663105026719752,0.5877777777777777,0.006666666666666667,-0.6411111111111111,4.507277406374417,10.564925802124806,-139.4113870318721
1589997124.1952085,-2.0727277566054205,-3.1831806084864485,8.73454448678916,0.5877777777777777,0.006666666666666667,-0.6411111111111111,4.674713640912091,10.62073788030403,-140.24856820456046
1589997124.2052085,-2.0461560871527635,-3.19,8.763843912847236,0.5877777777777777,0.006666666666666667,-0.6411111111111111,4.637825181568258,10.525650363136515,-140.6602237290222
1589997124.2152085,-2.00096783062964,-3.2387902117129506,8.77975804234259,0.5812724162160511,0.0619622399413436,-0.6758063727736535,4.746975529282375,10.25604894143525,-141.2988898817707
1589997124.2252085,-2.009355264055289,-3.268065792165867,8.78,0.5811111111111111,0.06333333333333334,-0.6766666666666666,4.340707197581104,10.77623360311001,-141.07861839861778
1589997124.2352085,-1.8897285728183675,-3.2804071407724487,8.71,0.5811111111111111,0.06333333333333334,-0.6766666666666666,4.001272314913902,10.314196419885203,-140.87075895028698
1589997124.2452085,-1.8493994461438217,-3.340200184618726,8.709799815381274,0.5811111111111111,0.06333333333333334,-0.6766666666666666,4.183746538398885,10.553741922930731,-140.2374884613296
1589997124.2552085,-1.8266245542905755,-3.3477918152364747,8.702208184763524,0.5811111111111111,0.06333333333333334,-0.6766666666666666,4.0414034643160965,10.221608083404224,-139.7630115477203
1589997124.2652085,-1.756458800657993,-3.369062359802602,8.738124719605203,0.5775810444809997,0.11346027948091654,-0.7006711197514248,3.6425807537012114,10.244139748766264,-138.8307350082249
1589997124.2752085,-1.7097829435078136,-3.405542641230466,8.724240302277348,0.5755555555555556,0.14222222222222222,-0.7144444444444444,3.820639618456989,10.472141507690413,-137.57679246154794
1589997124.2852085,-1.6719848508270212,-3.4229962127067552,8.682996212706755,0.5755555555555556,0.14222222222222222,-0.7144444444444444,3.881084305920544,10.362357976503324,-135.7181582354305
1589997124.2952085,-1.6243011276625365,-3.431899624112488,8.662150563831268,0.5755555555555556,0.14222222222222222,-0.7144444444444444,3.8243726507030487,10.25,-133.94847861269665
1589997124.3052084,-1.567523136872869,-3.446495372625426,8.73443984413054,0.5755555555555556,0.14222222222222222,-0.7144444444444444,3.5908274476376034,10.412384315635656,-131.51984900146127
1589997124.3152084,-1.5039608877011141,-3.426980443850557,8.733960887701114,0.6030511365118346,0.16012632144956673,-0.7349062721328382,3.4375,10.248223604615468,-129.2128096841763
1589997124.3252084,-1.4353339852565066,-3.4169332029486985,8.755465623589588,0.6233333333333333,0.17333333333333334,-0.75,3.2208374078531667,10.149165036858733,-126.00170659696103
1589997124.3352084,-1.4111240411894503,-3.491007670484396,8.673488494273405,0.6233333333333333,0.17333333333333334,-0.75,2.958575772302196,9.799176802038458,-122.45518709940107
1589997124.3452084,-1.356596086586634,-3.544503261177805,8.686701956706683,0.6233333333333333,0.17333333333333334,-0.75,2.6593546176387184,9.638741847055487,-119.28791709991492
1589997124.3552084,-1.3283065735892963,-3.5427688578630985,8.6972311421369,0.6233333333333333,0.17333333333333334,-0.75,2.2182482547993017,9.444221446577467,-116.67776808221835
1589997124.3652084,-1.2767608017817371,-3.53,8.73643688195991,0.6266666666666667,0.17888888888888888,-0.7777777777777778,1.5523775055679288,9.4858285077951,-112.45317706013363
1589997124.3752084,-1.2020293986636972,-3.53,8.654232338530068,0.6266666666666667,0.17888888888888888,-0.7777777777777778,1.3188418708240535,9.158878619153676,-109.93099220489978
1589997124.3852084,-1.1718598123125188,-3.5869813138123674,8.573018686187632,0.6266666666666667,0.17888888888888888,-0.7777777777777778,1.453504692187027,8.706366788672703,-106.38931048242839
1589997124.3952084,-1.17,-3.6,8.608634532601398,0.6266666666666667,0.17888888888888888,-0.7777777777777778,1.0657631017732316,8.321034171241262,-103.27484968010742
1589997124.4052083,-1.1534901044101604,-3.60825494779492,8.66301979117968,0.6266666666666667,0.17888888888888888,-0.7777777777777778,0.7976098644226274,7.87793945769051,-100.6912907121708
1589997124.4152083,-1.117897621173987,-3.621728911260859,8.725560201347731,0.626090362913047,0.17946519264250854,-0.7818119040531154,0.7307227815214744,7.340248741576683,-97.87093549565641
1589997124.4252083,-1.0558630478565263,-3.642410856430421,8.779315239282631,0.6233333333333333,0.18222222222222226,-0.8011111111111111,1.0926357053802627,6.797432147309869,-92.8560072408171
1589997124.4352083,-1.05,-3.681645482913464,8.698050841007687,0.6233333333333333,0.18222222222222226,-0.8011111111111111,1.5018979754928077,6.443988317223533,-88.5164633914301
1589997124.4452083,-1.0002602777522303,-3.734869861123885,8.646579907415923,0.6233333333333333,0.18222222222222226,-0.8011111111111111,1.80181221067476,5.8659389466261995,-82.01045977804347
1589997124.4552083,-0.954073305670816,-3.71844398340249,8.685926694329183,0.6233333333333333,0.18222222222222226,-0.8011111111111111,1.85740836791148,5.5879581604426,-77.46010546334716
1589997124.4652083,-0.9311121807213452,-3.6744487228853804,8.762214734950584,0.5551933855303127,0.13087037750110528,-0.7112453828491564,1.4306090360672572,4.944511295084071,-71.44499261968939
1589997124.4752083,-0.93,-3.7062327438461686,8.741013804923066,0.5466666666666666,0.12444444444444445,-0.7,1.375,4.648545350961448,-67.02527096634462
1589997124.4852083,-0.9009600106284045,-3.7490399893715955,8.650140029228112,0.5466666666666666,0.12444444444444445,-0.7,1.4657499667862361,4.290250099641291,-61.7963763783712
1589997124.4952083,-0.8733883885198119,-3.7766116114801878,8.678140640180658,0.5466666666666666,0.12444444444444445,-0.7,1.3442661423732374,3.9279435706220625,-55.75489555707271
1589997124.5052083,-0.8424282856532463,-3.7731070714133117,8.710678785760065,0.5466666666666666,0.12444444444444445,-0.7,1.4848232146672105,3.8319191963331973,-50.978308473654565
1589997124.5152082,-0.8460520942894264,-3.7539479057105734,8.976833508630824,0.5127789120556553,0.19935421779510126,-0.6126052644242337,1.6126627946544576,3.1603836694920497,-45.13665083833447
1589997124.5252082,-0.8136578552936368,-3.7681710723531814,8.785604987055457,0.5044444444444445,0.21777777777777774,-0.5911111111111111,0.6407335808693282,2.3185847867556886,-41.172200742607984
1589997124.5352082,-0.7829730032904577,-3.801080990128627,8.634053993419085,0.5044444444444445,0.21777777777777774,-0.5911111111111111,1.054049506431349,2.1385123766078373,-35.56082672749028
1589997124.5452082,-0.7716054626725607,-3.8016054626725606,8.740734447929272,0.5044444444444445,0.21777777777777774,-0.5911111111111111,0.6080804089595733,1.9876707085175216,-30.01259476946633
1589997124.5552082,-0.7927664175748882,-3.6482238828340794,8.64616791212556,0.5044444444444445,0.21777777777777774,-0.5911111111111111,0.9592304027578528,1.6529197803138984,-25.50302710746633
1589997124.5652082,-0.7675809894127343,-3.4832915618858435,9.12870416939625,0.5030035995294548,0.27325030700487685,-0.5911111111111111,-0.6580455822996132,1.4409287102977537,-21.556884100082417
1589997124.5752082,-0.75,-3.6088945567651636,9.118787558320372,0.5022222222222222,0.3033333333333333,-0.5911111111111111,-0.9363219284603421,-0.3958864696734059,-17.160213841368584
1589997124.5852082,-0.6997537580529706,-3.618128131710809,8.018326413743736,0.5022222222222222,0.3033333333333333,-0.5911111111111111,5.530780243378668,1.8990112741589122,-11.664414817466
1589997124.5952082,-0.7076006412986297,-3.2667874946767204,8.515225331295873,0.5022222222222222,0.3033333333333333,-0.5911111111111111,-1.3902966006162476,-1.577646296249906,-8.274909817380195
1589997124.6052082,-0.71,-3.5408395290549506,8.821284567914237,0.5022222222222222,0.3033333333333333,-0.5911111111111111,-1.2772883801259505,-1.1468307041007604,-4.0248228164030415
1589997124.6152081,-0.7185260489699061,-3.698208391759249,8.786213461331032,0.4861174630568439,0.33270083534078787,-0.5721643356224307,0.02168050911444286,-0.12897071513321112,1.5386757092007333
1589997124.6252081,-0.7487327937614462,-3.824931175045785,8.719717610917469,0.4833333333333333,0.3377777777777778,-0.5688888888888889,0.6813448927748567,-0.3591599220180776,5.410254327405919
1589997124.6352081,-0.7705510488442672,-3.885826573266401,8.673622377889332,0.4833333333333333,0.3377777777777778,-0.5688888888888889,0.5782517512549865,-0.8626923040216832,8.998985989960108
1589997124.6452081,-0.7935693424895415,-3.906784671244771,8.731416054937249,0.4833333333333333,0.3377777777777778,-0.5688888888888889,0.5669251716789012,-1.1875,14.008485279027548
1589997124.655208,-0.7794774635271972,-3.8894774635271974,8.728954927054394,0.4833333333333333,0.3377777777777778,-0.5688888888888889,0.623367073522491,-1.4760981691487909,17.459320110519045
1589997124.665208,-0.7675113225499525,-3.8624886774500475,8.708778306374882,0.48583710751665077,0.34779287451104773,-0.5693061845861085,0.5625,-1.9143101807802094,20.751981446241675
1589997124.675208,-0.7752415913537688,-3.8595168172924628,8.74475840864623,0.49,0.3644444444444445,-0.57,0.5625,-2.157759945961055,24.305542485791484
1589997124.685208,-0.7800428934932752,-3.885064340239913,8.714849872773536,0.49,0.3644444444444445,-0.57,0.24865957833515084,-2.156384042166485,27.005093602326426
1589997124.695208,-0.7844581126152639,-3.866748675691583,8.691083774769472,0.49,0.3644444444444445,-0.57,-0.1317735923092015,-2.3953207769276044,29.330514273101826
1589997124.705208,-0.7956408517564085,-3.8504272345042723,8.731281703512817,0.49,0.3644444444444445,-0.57,-0.38301064695510645,-2.595085107825851,30.966872372168723
1589997124.715208,-0.8196810566368509,-3.8745215849552763,8.76,0.4996810566368508,0.37036064572252,-0.569462163520175,-0.6835132079606351,-2.6552533019901587,32.260319341793334
1589997124.725208,-0.852556676390988,-3.89,8.731804154511265,0.51,0.37666666666666665,-0.5688888888888889,-0.6362759656954061,-2.7579896137218376,33.78337536466205
1589997124.735208,-0.8769563578982077,-3.896956357898208,8.65434913681434,0.51,0.37666666666666665,-0.5688888888888889,-0.630431710591394,-2.942931710591394,35.220090263548364
1589997124.745208,-0.88,-3.877655724661859,8.667240458896902,0.51,0.37666666666666665,-0.5688888888888889,-0.501297705515489,-3.046550573621128,36.81936548777045
1589997124.755208,-0.8984430953661723,-3.900738492276954,8.741476984553907,0.51,0.37666666666666665,-0.5688888888888889,-0.6680386920771536,-3.0625,38.51796280642434
1589997124.765208,-0.8640601391054084,-3.8871858136467203,8.773437162729344,0.5282301035295999,0.38104189151377066,-0.5747225220183608,-0.6894468011752009,-3.3086063976495983,40.87117385178079
1589997124.775208,-0.8949536838783836,-3.8287847370912123,8.721915526606415,0.5377777777777778,0.38333333333333336,-0.5777777777777777,-0.7967302621199486,-3.4375,43.83412827649936
1589997124.785208,-0.9252756098019672,-3.84692926861377,8.7,0.5377777777777778,0.38333333333333336,-0.5777777777777777,-1.0728353675737687,-3.7672256126229478,46.26329269554097
1589997124.795208,-0.8718143512986605,-3.8535519778630274,8.64181435129866,0.5377777777777778,0.38333333333333336,-0.5777777777777777,-1.150819916986353,-3.9963799446575687,49.08326127287592
1589997124.805208,-0.8608939242272575,-3.846357569690903,8.663609063609064,0.5377777777777778,0.38333333333333336,-0.5777777777777777,-1.3692044317044316,-4.014176107926108,51.33205459247126
1589997124.815208,-0.9210849487095244,-3.8678301025809514,8.763490307742854,0.5463368175973586,0.38393608261640244,-0.5792243760571435,-1.8192809294345271,-4.145342788303581,52.8013041652977
1589997124.825208,-0.9511083002047946,-3.8535180500341326,8.73814440027306,0.6166666666666667,0.3888888888888889,-0.5911111111111111,-1.8090365618600168,-4.290512187286672,54.557829377986586
1589997124.835208,-0.9787699104755261,-3.8450265473007015,8.737592915552455,0.6166666666666667,0.3888888888888889,-0.5911111111111111,-1.8044800992132697,-4.320188059527962,55.28877213889858
1589997124.845208,-1.0413869975551409,-3.7996532506112146,8.683911248981309,0.6166666666666667,0.3888888888888889,-0.5911111111111111,-1.9576109387733642,-4.4375,55.43533281632009
1589997124.855208,-1.0915932243081847,-3.79,8.734779672924553,0.6166666666666667,0.3888888888888889,-0.5911111111111111,-1.9375,-4.401271174036923,55.26631352211077
1589997124.865208,-1.1041964542799556,-3.781607091440089,8.755803545720044,0.7215780236655561,0.39728179744880004,-0.6153572913952989,-1.780132964501666,-4.427455678499444,55.10881648225083
1589997124.875208,-1.1606700631299147,-3.749731974748034,8.729731974748034,0.8666666666666667,0.4088888888888889,-0.6488888888888888,-1.7208439472809836,-4.563337578912393,54.84165605271902
1589997124.885208,-1.2152300175669741,-3.7404600351339483,8.68384991216513,0.8666666666666667,0.4088888888888889,-0.6488888888888888,-1.9730628293807642,-4.494249560825648,54.72018760979359
1589997124.895208,-1.2358038291800777,-3.7341961708199225,8.670535886120051,0.8666666666666667,0.4088888888888889,-0.6488888888888888,-2.0295753558748384,-4.473773932375486,55.01339715300129
1589997124.9052079,-1.2554725896052032,-3.7309451792104067,8.685472589605203,0.8666666666666667,0.4088888888888889,-0.6488888888888888,-2.0,-4.4598889449024375,55.69464790542277
1589997124.9152079,-1.2475538416288114,-3.7524461583711886,8.702446158371188,1.3306317926148639,0.28027858571994,-1.0236565465102343,-2.233365469459786,-4.219423020360143,56.412548204189676
1589997124.9252079,-1.2675397652603435,-3.7737698826301718,8.765079530520687,1.6122222222222222,0.20222222222222225,-1.2511111111111108,-2.0307529342457062,-4.125,56.66803088321929
1589997124.9352078,-1.3191932905497765,-3.7538711396334823,8.698548988717189,1.6122222222222222,0.20222222222222225,-1.2511111111111108,-2.079131721613419,-4.288305377290735,56.36088924541853
1589997124.9452078,-1.281433671869346,-3.759522109376885,8.682536848961474,1.6122222222222222,0.20222222222222225,-1.2511111111111108,-1.9841446939907847,-4.4563421224036865,55.33340771476129
1589997124.9552078,-1.2542341134030155,-3.7827023402090463,8.7,1.6122222222222222,0.20222222222222225,-1.2511111111111108,-1.6632943298492275,-4.261831121080381,54.50451507723615
1589997124.9652078,-1.2636306954436451,-3.783661870503597,8.719968824940047,1.4686080468958167,0.17216813216093793,-1.1548976818545162,-1.4203836930455636,-3.948845923261391,53.64827637889688
1589997124.9752078,-1.290564870717942,-3.699435129282058,8.79591350570941,0.8211111111111111,0.03666666666666667,-0.7211111111111111,-1.5369594106838167,-4.022010147329046,51.27013469615435
1589997124.9852078,-1.314703178858675,-3.68376254308694,8.76059364228265,0.8211111111111111,0.03666666666666667,-0.7211111111111111,-1.3456051321332823,-4.027226158559939,49.58909900421295
1589997124.9952078,-1.36,-3.72,8.690725840723008,0.8211111111111111,0.03666666666666667,-0.7211111111111111,-1.2568047567781964,-3.7522682522593986,46.23928733320112
1589997125.0052078,-1.3498324090686675,-3.6894972272060023,8.715083795465667,0.8211111111111111,0.03666666666666667,-0.7211111111111111,-1.4375,-3.6536313916979286,44.10824090686674
1589997125.0152078,-1.3327023431904226,-3.6636488284047886,8.734595313619154,0.7554321998249145,0.10883238400582106,-0.6996235660606888,-1.3918896449401412,-3.5,42.18998772127289
1589997125.0252078,-1.3631044021180747,-3.661379119576385,8.768620880423615,0.6411111111111111,0.2344444444444445,-0.6622222222222223,-1.3125,-3.3652987433810164,39.24242768513396
1589997125.0352077,-1.360924786068158,-3.6086473502477108,8.697294700495421,0.6411111111111111,0.2344444444444445,-0.6622222222222223,-1.0909679477555922,-3.0028899564629934,35.50621152980033
1589997125.0452077,-1.355865080402667,-3.556089946398222,8.657932540201333,0.6411111111111111,0.2344444444444445,-0.6622222222222223,-0.9375,-2.613483788730553,31.920791933586088
1589997125.0552077,-1.385269851978253,-3.545269851978253,8.685809555934759,0.6411111111111111,0.2344444444444445,-0.6622222222222223,-0.8716268502718362,-2.338690275407754,28.131939759514268
1589997125.0652077,-1.3957942070731315,-3.5905594495119217,8.723176828292527,0.6147152788890666,0.2550460695933572,-0.684111448942942,-0.5952172347575613,-2.1051448231717074,23.925886141782684
1589997125.0752077,-1.3874814734325762,-3.6387777898511353,8.783814842985983,0.5955555555555555,0.27,-0.7,-0.5157407910463979,-1.8043980223840053,19.832174290992068
1589997125.0852077,-1.357667404163092,-3.644416851040773,8.703920169774687,0.5955555555555555,0.27,-0.7,-0.24844787104348215,-1.373447871043482,15.520925520386509
1589997125.0952077,-1.3518642809807822,-3.6696607024519547,8.685253545394302,0.5955555555555555,0.27,-0.7,0.037075878064943675,-1.0508482438701126,9.938595096090125
1589997125.1052077,-1.3308919451335182,-3.680297315044506,8.754256712388734,0.5955555555555555,0.27,-0.7,0.1837835619436743,-0.8483955475704071,4.653552732379979
1589997125.1152077,-1.2894540981085654,-3.6594540981085655,8.744846993695218,0.5885249542945991,0.2575011533138552,-0.714842380439797,0.510235660464401,-0.13823427648777487,-3.465362140550515
1589997125.1252077,-1.252089118501776,-3.6802994833710043,8.711344042621892,0.5755555555555556,0.2344444444444445,-0.7422222222222222,0.875,0.875,-12.625
1589997125.1352077,-1.1942351762569656,-3.743411808903638,8.727646985160604,0.5755555555555556,0.2344444444444445,-0.7422222222222222,0.986765074196982,1.098530148393964,-16.3691299855989
1589997125.1452076,-1.1168027503223035,-3.7173178218429612,8.681030143041315,0.5755555555555556,0.2344444444444445,-0.7422222222222222,1.6585272269629812,1.6121232119835471,-25.238577414205906
1589997125.1552076,-1.0270342148513372,-3.6011444793067384,8.792414462871657,0.5755555555555556,0.2344444444444445,-0.7422222222222222,3.2100048558195127,2.305347004332885,-40.596864261168385
1589997125.1652076,-6.001676368851767,-4.635867501898254,1.5412357630979496,0.5615598020191794,0.22091521602594755,-0.6694443038330662,-26.273295790095332,67.55781764110351,-129.83829515734413
1589997125.1752076,-6.300609998316781,-5.299419289681872,-4.639840430903889,0.5422222222222223,0.20222222222222225,-0.5688888888888889,-82.16132595522639,29.66114921730349,-532.145840346743
1589997125.1852076,1.661584306865746,-5.524901605547573,-0.3725032798150809,0.5422222222222223,0.20222222222222225,-0.5688888888888889,-102.04122024739176,-47.45817454863497,-852.6396068907353
1589997125.1952076,2.2600997861724874,-7.38305167498218,1.406124376336422,0.5422222222222223,0.20222222222222225,-0.5688888888888889,-107.12187722736992,37.9050539023521,-863.4973449750535
1589997125.2052076,-1.062847905069831,-7.638466717776074,6.6400056664777845,0.5422222222222223,0.20222222222222225,-0.5688888888888889,-78.74338147061765,91.52434085530481,-817.7336797106763
1589997125.2152076,-0.28247012696041823,-4.9922330097087375,-1.3069566840926063,0.5413096423533317,0.2054937349597544,-0.569457098995934,-38.06763442867812,160.71575102688573,-776.728983849888
1589997125.2252076,-4.626174283937087,-6.767762210834987,8.97859690175054,0.4833333333333333,0.4133333333333333,-0.6055555555555555,59.01883645330411,182.71275843428808,-711.1745634756079
1589997125.2352076,-4.398240237878751,-5.755177794706706,8.61360381392377,0.4833333333333333,0.4133333333333333,-0.6055555555555555,183.5956522006242,97.79990569631141,-657.0905515076303
1589997125.2452075,1.065533814182675,-5.242139541526815,12.921764978933084,0.4833333333333333,0.4133333333333333,-0.6055555555555555,229.70523057559095,60.46831259372991,-620.4909952331643
1589997125.2552075,3.2272688505524325,-4.07781934483427,13.870942043031594,0.4833333333333333,0.4133333333333333,-0.6055555555555555,195.88551560379918,46.06464431091297,-583.8211257026555
1589997125.2652075,0.828185572369181,-3.8134769550652647,-0.9992739979207579,0.35579598398213386,0.5279555080666898,-0.5813396031471,65.67324311251011,15.667424122097724,-533.4767565265104
1589997125.2752075,3.381387169195183,-7.171155634170125,4.609573213597296,0.22,0.65,-0.5555555555555556,-3.910497029276371,39.89470513867157,-486.78690585527363
1589997125.2852075,2.6658943481053305,-4.58618657675016,10.568456165703275,0.22,0.65,-0.5555555555555556,-54.040858823057164,46.17405266538214,-442.0978845536288
1589997125.2952075,-1.3206506637095987,-1.3906966504680212,13.212232151593229,0.22,0.65,-0.5555555555555556,-45.052599393366165,34.29553626757118,-394.2969733537719
1589997125.3052075,-1.2624300506361983,-1.7318250129836406,11.020816346403532,0.22,0.65,-0.5555555555555556,24.057160477797975,27.751021447351338,-357.96145278823684
1589997125.3152075,1.038669331139062,-0.5560079934171859,9.083214999412249,0.187916095241827,0.6467472538954848,-0.5605825268079883,50.971729164217706,31.59597978135653,-336.4213294933584
1589997125.3252075,1.0280014984818013,-0.5779640364367681,5.2798876138649,-0.021111111111111112,0.6255555555555555,-0.5933333333333334,25.506743168106,16.725627489254308,-318.08986947434835
1589997125.3352075,1.9177713278739505,-1.6228827614802528,11.665013993987769,-0.021111111111111112,0.6255555555555555,-0.5933333333333334,-8.150364102829895,26.35060122317819,-297.2313089561522
1589997125.3452075,2.0264212494223415,-1.5178223333193295,12.870161324202831,-0.021111111111111112,0.6255555555555555,-0.5933333333333334,6.064667531403606,27.76703829349242,-283.8852258643868
1589997125.3552074,1.707243218792407,-0.9799151471666329,9.519997036390011,-0.021111111111111112,0.6255555555555555,-0.5933333333333334,16.40139367659216,13.821608226357412,-273.8534163404096
1589997125.3652074,2.178285005693251,-1.3266542403019765,8.761096379716431,-0.021111111111111112,0.6255555555555555,-0.5933333333333334,14.56138669651074,0.696225101776605,-265.67560754004774
1589997125.3752074,4.884526818309464,-1.8582701488345972,7.0775905644481885,-0.17555555555555555,0.5955555555555555,-0.5555555555555556,11.01009196854816,16.033119208087616,-273.7202681830946
1589997125.3852074,1.106871756856931,-0.7229450386529706,7.982231811924176,-0.17555555555555555,0.5955555555555555,-0.5555555555555556,5.2522288335274805,27.18533238907127,-278.7378514508101
1589997125.3952074,1.3338672225894477,-0.7653507567668345,9.828913747224624,-0.17555555555555555,0.5955555555555555,-0.5555555555555556,-0.39851019474246197,30.68874150438128,-268.26008881205405
1589997125.4052074,2.4987236530447037,-0.27441609450424254,9.776999070548376,-0.17555555555555555,0.5955555555555555,-0.5555555555555556,1.2426430905765598,17.615626780199683,-239.4556449194975
1589997125.4152074,7.918809448319594,1.0592315313887126,7.537299857324033,-0.2086858398506306,0.5739060628478827,-0.5686764602268725,13.272377338300572,-39.912957752060876,-102.096043714331
1589997125.4252074,5.629230134726423,0.7714462469067914,4.173018971679956,-0.2877777777777778,0.5222222222222223,-0.6,16.503385345064615,-25.2895415177344,16.234121528732473
1589997125.4352074,2.90197586074245,-0.21042123485285635,10.30207612040777,-0.2877777777777778,0.5222222222222223,-0.6,-3.696151002596653,48.622430395268324,-10.355065276976342
1589997125.4452074,1.65,0.33,8.28,-0.2877777777777778,0.5222222222222223,-0.6,-4.625,59.9375,-11.875
1589997125.4552073,3.311162878076273,-1.2848794539420125,10.263781702047718,-0.2877777777777778,0.5222222222222223,-0.6,-11.605720458388127,4.208916494458013,2.9807204583881273
1589997125.4652073,3.78519981496235,-0.28880111022590016,7.974111176788055,-0.29112336128886723,0.5201857800850374,-0.5990787523665116,-2.274316709927784,-13.527933938988975,-6.009761057284573
1589997125.4752073,3.6480944350758855,-0.8632789956904628,9.165317594154018,-0.3644444444444445,0.4755555555555556,-0.5788888888888889,-1.182698613453251,-1.5244636499906314,0.4809818249953157
1589997125.4852073,3.5669967439187897,-0.6526402987933346,9.089504884121816,-0.3644444444444445,0.4755555555555556,-0.5788888888888889,-0.08972778203409308,0.2611389101704654,-0.03795369660984485
1589997125.4952073,3.5868224321473097,-0.6809940538985326,9.009005946101468,-0.3644444444444445,0.4755555555555556,-0.5788888888888889,-0.12707094562194304,0.32699661935360125,0.18542905437805696
1589997125.5052073,3.4957947764843977,-0.65,9.0314486941211,-0.3644444444444445,0.4755555555555556,-0.5788888888888889,-0.04468477941895725,-0.07155433825687177,0.2143695588379145
1589997125.5152073,3.4254609354257206,-0.65,9.01386523385643,-0.3644444444444445,0.4755555555555556,-0.5788888888888889,-0.008052570534229538,0.03834228839731138,0.14110514106845906
1589997125.5252073,3.5539795221843002,-0.6382525597269625,8.906505119453925,-0.35,0.4711111111111111,-0.5988888888888889,-0.010921501706484642,-0.8689419795221843,-0.09223549488054608
1589997125.5352073,3.6353296703296705,-0.6376648351648352,8.897664835164836,-0.35,0.4711111111111111,-0.5988888888888889,-0.13435782967032966,-0.03442651098901098,0.08645260989010989
1589997125.5452073,3.6214900815800775,-0.6588869042507515,8.91,-0.35,0.4711111111111111,-0.5988888888888889,-0.23148561614426794,0.4421006869901245,0.125
1589997125.5552073,3.529718752729496,-0.6791562581884881,8.911687483623025,-0.35,0.4711111111111111,-0.5988888888888889,-0.18046881823740066,0.728906454712202,0.11972661367805049
1589997125.5652072,3.52,-0.651780559830304,8.97890279915152,-0.3515827198491591,0.4732873509037049,-0.5967126490962951,0.04024300212119952,-0.01112849893940024,-0.0625
1589997125.5752072,3.5265325411828248,-0.660933220168975,9.022799660506925,-0.3588888888888889,0.4833333333333333,-0.5866666666666667,-0.0625,-0.11499363450484164,-0.0625
1589997125.5852072,3.577111706464764,-0.6571117064647641,8.899636575422248,-0.3588888888888889,0.4833333333333333,-0.5866666666666667,-0.03564938846825859,-0.46389633080955156,-0.008798776936517184
1589997125.5952072,3.576943494189291,-0.6484717470946454,8.780481597399131,-0.3588888888888889,0.4833333333333333,-0.5866666666666667,-0.07942262901230075,-0.0911547419753985,0.0625
1589997125.6052072,3.5748000554301775,-0.6743999683256127,8.972799817872273,-0.3588888888888889,0.4833333333333333,-0.5866666666666667,-0.1425000989824603,0.21499980203507937,0.04000004949123016
1589997125.6152072,3.5411638168781026,-0.691627137341423,9.108836183121896,-0.3548575105717963,0.4827131212845498,-0.5925586811301097,-0.0625,0.13079150579150578,0.0
1589997125.6252072,3.5625399489873777,-0.6811900765189335,9.072539948987378,-0.34444444444444444,0.4811111111111111,-0.6077777777777778,-0.03918734058555515,-0.4300620217566654,-0.023312659414444856
1589997125.6352072,3.5668470828806953,-0.6873646878394786,8.988399897757045,-0.34444444444444444,0.4811111111111111,-0.6077777777777778,0.0394853505016295,-0.3125,-0.03617643299891367
1589997125.6452072,3.6204517860566168,-0.6471611604575372,8.760579909259379,-0.34444444444444444,0.4811111111111111,-0.6077777777777778,0.16512137357019616,-0.3125,0.04758091571346412
1589997125.6552072,3.5629010604786173,-0.6530424026520212,8.91433922121617,-0.34444444444444444,0.4811111111111111,-0.6077777777777778,-0.1123233222832451,0.5434849834248676,0.006338338858377451
1589997125.6652071,3.514478419342602,-0.6737949631388848,9.080359705111078,-0.34444444444444444,0.4811111111111111,-0.6077777777777778,-0.025854320254646804,0.4137814803819702,0.0495728398726766
1589997125.6752071,3.502698641623344,-0.6597001509307396,9.125202414891834,-0.3588888888888889,0.4755555555555556,-0.5933333333333334,-0.060625943317122254,-0.013118396780144223,0.0
1589997125.6852071,3.59,-0.6528089475614228,8.933483681701503,-0.3588888888888889,0.4755555555555556,-0.5933333333333334,0.017555922258892555,-0.4023881554822149,0.017555922258892555
1589997125.695207,3.588354776424707,-0.661645223575293,8.849871341451758,-0.3588888888888889,0.4755555555555556,-0.5933333333333334,0.04193470530883786,-0.30221735265441896,0.0625
1589997125.705207,3.580336462176681,-0.6696635378233191,8.897981226939915,-0.3588888888888889,0.4755555555555556,-0.5933333333333334,-0.05829422279148905,-0.25210288860425545,0.0625
1589997125.715207,3.5563141090958497,-0.6818429454520752,9.052900618164527,-0.35745548687060813,0.4755555555555556,-0.5916951595981553,-0.023036818150940833,0.19240795462264793,0.11348159092452959
1589997125.725207,3.5433145973929925,-0.6866854026070075,9.080168623463067,-0.3511111111111111,0.4755555555555556,-0.5844444444444444,-0.0835675325875936,-0.1039324674124064,0.0210675325875936
1589997125.735207,3.556245142067536,-0.68,8.998766516970377,-0.3511111111111111,0.4755555555555556,-0.5844444444444444,-0.015612855168840143,-0.21091928275326022,-0.03908071724673979
1589997125.745207,3.6,-0.68,8.851425830556396,-0.3511111111111111,0.4755555555555556,-0.5844444444444444,-0.11905903934834562,-0.3482656770675553,0.1220295196741728
1589997125.755207,3.5881793454721853,-0.6776358690944371,8.901277178150067,-0.3511111111111111,0.4755555555555556,-0.5844444444444444,-0.014775818159768542,0.24660327263907417,0.04772418184023146
1589997125.765207,3.5518468148507476,-0.6703693629701496,8.966675733268655,-0.3511111111111111,0.4755555555555556,-0.5844444444444444,-0.060191481436565546,0.4282659257462622,0.0023085185634344543
1589997125.775207,3.537867059857865,-0.662132940142135,9.07720235914719,-0.3588888888888889,0.4955555555555556,-0.6,-0.11166912411165653,0.24169124111656531,0.09833824822331307
1589997125.785207,3.5301846289105425,-0.6698153710894571,9.031107773463257,-0.3588888888888889,0.4955555555555556,-0.6,-0.06365393069089312,-0.238460693091069,0.002307861381786222
1589997125.795207,3.58698997253054,-0.6676700091564867,8.898350045782433,-0.3588888888888889,0.4955555555555556,-0.6,-0.125,-0.42293755722804116,-0.033375114456082364
1589997125.805207,3.6036026737607756,-0.66,8.879191978717673,-0.3588888888888889,0.4955555555555556,-0.6,-0.11700334220096983,-0.32702005320581895,0.0625
1589997125.815207,3.5682923626077585,-0.66,8.985122912176724,-0.3588888888888889,0.4955555555555556,-0.6,-0.07286545325969827,-0.06219271955818967,0.0625
1589997125.825207,3.5482113873710754,-0.6608943063144622,9.000731675773546,-0.3511111111111111,0.4811111111111111,-0.6222222222222222,0.0625,0.1651423421384461,0.0
1589997125.835207,3.5454883668652353,-0.6669023266269529,9.051144205912104,-0.3511111111111111,0.4811111111111111,-0.6222222222222222,0.0044186242553669805,-0.1593022929077217,0.0
1589997125.845207,3.577983708913449,-0.6579837089134492,8.926048873259653,-0.3511111111111111,0.4811111111111111,-0.6222222222222222,-0.08719454212717095,-0.3245927228362279,0.0
1589997125.855207,3.5704584110808093,-0.6504584110808096,8.94862476675757,-0.3511111111111111,0.4811111111111111,-0.6222222222222222,0.05390479223482131,-0.13646027702023825,0.0
1589997125.865207,3.5868753677098555,-0.67,8.92491013645594,-0.3508135270834783,0.4817558765043155,-0.6215774568290178,-0.12221014974094248,0.20423910155434513,0.0
1589997125.875207,3.5311540870357367,-0.67,9.012472148943841,-0.3455067384478479,0.49325391854818135,-0.610079414785152,-0.07245900628190773,0.5027459623085536,0.0
1589997125.885207,3.531693613723625,-0.6708468068618128,8.987459579414562,-0.34444444444444444,0.4955555555555556,-0.6077777777777778,0.04662237134101237,0.1451596569093663,-0.051914914227341576
1589997125.895207,3.5464679981683043,-0.6782339990841524,8.965298002747543,-0.34444444444444444,0.4955555555555556,-0.6077777777777778,-0.09188748282785586,-0.22419995420761563,0.040424988551903906
1589997125.905207,3.599277940884307,-0.6507220591156928,8.900722059115694,-0.34444444444444444,0.4955555555555556,-0.6077777777777778,0.11597426105383987,-0.5354227831615196,0.0625
1589997125.915207,3.5900192048740642,-0.6599807951259354,8.909980795125936,-0.34444444444444444,0.4955555555555556,-0.6077777777777778,0.00024006092580737548,-0.18822018277742214,0.0625
1589997125.925207,3.556010098372073,-0.66,8.995984852441891,-0.3511111111111111,0.4888888888888889,-0.6077777777777778,-0.1500946722381823,-0.025094672238182292,0.07496844258727257
1589997125.935207,3.5414047183772963,-0.66,9.017892922434056,-0.3511111111111111,0.4888888888888889,-0.6077777777777778,-0.01316923478715068,0.11183076521284932,0.12061025507094977
1589997125.9452069,3.546591332027424,-0.675605778648384,8.955605778648385,-0.3511111111111111,0.4888888888888889,-0.6077777777777778,-0.08380417482859942,-0.14630417482859942,0.0762319417238002
1589997125.9552069,3.57,-0.66,8.94,-0.3511111111111111,0.4888888888888889,-0.6077777777777778,0.039333799293702176,0.0,0.11341689964685109
1589997125.9652069,3.57,-0.66,8.94,-0.3511111111111111,0.4888888888888889,-0.6077777777777778,-0.057099304738081225,0.0,0.06520034763095939
1589997125.9752069,3.57,-0.6685705008874844,8.974282003549938,-0.3577770562458212,0.49460255614721177,-0.6077777777777778,0.04463126109355382,0.2678281527338846,0.0625
1589997125.9852068,3.54,-0.674653586756591,9.017921520539547,-0.3588888888888889,0.4955555555555556,-0.6077777777777778,-0.13737737584304108,0.10396229307173513,0.03341508277130595
1589997125.9952068,3.5432505415889968,-0.6583747292055016,8.934875812383495,-0.3588888888888889,0.4955555555555556,-0.6077777777777778,0.02031588493123079,-0.19610559725930776,0.1148420575343846
1589997126.0052068,3.5573379011537107,-0.6513310494231448,8.956006851730567,-0.3588888888888889,0.4955555555555556,-0.6077777777777778,0.10836188221069071,-0.5042665877374175,0.07081905889465465
1589997126.0152068,3.587773514043109,-0.6685156760287394,8.96,-0.3588888888888889,0.4955555555555556,-0.6077777777777778,0.06713851241018942,-0.5046385124101894,0.0046385124101894215
1589997126.0252068,3.575762416497241,-0.6557624164972408,8.981356375254139,-0.35335205086003807,0.4852728563591183,-0.5872123793849033,0.0625,-0.27753775776938716,0.0
1589997126.0352068,3.5795173949549155,-0.669034789909831,8.99,-0.3511111111111111,0.4811111111111111,-0.5788888888888889,0.0625,0.16940231080933082,0.1784511554046654
1589997126.0452068,3.550937254060242,-0.6772656864849396,8.939140194605423,-0.3511111111111111,0.4811111111111111,-0.5788888888888889,0.0625,0.1875,0.09667891893825571
1589997126.0552068,3.5311326968497387,-0.6622653936994778,8.964336515751306,-0.3511111111111111,0.4811111111111111,-0.5788888888888889,-0.10376193406739628,0.0766587106217358,-0.04834128937826419
1589997126.0652068,3.5471215318657396,-0.66,8.97,-0.3511111111111111,0.4811111111111111,-0.5788888888888889,-0.017990425839127452,-0.1515191483217451,-0.008995212919563726
1589997126.0752068,3.5621562865134724,-0.66,8.993234429770208,-0.3322222222222222,0.4888888888888889,-0.5844444444444444,-0.0067383953546011404,-0.16728481393619657,0.02021518606380342
1589997126.0852067,3.577007045993698,-0.66,9.015510568990546,-0.3322222222222222,0.4888888888888889,-0.5844444444444444,-0.053147018730304856,-0.02805894380908544,0.15944105619091456
1589997126.0952067,3.5438675886621938,-0.6612891962207312,8.968710803779269,-0.3322222222222222,0.4888888888888889,-0.5844444444444444,-0.054442523620429964,-0.01611495275914008,0.04638504724085992
1589997126.1052067,3.5654047993975078,-0.668468266465836,8.961531733534164,-0.3322222222222222,0.4888888888888889,-0.5844444444444444,-0.009573334588525266,-0.10585333082294947,-0.04335333082294947
1589997126.1152067,3.5788465250965253,-0.6523069498069498,8.986539575289575,-0.3322222222222222,0.4888888888888889,-0.5844444444444444,-0.1105815637065637,-0.4014539092664092,0.048081563706563704
1589997126.1252067,3.588413652823103,-0.6415863471768967,8.96475904153069,-0.3322222222222222,0.48234493669314177,-0.5965974985222605,-0.07241466985560374,-0.3323293397112075,0.0625
1589997126.1352067,3.5686992848223404,-0.67,8.953496424111705,-0.3322222222222222,0.4811111111111111,-0.5988888888888889,-0.17124106027925984,-0.03811159041888977,0.0
1589997126.1452067,3.559137106559132,-0.6691371065591322,8.916903147526943,-0.3322222222222222,0.4811111111111111,-0.5988888888888889,-0.05171383198915138,0.13039308400542432,0.0
1589997126.1552067,3.5493304686908456,-0.6606695313091543,8.99,-0.3322222222222222,0.4811111111111111,-0.5988888888888889,0.05413085863557204,0.17494628795335807,-0.008369141364427955
1589997126.1652067,3.541390929052775,-0.668609070947225,8.99,-0.3322222222222222,0.4811111111111111,-0.5988888888888889,-0.04511338684031195,0.026079919739532054,-0.10761338684031195
1589997126.1752067,3.580561442163245,-0.67,9.00775423134702,-0.34444444444444444,0.4755555555555556,-0.6077777777777778,0.0035090135202804204,-0.1839909864797196,-0.06600901352028042
1589997126.1852067,3.588962643965949,-0.67,8.974149424136204,-0.34444444444444444,0.4755555555555556,-0.6077777777777778,0.05601652478718077,-0.13148347521281922,-0.11851652478718078
1589997126.1952066,3.559371115322696,-0.6796855576613479,8.922829981047869,-0.34444444444444444,0.4755555555555556,-0.6077777777777778,-0.12106947076684804,0.12303473538342402,0.06446526461657598
1589997126.2052066,3.542276293533859,-0.6711381467669296,8.999756679097635,-0.34444444444444444,0.4755555555555556,-0.6077777777777778,-0.014226834586619386,0.06961341729330969,0.11788658270669031
1589997126.2152066,3.548662235246468,-0.6526755295070641,9.001337764753533,-0.34444444444444444,0.4755555555555556,-0.6077777777777778,0.0541389702904248,-0.045777940580849594,0.125
1589997126.2252066,3.5810022112491064,-0.6410022112491064,8.971002211249107,-0.3388888888888889,0.4755555555555556,-0.5933333333333334,0.056236179693085274,-0.23747235938617056,0.0
1589997126.2352066,3.5879756263820304,-0.6479756263820307,8.977975626382031,-0.3388888888888889,0.4755555555555556,-0.5933333333333334,0.012652335112308177,-0.15030467022461635,0.0
1589997126.2452066,3.5596860970757556,-0.6593721941515115,8.882825126318199,-0.3388888888888889,0.4755555555555556,-0.5933333333333334,0.0,0.19142378655305364,0.0625
1589997126.2552066,3.5523018960933785,-0.6446037921867573,8.949282935159593,-0.3388888888888889,0.4755555555555556,-0.5933333333333334,0.0,0.283726298832767,0.0625
1589997126.2652066,3.55,-0.6485221703961741,9.004088681584696,-0.3388888888888889,0.4755555555555556,-0.5933333333333334,-0.053263564976087856,0.20597287004782427,0.16902712995217573
1589997126.2752066,3.557994156476572,-0.6340116870468564,8.994011687046857,-0.3388888888888889,0.4915438685086992,-0.5933333333333334,-0.012536522021426258,-0.11228086787144248,0.08757304404285252
1589997126.2852066,3.561813560486364,-0.679093219756818,8.981838977811362,-0.3388888888888889,0.4955555555555556,-0.5933333333333334,-0.05116524696022532,-0.30116524696022534,-0.005667376519887339
1589997126.2952065,3.58,-0.6694786386676322,8.902085445329472,-0.3388888888888889,0.4955555555555556,-0.5933333333333334,0.059241491672700944,-0.17772447501810282,-0.05598298334540188
1589997126.3052065,3.5797427240319144,-0.6602572759680857,8.942058207744685,-0.3388888888888889,0.4955555555555556,-0.5933333333333334,-0.0032159496010713546,0.0016079748005356773,0.06410797480053568
1589997126.3152065,3.5718314880132787,-0.6681685119867212,9.005348095893769,-0.3388888888888889,0.4955555555555556,-0.5933333333333334,-0.10210639983401551,0.051053199917007755,0.11355319991700775
1589997126.3252065,3.57,-0.6497899860644959,9.009789986064495,-0.3322222222222222,0.4888888888888889,-0.6222222222222222,0.0625,-0.125,-0.0625
1589997126.3352065,3.57,-0.6333252860703841,8.993325286070384,-0.3322222222222222,0.4888888888888889,-0.6222222222222222,0.0625,-0.125,-0.0625
1589997126.3452065,3.5787204884369577,-0.6504265038543474,8.892985526980432,-0.3322222222222222,0.4888888888888889,-0.6222222222222222,-0.005331298179342455,-0.054503052730986316,-0.05983435091032877
1589997126.3552065,3.5510858058990182,-0.6596380647003273,8.957466452902292,-0.3322222222222222,0.4888888888888889,-0.6222222222222222,-0.12047580875409043,0.11821371313113566,-0.0022620956229547837
1589997126.3652065,3.5443258466521157,-0.6486516933042316,9.005393226783074,-0.3322222222222222,0.4888888888888889,-0.6222222222222222,-0.16046345842427656,0.16046345842427656,0.0
1589997126.3752065,3.54,-0.6443664163716298,9.048732832743259,-0.33755895334310304,0.4830670003933826,-0.6096081304819585,-0.16020989767731392,0.16020989767731392,0.02729010232268607
1589997126.3852065,3.5647520335278613,-0.6623760167639305,8.985743899416416,-0.34444444444444444,0.4755555555555556,-0.5933333333333334,-0.04764989522543431,0.04764989522543431,0.0625
1589997126.3952065,3.5602411651252144,-0.6596382523121782,8.870602912813036,-0.34444444444444444,0.4755555555555556,-0.5933333333333334,0.0,-0.06174635898370465,0.06174635898370465
1589997126.4052064,3.5729806976779503,-0.6405289534830744,8.902451744194876,-0.34444444444444444,0.4755555555555556,-0.5933333333333334,0.0,-0.021935319756405003,0.021935319756405003
1589997126.4152064,3.5667162757891027,-0.6565674484217952,8.97313489684359,-0.34444444444444444,0.4755555555555556,-0.5933333333333334,-0.04151163815905484,0.2075581907952742,0.04151163815905484
1589997126.4252064,3.5531720826401028,-0.6495162479203084,9.020483752079691,-0.3543069917420738,0.4846594453687519,-0.5971266207554985,-0.14784896699871533,0.05645309900385398,0.019825516500642335
1589997126.4352064,3.5788846305383433,-0.6496282101794477,8.99148715928221,-0.3588888888888889,0.4888888888888889,-0.5988888888888889,-0.12732368637845196,0.0578526272430961,0.06017631362154805
1589997126.4452064,3.5706728839839474,-0.6686542320321051,8.878074607807369,-0.3588888888888889,0.4888888888888889,-0.5988888888888889,-0.06670552489967166,-0.054088950200656696,-0.11238342530098502
