time,acc_x,acc_y,acc_z,mag_x,mag_y,mag_z,gyr_x,gyr_y,gyr_z
1589997213.6427915,-4.01,-0.86,8.84,0.2977777777777777,-0.3233333333333333,-0.5811111111111111,0.25,0.3125,0.125
1589997213.6527915,-3.9972736099522113,-0.8536368049761056,8.884542365167261,0.2977777777777777,-0.3233333333333333,-0.5811111111111111,-0.14769968899340058,0.5908897822953805,0.20453993779868013
1589997213.6627915,-3.99,-0.8572892836862173,8.91,0.3172158676076904,-0.3281928557908115,-0.6029789621697629,-0.6483481382331467,1.4789283686217247,0.3411160460777156
1589997213.6727915,-4.022906346749226,-0.897265866873065,8.952734133126937,0.3244444444444444,-0.33,-0.6111111111111112,-1.0534176664086687,2.3568353328173375,0.5
1589997213.6827915,-4.04,-0.941194021758774,8.923134239346513,0.3244444444444444,-0.33,-0.6111111111111112,-0.9850747280153251,2.1082099161455887,0.5
1589997213.6927915,-4.04,-0.948773990674811,9.006513897422922,0.3244444444444444,-0.33,-0.6111111111111112,-0.8903251165648607,1.2080886073661763,0.5
1589997213.7027915,-4.049099826591092,-0.9136006936356342,9.001800346817816,0.3244444444444444,-0.33,-0.6111111111111112,0.14873049149778717,-0.13185224008075158,0.158756502834071
1589997213.7127914,-4.0359936276741015,-0.8889904415111516,9.0,0.33378202599504375,-0.3253312092247003,-0.6064423203358115,0.7752389622212108,-0.7752389622212108,-0.05007965407373691
1589997213.7227914,-4.009766116941529,-0.8702338830584707,8.996023988005996,0.3377777777777778,-0.3233333333333333,-0.6044444444444445,0.9258058470764617,-1.0551911544227885,0.0029235382308845574
1589997213.7327914,-4.001905734632683,-0.8780942653673164,8.862397488755622,0.3377777777777778,-0.3233333333333333,-0.6044444444444445,0.532786731634183,-0.8095542072713644,0.10117831709145426
1589997213.7427914,-4.04,-0.9103844465455528,8.89115333963666,0.3377777777777778,-0.3233333333333333,-0.6044444444444445,0.25,-0.12740279090970488,0.0048055818194097395
1589997213.7527914,-4.04,-0.9174660633484163,8.912398190045248,0.3377777777777778,-0.3233333333333333,-0.6044444444444445,0.25,-0.1716628959276018,0.09332579185520364
1589997213.7627914,-4.04,-0.8907397885283893,8.93950680764774,0.3247732393459508,-0.3179147756534054,-0.5741005214368482,0.676711417294322,-0.614211417294322,0.125
1589997213.7727914,-4.025087281795511,-0.8825436408977556,8.925087281795511,0.3244444444444444,-0.31777777777777777,-0.5733333333333334,0.7807044887780549,-1.1842269326683292,0.07839775561097256
1589997213.7827914,-4.0074312332775115,-0.8679449866220091,8.839486246655502,0.3244444444444444,-0.31777777777777777,-0.5733333333333334,0.9150232911782257,-1.82362466555023,0.1121561663875575
1589997213.7927914,-3.9670633866528076,-0.8356507093222459,8.831412677330562,0.3244444444444444,-0.31777777777777777,-0.5733333333333334,0.5618046332120652,-1.0162677330561491,-0.08968306673596274
1589997213.8027914,-3.968722304842084,-0.8823338290525042,8.952112267789177,0.3244444444444444,-0.31777777777777777,-0.5733333333333334,-0.37223048420840366,0.6514033473647065,-0.015971189473949543
1589997213.8127913,-4.0075300248341,-0.9050120099336401,8.98501200993364,0.33445245106687116,-0.31777777777777777,-0.5900133443707111,-0.9691253104262509,1.907075682937752,0.0
1589997213.8227913,-4.06,-0.940454827731823,9.037271033609061,0.3377777777777778,-0.31777777777777777,-0.5955555555555555,-1.0852025734654842,2.1278038601982265,0.252842673323894
1589997213.8327913,-4.06,-0.9458136932819121,8.979162738656383,0.3377777777777778,-0.31777777777777777,-0.5955555555555555,-0.1453423320478027,0.7337121482645337,0.2968013498071704
1589997213.8427913,-4.054706817615846,-0.8960301132118844,8.96073693082773,0.3377777777777778,-0.31777777777777777,-0.5955555555555555,1.0330823899009636,-0.8662588835890658,0.10845880504951823
1589997213.8527913,-3.990430051912725,-0.847822538934544,8.84825259084727,0.3377777777777778,-0.31777777777777777,-0.5955555555555555,1.4348121755454666,-1.5190697852613835,-0.09240608777273335
1589997213.8627913,-3.98,-0.8336008668888524,8.861995665555739,0.3377777777777778,-0.33057604400007284,-0.5962665703456831,0.9000812708299186,-1.0250812708299186,0.034978327778688395
1589997213.8727913,-4.002579692433038,-0.890212513154768,8.895053128288692,0.3377777777777778,-0.3377777777777778,-0.5966666666666667,0.3743358963913501,-0.17004871507621278,-0.016123077706487438
1589997213.8827913,-4.0,-0.899485141903172,8.813604006677798,0.3377777777777778,-0.3377777777777778,-0.5966666666666667,0.75,-0.13143572621035057,-0.2596535893155259
1589997213.8927913,-4.0,-0.8901489148580969,8.878957595993324,0.3377777777777778,-0.3377777777777778,-0.5966666666666667,0.75,-0.24813856427378964,-0.4347078464106845
1589997213.9027913,-3.991744704682281,-0.8404682280936856,8.913021181270876,0.3377777777777778,-0.3377777777777778,-0.5966666666666667,0.28563963837830264,-0.09521321279276757,-0.4890955957357441
1589997213.9127913,-4.02,-0.8213790085500774,9.010827405130046,0.31777777777777777,-0.3111111111111111,-0.6044444444444445,-0.7724088889387581,0.953013846188371,-0.17543367518682257
1589997213.9227912,-4.02,-0.8684414622652095,9.039064877359126,0.31777777777777777,-0.3111111111111111,-0.6044444444444445,-1.5371737618096541,1.482466450483607,0.23636279482058303
1589997213.9327912,-3.96099971907482,-0.8905880700440116,8.920882105066017,0.31777777777777777,-0.3111111111111111,-0.6044444444444445,-1.6257350875550145,2.6242649124449855,0.8742649124449855
1589997213.9427912,-4.094538627212286,-0.9691403689484034,9.038710553422606,0.31777777777777777,-0.3111111111111111,-0.6044444444444445,-1.7239254611855042,2.5260745388144956,0.7760745388144957
1589997213.9527912,-4.059676085633117,-0.9274898538961039,8.960607244318181,0.31777777777777777,-0.3111111111111111,-0.6044444444444445,-0.08957424411525983,0.44888583096590917,0.3104755352069805
1589997213.9627912,-4.011891527139302,-0.8818915271393024,8.838647463202733,0.31309303230099483,-0.31579585658789405,-0.6044444444444445,0.7702753996035596,-1.003389776896799,0.14358051115516005
1589997213.9727912,-4.0,-0.8332057084338145,8.836794291566186,0.3111111111111111,-0.31777777777777777,-0.6044444444444445,0.24760703313402266,-0.4551427108453636,0.23998216114432955
1589997213.9827912,-4.028057416041465,-0.848704944027643,8.830647527986178,0.3111111111111111,-0.31777777777777777,-0.6044444444444445,-0.5723883511229972,0.5017942512957659,0.016188199654462387
1589997213.9927912,-4.039512337142441,-0.8880493485697649,8.925123371424412,0.3111111111111111,-0.31777777777777777,-0.6044444444444445,-0.7439042142805153,0.44359578571948466,0.059452107140257664
1589997214.0027912,-4.04,-0.9055973049506885,8.96899326237672,0.3111111111111111,-0.31777777777777777,-0.6044444444444445,-0.40880895420369107,0.09630895420369107,0.0625
1589997214.0127912,-4.010275698053378,-0.899862150973311,9.010275698053377,0.31777777777777777,-0.3377777777777778,-0.5966666666666667,-0.31680778208403065,0.13016933850083678,-0.06163844358319387
1589997214.0227911,-4.028747908041927,-0.8906260459790364,9.028747908041927,0.31777777777777777,-0.3377777777777778,-0.5966666666666667,-0.6054360631551132,0.47652327578613585,-0.0039127873689773635
1589997214.0327911,-4.060142463671763,-0.9398575363282362,8.97,0.31777777777777777,-0.3377777777777778,-0.5966666666666667,-0.9875344287206762,0.9893152246177225,0.06160960205147687
1589997214.0427911,-4.069579008155045,-0.9295188664629079,8.969579008155046,0.31777777777777777,-0.3377777777777778,-0.5966666666666667,-0.1231205721207341,0.24849645769658726,0.000375885575853181
1589997214.052791,-4.028226172199608,-0.8822584825138382,8.92822617219961,0.31777777777777777,-0.3377777777777778,-0.5966666666666667,0.061490302680319436,0.10080775785574445,0.03729806053606389
1589997214.062791,-4.027734033245844,-0.8721872265966755,8.911093613298338,0.3288713910761155,-0.33346359482842425,-0.5966666666666667,-0.0898403324584427,0.208005249343832,0.09716754155730534
1589997214.072791,-4.05,-0.8962583099719664,8.92,0.3377777777777778,-0.33,-0.5966666666666667,-0.2342711253504205,0.531457749299159,0.125
1589997214.082791,-4.089997133684935,-0.8533366773675762,8.800008598945196,0.3377777777777778,-0.33,-0.5966666666666667,0.27080049013987617,0.7916547236872277,0.08333631907819308
1589997214.092791,-4.034661046788592,-0.8990607071104575,8.871843168119964,0.3377777777777778,-0.33,-0.5966666666666667,0.46076096186905824,0.3648925042977569,0.023260961869058218
1589997214.102791,-4.038738963754646,-0.9051864544609666,8.95,0.3377777777777778,-0.33,-0.5966666666666667,0.6550846596189591,-0.06805079577137546,0.04351693192379182
1589997214.112791,-4.019173132199434,-0.89,9.011240301700848,0.32870514048876304,-0.32546368135549264,-0.5966666666666667,0.664944025415487,-0.08247201270774351,0.019972012707743507
1589997214.122791,-4.039703216374269,-0.8602225877192983,8.990370979532164,0.3244444444444444,-0.3233333333333333,-0.5966666666666667,0.5009274488304094,0.1856451023391813,0.12407255116959065
1589997214.132791,-4.01831988642266,-0.85277329547422,8.9177329547422,0.3244444444444444,-0.3233333333333333,-0.5966666666666667,0.2741654835693757,-0.12866832300287406,-0.05566761314449947
1589997214.142791,-4.028953794414388,-0.859476897207194,8.899476897207194,0.3244444444444444,-0.3233333333333333,-0.5966666666666667,-0.10865303772481355,-0.1907693924550373,-0.0657693924550373
1589997214.152791,-4.014873987230706,-0.8826890191539409,8.892436993615354,0.3244444444444444,-0.3233333333333333,-0.5966666666666667,-0.40861273942426163,-0.045693630287869186,-0.01523121009595639
1589997214.162791,-4.0286935421250165,-0.9086935421250162,8.880653228937494,0.311982083027767,-0.33683422486806724,-0.6039363774930618,-0.7920865957033778,0.23366927656270223,0.05841731914067556
1589997214.172791,-4.020395034403117,-0.8907900688062359,8.860790068806235,0.3111111111111111,-0.3377777777777778,-0.6044444444444445,-0.8725310349805129,0.49012413992205167,0.0625
1589997214.182791,-4.056795325374906,-0.8808011686562736,8.768011686562735,0.3111111111111111,-0.3377777777777778,-0.6044444444444445,-0.875,0.27002921640683847,0.0625
1589997214.192791,-4.052745068428504,-0.894509863142992,8.90509863142992,0.3111111111111111,-0.3377777777777778,-0.6044444444444445,-0.8296566776781501,0.2953433223218499,-0.028186644643699854
1589997214.202791,-4.05,-0.9045031882724165,8.991522317906917,0.3111111111111111,-0.3377777777777778,-0.6044444444444445,-0.6436304397843807,0.2562101465947936,0.021934780107809623
1589997214.212791,-4.03986036519871,-0.9066201217329037,9.040139634801289,0.3111111111111111,-0.33101802124358515,-0.6044444444444445,-0.24738184747583242,0.08187880415324024,0.0827515216612961
1589997214.222791,-4.025185154825092,-0.9103703096501834,9.06,0.3111111111111111,-0.31777777777777777,-0.6044444444444445,0.060185564686353665,-0.15740721765682317,0.0
1589997214.232791,-4.016534798000073,-0.9132673990000365,8.92534798000073,0.3111111111111111,-0.31777777777777777,-0.6044444444444445,-0.16831502499908763,-0.019184975000912374,0.12623626874931573
1589997214.242791,-4.03352731422051,-0.9041181714448724,8.877645485665383,0.3111111111111111,-0.31777777777777777,-0.6044444444444445,-0.3235228569390957,0.13602285693909572,0.0404542861218086
1589997214.252791,-4.044185436593644,-0.8941854365936439,8.901629126812713,0.3111111111111111,-0.31777777777777777,-0.6044444444444445,-0.375,0.15115897871027462,0.04652306386917618
1589997214.262791,-4.04,-0.8778315681145749,8.922168431885424,0.3151672550729195,-0.3299462096632029,-0.5997122764890014,-0.375,0.2771053985678144,0.125
1589997214.272791,-4.04,-0.8875901645433273,8.877229506370018,0.31777777777777777,-0.3377777777777778,-0.5966666666666667,-0.4299692641978977,0.375,0.07003073580210228
1589997214.282791,-4.054746970505296,-0.8973734852526485,8.81838560323146,0.31777777777777777,-0.3377777777777778,-0.5966666666666667,-0.11491002019663132,0.14457858585473668,-0.029668565658105328
1589997214.292791,-4.051207219585311,-0.891207219585311,8.835171121658757,0.31777777777777777,-0.3377777777777778,-0.5966666666666667,0.16486463277541843,-0.04740975518361229,0.04740975518361229
1589997214.3027909,-4.026198155961869,-0.89,8.905455071104859,0.31777777777777777,-0.3377777777777778,-0.5966666666666667,0.001548093452101884,-0.21126152523831848,0.09969038130957962
1589997214.3127909,-4.02921294446664,-0.89,9.001234518577705,0.32204732099258665,-0.3406241399209837,-0.5867043991654459,-0.3651618058330004,-0.032311226528166204,0.004919097083499802
1589997214.3227909,-4.054907346652487,-0.89,9.044907346652488,0.3244444444444444,-0.3422222222222222,-0.5811111111111111,-0.45341454171097584,0.17158545828902413,0.12384183315609656
1589997214.3327909,-4.027158221413665,-0.89,8.902211996361496,0.3244444444444444,-0.3422222222222222,-0.5811111111111111,-0.28355416287655844,-0.069076395205736,0.2901305580822944
1589997214.3427908,-4.037813597433112,-0.898906798716556,8.923440792299335,0.3244444444444444,-0.3422222222222222,-0.5811111111111111,-0.3613349839569491,0.09766996791389809,0.36816749197847454
1589997214.3527908,-4.026060920477284,-0.9139390795227155,8.923030460238643,0.3244444444444444,-0.3422222222222222,-0.5811111111111111,-0.24432112947454238,0.21211924701697177,0.2007615059660565
1589997214.3627908,-4.031279756656674,-0.9143601216716629,8.92,0.3169246066733282,-0.33156911871314093,-0.5980307460961226,-0.32849695820842884,0.10900304179157116,0.08975076044789279
1589997214.3727908,-4.048292144500777,-0.9017078554992236,8.89926963874806,0.3111111111111111,-0.3233333333333333,-0.6111111111111112,-0.3597611453052214,0.07773885469477859,0.0884129515649262
1589997214.3827908,-4.051253797520322,-0.89,8.843761392560966,0.3111111111111111,-0.3233333333333333,-0.6111111111111112,-0.22266811725100583,0.2694956482469825,0.20699564824698252
1589997214.3927908,-4.04,-0.8979130702836006,8.849565351418002,0.3111111111111111,-0.3233333333333333,-0.6111111111111112,-0.03912993218249075,0.0782598643649815,-0.0831535141800247
1589997214.4027908,-4.04,-0.9,8.91157027264403,0.3111111111111111,-0.3233333333333333,-0.6111111111111112,0.16115710201259506,0.0,-0.0666321734905537
1589997214.4127908,-4.031961712422426,-0.8839234248448512,8.980191437887871,0.31646996949616074,-0.31350875962740904,-0.6057522527260615,0.19976070264015988,-0.15071789207952035,-0.10047859471968022
1589997214.4227908,-4.0375873585772135,-0.8951747171544274,8.982412641422787,0.31777777777777777,-0.3111111111111111,-0.6044444444444445,-0.09702594664551417,-0.14007900889241431,-0.030158017784828628
1589997214.4327908,-4.045562980593189,-0.9,8.935496155254485,0.31777777777777777,-0.3111111111111111,-0.6044444444444445,-0.2570372574148663,0.014074514829732682,0.13907451482973268
1589997214.4427907,-4.043597049464854,-0.8807911483945617,8.912805901070293,0.31777777777777777,-0.3111111111111111,-0.6044444444444445,-0.5125922042233151,0.044963118310674,0.490110645067978
1589997214.4527907,-4.0337143923617935,-0.9014280381910338,8.92,0.31777777777777777,-0.3111111111111111,-0.6044444444444445,-0.6642850477387922,0.0,0.7428551432163766
1589997214.4627907,-4.037529580963588,-0.9124704190364124,8.935059161927175,0.31777777777777777,-0.3203139322888293,-0.5985881036949874,-0.546320356932732,0.047059881022422693,0.5772005948878864
1589997214.4727907,-4.04,-0.9039089846241055,8.903453907744632,0.31777777777777777,-0.3233333333333333,-0.5966666666666667,-0.6142065382980231,-0.013637692198682064,0.3857934617019769
1589997214.4827907,-4.019928638750505,-0.9066904537498317,8.853238185000674,0.31777777777777777,-0.3233333333333333,-0.5966666666666667,-0.6038693281271038,0.02113067187289619,0.2706846640635519
1589997214.4927907,-4.029652977538405,-0.9034490074871984,8.879305955076811,0.31777777777777777,-0.3233333333333333,-0.5966666666666667,-0.35778148397494747,0.1034437032050105,0.413774812820042
1589997214.5027907,-4.04,-0.905472687927605,8.927363439638025,0.31777777777777777,-0.3233333333333333,-0.5966666666666667,-0.1815914009049378,0.022387101357406722,0.7052257972851865
1589997214.5127907,-4.048694637262731,-0.9143473186313656,8.971736593156827,0.31777777777777777,-0.320918156315908,-0.6029461269119725,-0.01631703421586092,-0.11684148289206954,0.9293414828920695
1589997214.5227907,-4.054722155754753,-0.9120832336321302,8.99208323363213,0.31777777777777777,-0.31777777777777777,-0.6111111111111112,0.19097305306558193,-0.2699663163319774,0.967013473467209
1589997214.5327907,-4.039269780672206,-0.89,8.96269780672206,0.31777777777777777,-0.31777777777777777,-0.6111111111111112,0.3613083876038626,-0.4771806460064376,0.8430529044090127
1589997214.5427907,-4.042265505052308,-0.89,8.876132752526154,0.31777777777777777,-0.31777777777777777,-0.6111111111111112,0.07251089013460921,-0.07251089013460921,0.3991702967115364
1589997214.5527906,-4.038574156705044,-0.895712921647478,8.885712921647478,0.31777777777777777,-0.31777777777777777,-0.6111111111111112,-0.14282304118694797,-0.07141152059347398,0.410705760296737
1589997214.5627906,-4.03,-0.8788657802022957,8.897044739932568,0.3279535132359317,-0.32169152218476005,-0.5962388823645784,-0.20597037542144941,-0.036940750842898815,0.4375
1589997214.5727906,-4.03,-0.87,8.9,0.3322222222222222,-0.3233333333333333,-0.59,-0.1875,0.0,0.4375
1589997214.5827906,-4.038562553600937,-0.8857083690672914,8.918583261865416,0.3322222222222222,-0.3233333333333333,-0.59,-0.34817730667057123,-0.01783865333528563,0.4285159600058569
1589997214.5927906,-4.051474433893353,-0.8914744338933528,8.904209276844412,0.3322222222222222,-0.3233333333333333,-0.59,-0.3842152118334551,-0.15130798027757486,0.6335463842220599
1589997214.6027906,-4.033768595041322,-0.8737685950413223,8.951305785123967,0.3322222222222222,-0.3233333333333333,-0.59,-0.17933884297520664,-0.44566115702479336,0.9067148760330579
1589997214.6127906,-4.041802149451818,-0.885406448355453,8.973604298903636,0.3248133855869718,-0.3223321391934346,-0.5912014329678784,-0.039973131852279284,-0.5287096977784189,1.0625
1589997214.6227906,-4.034041863942187,-0.9379267381011712,8.970052329927734,0.2911111111111111,-0.31777777777777777,-0.5966666666666667,0.037565412409668576,-0.3500654124096686,0.9876962372290057
1589997214.6327906,-4.045616486613434,-0.9596477219351808,8.894207374354156,0.2911111111111111,-0.31777777777777777,-0.5966666666666667,0.09540130342883983,-0.28069956552372005,0.6205965241897604
1589997214.6427906,-4.045337264150944,-0.877607075471698,8.843067452830189,0.2911111111111111,-0.31777777777777777,-0.5966666666666667,0.5774557783018868,-0.4666420990566038,-0.18826945754716984
1589997214.6527905,-4.035383327442189,-0.8607666548843785,8.888449946979703,0.2911111111111111,-0.31777777777777777,-0.5966666666666667,0.5817710174315852,-0.42791681394526815,-0.2692710174315852
1589997214.6627905,-4.04,-0.8660270477162542,8.941918856851238,0.30435428539026393,-0.3199849734909699,-0.5909279578123671,0.08986667517223779,-0.06419048226588417,0.023985710640469504
1589997214.6727905,-4.051841382891905,-0.865920691445953,8.96,0.3244444444444444,-0.3233333333333333,-0.5822222222222222,-0.363491356925588,0.275495678462794,0.10198271385117591
1589997214.6827905,-4.045778492647059,-0.9055537683823529,8.903113970588237,0.3244444444444444,-0.3233333333333333,-0.5822222222222222,-0.001404526654411764,-0.061095473345588236,0.0
1589997214.6927905,-4.04,-0.913070080226522,8.935439358187825,0.3244444444444444,-0.3233333333333333,-0.5822222222222222,0.3415599929211892,-0.05756400424728647,-0.04331199858423785
1589997214.7027905,-4.045496827145951,-0.9045031728540487,8.965496827145952,0.3244444444444444,-0.3233333333333333,-0.5822222222222222,0.40314483033780446,-0.06871033932439108,0.006210339324391079
1589997214.7127905,-4.043765252760023,-0.8937652527600233,8.976234747239976,0.33275744076441344,-0.3233333333333333,-0.5912279682355219,0.25809848925043577,-0.008098489250435797,0.0625
1589997214.7227905,-4.04,-0.8766544403210494,8.99334555967895,0.3377777777777778,-0.3233333333333333,-0.5966666666666667,0.22920487399672046,0.0625,-0.02090974799344092
1589997214.7327905,-4.04,-0.8558337784424741,8.92916889221237,0.3377777777777778,-0.3233333333333333,-0.5966666666666667,0.27951296157817895,-0.026038884734536916,-0.03298703842182103
1589997214.7427905,-4.030957614968937,-0.8580847700621255,8.845478807484469,0.3377777777777778,-0.3233333333333333,-0.5966666666666667,0.2559850935558578,-0.125,-0.028257453222071096
1589997214.7527905,-4.030600619437801,-0.8853003097189007,8.8506006194378,0.3377777777777778,-0.3233333333333333,-0.5966666666666667,0.1875,-0.15812693574312933,-0.12875387148625866
1589997214.7627904,-4.055342840064896,-0.9002285600432642,8.911142800216322,0.3411872977921992,-0.3267428533477547,-0.6006444400168249,0.25142850027040103,-0.09160724959439843,-0.09160724959439843
1589997214.7727904,-4.061074207492796,-0.91,8.955537103746398,0.34444444444444444,-0.33,-0.6044444444444445,0.3125,-0.11157240634005765,0.055786203170028824
1589997214.7827904,-4.035860298758679,-0.8958602987586788,8.917007363770251,0.34444444444444444,-0.33,-0.6044444444444445,0.45978855459709655,-0.2794577109194193,0.06608457816116137
1589997214.7927904,-4.032513150329025,-0.88,8.917539450987073,0.34444444444444444,-0.33,-0.6044444444444445,0.5467928104435973,-0.27339640522179864,0.234621568669208
1589997214.8027904,-4.014666236899019,-0.8850667526201963,8.960267010480786,0.34444444444444444,-0.33,-0.6044444444444445,0.5316672038762269,-0.18666559224754617,0.5016688155049076
1589997214.8127904,-3.9940731467405883,-0.8777805597782348,8.967780559778236,0.33086728864248316,-0.33,-0.6012764414239868,0.5115856657426451,0.027743002772064734,0.9304860055441295
1589997214.8227904,-4.010437988297764,-0.8652189941488821,8.955218994148883,0.3111111111111111,-0.33,-0.5966666666666667,0.17655029255589,0.41309356715256873,1.63594970744411
1589997214.8327904,-4.0597065595716195,-0.85014672021419,8.890513520749666,0.3111111111111111,-0.33,-0.5966666666666667,-0.4657697456492637,0.5625,2.4333734939759037
1589997214.8427904,-3.973759936929242,-0.7984399842323107,8.833525721043296,0.3111111111111111,-0.33,-0.5966666666666667,-1.044071513041193,0.39342848695880694,3.8171789796991
1589997214.8527904,-3.8350752988047807,-0.8203011952191235,8.90527609561753,0.3111111111111111,-0.33,-0.5966666666666667,-1.3756274900398406,0.06187250996015936,6.1629955179282865
1589997214.8627903,-3.931524245724169,-0.9126096982896675,9.014349497149446,0.3147344109210742,-0.3342271831116236,-0.6045171495882533,-1.398094692844789,0.17527905002882582,8.654926814425725
1589997214.8727903,-3.7662918016332863,-0.8263041197134906,8.965253433094576,0.31777777777777777,-0.3377777777777778,-0.6111111111111112,-0.36503433094575477,-0.6119434052648387,10.888287558738993
1589997214.8827903,-3.4884248079034026,-0.7723108862692694,8.916155443134635,0.31777777777777777,-0.3377777777777778,-0.6111111111111112,0.11055696081706677,-0.9566708824512002,11.432642402042667
1589997214.8927903,-2.806749223217904,-0.8846913135497816,9.001426577205386,0.31777777777777777,-0.3377777777777778,-0.6111111111111112,-0.15560690322871165,-0.3762861935425767,9.494942473094069
1589997214.9027903,-2.387073732021196,-0.850357153671461,8.992799545798638,0.31777777777777777,-0.3377777777777778,-0.6111111111111112,0.1075028387585163,0.7332948523845572,5.468534254352763
1589997214.9127903,-2.3997741105223316,-0.6535012869038608,8.872145950037849,0.31777777777777777,-0.3377777777777778,-0.6111111111111112,0.8615878122634368,2.1620874337623013,0.5868262679788039
1589997214.9227903,-2.359111216088541,-0.7070839519503307,9.030525711971926,0.3244444444444444,-0.33,-0.6044444444444445,0.02682970036442167,2.537703300040491,-18.601148096909164
1589997214.9327903,-1.8918536121673004,-1.0042304425208315,9.115839131138257,0.3244444444444444,-0.33,-0.6044444444444445,-0.08304344308712897,3.2624547467842406,-33.37760901221584
1589997214.9427903,-1.7155542370646626,-1.075899870034469,8.905732986758585,0.3244444444444444,-0.33,-0.6044444444444445,2.311382814412989,5.09505377559285,-42.15911830630427
1589997214.9527903,-1.8596426984268064,-0.9354629218143573,8.598240452700502,0.3244444444444444,-0.33,-0.6044444444444445,4.857640431961603,6.6417836933013366,-47.784719136076795
1589997214.9627903,-2.11329189477637,-0.9930922781983121,9.029476451172995,0.32238292564556964,-0.33,-0.6020393391790906,1.8848165405063542,4.319044360337569,-53.53709953159278
1589997214.9727902,-2.2227671118530883,-1.0,9.118113522537563,0.31777777777777777,-0.33,-0.5966666666666667,0.23427065943238734,3.256677796327212,-57.854157971619365
1589997214.9827902,-2.2894484188005615,-1.0070863141004212,8.989292638898174,0.31777777777777777,-0.33,-0.5966666666666667,2.3907367787657954,4.92371047001404,-61.38923664504914
1589997214.9927902,-2.3366839453365715,-1.0355613151121905,8.940051836009715,0.31777777777777777,-0.33,-0.5966666666666667,2.8850386957624967,5.374676024939283,-65.10524658353572
1589997215.0027902,-2.4121763355592654,-1.0683864774624374,9.047016903171953,0.31777777777777777,-0.33,-0.5966666666666667,2.196059839315526,4.763602097245409,-69.53623226210351
1589997215.0127902,-2.4770120165606384,-1.1116096132485105,8.960573563566596,0.3357857888182032,-0.32339706261851064,-0.6008685359094326,2.8376502070079774,5.540240331212764,-73.38581111784308
1589997215.0227902,-2.5,-1.13,8.91,0.3511111111111111,-0.31777777777777777,-0.6044444444444445,3.125,6.0,-74.9375
1589997215.0327902,-2.5285113051264827,-1.158511305126483,8.881488694873518,0.3511111111111111,-0.31777777777777777,-0.6044444444444445,2.8280072382658012,5.881202895306321,-78.08562327438251
1589997215.0427902,-2.59,-1.2063831070889894,8.76361689291101,0.3511111111111111,-0.31777777777777777,-0.6044444444444445,2.517288838612368,6.03723604826546,-82.29523001508295
1589997215.0527902,-2.584801364471267,-1.2433938598792968,8.781191813172395,0.3511111111111111,-0.31777777777777777,-0.6044444444444445,2.719991472054579,6.266245736027289,-84.83981238520073
1589997215.0627902,-2.5701270007871946,-1.3094284964576226,8.86923799527683,0.3511111111111111,-0.31777777777777777,-0.6044444444444445,2.8117062450800314,6.312103122540016,-86.85753739176069
1589997215.0727901,-2.5894865174222055,-1.3672811243910878,8.955589213937765,0.3955555555555556,-0.2966666666666667,-0.6044444444444445,2.7987162935555143,6.298716293555514,-90.00189328399925
1589997215.0827901,-2.6330518633753517,-1.4361037267507035,8.910390061998124,0.3955555555555556,-0.2966666666666667,-0.6044444444444445,3.038148292191897,6.674105202351811,-92.32669837111939
1589997215.0927901,-2.6543592206019864,-1.4874368824079456,8.859232985417878,0.3955555555555556,-0.2966666666666667,-0.6044444444444445,3.30449025752483,7.0625,-94.40709899163487
1589997215.10279,-2.6639268775890015,-1.529634387945008,8.921780632767005,0.3955555555555556,-0.2966666666666667,-0.6044444444444445,3.375,7.08704298493126,-96.26083253286906
1589997215.11279,-2.674369947424953,-1.5687398948499067,8.933445078862569,0.3987116286957997,-0.29545279238195743,-0.6044444444444445,3.3476878285940415,7.152312171405958,-97.86083865679235
1589997215.12279,-2.69031771729232,-1.6012708691692807,8.908887989476879,0.41,-0.2911111111111111,-0.6044444444444445,3.255957199231003,7.252978599615501,-99.39882879692401
1589997215.13279,-2.714738571189933,-1.6918464279748315,8.806830001670471,0.41,-0.2911111111111111,-0.6044444444444445,3.5509598251573027,7.481924104905619,-101.24520087421348
1589997215.14279,-2.7302932975682066,-1.7305865951364134,8.702053082977447,0.41,-0.2911111111111111,-0.6044444444444445,3.3106668901987084,7.626833109801292,-102.481494635231
1589997215.15279,-2.747482900373083,-1.7674601008705264,8.784965800746166,0.41,-0.2911111111111111,-0.6044444444444445,3.265589375777256,7.7342681273317675,-104.31164501865413
1589997215.16279,-2.7692165261848833,-1.8181718944313943,8.828433052369766,0.41,-0.2911111111111111,-0.6044444444444445,3.3108677628851733,7.87010328865552,-105.39832630924417
1589997215.17279,-2.8041581744151274,-1.9007908720756366,8.938316348830254,0.43666666666666665,-0.23777777777777775,-0.6044444444444445,3.0519771801890916,7.489477180189091,-107.00430603160729
1589997215.18279,-2.8058658938742878,-1.946536424502848,8.900390726491455,0.43666666666666665,-0.23777777777777775,-0.6044444444444445,3.383381632857,7.7175289797142,-107.9350579594284
1589997215.19279,-2.7958491456834533,-2.007357688848921,8.838301708633093,0.43666666666666665,-0.23777777777777775,-0.6044444444444445,3.827828518435252,7.963442839478417,-108.60848555530576
1589997215.20279,-2.7933326358081527,-2.069997907424458,8.853332635808153,0.43666666666666665,-0.23777777777777775,-0.6044444444444445,3.8750130785971373,8.0,-109.1666187118105
1589997215.21279,-2.7941127690016643,-2.098830846497503,8.865887230998336,0.4481140602745415,-0.22404090544832797,-0.606406854777223,3.658012015651006,8.018397596869798,-109.90096395304698
1589997215.22279,-2.7676896265177047,-2.144620746964591,8.88,0.4755555555555556,-0.19111111111111112,-0.6111111111111112,3.4375,8.0625,-110.5625
1589997215.23279,-2.736621522395366,-2.1900338582034755,8.81310761197683,0.4755555555555556,-0.19111111111111112,-0.6111111111111112,3.500211613771722,8.020692257485518,-110.70882709880068
1589997215.24279,-2.690286370921407,-2.2240811636275666,8.691264930902053,0.4755555555555556,-0.19111111111111112,-0.6111111111111112,3.5897970909310835,7.972702909068916,-111.22881890894796
1589997215.25279,-2.64,-2.270505227487148,8.744512197470012,0.4755555555555556,-0.19111111111111112,-0.6111111111111112,3.5,7.9749564376071005,-111.9875871247858
1589997215.26279,-2.6370693756371506,-2.3075837461770967,8.800257185269972,0.4833705538564874,-0.18622673717302873,-0.6132276731509468,3.5641074079373314,7.8674492068034265,-112.38576560907124
1589997215.27279,-2.6220664246239695,-2.397601452256184,8.852767513816106,0.5233784232249705,-0.1612218188177267,-0.6240631377715776,3.8922969613506697,8.148754538300574,-112.76083938440077
1589997215.28279,-2.594774991666358,-2.4311187451387086,8.892237490277418,0.5288888888888889,-0.15777777777777774,-0.6255555555555555,4.094218767361754,8.453359383680876,-113.50187506944701
1589997215.29279,-2.501564872773066,-2.3767461757842883,8.783492351568576,0.5288888888888889,-0.15777777777777774,-0.6255555555555555,4.2884065150561135,8.550453257528057,-114.27862606022445
1589997215.30279,-2.5131380633435425,-2.514356130725994,8.783723873312914,0.5288888888888889,-0.15777777777777774,-0.6255555555555555,3.6446128958971427,8.597629034700953,-115.65998388643936
1589997215.31279,-2.449611591666386,-2.60611658981522,8.910776816667227,0.5288888888888889,-0.15777777777777774,-0.6255555555555555,3.247572447914914,8.729975850695029,-116.49818038773518
1589997215.32279,-2.2986776645919926,-2.6226446708160145,8.882230956431847,0.5277777777777778,-0.10777777777777778,-0.6255555555555555,4.350206211099865,8.86208757780027,-117.98967329270131
1589997215.33279,-2.2875986901946517,-2.646603601964708,8.702401309805348,0.5277777777777778,-0.10777777777777778,-0.6255555555555555,4.138723394578861,9.134971348008005,-119.68631753683827
1589997215.34279,-2.2465006951685784,-2.777994438651373,8.746998609662842,0.5277777777777778,-0.10777777777777778,-0.6255555555555555,3.4187413103927704,8.553077207160236,-122.17176637990963
1589997215.3527899,-2.237501039587492,-2.837496881237525,8.762498960412508,0.5277777777777778,-0.10777777777777778,-0.6255555555555555,3.718659036094478,9.015618502578176,-123.65605507734531
1589997215.3627899,-2.227189266890273,-2.867026832774317,8.767189266890274,0.5315254219240803,-0.09856481925145077,-0.6294593515412873,4.357432918064207,9.08885062290369,-125.28208852419742
1589997215.3727899,-2.204181951811849,-2.9293934939605037,8.755818048188152,0.5544444444444444,-0.042222222222222223,-0.6533333333333333,4.346967469802518,9.237879066274685,-126.89166054195692
1589997215.3827899,-2.1729383936302775,-3.0170616063697224,8.751753574521109,0.5544444444444444,-0.042222222222222223,-0.6533333333333333,4.639662400473083,9.297837599526916,-128.35308031848612
1589997215.3927898,-2.1397317497696324,-3.03,8.70868639295587,0.5544444444444444,-0.042222222222222223,-0.6533333333333333,4.3289200880516026,9.445710044025802,-129.3438363878366
1589997215.4027898,-2.0817775588269387,-3.0546673235191837,8.746444882346122,0.5544444444444444,-0.042222222222222223,-0.6533333333333333,4.113890257331633,9.432410600440477,-130.3588008577721
1589997215.4127898,-2.0571208858812673,-3.1190402952937557,8.786161181175022,0.5558306845756861,-0.03603745855975939,-0.6549328411770737,4.273992617656106,9.773992617656106,-130.84249077207014
1589997215.4227898,-2.028626098948457,-3.111648681261851,8.750824340630926,0.5688888888888889,0.022222222222222227,-0.67,4.486260989484571,9.986260989484572,-131.12671737631442
1589997215.4327898,-1.9670345022891396,-3.17648274885543,8.764873586003995,0.5688888888888889,0.022222222222222227,-0.67,4.067528633910731,9.594540087475025,-131.1334770928714
1589997215.4427898,-1.9274413555482135,-3.196279322225893,8.718681581472916,0.5688888888888889,0.022222222222222227,-0.67,4.273742939853054,9.883240115794276,-130.96850564811754
1589997215.4527898,-1.9051454070105223,-3.306472790652637,8.689418371957911,0.5688888888888889,0.022222222222222227,-0.67,4.179203852236783,9.731590116842037,-130.31613517526304
1589997215.4627898,-1.8848386159705635,-3.3335485120392483,8.770645536117746,0.5688888888888889,0.022222222222222227,-0.67,3.8830631495707184,9.393143599509392,-129.8084653992641
1589997215.4727898,-1.8335486229588107,-3.3481720692176458,8.789032415305874,0.5633333333333334,0.08,-0.6844444444444444,4.2043017304411405,9.573924567389716,-128.18615951742626
1589997215.4827898,-1.7375149668590977,-3.322011973487278,8.73325449005773,0.5633333333333334,0.08,-0.6844444444444444,4.042159437139191,9.55473427143468,-126.7111713571734
1589997215.4927897,-1.646503259452412,-3.26,8.707750543242069,0.5633333333333334,0.08,-0.6844444444444444,4.117204476314646,9.396854628422425,-125.03604954367667
1589997215.5027897,-1.6027556714471969,-3.26,8.700459278574533,0.5633333333333334,0.08,-0.6844444444444444,3.8893524554541505,9.67027705345502,-123.53222620599739
1589997215.5127897,-1.5620697633807736,-3.3186782938967956,8.726608530516023,0.5649487519039165,0.0886645177876733,-0.6872347128845426,3.22054265258011,9.59195734741989,-121.43141944250415
1589997215.5227897,-1.5114610834475153,-3.3114610834475156,8.769269458276241,0.5755555555555556,0.14555555555555555,-0.7055555555555556,3.419236456906059,9.361302342679544,-119.59019399792801
1589997215.5327897,-1.5120192388827947,-3.353974348156274,8.736025651843725,0.5755555555555556,0.14555555555555555,-0.7055555555555556,3.2624198379883556,9.075120243017468,-116.8882214581048
1589997215.5427897,-1.454284907452571,-3.385304854568326,8.666529920673632,0.5755555555555556,0.14555555555555555,-0.7055555555555556,3.465562665263266,8.840562665263265,-114.77930935999795
1589997215.5527897,-1.4,-3.3292559209895485,8.66050819829322,0.5755555555555556,0.14555555555555555,-0.7055555555555556,3.337454453926551,8.90936930674082,-112.43114752133474
1589997215.5627897,-1.3972143311426755,-3.4295357218571128,8.800928556285776,0.5749881044920265,0.14828963795255928,-0.707206322285822,2.60312433750265,8.824106953572185,-110.55982351070595
1589997215.5727897,-1.3375569469429713,-3.429772212228115,8.76625283274537,0.5633333333333334,0.20444444444444448,-0.7411111111111112,3.2237328575099875,8.940347347148565,-107.35727489895568
1589997215.5827897,-1.3181959349343502,-3.455573475600381,8.622132621998093,0.5633333333333334,0.20444444444444448,-0.7411111111111112,2.4518368900095324,8.534834222502383,-105.13829141170321
1589997215.5927896,-1.2666071154023555,-3.436227668275883,8.718861658620584,0.5633333333333334,0.20444444444444448,-0.7411111111111112,1.9681917068970818,8.41392292672427,-103.28431820977215
1589997215.6027896,-1.18,-3.35173642808585,8.468030979897058,0.5633333333333334,0.20444444444444448,-0.7411111111111112,2.956589297853744,8.550290740021365,-99.43352736233855
1589997215.6127896,-1.18,-3.4060473924444015,8.719219190055357,0.5633333333333334,0.20444444444444448,-0.7411111111111112,1.598815188889968,8.168416771875304,-97.35443575798776
1589997215.6227896,-1.2279055986922762,-3.5449734368614627,8.791675521046178,0.6027223811469827,0.21615470190255642,-0.7815647277845889,1.6587019820187985,7.820354004903964,-92.84458009807928
1589997215.6327896,-1.1690798812750032,-3.549079881275003,8.687929732868756,0.6044444444444445,0.21666666666666667,-0.7833333333333333,1.046685459414118,7.491373886953156,-88.91805192605497
1589997215.6427896,-1.1359703020993344,-3.545821812596006,8.75920805598225,0.6044444444444445,0.21666666666666667,-0.7833333333333333,0.6859532343403312,6.677227342549923,-84.65389784946237
1589997215.6527896,-1.1574464925755248,-3.6746789554531487,9.331906468680662,0.6044444444444445,0.21666666666666667,-0.7833333333333333,1.8045048216419184,5.066513056835637,-81.83514784946236
1589997215.6627896,-0.9206934654219852,-3.299961135454372,7.303947037530958,0.6042860227344891,0.216112190681823,-0.784838339577909,7.886340255286721,-0.292893884549438,-76.87597161364069
1589997215.6727896,-1.0405534387502382,-3.523699752333778,9.253669270337207,0.6025103194259224,0.20989722910183953,-0.8017075210092928,-5.997439988569251,15.33884430367689,-71.28250619165556
1589997215.6827896,-0.972294223112208,-3.528523063310592,9.312609495424592,0.6022222222222222,0.2088888888888889,-0.8044444444444444,-2.485588341444106,1.8545678394299951,-68.65670623093581
1589997215.6927896,-0.9038634181780442,-3.4367024726914193,8.274653745362082,0.6022222222222222,0.2088888888888889,-0.8044444444444444,2.34237727355284,6.343780000518928,-63.39420681871254
1589997215.7027895,-0.9219244894700425,-3.5938489789400845,8.746979578801696,0.6022222222222222,0.2088888888888889,-0.8044444444444444,-0.9950510529957597,3.9325510529957595,-60.463456744672925
1589997215.7127895,-0.9293660734879265,-3.6087321469758527,9.04464293951706,0.6022222222222222,0.2088888888888889,-0.8044444444444444,-0.2508926512073524,3.1883926512073524,-57.90541223852527
1589997215.7227895,-0.8539532660647902,-3.604185023898035,8.452555071694105,0.5644444444444444,0.08888888888888889,-0.7766666666666666,1.2878040361125862,3.7848831651619754,-52.71077137546468
1589997215.7327895,-0.8844840021131452,-3.7479360084525806,8.845196040149757,0.5644444444444444,0.08888888888888889,-0.7766666666666666,-0.48428348301444746,3.7485917150929096,-49.50949192640742
1589997215.7427895,-0.8628551705709451,-3.668558608711143,8.435675826133428,0.5644444444444444,0.08888888888888889,-0.7766666666666666,1.1340086955553577,3.16073277589739,-45.973577925982006
1589997215.7527895,-0.8785093221438768,-3.7804968926187077,8.764534181194215,0.5644444444444444,0.08888888888888889,-0.7766666666666666,0.45302789433461665,2.993788842266153,-42.61995411025075
1589997215.7627895,-0.8603655318596704,-3.7865448227134433,8.698006950152125,0.5644444444444444,0.08888888888888889,-0.7766666666666666,0.6420257097951003,2.91818971608196,-40.276381198540754
1589997215.7727895,-0.842006312794523,-3.853949497643816,8.843854805725972,0.5138177588097567,0.15283838653270504,-0.6540967961826857,0.75,2.425355094691918,-35.78998566284343
1589997215.7827895,-0.81,-3.818098534296532,8.604295602889596,0.5011111111111111,0.1688888888888889,-0.6233333333333333,0.9291378249053448,1.91725366425867,-30.7051099277601
1589997215.7927895,-0.8109851844386213,-3.86,8.726059262245515,0.5011111111111111,0.1688888888888889,-0.6233333333333333,0.5686574027413828,1.787870389034469,-27.2053706409998
1589997215.8027894,-0.8180306389840758,-3.86,8.697877444063696,0.5011111111111111,0.1688888888888889,-0.6233333333333333,0.6126914936504737,1.6117340253981052,-24.651393368272526
1589997215.8127894,-0.800244500375903,-3.8995109992481938,9.55924198346027,0.5011111111111111,0.1688888888888889,-0.6233333333333333,0.7484718726506063,1.2538203183734842,-20.542023502108325
1589997215.8227894,-0.43781331990009026,-3.1183248326091975,8.034002476754193,0.4844444444444445,0.26222222222222225,-0.5955555555555555,5.36309111516907,5.561500377809962,-15.536484898096258
1589997215.8327894,-0.6245217891557601,-3.372121865861259,7.748209406011794,0.4844444444444445,0.26222222222222225,-0.5955555555555555,0.6884738002780573,-0.3895680521597391,-15.0294567093341
1589997215.8427894,-0.7338550737922817,-3.6722405811715095,9.324959437161976,0.4844444444444445,0.26222222222222225,-0.5955555555555555,-8.189257436520304,-6.077228377944817,-14.511123269777249
1589997215.8527894,-0.65,-3.5808962121973273,8.266273485381292,0.4844444444444445,0.26222222222222225,-0.5955555555555555,3.6220549080679194,1.2172774540339597,-9.100535014568472
1589997215.8627894,-0.65,-3.5879197226966744,8.31543805887672,0.4844444444444445,0.26222222222222225,-0.5955555555555555,2.1295589269566966,0.4710294634783482,-6.949584924143474
1589997215.8727894,-0.7789785768196157,-3.849416329611209,9.268326592224179,0.4777777777777778,0.2966666666666667,-0.5811111111111111,-1.9407209761384088,-0.8006441952276818,-4.073928840980783
1589997215.8827894,-0.722159541733594,-3.8169483095620538,8.618966191241073,0.4777777777777778,0.2966666666666667,-0.5811111111111111,1.3568123101039227,-0.14113753797921547,-1.2329770866796972
1589997215.8927894,-0.7855687573864596,-3.9367062721593786,8.940916765152794,0.4777777777777778,0.2966666666666667,-0.5811111111111111,-0.8622662713152118,-0.6711587772243796,2.424660750464292
1589997215.9027894,-0.7614199134199134,-3.8624848484848484,8.607809523809523,0.4777777777777778,0.2966666666666667,-0.5811111111111111,1.3372835497835498,-0.9375,4.977056277056277
1589997215.9127893,-0.7996454773296879,-3.929379585326954,8.818050125313283,0.4777777777777778,0.2966666666666667,-0.5811111111111111,0.32191700843016635,-0.9375,7.724518683071315
1589997215.9227893,-0.78,-3.937088281868567,8.749029427289523,0.4988888888888889,0.3233333333333333,-0.5722222222222222,1.189339205595144,-1.268198238321457,10.698341415940881
1589997215.9327893,-0.780445257853436,-3.911781031413744,8.73888685536641,0.4988888888888889,0.3233333333333333,-0.5722222222222222,0.6277828615839748,-1.4388914307919873,13.183440093263469
1589997215.9427893,-0.7995400287482033,-3.9895400287482032,8.693219798762577,0.4988888888888889,0.3233333333333333,-0.5722222222222222,0.7183769764389726,-1.511499281294919,15.87361727392038
1589997215.9527893,-0.7929868445722142,-3.9829868445722143,8.7390920879945,0.4988888888888889,0.3233333333333333,-0.5722222222222222,0.2678455643397287,-1.675328885694644,17.634785521217424
1589997215.9627893,-0.7828211095735312,-3.9656422191470626,8.716926657441187,0.4988888888888889,0.3233333333333333,-0.5722222222222222,-0.027236130330859226,-1.8397361303308593,20.54629906277519
1589997215.9727893,-0.7929940296742922,-3.9535029851628543,8.66751492581427,0.4909480929768215,0.33921492515746815,-0.5917132667336604,-0.14371268546432583,-1.9562126854643258,23.080466394750843
1589997215.9827893,-0.8159536541889483,-3.95,8.59416221033868,0.4866666666666667,0.3477777777777778,-0.6022222222222222,-0.4367758467023173,-2.1994206773618536,26.193627450980394
1589997215.9927893,-0.8269161693992236,-3.9984131857945657,8.642245524593013,0.4866666666666667,0.3477777777777778,-0.6022222222222222,-0.456773941254852,-2.379678176235444,28.608720526041363
1589997216.0027893,-0.83,-3.99832427608092,8.698803054343514,0.4866666666666667,0.3477777777777778,-0.6022222222222222,-0.4970076358587862,-2.5669885462118205,32.05984728282428
1589997216.0127892,-0.83,-3.94009321697739,8.657209440698136,0.4866666666666667,0.3477777777777778,-0.6022222222222222,-0.3930236017453391,-2.722964597381991,34.139527965093215
1589997216.0227892,-0.8575311102160226,-3.99,8.708765555108013,0.52,0.3622222222222222,-0.5966666666666667,-0.9382777554005639,-3.2422847194250703,37.097965381272395
1589997216.0327892,-0.8408541282867191,-3.989288226427734,8.698434098141014,0.52,0.3622222222222222,-0.5966666666666667,-0.5071177357226595,-3.19105886786133,39.145463490202644
1589997216.0427892,-0.899663518299882,-3.9418506493506493,8.593196576151122,0.52,0.3622222222222222,-0.5966666666666667,-1.001051505312869,-3.436448494687131,40.58458161157025
1589997216.0527892,-0.8806175642539279,-4.0466033966033965,8.774133139587684,0.52,0.3622222222222222,-0.5966666666666667,-1.0605701117064754,-3.3769298882935246,41.834472345835984
1589997216.0627892,-0.846640225231705,-3.9832804504634103,8.588181295082304,0.52,0.3622222222222222,-0.5966666666666667,-0.28063027886808734,-2.9058781673208522,42.65686972113191
1589997216.0727892,-0.9097729520356024,-4.018841066424922,8.84304639854953,0.5665153013570683,0.36609849733531125,-0.6051944719154625,-1.7384995158233063,-3.553837615378276,42.46363523982199
1589997216.0827892,-0.8913017392235991,-4.020520695689439,8.638851826720476,0.5866666666666667,0.36777777777777776,-0.6088888888888889,-0.6721880468554693,-3.0836532623834865,42.555991303882
1589997216.0927892,-0.9704183172507195,-4.059641442356526,8.66958168274928,0.5866666666666667,0.36777777777777776,-0.6088888888888889,-1.6242530049094295,-3.189367487726426,42.06100600981886
1589997216.1027892,-1.0201222278652446,-4.017038090401218,8.619877772134755,0.5866666666666667,0.36777777777777776,-0.6088888888888889,-1.535496021669206,-3.411259945826985,41.883492043338414
1589997216.1127892,-1.0473323428305075,-4.036661714152538,8.71731748528812,0.5866666666666667,0.36777777777777776,-0.6088888888888889,-1.4541728573093282,-3.5,41.720845714618655
1589997216.1227891,-1.0600100574712643,-3.8800184386973178,8.690003352490422,0.7644444444444445,0.4,-0.6533333333333333,-1.0001257183908046,-3.5624895234674328,42.06263619492337
1589997216.1327891,-1.1201703921260904,-3.9900851960630455,8.709531421653253,0.7644444444444445,0.4,-0.6533333333333333,-1.749467524605968,-3.501064950788064,42.87899356545524
1589997216.1427891,-1.1577849023608278,-4.008892451180413,8.606091518507723,0.7644444444444445,0.4,-0.6533333333333333,-1.6319221801224133,-3.7361556397551734,43.7605836490819
1589997216.152789,-1.1303530030293167,-3.950706006058634,8.708705655559173,0.7644444444444445,0.4,-0.6533333333333333,-1.6867645770222568,-3.5029416919109733,44.98602696342288
1589997216.162789,-1.137922859435296,-3.942077140564704,8.694154281129409,0.7644444444444445,0.4,-0.6533333333333333,-1.390392771176403,-3.5,45.89132168647079
1589997216.172789,-1.1494942704354467,-4.015954163483575,8.784942704354469,1.4712401324166033,0.48544843391902215,-1.2440879382055852,-2.083909472880061,-3.5,46.837070282658516
1589997216.182789,-1.197937446880843,-3.9583661397246304,8.721517933027366,1.5088888888888892,0.49,-1.2755555555555556,-1.9109935407105219,-3.5,46.96060258371579
1589997216.192789,-1.2471714982389597,-3.939057166079653,8.71717149823896,1.5088888888888892,0.49,-1.2755555555555556,-2.03892915199133,-3.5566072879978328,46.207497968030346
1589997216.202789,-1.2859069674440586,-3.9328186065111885,8.684093032555941,1.5088888888888892,0.49,-1.2755555555555556,-1.5238954883391198,-3.4727325813898533,45.58639548833912
1589997216.212789,-1.2668160365516896,-3.9100896219310135,8.736367926896621,1.5088888888888892,0.49,-1.2755555555555556,-1.4784198172415524,-3.5619398629311645,44.420961050861074
1589997216.222789,-1.2378553499255478,-3.912144650074452,8.691059774516061,1.1364529532723535,0.13780514784088493,-0.9894815760240138,-1.1829796851733674,-3.4352398425866837,43.2164114018294
1589997216.232789,-1.274773073989321,-3.946863844393593,8.693727688787185,0.8955555555555555,-0.09,-0.8044444444444444,-1.3852307398932113,-3.424432684973303,41.51874046529367
1589997216.242789,-1.2972153788727137,-3.9069615528182156,8.596707726763718,0.8955555555555555,-0.09,-0.8044444444444444,-0.9533174692049271,-3.276105823068309,40.514231056364316
1589997216.252789,-1.3092795704530054,-3.9,8.672795704530053,0.8955555555555555,-0.09,-0.8044444444444444,-1.1069892613251315,-3.134005369337434,39.6790322160246
1589997216.262789,-1.3251200216116086,-3.9378000540290214,8.710240043223218,0.8955555555555555,-0.09,-0.8044444444444444,-1.125,-3.125,38.774498784347024
1589997216.272789,-1.4081801200800532,-3.881592394929953,8.739545030020013,0.6295259802831517,0.18688792528352235,-0.6850025943221406,-1.125,-2.9417653435623747,37.583826717811874
1589997216.282789,-1.3501971157330241,-3.8999342947556586,8.769901442133488,0.6233333333333333,0.19333333333333333,-0.6822222222222222,-1.4987680266685992,-2.999794671111433,36.0674278933256
1589997216.292789,-1.4388603128719606,-3.873341906138412,8.618937468117666,0.6233333333333333,0.19333333333333333,-0.6822222222222222,-1.000160740095222,-2.5556984356401973,34.28529374256079
1589997216.302789,-1.508915263759857,-3.8110847362401428,8.710466119549732,0.6233333333333333,0.19333333333333333,-0.6822222222222222,-1.0755826494371652,-2.638082649437165,32.54359085619118
1589997216.312789,-1.4735751904243743,-3.79,8.712383460282917,0.6233333333333333,0.19333333333333333,-0.6822222222222222,-0.8115288356909685,-2.4915805223068554,31.686528835690968
1589997216.322789,-1.4077511215135556,-3.8625599765944996,8.867368831675444,0.6036256853693952,0.23185282708103072,-0.6938676505645494,-1.2800553442559002,-2.6773332358104156,30.038722693582994
1589997216.332789,-1.3298198517677933,-3.7779197843895176,8.693079541827725,0.5988888888888889,0.2411111111111111,-0.6966666666666667,-0.5203730628745701,-2.271498989325863,28.77037306287457
1589997216.342789,-1.2813943633819709,-3.771633819708175,8.630239456326205,0.5988888888888889,0.2411111111111111,-0.6966666666666667,-1.0757045772536478,-2.268926144313412,25.61452378572856
1589997216.352789,-1.2987930669359962,-3.7424138661280075,8.64,0.5988888888888889,0.2411111111111111,-0.6966666666666667,-0.5452599899001417,-1.9601299949500708,22.799214410217147
1589997216.362789,-1.31,-3.7559014226362835,8.759671408787613,0.5988888888888889,0.2411111111111111,-0.6966666666666667,-0.34938389147677196,-1.637808054261614,18.79458524801712
1589997216.372789,-1.249571056679683,-3.7541018814341496,8.693243994793516,0.5921745618532981,0.23535597365203334,-0.7091361311613353,0.0934985504674003,-1.1308646905691635,12.69219249201278
1589997216.382789,-1.1676374212312166,-3.8133172564226854,8.697135967038292,0.5911111111111111,0.2344444444444445,-0.7111111111111111,-0.0386330586524479,-0.44063408870576826,6.0640072103732425
1589997216.392789,-1.111715404976178,-3.8360948650079405,8.69195256749603,0.5911111111111111,0.2344444444444445,-0.7111111111111111,0.18898226574907356,-0.022924827951296967,-0.7489637374272098
1589997216.4027889,-1.0607018470924507,-3.84785963058151,8.66642110825547,0.5911111111111111,0.2344444444444445,-0.7111111111111111,0.7412269113443662,0.5537269113443662,-9.028931376552254
1589997216.4127889,-0.9903161983919053,-3.902223326407083,8.682381425603035,0.5911111111111111,0.2344444444444445,-0.7111111111111111,1.0615118800252958,1.2936636100822116,-17.91582347095492
1589997216.4227889,-0.8735562816122647,-3.8717781408061325,8.805732462065283,0.5536052206269918,0.1583610666052311,-0.640385717626772,1.7880505639156796,2.102773239923345,-30.19798113474286
1589997216.4327888,-0.8056762614023681,-3.87,8.689392990129441,0.5522222222222222,0.15555555555555556,-0.6377777777777778,2.5160408909115985,2.979299653249798,-39.20600237405678
1589997216.4427888,-1.2786453039837806,-11.410302535611784,3.1922275468021803,0.5522222222222222,0.15555555555555556,-0.6377777777777778,-14.899518483898998,30.2525523973775,-61.95355163379762
1589997216.4527888,-1.6294722465598102,-7.788091789929393,0.15909008916146972,0.5522222222222222,0.15555555555555556,-0.6377777777777778,-90.64280813533989,95.54712866567026,-569.2349926557749
1589997216.4627888,-0.9499674096724874,-6.933798986078699,0.0,0.5522222222222222,0.15555555555555556,-0.6377777777777778,-81.62712239478554,-23.569671883801405,-808.8470819586385
1589997216.4727888,-0.5999001300631736,-6.242373188405797,0.050940867707172065,0.5223045697592799,0.26067163177670427,-0.6070515401131342,-75.76020037857674,9.399491360089186,-841.4581141420475
1589997216.4827888,-0.9925373906934611,-5.873567321735594,1.5058285112125864,0.5111111111111111,0.3,-0.5955555555555555,-70.38348685548428,60.95494051690669,-813.995505259655
1589997216.4927888,-1.5010074805029445,-5.865053318478434,3.7330065255451217,0.5111111111111111,0.3,-0.5955555555555555,-25.654812589527296,142.7625338214229,-760.7109163616107
1589997216.5027888,-5.919485309120589,-5.296113293205468,8.813083299326669,0.5111111111111111,0.3,-0.5955555555555555,47.70445604213426,200.36385909763314,-703.7258945878392
1589997216.5127888,-1.9600063692999745,-4.1193360004776975,2.037264982782986,0.5111111111111111,0.3,-0.5955555555555555,173.53633362194225,108.39479085806414,-659.2841653231425
1589997216.5227888,-0.5787965589823373,-0.6535160611329736,0.10665232909307226,0.3912587576136583,0.44787753068342434,-0.5752820231231506,214.04581541136633,61.26643863823556,-589.6423423629542
1589997216.5327888,-0.6341722002536745,0.7979914944415429,-0.19297992986644785,0.2877777777777778,0.5755555555555556,-0.5577777777777778,138.55962284563157,40.41225378646572,-390.79901887637095
1589997216.5427887,0.07302514390714931,0.5800817505109407,1.7521697635610223,0.2877777777777778,0.5755555555555556,-0.5577777777777778,51.98329481746761,8.88423794836218,-280.3995286689292
1589997216.5527887,1.0207731157731157,1.1378923853923855,11.820215617715617,0.2877777777777778,0.5755555555555556,-0.5577777777777778,-36.732031857031856,13.71854360916861,-250.4474431818182
1589997216.5627887,0.038716869471652204,0.3912652499327499,12.986596199186671,0.2877777777777778,0.5755555555555556,-0.5577777777777778,-46.67929747456367,34.72627656376093,-237.01222763738784
1589997216.5727887,0.3961462747778537,0.44544497607655503,9.524596035543404,0.14734366218576747,0.6151253892306524,-0.5926923369028632,5.664302802460696,19.482723855092278,-218.60426349965823
1589997216.5827887,0.7053299263490155,0.5695731249060575,5.201035623027206,0.08666666666666667,0.6322222222222222,-0.6077777777777778,40.47032353825342,-2.0437396663159486,-193.25154065834963
1589997216.5927887,0.863490178163545,0.08144472361809041,6.05804819552307,0.08666666666666667,0.6322222222222222,-0.6077777777777778,27.199134878940157,-2.002919426678849,-183.8260335769758
1589997216.6027887,1.5859807344972907,-0.9823323299217339,10.979532811559302,0.08666666666666667,0.6322222222222222,-0.6077777777777778,-10.330094822396147,11.076189042745336,-162.5655478627333
1589997216.6127887,1.1587200391325616,-0.7585178542312083,10.121218000978313,0.08666666666666667,0.6322222222222222,-0.6077777777777778,-8.232135578020545,29.059340860916354,-149.46168270014675
1589997216.6227887,1.2678465291638945,-1.0039434464404526,9.330538256819695,0.023930016510189486,0.6315403021118257,-0.5920936152386584,3.5517326458194725,15.40469477711244,-139.57166916167665
1589997216.6327887,18.277312636429784,-16.397345985932574,9.056190274072277,-0.015555555555555557,0.6311111111111111,-0.5822222222222222,7.64259186272132,3.4326794809604655,-125.85600973199126
1589997216.6427886,8.744293601196182,-8.065310547099644,8.150539815205306,-0.015555555555555557,0.6311111111111111,-0.5822222222222222,0.6853733753785987,0.09458747076639984,-113.30361370432848
1589997216.6527886,-0.37988436175974005,0.9620808511993884,9.120843872447516,-0.015555555555555557,0.6311111111111111,-0.5822222222222222,3.7251441495970186,15.122614762192985,-100.20737034500334
1589997216.6627886,0.6819743520686156,0.3451374588245042,9.950319459694628,-0.015555555555555557,0.6311111111111111,-0.5822222222222222,11.72290963144047,16.333906078435433,-88.22429509623154
1589997216.6727886,4.063569639206427,-2.4907547006824267,8.839855164271935,-0.06040721651133699,0.6152811131267177,-0.5769455562274244,0.5080642258631105,-5.573934967894267,-71.0548766880705
1589997216.6827886,7.889005693821299,-5.2883441643361575,8.856075488401103,-0.07222222222222223,0.6111111111111112,-0.5755555555555556,-3.193410106029817,-0.9942420477637164,-58.09333566384323
1589997216.6927886,4.826876954129893,-2.9564835556259155,9.548477460719516,-0.07222222222222223,0.6111111111111112,-0.5755555555555556,-2.1503863735306923,6.915378754897693,-52.867064748486165
1589997216.7027886,3.416262199217669,-1.960701331542139,9.236915721680035,-0.07222222222222223,0.6111111111111112,-0.5755555555555556,1.9393990280137499,5.819849164328895,-45.6212019439725
1589997216.7127886,4.350325998730834,-2.675162999365417,8.852229010787916,-0.07222222222222223,0.6111111111111112,-0.5755555555555556,2.6087000634583317,1.5737315712578033,-37.05440076149998
1589997216.7227886,3.7320984281585305,-2.2734972482876037,8.926068020746722,-0.08714345417991932,0.6070783457171389,-0.5840243628828972,1.716682503860316,0.7355856792176427,-28.50519905372768
1589997216.7327886,2.941432985911067,-1.993298067354528,8.847945320274446,-0.11333333333333333,0.6,-0.5988888888888889,0.2947622601651565,2.998309808132125,-19.597121108957907
1589997216.7427886,3.196290662772775,-2.481607447067413,8.663152835239718,-0.11333333333333333,0.6,-0.5988888888888889,-0.9624224263811146,1.459332157053622,-10.73242171655715
1589997216.7527885,3.157114406105899,-2.535007552870091,8.768931467641915,-0.11333333333333333,0.6,-0.5988888888888889,-1.0854965018285896,0.48520979090475436,-2.7711853037048817
1589997216.7627885,3.2023337091319055,-2.5911668545659525,8.664966178128523,-0.11333333333333333,0.6,-0.5988888888888889,-0.7139585682074409,0.5529171364148816,-0.23812711386696728
1589997216.7727885,3.16833177781123,-2.511677555321391,8.79498600030107,-0.11888785187415324,0.6120347901717765,-0.5988888888888889,0.14567778112298657,0.4479263886798133,0.0
1589997216.7827885,3.168941996938255,-2.5014106707489936,8.815642682995975,-0.12,0.6144444444444445,-0.5988888888888889,0.30147913477348753,0.4132540965016726,-0.004408346090604978
1589997216.7927885,3.1559285800555577,-2.552742864044446,8.90947139578888,-0.12,0.6144444444444445,-0.5988888888888889,-0.15928580055557792,-0.25,-0.06526782479165827
1589997216.8027885,3.203289596005206,-2.553420807989588,8.660393635953145,-0.12,0.6144444444444445,-0.5988888888888889,-0.33388004993492526,-0.5407099126138808,0.020970012483731308
1589997216.8127885,3.1697218296034553,-2.5112298782881823,8.74385060855909,-0.12,0.6144444444444445,-0.5988888888888889,0.07366386925795054,-0.29191082646250494,0.03596265213977228
1589997216.8227885,3.1276454310475903,-2.51470913790482,8.91177284476205,-0.12480455459260383,0.6192489990370483,-0.5988888888888889,0.23528394404743802,0.34747225178652885,0.023891972023719017
1589997216.8327885,3.102360571725988,-2.5064807623013174,8.95587980942467,-0.12777777777777774,0.6222222222222222,-0.5988888888888889,0.2609976178083837,0.6359976178083837,0.036748808904191854
1589997216.8427885,3.1424721287933184,-2.5182542231964025,8.842946789614906,-0.12777777777777774,0.6222222222222222,-0.5988888888888889,0.18636507501606137,0.2586412550546087,0.08772698499678772
1589997216.8527884,3.207559017375674,-2.547559017375674,8.686587976832435,-0.12777777777777774,0.6222222222222222,-0.5988888888888889,-0.12959356900339525,-0.4268374276013581,0.125
1589997216.8627884,3.19,-2.534863227301078,8.753769045709705,-0.12777777777777774,0.6222222222222222,-0.5988888888888889,-0.3125,-0.43920965873652323,0.0946048293682616
1589997216.8727884,3.194482334449532,-2.531035331100936,8.8,-0.12429151765036407,0.6187359620948085,-0.5988888888888889,-0.11639786783298023,-0.0948540969042575,0.1185291806191485
1589997216.8827884,3.1661182806291666,-2.524235214921354,8.842352149213543,-0.12,0.6144444444444445,-0.5988888888888889,0.07205981348307228,0.22352990674153614,0.1875
1589997216.8927884,3.1411787499515635,-2.5352946874878906,8.847053125121091,-0.12,0.6144444444444445,-0.5988888888888889,-0.016545898399659007,0.05513281280272794,0.170954101600341
1589997216.9027884,3.1699835332862856,-2.5199835332862857,8.802055986826629,-0.12,0.6144444444444445,-0.5988888888888889,-0.10002058339214302,-0.3875411667842861,0.012438249823570932
1589997216.9127884,3.1761858911377483,-2.5,8.786205148359207,-0.12,0.6144444444444445,-0.5988888888888889,-0.02680290823344468,-0.5029647278443702,0.002964727844370213
1589997216.9227884,3.184406376607363,-2.4922031883036815,8.803561740355821,-0.12,0.6122786634176893,-0.5932578582193255,0.1355951096529857,-0.29448459793905235,0.013769926898009509
1589997216.9327884,3.141126545767994,-2.5083101813480093,8.912253091535987,-0.12,0.6088888888888889,-0.5844444444444444,0.19102045552498093,0.3904079501375858,-0.0035204555249809394
1589997216.9427884,3.1058286419932446,-2.5305524279954965,8.89361893001126,-0.12,0.6088888888888889,-0.5844444444444444,-0.08166563759851816,0.657976337485926,0.003452674971851963
1589997216.9527884,3.1446839202375902,-2.5242064554028913,8.802219248719037,-0.12,0.6088888888888889,-0.5844444444444444,-0.18104826865963902,0.1254834209066284,-0.009919307463855623
1589997216.9627883,3.175547592796766,-2.53,8.768418065253789,-0.12,0.6088888888888889,-0.5844444444444444,-0.24695781779574502,-0.5316302727755319,-0.030109181673404387
1589997216.9727883,3.170109548779266,-2.53,8.814050966901574,-0.12827657355762628,0.6050689318622922,-0.5882644014710412,-0.4641879028756555,-0.3209395143782773,-0.0533758057513109
1589997216.9827883,3.152552246786154,-2.5164434990817584,8.885565009182416,-0.13444444444444445,0.6022222222222222,-0.5911111111111111,-0.05622341167445427,-0.018043738521979685,0.08472813073901016
1589997216.9927883,3.139903552851979,-2.5298071057039584,8.846012695054219,-0.13444444444444445,0.6022222222222222,-0.5911111111111111,0.06310279467513003,0.18629441064973995,0.09405139733756501
1589997217.0027883,3.154427592629548,-2.536717222111355,8.779848333665935,-0.13444444444444445,0.6022222222222222,-0.5911111111111111,-0.13836226967338522,0.1187928224572607,0.0071550921306459125
1589997217.0127883,3.183273584034002,-2.5153452831931995,8.806726415965999,-0.13444444444444445,0.6022222222222222,-0.5911111111111111,-0.1961320798299917,-0.3286438602975146,-0.0625
1589997217.0227883,3.184607581767345,-2.51,8.826552766759868,-0.1316230646408161,0.6050436020258505,-0.5944027208820108,0.01685130697704662,-0.3508965147278757,-0.08895043565901553
1589997217.0327883,3.15,-2.51,8.89,-0.12777777777777774,0.6088888888888889,-0.5988888888888889,0.125,0.29089228558745883,-0.054321542882508234
1589997217.0427883,3.1406185442707284,-2.51,8.85716490494755,-0.12777777777777774,0.6088888888888889,-0.5988888888888889,0.1543170491539729,0.47454885253808127,0.029317049153972912
1589997217.0527883,3.1252449073364987,-2.5147550926635014,8.839020370654005,-0.12777777777777774,0.6088888888888889,-0.5988888888888889,0.06862268341246745,0.22640335426558433,0.0625
1589997217.0627882,3.152591821421872,-2.5339679234665167,8.81809622960045,-0.12777777777777774,0.6088888888888889,-0.5988888888888889,-0.14979952166572874,-0.2575982461076721,0.0625
1589997217.0727882,3.187057755811665,-2.5441155116233296,8.781768976753341,-0.12548936563129487,0.6128118811400024,-0.596600476742406,-0.1948329214687165,-0.6066109738229055,0.044110973822905505
1589997217.0827882,3.1834423836816064,-2.53,8.806557616318395,-0.12,0.6222222222222222,-0.5911111111111111,-0.10552979602007762,-0.43341061193976715,0.0
1589997217.0927882,3.1652638681973535,-2.5258773113662256,8.816490754535097,-0.12,0.6222222222222222,-0.5911111111111111,-0.007132372272368764,-0.03289917623345892,0.025766803961090178
1589997217.1027882,3.136271673067601,-2.526271673067601,8.827456653864797,-0.12,0.6222222222222222,-0.5911111111111111,0.23040102166374585,0.2266979566725083,0.0625
1589997217.1127882,3.1682614599701253,-2.5354346350074684,8.822826824962657,-0.12,0.6222222222222222,-0.5911111111111111,0.016298812780073335,0.027164687966788892,0.005432937593357771
1589997217.1227882,3.19,-2.5217568727251205,8.833513745450242,-0.12595336969852403,0.6190165616153247,-0.5883634020194847,-0.1875,-0.23522068179800548,-0.03674022726600183
1589997217.1327882,3.173558236520703,-2.515480587826432,8.848364114785028,-0.13444444444444445,0.6144444444444445,-0.5844444444444444,-0.05048530433919174,0.0462683695760103,0.034253673915202065
1589997217.1427882,3.148651814313716,-2.514325907156858,8.834607257254865,-0.13444444444444445,0.6144444444444445,-0.5844444444444444,0.0625,0.22296308026963713,0.027036919730362867
1589997217.1527882,3.14,-2.5155328429893964,8.811065685978793,-0.13444444444444445,0.6144444444444445,-0.5844444444444444,-0.04124080605118449,0.042518387897631016,-0.03458026868372816
1589997217.1627882,3.1579104241984117,-2.523582084839682,8.82,-0.13444444444444445,0.6144444444444445,-0.5844444444444444,-0.14738803024801478,-0.19216409074404434,0.004664090744044336
1589997217.1727881,3.1910463135696325,-2.5305231567848163,8.818953686430367,-0.13444444444444445,0.6144444444444445,-0.5839794161912744,-0.1809605401897964,-0.3125,0.11192108037959284
1589997217.1827881,3.2007488109171502,-2.5307488109171503,8.80925118908285,-0.13444444444444445,0.6144444444444445,-0.5755555555555556,-0.09140996588390567,-0.19686013646437733,-0.00936013646437732
1589997217.1927881,3.1859136612679873,-2.5281726774640254,8.779136612679872,-0.13444444444444445,0.6144444444444445,-0.5755555555555556,-0.04838114877476067,0.03965846830031909,0.09946038292492022
1589997217.202788,3.1702688790531717,-2.537567219763293,8.758924483787315,-0.13444444444444445,0.6144444444444445,-0.5755555555555556,0.07770487647941973,0.17229512352058027,0.0625
1589997217.212788,3.1418191847636745,-2.530909592381837,8.877271222854489,-0.13444444444444445,0.6144444444444445,-0.5755555555555556,0.10226019045407038,0.10794514284055279,0.05113009522703519
1589997217.222788,3.16,-2.5356498434974735,8.858700313005054,-0.12985261258066644,0.6117860154706782,-0.5806307381418365,-0.13859423907039545,-0.07609423907039545,-0.04890576092960455
1589997217.232788,3.16,-2.52,8.871316577831381,-0.11333333333333333,0.6022222222222222,-0.5988888888888889,-0.16953517099171303,-0.08008792747928258,0.0
1589997217.242788,3.1565248770963357,-2.5234751229036645,8.770425368710994,-0.11333333333333333,0.6022222222222222,-0.5988888888888889,-0.01906096370419441,0.1657804818520972,0.08687807259161118
1589997217.252788,3.15,-2.5263934819075002,8.797213036184997,-0.11333333333333333,0.6022222222222222,-0.5988888888888889,0.03995926192187875,0.10245926192187875,0.2049185238437575
1589997217.262788,3.1463372719344744,-2.5136627280655253,8.851976368393153,-0.11333333333333333,0.6022222222222222,-0.5988888888888889,-0.10828410081906945,-0.09156820163813888,-0.02289205040953472
1589997217.272788,3.1515569834291512,-2.5216509976327357,8.875141021305378,-0.11883665877578627,0.6022222222222222,-0.5976047796189833,-0.19781873520459925,-0.30159367602299625,-0.05218126479540074
1589997217.282788,3.21,-2.525837856091854,8.795837856091854,-0.14666666666666667,0.6022222222222222,-0.5911111111111111,-0.2239866005740888,-0.45844640229635525,0.05202679885182237
1589997217.292788,3.201723542721187,-2.5241382286394067,8.769308856802967,-0.14666666666666667,0.6022222222222222,-0.5911111111111111,-0.10990821301112641,-0.1314524970259616,0.0991360710037088
1589997217.302788,3.1737927461139894,-2.525948186528497,8.748103626943005,-0.14666666666666667,0.6022222222222222,-0.5911111111111111,0.025323834196891194,0.22629533678756478,0.037176165803108806
1589997217.312788,3.15,-2.52,8.79448645242596,-0.14666666666666667,0.6022222222222222,-0.5911111111111111,0.0625,0.3252599243856333,-0.03316005040957782
1589997217.322788,3.15,-2.52,8.878286074354127,-0.14666666666666667,0.6022222222222222,-0.5911111111111111,0.0625,0.20439508506616255,-0.11373660995589162
1589997217.332788,3.1668364573305396,-2.52,8.87316354266946,-0.12,0.6022222222222222,-0.62,-0.08227214168412708,-0.08545571663174585,0.019772141684127074
1589997217.342788,3.16358664329041,-2.52,8.829786993934265,-0.12,0.6022222222222222,-0.62,-0.08016695886987887,0.02241652056506056,0.04008347943493944
1589997217.352788,3.1671890540352825,-2.5228109459647174,8.76248756771774,-0.12,0.6022222222222222,-0.62,-0.01756841227948326,0.11520523683844977,0.0
1589997217.362788,3.16,-2.526684551570432,8.839892690577408,-0.12,0.6022222222222222,-0.62,-0.0625,0.18783534194560236,0.0
1589997217.372788,3.16,-2.52,8.88,-0.1187647039803408,0.6034575182418814,-0.6129999892219312,-0.08566180036860996,-0.006985401105829861,0.0
1589997217.382788,3.16,-2.52,8.88,-0.11333992951143014,0.6088822927107921,-0.5822596005647708,-0.18737632166068485,-0.3121289649820545,0.0
1589997217.392788,3.182567450895748,-2.517522483631916,8.762657385423411,-0.11333333333333333,0.6088888888888889,-0.5822222222222222,-0.15653104539894958,-0.2345155226994748,-0.04701552269947478
1589997217.402788,3.16008353180767,-2.5100835318076697,8.71016706361534,-0.11333333333333333,0.6088888888888889,-0.5822222222222222,-0.062238963101032066,-0.18697792620206413,0.0005220737979358669
1589997217.412788,3.171838935377807,-2.525919467688903,8.782644258488773,-0.11333333333333333,0.6088888888888889,-0.5822222222222222,-0.012751663472176772,-0.011493346111292914,0.09949667305564645
1589997217.422788,3.145695230081187,-2.5128476150405934,8.887219079675253,-0.11333333333333333,0.6088888888888889,-0.5822222222222222,-0.053601202998145636,0.15190481199258254,0.017797594003708728
1589997217.432788,3.1453955037468777,-2.518201498751041,8.89820149875104,-0.13444444444444445,0.5955555555555555,-0.5844444444444444,-0.044962531223980015,-0.044962531223980015,0.04001873438800999
1589997217.442788,3.17,-2.5115666331100077,8.871200402679905,-0.13444444444444445,0.5955555555555555,-0.5844444444444444,-0.2304170861249002,-0.2304170861249002,-0.0625
1589997217.4527879,3.1618737481870296,-2.515936874093515,8.78625250362594,-0.13444444444444445,0.5955555555555555,-0.5844444444444444,-0.04881638925340148,-0.09960546308446716,-0.011710926168934321
1589997217.4627879,3.152435255811149,-2.5148705116222976,8.827046790678043,-0.13444444444444445,0.5955555555555555,-0.5844444444444444,0.047279651180318974,-0.016838953540956915,0.0625
1589997217.4727879,3.1587578763303084,-2.5275157526606167,8.87130513431216,-0.13444444444444445,0.5955555555555555,-0.5844444444444444,0.007763272935572371,0.1017101811932829,0.0625
1589997217.4827878,3.172684802644124,-2.521342401322062,8.866575986779381,-0.11333333333333333,0.6088888888888889,-0.5844444444444444,-0.04571998347422615,-0.17910999173711306,-0.037329975211339225
1589997217.4927878,3.19,-2.53,8.768089364201657,-0.11333333333333333,0.6088888888888889,-0.5844444444444444,0.04388963156508882,-0.10638963156508882,0.10638963156508882
1589997217.5027878,3.188116437469246,-2.53,8.753184937715277,-0.11333333333333333,0.6088888888888889,-0.5844444444444444,-0.01177226581721182,-0.050727734182788184,0.07427226581721182
1589997217.5127878,3.177810292842097,-2.525620585684193,8.81,-0.11333333333333333,0.6088888888888889,-0.5844444444444444,-0.021442990789310647,0.06842834868448226,0.0976286605262071
1589997217.5227878,3.1677021655956317,-2.51,8.817659448014561,-0.11333333333333333,0.6099101486241637,-0.5849550743120818,0.11063853497269789,0.3172871550091007,0.0
1589997217.5327878,3.1443321199063927,-2.51,8.895559600312025,-0.11333333333333333,0.6202968355971588,-0.5901484177985794,-0.03542425058504514,0.365974750195015,0.0
1589997217.5427878,3.151281088516302,-2.53,8.857189114836983,-0.11333333333333333,0.6222222222222222,-0.5911111111111111,-0.008006803226885758,-0.07851360645377152,0.07050680322688575
1589997217.5527878,3.1590774749990707,-2.53,8.779225250009294,-0.11333333333333333,0.6222222222222222,-0.5911111111111111,-0.05673421874419123,-0.17596843748838248,0.11923421874419124
1589997217.5627878,3.1785438267285797,-2.5114561732714202,8.777280866357101,-0.11333333333333333,0.6222222222222222,-0.5911111111111111,-0.009101082946377457,-0.16019675116086762,0.05339891705362254
1589997217.5727878,3.1718739265950004,-2.5181260734049995,8.810630367024999,-0.11333333333333333,0.6222222222222222,-0.5911111111111111,-0.05078795878124802,-0.03513612365625596,0.011712041218751981
1589997217.5827878,3.16,-2.5225027791011594,8.87874861044942,-0.13444444444444445,0.6022222222222222,-0.5844444444444444,-0.0625,0.03903644592663173,0.125
1589997217.5927877,3.1623652280346977,-2.535269543930605,8.841617263583629,-0.13444444444444445,0.6022222222222222,-0.5844444444444444,-0.07728267521685914,-0.125,0.09543464956628173
1589997217.6027877,3.17,-2.52,8.752358154766142,-0.13444444444444445,0.6022222222222222,-0.5844444444444444,-0.15447693457677797,-0.09552306542322203,0.014738467288388981
1589997217.6127877,3.17,-2.52,8.759822915925108,-0.13444444444444445,0.6022222222222222,-0.5844444444444444,-0.24778644906385705,-0.0022135509361429356,0.06139322453192853
1589997217.6227877,3.160835671712103,-2.52,8.841671343424206,-0.13444444444444445,0.6032435987592368,-0.5850015589191797,-0.015668844601929417,0.11455410359871372,0.11455410359871372
1589997217.6327877,3.1694264998054194,-2.52,8.85885299961084,-0.13444444444444445,0.6137434997621795,-0.5907287776480575,-0.17674687135161704,0.0071687524322553015,0.0071687524322553015
1589997217.6427877,3.1670747259570606,-2.5170747259570603,8.827551644257635,-0.13444444444444445,0.6144444444444445,-0.5911111111111111,-0.06632555584744346,0.03656592553674205,0.022108518615814487
1589997217.6527877,3.18,-2.526608941348038,8.756782117303924,-0.13444444444444445,0.6144444444444445,-0.5911111111111111,-0.14511176685047622,-0.16738823314952378,0.04130588342523812
1589997217.6627877,3.18,-2.52,8.77994294276987,-0.13444444444444445,0.6144444444444445,-0.5911111111111111,-0.09357169615584116,-0.1878566076883177,-0.031071696155841162
1589997217.6727877,3.1791062458534736,-2.52,8.81536252487916,-0.1331534662327952,0.6133520782653566,-0.5924020893227604,-0.17632807316842006,0.0,-0.125
1589997217.6827877,3.17,-2.52,8.867376042562553,-0.12,0.6022222222222222,-0.6055555555555555,-0.046100266015960956,0.049199201952117126,-0.07580079804788287
1589997217.6927876,3.166889011731466,-2.52,8.847556046925863,-0.12,0.6022222222222222,-0.6055555555555555,0.0,0.15833448498249494,0.04305632332166329
1589997217.7027876,3.15,-2.52,8.78588791522315,-0.12,0.6022222222222222,-0.6055555555555555,0.0,-0.03679947014469125,-0.04410026492765437
1589997217.7127876,3.153669714037404,-2.5236697140374043,8.803669714037405,-0.12,0.6022222222222222,-0.6055555555555555,0.0,-0.13264523757792523,-0.030580950311700904
1589997217.7227876,3.174699747630906,-2.5446997476309057,8.824699747630905,-0.12,0.6022222222222222,-0.6055555555555555,0.0,-0.17645780756438756,-0.2058312302575502
1589997217.7327876,3.15,-2.53,8.854361996805434,-0.11333333333333333,0.6088888888888889,-0.5755555555555556,-0.007047503993206494,0.007047503993206494,-0.048404992013587014
1589997217.7427876,3.15,-2.53,8.811960209466427,-0.11333333333333333,0.6088888888888889,-0.5755555555555556,-0.06004973816696658,0.06004973816696658,0.057599476333933156
1589997217.7527876,3.15,-2.53,8.794042174854669,-0.11333333333333333,0.6088888888888889,-0.5755555555555556,-0.10638179642083666,-0.018618203579163342,-0.025263592841673316
1589997217.7627876,3.1563055162659124,-2.532101838755304,8.792611032531823,-0.11333333333333333,0.6088888888888889,-0.5755555555555556,-0.08877298444130127,-0.10190947666195191,0.049363507779349364
1589997217.7727876,3.18,-2.5399868107021732,8.840013189297826,-0.11333333333333333,0.6088888888888889,-0.5755951234490363,-0.18733513377716368,-0.24983513377716368,0.0
1589997217.7827876,3.18,-2.5312058786584597,8.84879412134154,-0.11333333333333333,0.6088888888888889,-0.6019379195801755,-0.07757348323074992,-0.14007348323074992,0.0
1589997217.7927876,3.154475926454401,-2.5177620367727993,8.865382404500796,-0.11333333333333333,0.6088888888888889,-0.6055555555555555,0.1875,0.1875,0.09702545965999429
1589997217.8027875,3.1711366711772664,-2.51,8.781136671177267,-0.11333333333333333,0.6088888888888889,-0.6055555555555555,0.1803958051420839,0.17329161028416779,0.0
1589997217.8127875,3.177782554014229,-2.5144348919715425,8.801087229928857,-0.11333333333333333,0.6088888888888889,-0.6055555555555555,0.055704812944643634,0.0625,0.0
1589997217.8227875,3.1698566467812306,-2.5298566467812305,8.84014335321877,-0.11342890214584632,0.608793320076376,-0.6055555555555555,-0.18570808476538153,0.06429191523461847,0.0
1589997217.8327875,3.1579434344385833,-2.522056565561417,8.85616969668425,-0.12,0.6022222222222222,-0.6055555555555555,-0.0625,0.16179293048229088,0.0
1589997217.8427875,3.152116822188998,-2.53,8.863065422488015,-0.12,0.6022222222222222,-0.6055555555555555,-0.049269861318760634,0.03603972263752127,0.013230138681239368
1589997217.8527875,3.1669845075617853,-2.527671830812738,8.804656338374524,-0.12,0.6022222222222222,-0.6055555555555555,-0.014551057420386081,-0.03339788515922784,0.03339788515922784
1589997217.8627875,3.18609201882006,-2.5209769952949848,8.82,-0.12,0.6022222222222222,-0.6055555555555555,-0.056393779406344186,0.050287558812688364,-0.056393779406344186
1589997217.8727875,3.1500744219817123,-2.530074421981712,8.820148843963425,-0.12014884396342432,0.6023131824220926,-0.6055555555555555,-0.0004651373857009961,-0.06296513738570099,0.0004651373857009961
1589997217.8827875,3.1595911328931545,-2.5395911328931544,8.83918226578631,-0.1391822657863091,0.6139447179805222,-0.6055555555555555,-0.05994458058221587,-0.12244458058221587,0.05994458058221587
1589997217.8927875,3.1763423918575064,-2.51548641221374,8.823657608142494,-0.14,0.6144444444444445,-0.6055555555555555,0.09070992366412212,0.0792798982188295,-0.09070992366412212
1589997217.9027874,3.170674004697094,-2.5286519906058116,8.77337002348547,-0.14,0.6144444444444445,-0.6055555555555555,0.00842505871367534,0.00842505871367534,0.10814988257264932
1589997217.9127874,3.1617283124594895,-2.53,8.794815062621533,-0.14,0.6144444444444445,-0.6055555555555555,-0.05169804712819119,0.10339609425638238,0.07330195287180881
1589997217.9227874,3.1691521047911513,-2.53,8.86406473353806,-0.14,0.6144444444444445,-0.6055555555555555,-0.11970065494469659,-0.04660196483408974,0.0625
1589997217.9327874,3.1853626686716,-2.5453626686715998,8.8546373313284,-0.11524903380686691,0.6050561469229112,-0.589339405291089,-0.17300833959874956,-0.15851667919749912,0.11050833959874956
1589997217.9427874,3.17183546351723,-2.520917731758615,8.861740414172463,-0.10777777777777778,0.6022222222222222,-0.5844444444444444,-0.0625,-0.11926417650865556,0.13073582349134444
1589997217.9527874,3.1887999514641643,-2.529399975732082,8.78540021841126,-0.10777777777777778,0.6022222222222222,-0.5844444444444444,-0.0625,-0.06625015167448634,0.18374984832551366
1589997217.9627874,3.1628194191914902,-2.531409709595745,8.834229128787236,-0.10777777777777778,0.6022222222222222,-0.5844444444444444,0.10737863005318697,-0.026432054920219546,0.0625
1589997217.9727874,3.1770738670155825,-2.538536933507791,8.855610800523372,-0.10777777777777778,0.6022222222222222,-0.5844444444444444,0.018288331152610915,-0.16006750327108363,0.0625
1589997217.9827874,3.1720020894671856,-2.528998955266407,8.881991642131258,-0.14,0.6022222222222222,-0.5911111111111111,0.006256529584955837,-0.012513059169911673,-0.012513059169911673
1589997217.9927874,3.188932992003378,-2.521067007996622,8.803597952020269,-0.14,0.6022222222222222,-0.5911111111111111,0.0625,-0.11166240004222638,-0.11166240004222638
