time,acc_x,acc_y,acc_z,mag_x,mag_y,mag_z,gyr_x,gyr_y,gyr_z
1589997403.7296002,-3.99,-0.85,8.93,0.3033333333333333,-0.3244444444444444,-0.6166666666666667,-0.0625,-0.375,-0.0625
1589997403.7396002,-3.99,-0.8333777196528356,8.996489121388658,0.3033333333333333,-0.3244444444444444,-0.6166666666666667,-0.0625,-0.16722149566044464,-0.0625
1589997403.7496002,-4.003237343480832,-0.86,9.015683542025556,0.31777777777777777,-0.32,-0.6088888888888889,-0.2922666032447998,-0.125,0.0625
1589997403.7596002,-4.0267647321428575,-0.86,8.960588392857144,0.31777777777777777,-0.32,-0.6088888888888889,-0.125,-0.09466936383928572,0.04227957589285714
1589997403.7696002,-4.009198363858809,-0.8591983638588098,8.863206544564761,0.31777777777777777,-0.32,-0.6088888888888889,-0.10495909647024451,0.04245909647024451,-0.052479548235122256
1589997403.7796001,-4.001539360517137,-0.8515393605171374,8.89384255793145,0.31777777777777777,-0.32,-0.6088888888888889,0.08651598707156294,-0.14901598707156294,0.04325799353578147
1589997403.7896001,-3.994476819882328,-0.8334304596469831,8.933139080706034,0.31777777777777777,-0.32,-0.6088888888888889,0.22855962720635498,-0.1184602485290967,0.0625
1589997403.7996001,-3.9840419270308405,-0.8319161459383189,8.96,0.3138057291316715,-0.32728208918452817,-0.5996207753813075,0.3125,-0.2859277363434791,0.025262043942753477
1589997403.8096,-4.01,-0.825750243902439,8.965834146341464,0.3111111111111111,-0.3322222222222222,-0.5933333333333334,0.5182317073170731,-0.3843780487804878,0.05364634146341463
1589997403.8196,-4.007291528755692,-0.8027084712443081,8.88,0.3111111111111111,-0.3322222222222222,-0.5933333333333334,0.21614410944614953,-0.07096397263846262,-0.025391917915387856
1589997403.8296,-3.990464183266133,-0.8195358167338669,8.88,0.3111111111111111,-0.3322222222222222,-0.5933333333333334,0.005802290826663475,-0.12354942729333412,-0.1831482818800024
1589997403.8396,-3.9817864550818616,-0.8282135449181384,8.92928126950883,0.3111111111111111,-0.3322222222222222,-0.5933333333333334,-0.15400396721509554,-0.17633465573836518,-0.08483068852326964
1589997403.8496,-4.0004396283554104,-0.8504396283554109,8.960439628355411,0.3111111111111111,-0.3322222222222222,-0.5948473798781786,-0.23008255907377267,-0.017169763704909247,0.022665118147545377
1589997403.8596,-3.9823787994713777,-0.8415858663142519,8.97,0.3111111111111111,-0.3322222222222222,-0.5955555555555555,-0.19245583223203727,-0.05258833553592544,0.17758833553592546
1589997403.8696,-4.008618947976045,-0.8543094739880221,8.919916841041923,0.3111111111111111,-0.3322222222222222,-0.5955555555555555,-0.1875,-0.10721710621256944,0.00863157514972221
1589997403.8796,-3.99,-0.829884374632902,8.940346876101293,0.3111111111111111,-0.3322222222222222,-0.5955555555555555,-0.0625,-0.06394531708872443,0.06105468291127557
1589997403.8896,-3.99,-0.8228456594337881,8.961463021698636,0.3111111111111111,-0.3322222222222222,-0.5955555555555555,-0.0625,-0.15192925707764854,-0.026929257077648552
1589997403.8996,-3.99,-0.8101209868733197,8.98975802625336,0.32428312861335157,-0.3388082309733425,-0.6021415643066758,-0.0625,-0.0022685038747430053,-0.0007561679582476707
1589997403.9096,-3.99,-0.8177589773214319,8.966723068035705,0.3244444444444444,-0.3388888888888889,-0.6022222222222222,-0.0625,0.09698721651789872,0.0
1589997403.9196,-3.970727240271332,-0.8503636201356658,8.85254534094966,0.3244444444444444,-0.3388888888888889,-0.6022222222222222,0.05568212245626562,0.12045474830417707,0.12272737415208854
1589997403.9296,-3.9857015351660126,-0.857850767583006,8.904955373081043,0.3244444444444444,-0.3388888888888889,-0.6022222222222222,-0.08470189218136381,0.02686540521242413,0.07593270260621207
1589997403.9396,-3.982753422997698,-0.8382602689930934,8.927246577002302,0.3244444444444444,-0.3388888888888889,-0.6022222222222222,-0.125,-0.04529110626438871,0.01720889373561129
1589997403.9496,-3.9944707329768607,-0.8372353664884303,8.951706099465293,0.30032655614967635,-0.32843780396115607,-0.6022222222222222,-0.2154420811053802,0.07316312165807032,-0.045221040552690106
1589997403.9596,-4.0,-0.8135914829470511,8.98371490484266,0.2911111111111111,-0.3244444444444444,-0.6022222222222222,-0.18188830789523272,-0.04005323158093085,0.1193883078952327
1589997403.9696,-3.9992074474474473,-0.8484148948948949,8.920792552552552,0.2911111111111111,-0.3244444444444444,-0.6022222222222222,-0.11013963963963964,0.1775930930930931,0.0625
1589997403.9796,-3.99,-0.8305772422598149,8.932308969039259,0.2911111111111111,-0.3244444444444444,-0.6022222222222222,0.0625,0.0625,0.05889223587615704
1589997403.9896,-3.99,-0.8372709862751356,8.959083945100543,0.2911111111111111,-0.3244444444444444,-0.6022222222222222,0.0625,0.0625,0.017056335780402165
1589997403.9996,-3.9960711143695016,-0.8521422287390029,8.976071114369502,0.3113481590094493,-0.32916642228739,-0.6109916096448355,0.0625,0.1383889296187683,0.0
1589997404.0096,-4.009737604939201,-0.8502623950607988,8.950787185182396,0.3244444444444444,-0.3322222222222222,-0.6166666666666667,0.0016399691299928479,0.24836003087000716,0.0
1589997404.0196,-4.01,-0.8207875725954955,8.842887766183484,0.3244444444444444,-0.3322222222222222,-0.6166666666666667,0.12171844751876859,0.1282815524812314,0.42601456631569007
1589997404.0296,-4.001767777576161,-0.8282322224238392,8.889393334543035,0.3244444444444444,-0.3322222222222222,-0.6166666666666667,0.07354860985100506,-0.029354170446984823,0.9005625113409544
1589997404.0396,-4.0,-0.8248607324327674,8.910278535134465,0.3244444444444444,-0.3322222222222222,-0.6166666666666667,-0.06598168918081546,-0.15886126688561159,1.0321204222952038
1589997404.0496,-4.007429073650905,-0.8162854631745473,8.942287220952716,0.32196808656080933,-0.32768223276889125,-0.6088248667018222,-0.0946365793636843,-0.25,0.9928524345227632
1589997404.0595999,-4.009050121720929,-0.8264248174186063,8.98,0.31777777777777777,-0.32,-0.5955555555555555,0.09671836962209633,-0.14734489113371102,0.6354714126453257
1589997404.0695999,-4.008464077371815,-0.84,8.895359226281855,0.31777777777777777,-0.32,-0.5955555555555555,0.019199032852318082,-0.0625,0.33169903285231805
1589997404.0795999,-4.01,-0.8471174517417975,8.915587258708987,0.31777777777777777,-0.32,-0.5955555555555555,0.0,-0.10698407338623445,0.1345637064550622
1589997404.0895998,-4.003759802770603,-0.8437598027706034,8.942480394458793,0.31777777777777777,-0.32,-0.5955555555555555,0.07800246536745715,-0.08599876731627143,0.14050246536745714
1589997404.0995998,-4.0,-0.8329954888030471,8.978018044787811,0.31777777777777777,-0.33712213848144046,-0.610342856971345,0.08122180501904427,-0.15005638996191145,0.23127819498095573
1589997404.1095998,-4.009413882532418,-0.8488277650648359,8.933516704805491,0.31777777777777777,-0.34444444444444444,-0.6166666666666667,0.12133676582761252,-0.24633676582761252,0.13232646834477496
1589997404.1195998,-4.01,-0.8306586927630784,8.871976078289235,0.31777777777777777,-0.34444444444444444,-0.6166666666666667,0.3063247553461399,-0.4313247553461399,0.004116829769240063
1589997404.1295998,-3.99,-0.8598846870699716,8.92069187758017,0.31777777777777777,-0.34444444444444444,-0.6166666666666667,0.12572070581267744,-0.31322070581267747,-0.12211717674929018
1589997404.1395998,-3.99,-0.8525786897524779,8.964527861485132,0.31777777777777777,-0.34444444444444444,-0.6166666666666667,0.17138318904701355,-0.35888318904701355,0.06053275618805415
1589997404.1495998,-3.9995860266327576,-0.8404139733672424,8.989586026632757,0.30393129486379455,-0.34657467258505725,-0.623057351088505,0.1875,-0.25517466709053016,-0.11465066581893962
1589997404.1595998,-4.0,-0.832241041353455,8.95896416541382,0.3033333333333333,-0.3466666666666667,-0.6233333333333333,0.1875,-0.15301301691818753,0.02048047462271871
1589997404.1695998,-4.009543498892755,-0.8204565011072444,8.8641085099652,0.3033333333333333,-0.3466666666666667,-0.6233333333333333,0.1875,-0.125,0.00285313192027839
1589997404.1795998,-4.01,-0.82,8.926113004264696,0.3033333333333333,-0.3466666666666667,-0.6233333333333333,0.08419843083641113,-0.021698430836411126,-0.10330156916358887
1589997404.1895998,-3.9996155040685757,-0.8355767438971364,8.955576743897137,0.3033333333333333,-0.3466666666666667,-0.6233333333333333,-0.0024030995714019454,-0.03245154978570097,-0.060096900428598055
1589997404.1995997,-3.9860241094700264,-0.8420482189400521,8.966024109470027,0.30642569263442415,-0.34092371367892654,-0.6149397866589439,-0.0376506841876629,-0.0376506841876629,-0.024849315812337097
1589997404.2095997,-3.992022522629541,-0.83,8.984045045259082,0.3111111111111111,-0.3322222222222222,-0.6022222222222222,0.07514076643462973,0.07514076643462973,-0.024929616782685134
1589997404.2195997,-4.0095215383450675,-0.83,8.885741539859188,0.3111111111111111,-0.3322222222222222,-0.6022222222222222,0.125,0.00598077068665305,0.059509614656673475
1589997404.2295997,-4.01,-0.83,8.910036919441778,0.3111111111111111,-0.3322222222222222,-0.6022222222222222,0.04990770139555491,0.037546149302222546,0.0625
1589997404.2395997,-4.01,-0.8254622385924325,8.939075522815134,0.3111111111111111,-0.3322222222222222,-0.6022222222222222,0.0,0.03413899120270311,0.00577798240540623
1589997404.2495997,-3.9992823329760627,-0.8307176670239371,8.976794167559843,0.3069431294906911,-0.3280542406018022,-0.5986496665475765,-0.0334927094498035,-0.0334927094498035,-0.029007290550196498
1589997404.2595997,-3.99,-0.8567621311150723,8.958094672212319,0.3033333333333333,-0.3244444444444444,-0.5955555555555555,-0.0625,-0.0625,0.0
1589997404.2695997,-3.99,-0.8330125291842663,8.882531322960665,0.3033333333333333,-0.3244444444444444,-0.5955555555555555,0.06400376944875152,0.021835846299167697,0.0
1589997404.2795997,-3.9984099542049774,-0.8284099542049771,8.892049771024885,0.3033333333333333,-0.3244444444444444,-0.5955555555555555,0.0724377862188931,-0.09518664134332067,0.15768664134332067
1589997404.2895997,-4.0,-0.8107669798244264,8.94487704707634,0.3033333333333333,-0.3244444444444444,-0.5955555555555555,0.1426375840648904,-0.125,0.1474312079675548
1589997404.2995996,-3.9919072244519915,-0.8242783266440259,8.994278326644027,0.31502289801379024,-0.3361340091249014,-0.6180354876333574,0.13692015282494596,-0.17557984717505404,0.023840305649891938
1589997404.3095996,-3.998082880048933,-0.83,9.0,0.31777777777777777,-0.3388888888888889,-0.6233333333333333,0.22603600061166088,-0.1875,-0.05051800030583044
1589997404.3195996,-3.983000435662848,-0.8384997821685759,8.889502831808512,0.31777777777777777,-0.3388888888888889,-0.6233333333333333,-0.06874183132159606,-0.0812527228928013,-0.009376361446400652
1589997404.3295996,-3.986977225272601,-0.8330227747273993,8.911863351635605,0.31777777777777777,-0.3388888888888889,-0.6233333333333333,-0.08139234204624546,0.06832297386126363,0.0
1589997404.3395996,-3.9941329039352764,-0.83,8.93,0.31777777777777777,-0.3388888888888889,-0.6233333333333333,-0.11416129919095122,0.1508306495954756,-0.02583064959547561
1589997404.3495996,-3.998078595317726,-0.83,8.933842809364549,0.31649684132292827,-0.3376079524340394,-0.6220523968784838,-0.19950877926421404,0.19950877926421404,-0.050491220735785956
1589997404.3595996,-4.007038366895998,-0.8356794556319992,8.927282177472003,0.3111111111111111,-0.3322222222222222,-0.6166666666666667,-0.1080136092000201,0.14351020690001506,0.035496597699994976
1589997404.3695996,-3.9932699373244005,-0.8310899791081334,8.865449895540667,0.3111111111111111,-0.3322222222222222,-0.6166666666666667,-0.11137526114833225,0.006812369425833874,0.006812369425833874
1589997404.3795996,-3.9961482195330027,-0.83,8.896889317198015,0.3111111111111111,-0.3322222222222222,-0.6166666666666667,-0.0865736279187336,0.0,0.1537054883250656
1589997404.3895996,-4.0,-0.83508145018952,8.9454072509476,0.3111111111111111,-0.3322222222222222,-0.6166666666666667,-0.12601812736899975,0.03175906368449987,0.18648187263100025
1589997404.3995996,-4.004938525807281,-0.8449385258072818,8.984815577421847,0.30452641003473524,-0.3322222222222222,-0.6238000928327405,-0.09490264111346493,0.03163421370448831,0.06326842740897662
1589997404.4095995,-4.004102481005365,-0.8323074430160959,9.0,0.2977777777777777,-0.3322222222222222,-0.6311111111111111,-0.036859493716466823,0.0,0.11057848114940044
1589997404.4195995,-4.005964350559341,-0.8259643505593408,8.952285195525272,0.2977777777777777,-0.3322222222222222,-0.6311111111111111,-0.0625,-0.037277190995880595,0.07566842701235821
1589997404.4295995,-3.9925481991959964,-0.83,8.902548199195996,0.2977777777777777,-0.3322222222222222,-0.6311111111111111,-0.007963122487488719,-0.11703687751251128,0.10907375502502256
1589997404.4395995,-3.996249115015769,-0.8237508849842311,8.918747345047306,0.2977777777777777,-0.3322222222222222,-0.6311111111111111,-0.07811393769711013,-0.08594303115144494,0.125
1589997404.4495995,-4.006752926678989,-0.82,8.93,0.30678168001643047,-0.3239686451701239,-0.6258588348052303,-0.08279420825631548,-0.0625,0.04058841651263094
1589997404.4595995,-3.9972350471177847,-0.8072350471177848,8.942764952882214,0.3111111111111111,-0.32,-0.6233333333333333,0.017280955513845092,0.017280955513845092,0.0
1589997404.4695995,-3.99,-0.8241228555617045,8.877631433314885,0.3111111111111111,-0.32,-0.6233333333333333,0.012244050913115666,0.012244050913115666,-0.050255949086884334
1589997404.4795995,-3.998623279693851,-0.8558698390815526,8.937609517244658,0.3111111111111111,-0.32,-0.6233333333333333,0.05389549808656794,-0.16168649425970383,0.2069774904328397
1589997404.4895995,-4.012836801363539,-0.8535815993182302,8.97567360272708,0.3111111111111111,-0.32,-0.6233333333333333,0.182845012783183,-0.307845012783183,0.290115004261061
1589997404.4995995,-4.010263210859405,-0.8451316054297023,9.048420734843571,0.31435670749130956,-0.33190052006072757,-0.6200877369531349,0.46299226245052216,-0.49670986425744124,0.49506479638616185
1589997404.5095994,-3.9725342490511477,-0.8262671245255738,9.068801373576722,0.31777777777777777,-0.34444444444444444,-0.6166666666666667,0.7733304717151636,-0.6679152358575817,1.116652358575818
1589997404.5195994,-3.96,-0.8117599861320919,8.975839875188827,0.31777777777777777,-0.34444444444444444,-0.6166666666666667,1.1215005200465566,-0.9965005200465565,1.982001126767539
1589997404.5295994,-3.825466903529775,-0.9768210396230788,8.965381323858809,0.31777777777777777,-0.34444444444444444,-0.6166666666666667,1.89379875646868,-0.32256796941376387,2.259533096470225
1589997404.5395994,-3.8104538662033014,-0.9944326672458732,9.028598088618592,0.31777777777777777,-0.34444444444444444,-0.6166666666666667,2.3692006950477844,-0.6554148566463944,3.8661120764552566
1589997404.5495994,-2.659198555956679,-0.9772129963898917,8.78729963898917,0.3058259125551544,-0.32789570798235057,-0.6166666666666667,3.945803249097473,-3.810018050541516,7.075225631768953
1589997404.5595994,-2.994195790150237,-0.9805270346268177,8.381060898208403,0.3033333333333333,-0.3244444444444444,-0.6166666666666667,1.6415125130553547,2.9504838013175867,6.023057764923275
1589997404.5695994,-3.3881022958442313,-0.97,8.485247021214763,0.3033333333333333,-0.3244444444444444,-0.6166666666666667,-2.3245241208950884,5.303563644289451,6.970293882592269
1589997404.5795994,-2.6455163133640553,-0.7844648847926268,8.875535115207374,0.3033333333333333,-0.3244444444444444,-0.6166666666666667,-3.2143963133640554,0.3416728110599081,9.373357142857143
1589997404.5895994,-1.8546845613257887,-0.7053563158212682,9.028452105273756,0.3033333333333333,-0.3244444444444444,-0.6166666666666667,-0.4142083324943113,0.6038629407382055,8.995801534403254
1589997404.5995994,-1.7411771204899145,-0.7832343192651283,8.960737081347265,0.30893778212696105,-0.3244444444444444,-0.606258404621358,1.0854647400486126,1.5413917737302312,4.512032813535781
1589997404.6095994,-1.8715984869231823,-0.8169918184307818,9.111246063261673,0.3111111111111111,-0.3244444444444444,-0.6022222222222222,-0.032685625770231486,0.2566079436532932,-0.4420625513487608
1589997404.6195993,-2.0188613764866448,-0.83,9.113985182296743,0.3111111111111111,-0.3244444444444444,-0.6022222222222222,-0.3338491908754143,0.45663140963150706,-6.8087346461298495
1589997404.6295993,-2.0627764608170542,-0.8072235391829461,8.954588271936048,0.3111111111111111,-0.3244444444444444,-0.6022222222222222,0.5963233003997024,1.3732350803730555,-12.05102802242486
1589997404.6395993,-2.1107953783463147,-0.7987986795275185,8.911996698818797,0.3111111111111111,-0.3244444444444444,-0.6022222222222222,0.8900165059060194,1.7774958735234951,-17.084612111208543
1589997404.6495993,-2.179017707095135,-0.8265815469115055,8.931709226544246,0.3138747022630287,-0.3276686341216816,-0.6049858133741398,0.9831780034430463,1.9420433352461368,-22.810414702627373
1589997404.6595993,-2.225031787232442,-0.8550317872324418,8.884777489372908,0.31777777777777777,-0.3322222222222222,-0.6088888888888889,1.4382946808110446,2.4080380318248507,-29.269072339465072
1589997404.6695993,-2.2574368644674654,-0.8805776483505992,8.801985487181934,0.31777777777777777,-0.3322222222222222,-0.6088888888888889,1.6053701007304149,2.644629899269585,-36.45126987158066
1589997404.6795993,-2.3221699372250506,-0.8947427215659137,8.83216993722505,0.31777777777777777,-0.3322222222222222,-0.6088888888888889,1.5657159804260787,2.980704117443527,-41.161348919974294
1589997404.6895993,-2.3991080463522114,-0.9027297209074588,8.917297209074588,0.31777777777777777,-0.3322222222222222,-0.6088888888888889,1.5682430226864696,3.4261822670148523,-45.81958952178881
1589997404.6995993,-2.48989064079997,-0.91,9.024191977828547,0.3139786691301616,-0.3252571897015925,-0.6050897802412727,1.75,3.776199861428411,-52.991798059997755
1589997404.7095993,-2.5458875525902003,-0.9294156644426501,9.075887552590201,0.3111111111111111,-0.32,-0.6022222222222222,1.8713479027665634,4.30154370829969,-58.52639337469721
1589997404.7195992,-2.5871943333959377,-0.9739929167449223,8.988021249765232,0.3111111111111111,-0.32,-0.6022222222222222,2.0649734377934585,4.839929167449223,-63.754282820423384
1589997404.7295992,-2.6125800637156273,-1.0088700955734407,8.933709968142185,0.3111111111111111,-0.32,-0.6022222222222222,2.360876194668008,5.117938097334004,-68.2055143360161
1589997404.7395992,-2.62,-1.02799406430338,8.91800890354493,0.3111111111111111,-0.32,-0.6022222222222222,2.599925803792251,5.437314509480626,-71.87351607584502
1589997404.7495992,-2.6221562134787693,-1.055093494351383,8.9,0.31686101372116177,-0.3209583171016751,-0.6022222222222222,2.763476334242306,5.839452668484612,-75.83181973120374
1589997404.7595992,-2.638507451041585,-1.1270149020831708,8.88298509791683,0.3377777777777778,-0.3244444444444444,-0.6022222222222222,2.945428922524772,6.0172573535148635,-81.17350491534681
1589997404.7695992,-2.654312661945068,-1.1586253238901363,8.825498704439454,0.3377777777777778,-0.3244444444444444,-0.6022222222222222,3.1789082743133528,6.259770685783383,-85.30474822940059
1589997404.7795992,-2.665656913240387,-1.1926276529615487,8.808284566201936,0.3377777777777778,-0.3244444444444444,-0.6022222222222222,3.1439328767427406,6.40214429224758,-89.34670821863067
1589997404.7895992,-2.705604343157141,-1.2545054289464264,8.887857057630354,0.3377777777777778,-0.3244444444444444,-0.6022222222222222,3.0346841069084833,6.514079465457582,-92.3145582269419
1589997404.7995992,-2.764696582628361,-1.324696582628361,8.980575215679705,0.3456159551795702,-0.31889240211817477,-0.6041817665726703,3.055112184856353,6.779353641427255,-95.0141827728453
1589997404.8095992,-2.80641772991533,-1.3728354598306607,9.033208864957665,0.3644444444444445,-0.3055555555555556,-0.6088888888888889,3.1875,7.060166217956222,-97.8623824573725
1589997404.8195992,-2.8299843346286084,-1.4149765019429128,8.985086159542652,0.3644444444444445,-0.3055555555555556,-0.6088888888888889,3.281103137143206,7.312304182857608,-100.84193869143287
1589997404.8295991,-2.8192764456138253,-1.4818088859654368,8.904095557017282,0.3644444444444445,-0.3055555555555556,-0.6088888888888889,3.407380553728398,7.534641661185194,-103.13331938049393
1589997404.8395991,-2.8,-1.5543742449411055,8.884874848988222,0.3644444444444445,-0.3055555555555556,-0.6088888888888889,3.467967806176382,7.685935612352764,-105.25387321617336
1589997404.8495991,-2.7721158196350473,-1.5911536721459811,8.867692655708039,0.39294827326195153,-0.2758124298329396,-0.6132264280567704,3.6394209018247623,7.854565676368572,-107.52522244005429
1589997404.859599,-2.7922482228178533,-1.66337233422678,8.800710406712504,0.4155555555555556,-0.25222222222222224,-0.6166666666666667,3.8820256963057918,8.333577088917375,-109.71374839762265
1589997404.869599,-2.8226517723900773,-1.7469329757553473,8.767348227609922,0.4155555555555556,-0.25222222222222224,-0.6166666666666667,3.9770367887189915,8.18370569024807,-111.51517723900773
1589997404.879599,-2.8200545990754025,-1.799890801849195,8.809727004622987,0.4155555555555556,-0.25222222222222224,-0.6166666666666667,3.968920622110633,8.124317511557468,-113.24454009245974
1589997404.889599,-2.7986661693903843,-1.8388897176826926,8.86,0.4155555555555556,-0.25222222222222224,-0.6166666666666667,4.031948588413463,8.320836441310098,-114.95836441310097
1589997404.899599,-2.793775441949355,-1.92510176779742,8.928877209746775,0.42524938507547205,-0.24661000513174428,-0.6232992868645042,4.130102325211021,8.494897674788978,-117.10076047141264
1589997404.909599,-2.797170095763452,-1.99,8.962957017799326,0.43666666666666665,-0.24,-0.6311111111111111,4.1694158686378975,8.61595793431895,-118.94495314614633
1589997404.919599,-2.78,-2.0109754213483146,8.88202106741573,0.43666666666666665,-0.24,-0.6311111111111111,4.218859726123595,8.6875,-120.41811358848315
1589997404.929599,-2.7580081314359983,-2.081991868564002,8.832669377145333,0.43666666666666665,-0.24,-0.6311111111111111,4.022908196420835,8.847857374945846,-122.19148032125837
1589997404.939599,-2.716363018774704,-2.124849308300395,8.818787672924902,0.43666666666666665,-0.24,-0.6311111111111111,4.107962265316205,9.140154088438734,-123.21404088438736
1589997404.949599,-2.686865484298366,-2.1725380628065363,8.813134515701634,0.4512944066076257,-0.22606881910384852,-0.6265834773198619,4.4375,9.112864938053509,-124.68472373956905
1589997404.959599,-2.656271197245952,-2.2118644013770243,8.827909600918016,0.4833333333333333,-0.1955555555555556,-0.6166666666666667,4.3880649942623995,8.886652508606401,-125.99435005737601
1589997404.969599,-2.6158313528419295,-2.280023765896845,8.806650822735437,0.4833333333333333,-0.1955555555555556,-0.6166666666666667,4.28644595526206,9.104216178951761,-127.08870258159322
1589997404.979599,-2.6063181425404816,-2.3536818574595184,8.771045572378554,0.4833333333333333,-0.1955555555555556,-0.6166666666666667,4.319034827365969,9.18096517263403,-127.81562770034189
1589997404.989599,-2.6,-2.4010966858170963,8.820822514362822,0.4833333333333333,-0.1955555555555556,-0.6166666666666667,4.405393214205393,9.223033928973033,-128.63528142953527
1589997404.999599,-2.550797994851646,-2.5015025064354424,8.899202005148354,0.4983672793508859,-0.15387052341597796,-0.6385342245103796,4.490317199566454,9.336560933477848,-129.34595159869937
1589997405.009599,-2.52,-2.54,8.93,0.5077777777777778,-0.12777777777777774,-0.6522222222222223,4.5625,9.3125,-129.5625
1589997405.019599,-2.4869876724321514,-2.6126271206492677,8.837565482810023,0.5077777777777778,-0.12777777777777774,-0.6522222222222223,4.521234590540189,9.436296228379433,-130.42907359865603
1589997405.029599,-2.449544300042641,-2.670455699957359,8.77977215002132,0.5077777777777778,-0.12777777777777774,-0.6522222222222223,4.627848124733495,9.531962031183374,-131.09873421828362
1589997405.039599,-2.394620079186947,-2.729311023125615,8.789655511562808,0.5077777777777778,-0.12777777777777774,-0.6522222222222223,4.774569389453509,9.611638778907018,-131.5581938945351
1589997405.049599,-2.30264855991643,-2.79,8.787984479928369,0.5332716178348174,-0.10109817771808519,-0.6522222222222223,4.912548500223847,9.854247500373079,-132.23764550067153
1589997405.059599,-2.2740566663069783,-2.814339997841871,8.76,0.5555555555555556,-0.07777777777777778,-0.6522222222222223,4.873229177906923,9.873229177906923,-132.95637495953508
1589997405.069599,-2.2731937803849087,-2.855444975692073,8.761361243923018,0.5555555555555556,-0.07777777777777778,-0.6522222222222223,4.644961127405681,9.644961127405681,-133.72709329422636
1589997405.079599,-2.23,-2.937997182437192,8.77,0.5555555555555556,-0.07777777777777778,-0.6522222222222223,4.644984151209204,9.704980629255694,-134.67498239023246
1589997405.089599,-2.2135316139767056,-3.0064683860232946,8.811170965058235,0.5555555555555556,-0.07777777777777778,-0.6522222222222223,4.860304440515807,9.908108881031614,-135.10292741264558
1589997405.099599,-2.1795873596736994,-3.043015800407875,8.856984199592125,0.5607618757187057,-0.06244805729739116,-0.6545361422947334,4.782539501019689,9.703769750509844,-135.33134875254922
1589997405.1095989,-2.1465435094298004,-3.088065144663799,8.8165435094298,0.5755555555555556,-0.01888888888888889,-0.6611111111111111,4.853396933936252,9.786005110106245,-135.61290715414876
1589997405.1195989,-2.1035320128972823,-3.1598807922616308,8.78011920773837,0.5755555555555556,-0.01888888888888889,-0.6611111111111111,4.563990096729618,9.938990096729619,-136.06175495163518
1589997405.1295989,-2.066117375166328,-3.185823937250508,8.763882624833672,0.5755555555555556,-0.01888888888888889,-0.6611111111111111,4.336766405210449,9.736032810420898,-136.10256758176342
1589997405.1395988,-2.023944941500344,-3.1951113951430536,8.75766709271458,0.5755555555555556,-0.01888888888888889,-0.6611111111111111,4.5538172254448925,9.960763445088979,-135.37778487857634
1589997405.1495988,-1.9549843025330003,-3.212884052800571,8.748589368533715,0.5779380029333651,0.008112181392951993,-0.6761999445039045,4.63832277916518,9.932993667499108,-134.3256265608277
1589997405.1595988,-1.896682867106923,-3.2988780885953846,8.786682867106924,0.5822222222222222,0.05666666666666665,-0.7033333333333334,4.492988053721154,9.895732080581732,-132.84115530162498
1589997405.1695988,-1.8584827958278383,-3.3243448027814413,8.726965591655677,0.5822222222222222,0.05666666666666665,-0.7033333333333334,4.495258736961995,9.977586245653999,-131.33232863265795
1589997405.1795988,-1.776544138384883,-3.3451715709316536,8.693455861615117,0.5822222222222222,0.05666666666666665,-0.7033333333333334,4.163756228259848,9.726256228259848,-129.37484723136222
1589997405.1895988,-1.718356561684899,-3.3438811461050335,8.767168022735236,0.5822222222222222,0.05666666666666665,-0.7033333333333334,3.9375,9.475742836843539,-127.56424212636742
1589997405.1995988,-1.7,-3.362874032630225,8.814291344210075,0.5776924700004764,0.06882547526187899,-0.7026181092983209,3.9375,9.464320901312968,-125.61085062177118
1589997405.2095988,-1.6943016302121734,-3.4071508151060867,8.831424592446957,0.5611111111111111,0.11333333333333333,-0.7,3.8573666748586874,9.535788891619562,-123.17056299664127
1589997405.2195988,-1.6266277453433418,-3.4066861273283293,8.78577008618293,0.5611111111111111,0.11333333333333333,-0.7,3.4271441479010285,9.1924954823464,-120.11854496802891
1589997405.2295988,-1.5695545416839487,-3.450890916632103,8.699554541683948,0.5611111111111111,0.11333333333333333,-0.7,3.5652841144753213,8.893977257016452,-117.68926102585372
1589997405.2395988,-1.5347914726275484,-3.4976042636862257,8.699010659215565,0.5611111111111111,0.11333333333333333,-0.7,3.5924467039221772,8.836263324019455,-114.86815041912449
1589997405.2495987,-1.4860799461709073,-3.5189700201859098,8.735980013457274,0.5674233475382328,0.1272866980669707,-0.7069766823668187,3.325374747676128,8.818937373838065,-112.22799798140903
1589997405.2595987,-1.410456035275531,-3.536742672545922,8.743485345091845,0.5822222222222222,0.16,-0.7233333333333334,3.021783406824023,8.6875,-109.12744346718857
1589997405.2695987,-1.3579166440352688,-3.5275833288070535,8.708249959263485,0.5822222222222222,0.16,-0.7233333333333334,2.86197902522043,8.642187415132257,-106.27708186229248
1589997405.2795987,-1.3200425375870921,-3.520085075174184,8.640127612761276,0.5822222222222222,0.16,-0.7233333333333334,2.624202420242024,8.5,-103.80545471213789
1589997405.2895987,-1.3144435877171001,-3.5486415945409333,8.714198006823834,0.5822222222222222,0.16,-0.7233333333333334,2.3032425255893747,8.322524914702084,-99.41740197968271
1589997405.2995987,-1.244654756156446,-3.5182182520521486,8.766035731530662,0.5832120821932507,0.16336552390149686,-0.7324400450667955,2.348412602607436,7.908407774022211,-95.98593674553356
1589997405.3095987,-1.1967154674061193,-3.4867154674061194,8.830686186962447,0.5877777777777777,0.17888888888888888,-0.7744444444444445,1.9375,7.684126345349438,-90.91634305823189
1589997405.3195987,-1.1566822300295858,-3.4688785133136095,8.691261556952663,0.5877777777777777,0.17888888888888888,-0.7744444444444445,1.6877918130547338,7.360981416420119,-86.59287167159763
1589997405.3295987,-1.1243805947338543,-3.452666040784245,8.623716431596874,0.5877777777777777,0.17888888888888888,-0.7744444444444445,0.6184350574210733,7.182730830531418,-82.15293819047203
1589997405.3395987,-1.0822993437657749,-3.398199562510517,8.752299343765776,0.5877777777777777,0.17888888888888888,-0.7744444444444445,-0.30436542991755006,6.595309082113411,-78.08744531381457
1589997405.3495986,-1.04,-3.3941271065095275,8.700720343650183,0.591489640317705,0.17765160137557978,-0.7771252340566142,0.3125,6.3286017182509084,-73.59973565370636
1589997405.3595986,-1.0451157288344821,-3.5170524294482735,8.670231457668965,0.6077777777777778,0.17222222222222222,-0.7888888888888889,0.1313179371120941,5.943817937112094,-68.55435183280184
1589997405.3695986,-1.054644061932359,-3.59616101548309,8.677771170313987,0.6077777777777778,0.17222222222222222,-0.7888888888888889,-0.5580507741544849,4.942531733846553,-62.73898235446761
1589997405.3795986,-1.033274267354688,-3.6030970694187516,8.65583974296563,0.6077777777777778,0.17222222222222222,-0.7888888888888889,-0.29092834193359945,4.504429948398403,-58.11397380975562
1589997405.3895986,-1.0429960641460454,-3.641984256584181,8.741011807561865,0.6077777777777778,0.17222222222222222,-0.7888888888888889,-0.20647139178495164,3.887647594523301,-53.1831441297157
1589997405.3995986,-1.041925674604433,-3.683457208992612,8.74153153438818,0.6008996487371094,0.1485973442129703,-0.79277652704231,0.1706784887592352,3.524070932555411,-48.433136078257284
1589997405.4095986,-1.004100643749737,-3.716025160937434,8.77217612656204,0.5822222222222222,0.08444444444444445,-0.8033333333333333,0.32374195312828713,3.100943535153785,-42.79945144528127
1589997405.4195986,-0.9846864651588811,-3.7217161628972026,8.720627069682237,0.5822222222222222,0.08444444444444445,-0.8033333333333333,0.5810643891354893,2.831064389135489,-38.839109728387236
1589997405.4295986,-0.9994624110476996,-3.758656027619249,8.691075177904601,0.5822222222222222,0.08444444444444445,-0.8033333333333333,0.44253989642781655,2.6925398964278164,-35.37599741069541
1589997405.4395986,-0.9362605208973016,-3.7390084167178412,8.721756312538382,0.5822222222222222,0.08444444444444445,-0.8033333333333333,0.368802604486508,2.039128255608135,-29.42899297402738
1589997405.4495986,-0.9059658018431475,-3.7119886006143825,8.701988600614381,0.5762564203790748,0.0871695638048945,-0.7931693746376007,0.1957858358932603,1.7917854102668493,-26.15163866168252
1589997405.4595985,-0.9824498046389774,-3.751325293041534,8.752650586083067,0.4922222222222222,0.12555555555555556,-0.65,0.24171691849041263,1.3820281974840212,-20.591366567292273
1589997405.4695985,-0.9561624690288903,-3.745784320800558,8.755406172572226,0.4922222222222222,0.12555555555555556,-0.65,0.27634799499651197,1.1010154314305645,-16.700368045031393
1589997405.4795985,-0.9231581876362288,-3.689737281454343,8.703683624727542,0.4922222222222222,0.12555555555555556,-0.65,0.43421601817928857,0.7450740272689329,-12.77801819088253
1589997405.4895985,-0.9184551798620919,-3.68409196643682,8.724363213425272,0.4922222222222222,0.12555555555555556,-0.65,0.1875,0.32215512586192574,-9.095372601146465
1589997405.4995985,-0.9355370398424481,-3.7155370398424483,8.723388880472656,0.491726337760272,0.14514299180258883,-0.6388425996061203,0.14565974852295108,0.11776624753825178,-5.447801469474322
1589997405.5095985,-0.9885335948994606,-3.7685335948994605,9.0479418015367,0.49,0.21333333333333332,-0.6,0.09518554847147294,-0.24398193558934117,-1.009716772927906
1589997405.5195985,-0.8220574987774433,-3.355879854837464,8.682054924973619,0.49,0.21333333333333332,-0.6,0.12591852623993,0.55515179008056,3.04964063264098
1589997405.5295985,-0.4,-2.56,7.44,0.49,0.21333333333333332,-0.6,-0.0625,2.0625,5.6875
1589997405.5395985,-0.8247172893281958,-3.2266221310102194,8.583586446640979,0.49,0.21333333333333332,-0.6,3.3524930892946894,2.7188363838163854,10.85537516753225
1589997405.5495985,-0.8953071583190266,-3.49388221243562,8.97877771142793,0.49,0.21945535070040556,-0.602652874192398,2.2221346196909755,-14.029607841307755,10.210378256326043
1589997405.5595984,-0.8638584171569558,-3.4370089200986906,8.91618143860315,0.49,0.2466666666666667,-0.6144444444444445,-5.125593091668248,0.2585998291895999,16.449931201366482
1589997405.5695984,-0.8918559045047606,-3.6589114679550945,8.711550376580929,0.49,0.2466666666666667,-0.6144444444444445,1.1042969305101606,-2.509494457865568,18.793804177916726
1589997405.5795984,-0.8406312969321912,-3.3721644466246556,7.8368540809780765,0.49,0.2466666666666667,-0.6144444444444445,-0.5850463190068299,0.45941662578770615,21.067009263801367
1589997405.5895984,-0.9213179357632624,-3.648480981595092,8.57189130277878,0.49,0.2466666666666667,-0.6144444444444445,-2.1287702995308555,-3.292629014796103,22.11424936845904
1589997405.5995984,-0.9515907614579574,-3.751408588957055,8.523454781667269,0.49,0.2466666666666667,-0.6144444444444445,0.3687378202814866,-1.4005774088776617,23.590049621075423
1589997405.6095984,-1.065225993187554,-3.9266327809251513,9.41080231552567,0.5022222222222222,0.29444444444444445,-0.6077777777777778,-1.4846047104710471,-3.172422389297753,24.467655221404492
1589997405.6195984,-1.028213762552726,-3.822998535147632,8.9518506556538,0.5022222222222222,0.29444444444444445,-0.6077777777777778,0.08841509150915106,-2.570973641481795,25.670552717036408
1589997405.6295984,-1.0235491566567614,-3.753309337462855,8.76822542167162,0.5022222222222222,0.29444444444444445,-0.6077777777777778,-0.04031777089524129,-2.191546687314276,27.009592244590465
1589997405.6395984,-1.0586581844054745,-3.884968191520529,8.750670907797263,0.5022222222222222,0.29444444444444445,-0.6077777777777778,0.17911365253421505,-2.849840957602645,27.722744370736198
1589997405.6495984,-1.0286108717572646,-3.760046017050142,8.70574058117151,0.5063681975127571,0.29428498385634694,-0.6077777777777778,0.0625,-2.482060683839032,29.125862819690163
1589997405.6595984,-1.0747485562379686,-3.813873315610963,8.73649903749198,0.5285826381886516,0.2934305822918894,-0.6077777777777778,0.0625,-2.3859405078375655,30.135124667705565
1589997405.6695983,-1.082340230068701,-3.822979309793897,8.72787585876338,0.5311111111111111,0.2933333333333333,-0.6077777777777778,-0.1875,-2.7061206862118548,31.92816094823454
1589997405.6795983,-1.0961810040471887,-3.812362008094377,8.615754183529951,0.5311111111111111,0.2933333333333333,-0.6077777777777778,-0.3098323717672723,-2.62688545882488,33.24733237176727
1589997405.6895983,-1.137410866707219,-3.8906253556501773,8.787545277946746,0.5311111111111111,0.2933333333333333,-0.6077777777777778,-1.1782947923002962,-3.1350452779467455,34.692796734886095
1589997405.6995983,-1.0954014787072612,-3.785401478707261,8.607284731863235,0.5311111111111111,0.2933333333333333,-0.6077777777777778,-0.4611314693442676,-2.9442518483840763,36.22290180156911
1589997405.7095983,-1.185368694823986,-3.870737389647972,8.863686948239863,0.5311111111111111,0.2933333333333333,-0.6077777777777778,-0.8605271713249569,-3.076972828675043,38.37168486025129
1589997405.7195983,-1.1700043957654125,-3.840008791530825,8.710043957654127,0.5311111111111111,0.2933333333333333,-0.6077777777777778,-0.8125137367669145,-3.1249862632330854,39.812087896992566
1589997405.7295983,-1.1620051594746716,-3.9031927767354597,8.650791744840525,0.5311111111111111,0.2933333333333333,-0.6077777777777778,-0.9399742026266417,-3.5024742026266416,41.95266768292683
1589997405.7395983,-1.2026759595562972,-3.851337979778149,8.620773534897419,0.5311111111111111,0.2933333333333333,-0.6077777777777778,-0.7918118680671444,-3.3375871208402867,43.312935604201435
1589997405.7495983,-1.2144396920444824,-3.8572198460222413,8.756056458511548,0.5311111111111111,0.2933333333333333,-0.6077777777777778,-0.9756201881950385,-3.447872112917023,43.86436056458511
1589997405.7595983,-1.1433643726449825,-3.8504205465806227,8.676308198709343,0.5758152270682046,0.2794963450608996,-0.6141640800573626,-0.8828852483866776,-3.679614751613322,44.663844254839965
1589997405.7695982,-1.1868049566872547,-3.7987136308899507,8.685518587577207,0.5777777777777777,0.2788888888888889,-0.6144444444444445,-0.7764513654197258,-3.5412345103523286,44.299274317290134
1589997405.7795982,-1.21939090238123,-3.888324981548382,8.807715883929612,0.5777777777777777,0.2788888888888889,-0.6144444444444445,-2.100255409237463,-3.4394034300586567,43.63737229538127
1589997405.7895982,-1.2498809379764295,-3.810317498729521,8.560992183529754,0.5777777777777777,0.2788888888888889,-0.6144444444444445,-0.879960917648767,-3.4375,42.44221287176633
1589997405.7995982,-1.3194761723761106,-3.8397755024469045,8.74857818216373,0.5777777777777777,0.2788888888888889,-0.6144444444444445,-1.4953229676438449,-3.3754677032356155,41.07278947118354
1589997405.8095982,-1.3539155939384064,-3.814563304546195,8.656732116669383,0.6616246627921714,0.26664159107779767,-0.6398811398982492,-1.12904819129868,-3.21602065341372,40.16161703601108
1589997405.8195982,-1.4220463548749482,-3.8877218707503105,8.856562998876603,0.6766666666666666,0.2644444444444444,-0.6444444444444445,-1.41336915390528,-3.2613411281262934,39.47586915390528
1589997405.8295982,-1.4308468968461496,-3.8383062063077005,8.612540690538449,0.6766666666666666,0.2644444444444444,-0.6444444444444445,-1.5519137894231283,-3.07573276322109,39.65675863173062
1589997405.8395982,-1.4524963392249468,-3.8049926784498935,8.679985356899788,0.6766666666666666,0.2644444444444444,-0.6444444444444445,-1.3125,-3.367198939922041,40.57782756202693
1589997405.8495982,-1.4697970590055065,-3.839594118011013,8.749188236022027,0.6766666666666666,0.2644444444444444,-0.6444444444444445,-1.3125,-3.3131341906077916,41.983511044197414
1589997405.8595982,-1.48,-3.859184175131024,8.802447474606929,1.0611111111111111,0.2911111111111111,-0.76,-1.6106497263577757,-3.3944491790733267,43.52775410463337
1589997405.8695982,-1.4780232083767735,-3.8840696251303206,8.68825529214451,1.0611111111111111,0.2911111111111111,-0.76,-1.5625,-3.324129685870994,44.36119452880649
1589997405.8795981,-1.4845944860813705,-3.8556216541755886,8.624810626338329,1.0611111111111111,0.2911111111111111,-0.76,-1.5989862152034262,-3.5976353385974305,44.748649123394
1589997405.8895981,-1.569227973800972,-3.8276839214029157,8.766911895203886,1.0611111111111111,0.2911111111111111,-0.76,-1.8318006549757024,-3.423024508768223,44.278496725121485
1589997405.8995981,-1.560366152545954,-3.8010984576378615,8.731464610183815,1.0611111111111111,0.2911111111111111,-0.76,-2.0533461863511513,-3.2568653602366364,43.17076906824424
1589997405.909598,-1.565428062587457,-3.638949667133104,8.877431624475257,1.3955555555555557,-0.27555555555555555,-1.1444444444444444,-1.28927617351482,-3.1363084637238687,41.45597994317941
1589997405.919598,-1.59,-3.766014844533601,8.720701303911735,1.3955555555555557,-0.27555555555555555,-1.1444444444444444,-1.6794295386158475,-3.1667439819458374,40.05027833500502
1589997405.929598,-1.59,-3.7155317953861586,8.602907522567703,1.3955555555555557,-0.27555555555555555,-1.1444444444444444,-0.7854588766298898,-2.903811434302909,39.10372116349047
1589997405.939598,-1.59,-3.663618886763866,8.627104890588909,1.3955555555555557,-0.27555555555555555,-1.1444444444444444,-1.2672639154516778,-2.932976391545168,37.60856660291597
1589997405.949598,-1.6552051361607676,-3.734520155612306,8.704520155612308,1.3955555555555557,-0.27555555555555555,-1.1444444444444444,-0.4974357979904055,-3.053937743144228,36.684935797990406
1589997405.959598,-1.6673223890107007,-3.74,8.863770169224715,0.8927515101541076,-0.058324681571434805,-0.8360905072160484,-1.2612687637038285,-2.7879104120987237,36.44194027473248
1589997405.969598,-1.6798898544505239,-3.74,8.712313056539,0.7088888888888889,0.021111111111111112,-0.7233333333333334,-0.8825725065264814,-2.9347463612630977,36.00413045810535
1589997405.979598,-1.6942118377935553,-3.7044704055161115,8.638940811032223,0.7088888888888889,0.021111111111111112,-0.7233333333333334,-1.0970599655243036,-3.0707359793145823,35.82235202758056
1589997405.989598,-1.7183572110792742,-3.625749761222541,8.710964660936009,0.7088888888888889,0.021111111111111112,-0.7233333333333334,-1.1301337153772684,-2.838168576886342,35.40580229226361
1589997405.999598,-1.7047365892098636,-3.665790232370409,8.796317053950682,0.7088888888888889,0.021111111111111112,-0.7233333333333334,-1.1726981587191758,-2.8125,34.85032025408906
1589997406.009598,-1.7406557775003468,-3.6662623110001387,8.924491954501319,0.6144444444444445,0.17777777777777778,-0.7088888888888889,-1.0683401390622833,-2.75,33.2348366625052
1589997406.019598,-1.6679289776668054,-3.637171591066722,8.64813011513386,0.6144444444444445,0.17777777777777778,-0.7088888888888889,-1.1137943889582467,-2.75,32.14393466500208
1589997406.029598,-1.6991798661811397,-3.73027337793962,8.71054675587924,0.6144444444444445,0.17777777777777778,-0.7088888888888889,-0.4665464060846324,-2.4289569393868726,29.973652169623477
1589997406.039598,-1.6766084273593198,-3.7377971908802268,8.725594381760454,0.6144444444444445,0.17777777777777778,-0.7088888888888889,-1.265951531024091,-2.1938377849929145,27.52841296392631
1589997406.049598,-1.7409047448308832,-3.7045476275845584,8.845220210350185,0.6144444444444445,0.17777777777777778,-0.7088888888888889,-0.3921133620174495,-2.014211336201745,24.15357206884188
1589997406.059598,-1.7410520388531745,-3.6194683496785696,8.752624466238093,0.598536957961199,0.19368526426102328,-0.7218137216565259,-0.8651723288442589,-1.8322257284970203,20.345165055605086
1589997406.069598,-1.6805349783960637,-3.6994650216039364,8.77572017283149,0.5966666666666667,0.1955555555555556,-0.7233333333333334,-0.07587445990159594,-1.4207819251230052,16.216821411623666
1589997406.079598,-1.678806197261032,-3.697462535159312,8.700932816894914,0.5966666666666667,0.1955555555555556,-0.7233333333333334,-0.2600290496610873,-1.0958494720339373,11.886902291695487
1589997406.089598,-1.56888250251063,-3.777263733680904,8.71446998995748,0.5966666666666667,0.1955555555555556,-0.7233333333333334,0.2569843593085618,-0.7845625627657529,7.453164729386124
1589997406.099598,-1.550958526527211,-3.8937695775731287,8.786165893891155,0.5966666666666667,0.1955555555555556,-0.7233333333333334,0.3690092092049315,-0.3364631631802739,2.6921086087904103
1589997406.109598,-1.4842704349409759,-3.8474163479527803,8.783427043494097,0.5966666666666667,0.16853340103129008,-0.7415915458497289,0.2928380436762198,0.09830978161890097,-1.383030969055779
1589997406.119598,-1.5080641130764125,-3.8117051267033695,8.721935886923589,0.5966666666666667,0.15444444444444444,-0.7511111111111111,0.6647436648315177,0.5717147905196985,-9.077725391433368
1589997406.129598,-1.526617823177175,-3.803382176822825,8.703382176822824,0.5966666666666667,0.15444444444444444,-0.7511111111111111,0.8327227897146883,1.1213367382881296,-14.923837618879887
1589997406.139598,-1.494618197378146,-3.8265363519663906,8.673463648033609,0.5966666666666667,0.15444444444444444,-0.7511111111111111,1.206704399579881,1.5961362663865872,-23.670167658614385
1589997406.149598,-1.499203069657615,-3.839203069657615,8.697609208972844,0.5966666666666667,0.15444444444444444,-0.7511111111111111,1.6526342975206612,2.085153482880756,-31.402302243211334
1589997406.1595979,-17.875224531985758,-11.335634546916275,-8.457481480418053,0.52,0.10777777777777778,-0.6,-6.569986792236131,25.799765095612724,-55.55283285000574
1589997406.1695979,-2.1231158837716784,-3.290979671528655,-2.381840186057194,0.52,0.10777777777777778,-0.6,-44.50511083036637,130.61059887159757,-125.3263645629953
1589997406.1795979,5.321593228777695,-1.3730893701767488,-0.1915932287776948,0.52,0.10777777777777778,-0.6,-18.33974358974359,-101.8333644510829,-442.4363953198905
1589997406.1895978,1.4139066039036496,-1.7807088413132965,-0.21662832607882143,0.52,0.10777777777777778,-0.6,-9.520713518996317,-45.41219619679751,-507.82088413132965
1589997406.1995978,-0.030905513070745207,-1.7918110261414903,-0.16271653921223564,0.52,0.10777777777777778,-0.6,-3.1281996928294884,-1.2202268582216105,-492.10630179502766
1589997406.2095978,-0.23827196737108666,-1.84277614683011,0.04483002039307084,0.5166666666666667,0.3033333333333333,-0.6222222222222222,-5.875,17.3125,-452.5
1589997406.2195978,-0.33701955914312326,-1.4954822518886475,0.10107316568353514,0.5166666666666667,0.3033333333333333,-0.6222222222222222,-5.5560190934492395,17.86289842698955,-451.41171220117974
1589997406.2295978,-0.85,-1.03,2.02,0.5166666666666667,0.3033333333333333,-0.6222222222222222,0.5,28.3125,-430.75
1589997406.2395978,0.5502717493866768,1.4721249292319307,11.485224885198466,0.5166666666666667,0.3033333333333333,-0.6222222222222222,95.76438950745424,36.96855145624961,-360.25817764358055
1589997406.2495978,0.5615172533379573,-0.3221392652778121,-0.21419381208352917,0.5166666666666667,0.3033333333333333,-0.6222222222222222,25.3434581609651,-37.93309067601376,-301.4739806534717
1589997406.2595978,-0.41,-1.4,5.57,0.3644444444444445,0.4666666666666667,-0.6,-16.3125,10.875,-262.6875
1589997406.2695978,-0.6501842441174346,-1.2743520146431926,5.6392346041762,0.3644444444444445,0.4666666666666667,-0.6,-15.82101978516895,17.60614207268611,-258.39773247272467
1589997406.2795978,-2.9249219968798754,-0.022109984399375976,6.479446177847114,0.3644444444444445,0.4666666666666667,-0.6,-9.283760725429017,79.38489664586584,-210.7321811622465
1589997406.2895977,0.19178832416454528,-0.9950057475983252,7.5298292142212,0.3644444444444445,0.4666666666666667,-0.6,4.222701473848428,-28.774422161096965,-192.0599007512932
1589997406.2995977,0.5348294867378574,-1.766249692436396,8.004488460213572,0.3644444444444445,0.4666666666666667,-0.6,5.245383470301658,-23.15909650115644,-177.97159650115643
1589997406.3095977,0.7641422198188454,-1.6159686359334866,7.432087332702446,0.30601144608174485,0.5381967163865231,-0.5879104141318553,11.999552183317562,31.149384885764498,-148.37120623225633
1589997406.3195977,0.4622580820429231,-1.235036674816626,5.833504482477587,0.3,0.5455555555555556,-0.5866666666666667,-6.133292583537081,30.764479760934528,-134.2825794621027
1589997406.3295977,1.0558723831911017,-3.1733307782717564,13.589033675711585,0.3,0.5455555555555556,-0.5866666666666667,3.078404193707735,-14.711226940569269,-122.78765628459979
1589997406.3395977,0.870116340470472,-2.4231621442076756,9.495256272676173,0.3,0.5455555555555556,-0.5866666666666667,12.232247645084913,9.535294981859064,-110.41880440151941
1589997406.3495977,0.5683801679074925,-1.9745572627910661,7.337861872326944,0.3,0.5455555555555556,-0.5866666666666667,-2.8214062252494863,17.60178203706637,-92.4628801679075
1589997406.3595977,0.5653260734545154,-2.5141302637571945,9.57451016521055,0.22361717251183527,0.5833272834343183,-0.598417870895615,-8.05672513560515,3.588319324251584,-78.35598163637117
1589997406.3695977,0.5300068753724161,-2.180041252234496,7.210176467892011,0.1988888888888889,0.5955555555555555,-0.6022222222222222,12.872163908878397,6.748667896594399,-55.37060262639226
1589997406.3795977,0.5588442498968694,-2.3530654993812163,7.950335747352982,0.1988888888888889,0.5955555555555555,-0.6022222222222222,0.9767469175413659,1.1614265824815515,-36.9266985034606
1589997406.3895977,8.939228712513549,-14.114195832831507,5.313000120438396,0.1988888888888889,0.5955555555555555,-0.6022222222222222,-15.683840178248825,-18.45886276044803,-3.759206009875946
1589997406.3995976,4.869913733392104,-8.228277816258423,2.215166761119157,0.1988888888888889,0.5955555555555555,-0.6022222222222222,-30.973420806834163,0.10048039586088109,75.34314852129378
1589997406.4095976,-1.9797867088902343,-1.6076160760024216,13.364294695664322,0.16666666666666666,0.6111111111111112,-0.6166666666666667,32.11705106412704,-3.1804067899222277,112.12604782750431
1589997406.4195976,-1.47,-0.69,2.77,0.16666666666666666,0.6111111111111112,-0.6166666666666667,37.5625,5.625,120.0625
1589997406.4295976,-1.3216222810212708,-1.3307219683172398,5.872443215009794,0.16666666666666666,0.6111111111111112,-0.6166666666666667,-1.7238733205044525,-14.313255987766741,119.09298649530945
1589997406.4395976,-0.33808226017850085,-2.1466209665674993,8.883107953481598,0.16666666666666666,0.6111111111111112,-0.6166666666666667,-27.020262082093744,-11.145320594170638,124.24004904612312
1589997406.4495976,-0.0625641600987294,-2.4269464000224383,8.760232799483916,0.16666666666666666,0.6111111111111112,-0.6166666666666667,-3.461091983844277,-9.341202002636525,132.0176300030853
1589997406.4595976,-0.2543114659642769,-2.654898345542843,8.2182393612643,0.19054426061587146,0.6126034607329364,-0.6166666666666667,0.8168753601119434,-8.860328010535847,140.0244053008478
1589997406.4695976,-0.025020515476237848,-2.687548898538023,8.229376966896387,0.20222222222222225,0.6133333333333333,-0.6166666666666667,-8.188692586543441,-10.947702963789189,146.58802234792654
1589997406.4795976,0.09077212871116028,-2.852717658037535,8.454110531227318,0.20222222222222225,0.6133333333333333,-0.6166666666666667,-4.8723970034217,-12.128359053675734,154.27673201880205
1589997406.4895976,0.7831353242581829,-6.178416373508718,8.138120029060875,0.20222222222222225,0.6133333333333333,-0.6166666666666667,-4.959453387886204,-12.531269118996635,163.3047687557357
1589997406.4995975,1.5934033729610175,-9.198366049212053,9.17221177771634,0.20222222222222225,0.6133333333333333,-0.6166666666666667,-12.575010367708046,-15.366239286701687,195.66745576444566
1589997406.5095975,0.2937834749696495,-5.579484931800328,8.528291080482754,0.22539434010172424,0.5981059415839463,-0.6252734533076245,-3.8332332803684928,-15.789831866385775,221.8869706491466
1589997406.5195975,-0.374308189571245,-3.2533556602671445,8.847730830639822,0.2411111111111111,0.5877777777777777,-0.6311111111111111,-7.603954106468322,-16.8311971844698,233.66102895361968
1589997406.5295975,-0.03848814620622018,-3.2492440731031103,8.998614134022368,0.2411111111111111,0.5877777777777777,-0.6311111111111111,-11.250787423850927,-18.801378227494766,235.44458681465835
1589997406.5395975,-0.25439981795426103,-3.375777676641256,8.797111161679371,0.2411111111111111,0.5877777777777777,-0.6311111111111111,-3.416948742746615,-17.29833456593469,237.625554670611
1589997406.5495975,-0.15854888885343715,-3.59454923982579,9.250235789608027,0.2411111111111111,0.5877777777777777,-0.6311111111111111,-7.6865248552239045,-17.364706140420846,237.9098040936139
1589997406.5595975,0.6718885640889362,-4.163708920187793,8.534097794313048,0.31625367860552556,0.5497309081603527,-0.618745878485448,-8.243860173620337,-17.821020462397023,238.05350341039951
1589997406.5695975,12.132802171074529,-25.489004070764743,9.122878465910546,0.3288888888888889,0.5433333333333333,-0.6166666666666667,-27.563762513121176,-26.54300865357536,68.78867386517834
1589997406.5795975,-2.384399472063352,-14.782010558732953,12.246568411790586,0.3288888888888889,0.5433333333333333,-0.6166666666666667,-15.402716673999121,1.3295754509458888,-68.26586559612846
1589997406.5895975,-4.1636488623920185,-2.967353287098999,12.433746197834287,0.3288888888888889,0.5433333333333333,-0.6166666666666667,28.557280893863812,20.673705742791093,-90.17438506306524
1589997406.5995975,-1.1357792494481236,0.3226338300220751,5.709133002207505,0.3288888888888889,0.5433333333333333,-0.6166666666666667,37.34456401766005,7.419469163907285,-27.17376172737307
1589997406.6095974,-0.5573177589802469,-1.1032499941420435,5.7932488225507885,0.3971182500071597,0.5129178350035017,-0.6273531931068778,-6.00248963141739,-3.1890186751646086,0.14988313377229012
1589997406.6195974,-1.0155084910342447,-4.368473771659151,8.273789137518072,0.4211111111111111,0.5022222222222222,-0.6311111111111111,-28.79660493494163,-2.0465172733746195,16.041455829359343
1589997406.6295974,-0.887917098445596,-4.147709844559586,9.05260103626943,0.4211111111111111,0.5022222222222222,-0.6311111111111111,-8.291256476683937,-2.5283678756476684,45.44067357512954
1589997406.6395974,-0.68,-2.8669698389559906,8.197533492989033,0.4211111111111111,0.5022222222222222,-0.6311111111111111,7.936065051020408,-3.019665200263779,67.10386297376093
1589997406.6495974,3.8117980570154484,-8.228640707118968,7.2359428252906515,0.4211111111111111,0.5022222222222222,-0.6311111111111111,-1.1003941710463447,-6.4423624382863505,55.98414357381749
1589997406.6595974,-2.84,-2.23,10.31,0.3944444444444444,0.4955555555555556,-0.64,1.1875,6.625,-29.9375
1589997406.6695974,-2.84,-2.23,10.31,0.3944444444444444,0.4955555555555556,-0.64,1.1875,6.625,-29.9375
1589997406.6795974,-0.44972931405721317,-3.3034912334666258,7.948062134727777,0.3944444444444444,0.4955555555555556,-0.64,2.89543601968625,-0.15272223931098106,4.008862657643802
1589997406.6895974,-0.1554851171112558,-4.242935100845804,9.14335962914769,0.3944444444444444,0.4955555555555556,-0.64,-4.769917554489265,-1.5334483775211454,5.687993046519193
1589997406.6995974,-0.38116170070304656,-4.1346468028121866,8.52048041513224,0.3944444444444444,0.4955555555555556,-0.64,1.8099681955138935,0.19507448945430195,-0.6219974054235018
1589997406.7095973,-0.21887770471327284,-4.486363469380258,8.545117739980164,0.4036525721563009,0.48776406287629237,-0.6577079379074162,1.334456853164836,0.17501423533301497,-0.7867570074574777
1589997406.7195973,-0.17437680498556013,-4.542326151390789,8.845789823681411,0.4088888888888889,0.4833333333333333,-0.6677777777777778,-0.44528993768049857,-0.22558875778993767,0.22558875778993767
1589997406.7295973,-0.223783815805063,-4.474459539512657,8.717297105169623,0.4088888888888889,0.4833333333333333,-0.6677777777777778,-0.4083616365862328,0.013936060977054632,0.14442557560917815
1589997406.7395973,-0.23,-4.49,8.68,0.4088888888888889,0.4833333333333333,-0.6677777777777778,-0.4375,0.0625,0.125
1589997406.7495973,-0.19,-4.594924507153689,8.563241247445111,0.4088888888888889,0.4833333333333333,-0.6677777777777778,0.22361871167666647,-0.0625,0.0625
1589997406.7595973,-0.19,-4.560388482427398,8.636158265631313,0.4044012797302891,0.48717985546927595,-0.6677777777777778,0.625,0.009622290048924995,-0.009622290048924995
1589997406.7695973,-0.21048732885826654,-4.508050684566934,8.786094863530177,0.4011111111111111,0.49,-0.6677777777777778,0.15549871366472484,-0.06554580536416593,-0.10518193512138865
1589997406.7795973,-0.19105842545597812,-4.56406011726807,8.644644371827852,0.4011111111111111,0.49,-0.6677777777777778,-0.6503757329254444,-0.125,-0.17022121022503417
1589997406.7895973,-0.2036971339842619,-4.592100955338579,8.577899044661422,0.4011111111111111,0.49,-0.6677777777777778,-0.2825716503934521,-0.075630970866121,-0.03939291259836303
1589997406.7995973,-0.21633534810835012,-4.59,8.611676740541752,0.4011111111111111,0.49,-0.6677777777777778,-0.125,-0.10209592567718827,0.0
1589997406.8095973,-0.1983006260339291,-4.546601252067858,8.738496869830355,0.39066326438670657,0.49,-0.6846550686402774,0.3270702909598106,-0.17020702909598107,0.09041405819196212
1589997406.8195972,-0.2039587249864227,-4.536979362493211,8.759061912520366,0.38666666666666666,0.49,-0.6911111111111111,0.2818949220871454,-0.1875,0.08137898441742908
1589997406.8295972,-0.1952882710872397,-4.584135186738281,8.681345265073785,0.38666666666666666,0.49,-0.6911111111111111,0.03425282382541353,-0.15685056476508272,0.0012011295301654137
1589997406.8395972,-0.17474250697254193,-4.593197548807793,8.61,0.38666666666666666,0.49,-0.6911111111111111,-0.125,-0.125,0.06893732568645167
1589997406.8495972,-0.1875262571143578,-4.577526257114357,8.662578771343073,0.38666666666666666,0.49,-0.6911111111111111,0.1671042852392967,-0.125,0.11447392869017582
1589997406.8595972,-0.2,-4.59,8.706960325739477,0.39672047051257603,0.49386684763304206,-0.664816547206425,0.375,0.0055061076151697586,0.0625
1589997406.8695972,-0.21024053271929552,-4.564398668201761,8.745841864517534,0.4011111111111111,0.4955555555555556,-0.6533333333333333,0.43900332949559695,0.03049833525220151,0.09450166474779849
1589997406.8795972,-0.21630582812445437,-4.536305828124455,8.713504906240178,0.4011111111111111,0.4955555555555556,-0.6533333333333333,0.2691142577783986,-0.06926572266648043,0.07882285155567972
1589997406.8895972,-0.21,-4.550660573208004,8.634434288680007,0.4011111111111111,0.4955555555555556,-0.6533333333333333,-0.4693428868000692,-0.14445713914999136,0.0
1589997406.8995972,-0.20416359036821888,-4.577509228895343,8.661672819263563,0.4011111111111111,0.4955555555555556,-0.6533333333333333,-0.4426121990068397,-0.125,0.0
1589997406.9095972,-0.2,-4.557265399023187,8.70741097254493,0.39227796481578076,0.4955555555555556,-0.6533333333333333,-0.0494540992934705,-0.066545355398549,0.029227322300725497
1589997406.9195971,-0.2,-4.557411696954185,8.718823585871512,0.38222222222222224,0.4955555555555556,-0.6533333333333333,0.25,0.11691155298182748,0.0625
1589997406.9295971,-0.20677822951998023,-4.539330622880119,8.666108852400098,0.38222222222222224,0.4955555555555556,-0.6533333333333333,0.16527213100024707,-0.024319672499382272,0.02013606550012354
1589997406.9395971,-0.20318114438185592,-4.567731989327008,8.636362288763712,0.38222222222222224,0.4955555555555556,-0.6533333333333333,-0.17332493329380372,-0.16761784761340054,0.08523569522680108
1589997406.9495971,-0.1884608971814212,-4.572691345772132,8.681925962683605,0.38222222222222224,0.4955555555555556,-0.6533333333333333,-0.16826121476776498,-0.07932091107582374,0.08894030369194125
1589997406.959597,-0.19237070128624112,-4.566185350643121,8.707629298713758,0.39871649060387704,0.4921192496427108,-0.6622677287067297,0.09213376607801396,-0.03865844151950349,0.02384155848049651
1589997406.969597,-0.2,-4.550161585986829,8.719838414013172,0.4088888888888889,0.49,-0.6677777777777778,0.2701600583882137,-0.021169970805893133,-0.08266005838821373
1589997406.979597,-0.18617501601537476,-4.553824983984625,8.65396258808456,0.4088888888888889,0.49,-0.6677777777777778,0.1396877001921845,-0.1728122998078155,-0.08179692504804612
1589997406.989597,-0.19431293689552812,-4.545687063104472,8.69156468447764,0.4088888888888889,0.49,-0.6677777777777778,-0.16113963899262665,-0.07108828880589871,0.07168378339557599
1589997406.999597,-0.19462712439909216,-4.5507457512018155,8.67164411959183,0.4088888888888889,0.49,-0.6677777777777778,-0.350741417517022,-0.033580472505674,0.024258582482978006
1589997407.009597,-0.1948828790459966,-4.555117120954003,8.669063032367973,0.41105905735377624,0.49,-0.6607247302668938,-0.2543920357751278,-0.0625,-0.0014640119250425923
1589997407.019597,-0.19562227721046946,-4.55437772278953,8.71,0.4133333333333333,0.49,-0.6533333333333333,0.07430383717282962,-0.03513923256543408,0.08986076743456592
1589997407.029597,-0.19660908159781496,-4.550086377603278,8.693477296005463,0.4133333333333333,0.49,-0.6533333333333333,0.2913067599863435,0.0,0.10434662000682828
1589997407.039597,-0.19805296241808212,-4.53,8.66,0.4133333333333333,0.49,-0.6533333333333333,0.2629965226695199,-0.03733449244349338,0.0625
1589997407.049597,-0.19,-4.55084051849412,8.680840518494119,0.4133333333333333,0.49,-0.6533333333333333,-0.007879860882370027,-0.0625,-0.002626620294123347
1589997407.059597,-0.19,-4.575382211388212,8.694617788611788,0.39240251126806536,0.48641185907452544,-0.665293803084915,-0.25477764235264705,-0.028861178823676482,-0.028861178823676482
1589997407.069597,-0.19680911323875885,-4.58,8.730854679432554,0.3744444444444445,0.4833333333333333,-0.6755555555555556,-0.05715825354654369,-0.04255695774224272,0.08511391548448544
1589997407.079597,-0.18997047311680285,-4.549911419350408,8.70988189246721,0.3744444444444445,0.4833333333333333,-0.6755555555555556,0.0625,-0.031157728490008925,0.06231545698001785
1589997407.089597,-0.18509919380335124,-4.555694356623459,8.680198387606703,0.3744444444444445,0.4833333333333333,-0.6755555555555556,0.03063003872905469,0.03186996127094531,0.03186996127094531
1589997407.099597,-0.19535880133507474,-4.60071760267015,8.695358801335074,0.3744444444444445,0.4833333333333333,-0.6755555555555556,-0.16746254172108546,-0.004485016688434193,0.0625
1589997407.109597,-0.2053401893568397,-4.593979431929481,8.7,0.388684949396017,0.48689345957122643,-0.6684353030797693,-0.3458761834802481,-0.09587618348024812,-0.03762855044074437
1589997407.119597,-0.19812752081009183,-4.5681275208100915,8.676255041620184,0.4011111111111111,0.49,-0.6622222222222223,-0.11528951772075863,0.02340598987385223,-0.08789850253153694
1589997407.129597,-0.18400109540451723,-4.548002190809035,8.636004381618068,0.4011111111111111,0.49,-0.6622222222222223,0.13748630744353452,0.0500136925564655,-0.0625
1589997407.139597,-0.1932160866433167,-4.5532160866433165,8.653040216608291,0.4011111111111111,0.49,-0.6622222222222223,0.2701005415207293,-0.04130027076036466,0.02010054152072932
1589997407.149597,-0.2,-4.552442627768427,8.688893430578933,0.4011111111111111,0.49,-0.6622222222222223,0.19441605888167562,-0.10973357644732976,0.08611678822366488
1589997407.159597,-0.2,-4.541237209799364,8.71690697550159,0.4011111111111111,0.49,-0.6622222222222223,0.019331403115065038,-0.179767438753974,0.121133719376987
1589997407.169597,-0.20763188463849389,-4.56,8.717631884638495,0.4088888888888889,0.49,-0.6844444444444444,-0.23519927899058682,-0.09210144201882636,0.09539855798117364
1589997407.179597,-0.2026744267094166,-4.562674426709417,8.699302293162335,0.4088888888888889,0.49,-0.6844444444444444,-0.1289969157315118,-0.1958575834669269,0.0
1589997407.189597,-0.20985662976045594,-4.569856629760456,8.670573480958177,0.4088888888888889,0.49,-0.6844444444444444,0.2816980319985752,-0.09150984000712398,0.0
1589997407.199597,-0.2,-4.56,8.69501655629139,0.4088888888888889,0.49,-0.6844444444444444,0.06277593818984548,6.8984547461369e-05,0.031215507726269315
1589997407.2095969,-0.19666074707888526,-4.56,8.690017758763345,0.4103730012982732,0.49408130912580694,-0.669603320350601,-0.2083703307569673,-0.04162966924303271,0.04162966924303271
1589997407.2195969,-0.19714074547561025,-4.57428149095122,8.71,0.4133333333333333,0.5022222222222222,-0.64,-0.205370340777436,-0.022314829611282012,0.044629659222564025
1589997407.2295969,-0.20554880148780824,-4.573292808926849,8.661036816365892,0.4133333333333333,0.5022222222222222,-0.64,0.06973993490838959,-0.0625,0.013720037195205953
1589997407.2395968,-0.1961202251227398,-4.543879774877261,8.634917973895341,0.4133333333333333,0.5022222222222222,-0.64,0.3125,-0.03825140701712369,-0.07650281403424739
1589997407.2495968,-0.19,-4.55,8.704893934588332,0.4133333333333333,0.5022222222222222,-0.64,0.25044193921528385,-0.031029030392358065,0.0
1589997407.2595968,-0.19,-4.554472826249514,8.728945652499029,0.4048846615286958,0.4967554345839274,-0.6429818841663426,0.01976901564322675,-0.034544835940537796,0.0
1589997407.2695968,-0.19,-4.565629828686597,8.706221027880417,0.3944444444444444,0.49,-0.6466666666666666,-0.22268642929123278,-0.07037285858246557,0.035186429291232786
1589997407.2795968,-0.19,-4.575468519542773,8.630783324115043,0.3944444444444444,0.49,-0.6466666666666666,-0.14746525857300885,-0.02246525857300885,0.0625
1589997407.2895968,-0.184551501516189,-4.569103003032378,8.622690990902866,0.3944444444444444,0.49,-0.6466666666666666,0.03965934657145652,0.028446884476181163,0.09655311552381884
1589997407.2995968,-0.1838636438909681,-4.5522727122180635,8.68863643890968,0.3944444444444444,0.49,-0.6466666666666666,0.10085222568144935,-0.09659109727420263,0.052556677044348035
1589997407.3095968,-0.19,-4.541985619693707,8.746028760612585,0.3981950594214476,0.49,-0.6526235257477894,0.0625,-0.25,-0.03767975382865499
1589997407.3195968,-0.19,-4.55,8.71869200030543,0.4133333333333333,0.49,-0.6766666666666666,-0.11418749522767188,-0.1086500038178625,0.0625
1589997407.3295968,-0.19508964388047484,-4.570358575521899,8.654013917314778,0.4133333333333333,0.49,-0.6766666666666666,-0.09094862873516169,0.03181027425296766,0.0625
1589997407.3395967,-0.19097622279193688,-4.571952445583873,8.640606997436283,0.4133333333333333,0.49,-0.6766666666666666,0.1470979113255919,-0.05029721510078922,0.0625
1589997407.3495967,-0.1840999918440584,-4.541800016311883,8.71459995106435,0.4133333333333333,0.49,-0.6766666666666666,0.224375050974635,-0.08500020389854007,0.0625
1589997407.3595967,-0.1950278314650174,-4.537541747197526,8.752513915732509,0.4066295580466434,0.48525149250526134,-0.6691249194691405,0.17178802667182064,0.015364080015461926,0.046788026671820644
1589997407.3695967,-0.2088577325457263,-4.56342680236282,8.747435058002988,0.38666666666666666,0.4711111111111111,-0.6466666666666666,0.08930414205394634,-0.11072165682157853,0.0
1589997407.3795967,-0.19682529929806925,-4.583650598596138,8.634126496490346,0.38666666666666666,0.4711111111111111,-0.6466666666666666,-0.20734187938706736,-0.09920939693533672,-0.03968375877413469
1589997407.3895967,-0.19,-4.57183941250174,8.6091970625087,0.38666666666666666,0.4711111111111111,-0.6466666666666666,-0.22700734372824724,-0.2550183593206181,-0.10200734372824725
1589997407.3995967,-0.2008676407223158,-4.572754906185123,8.671735281444633,0.38666666666666666,0.4711111111111111,-0.6466666666666666,-0.0797181636570175,-0.045281836342982495,0.0
1589997407.4095967,-0.21366341315140666,-4.5663365868485934,8.713168293424298,0.38913089488556407,0.47251924152190966,-0.6533552861179596,0.03960366780370833,-0.16460366780370833,0.019801833901854166
1589997407.4195967,-0.2,-4.58,8.72,0.3944444444444444,0.4755555555555556,-0.6677777777777778,0.05880703294559465,-0.21690351647279732,0.09559648352720268
1589997407.4295967,-0.2107086800302572,-4.5746456599848715,8.666456599848713,0.3944444444444444,0.4755555555555556,-0.6677777777777778,-0.06692925018910742,-0.05364149962178516,0.024606124716338884
1589997407.4395967,-0.205289070749736,-4.555289070749736,8.644518215417106,0.3944444444444444,0.4755555555555556,-0.6677777777777778,-0.06370446145723338,0.0012044614572333731,-0.0625
1589997407.4495966,-0.18625874195540856,-4.543741258044592,8.692447548267548,0.3944444444444444,0.4755555555555556,-0.6677777777777778,0.11691431389348263,0.0076485883360895845,-0.0625
1589997407.4595966,-0.1878542661097852,-4.547381911296738,8.73,0.39124455825156895,0.4755555555555556,-0.6605053091576063,0.2797738912092283,0.07591083681384247,0.002952217581543362
1589997407.4695966,-0.20626581313824113,-4.543734186861759,8.73373418686176,0.38222222222222224,0.4755555555555556,-0.64,0.11748399634202103,-0.0625,0.11748399634202103
1589997407.4795966,-0.2,-4.562758798965997,8.684711871147345,0.38222222222222224,0.4755555555555556,-0.64,-0.10632332471664346,-0.11566166235832173,0.05316166235832173
1589997407.4895966,-0.18848883396592817,-4.568488833965928,8.61767411068938,0.38222222222222224,0.4755555555555556,-0.64,-0.2020368081913673,-0.11555521228705093,0.10101840409568365
1589997407.4995966,-0.17401441572346285,-4.554014415723462,8.662115325787703,0.38222222222222224,0.4755555555555556,-0.64,-0.07481980345671459,-0.07527029481492811,0.037409901728357293
1589997407.5095966,-0.18272340861371433,-4.557276591386286,8.723617043068572,0.38343262605053974,0.4776737622551112,-0.6475650239269843,0.08510651917857326,-0.13643608849285604,0.0
1589997407.5195966,-0.19366094629709832,-4.553660946297098,8.749017161108705,0.38666666666666666,0.4833333333333333,-0.6677777777777778,0.22097634257254223,-0.022880914356864443,0.0
1589997407.5295966,-0.20580762478053674,-4.56,8.69515425131678,0.38666666666666666,0.4833333333333333,-0.6677777777777778,0.008053517682468023,-0.0625,0.03629765487835465
1589997407.5395966,-0.21895754953599197,-4.56,8.616254702784047,0.38666666666666666,0.4833333333333333,-0.6677777777777778,-0.11522702689992476,-0.0625,0.11848468459994982
1589997407.5495965,-0.19,-4.565837892420612,8.646648430317555,0.38666666666666666,0.4833333333333333,-0.6677777777777778,-0.013006586185588764,0.0,0.0625
1589997407.5595965,-0.19,-4.55319512893551,8.697219484257962,0.38666666666666666,0.4833333333333333,-0.6677777777777778,-0.052515222076532385,0.0,0.0625
1589997407.5695965,-0.2087885830962052,-4.541211416903795,8.73,0.4088888888888889,0.49,-0.6488888888888888,0.10985728870256532,-0.09471457740513066,0.0
1589997407.5795965,-0.1995067025912251,-4.550493297408774,8.725067025912251,0.4088888888888889,0.49,-0.6488888888888888,-0.009249326414529488,0.11883378239031367,0.009249326414529488
1589997407.5895965,-0.1846226434075773,-4.568066034888633,8.638066034888634,0.4088888888888889,0.49,-0.6488888888888888,-0.1706957606486791,0.0,0.12028304259471641
1589997407.5995965,-0.17131474010133235,-4.587370519797335,8.661314740101332,0.4088888888888889,0.49,-0.6488888888888888,-0.13321712563332708,-0.008217125633327079,-0.07071712563332708
1589997407.6095965,-0.1854630720334274,-4.568907385593315,8.676555686440112,0.4093744952918602,0.49060700800371415,-0.65022430649706,-0.1533557997910786,-0.05567115995821572,-0.10451347987464717
1589997407.6195965,-0.2276724460521392,-4.558448297368092,8.72767244605214,0.4133333333333333,0.4955555555555556,-0.6611111111111111,0.12984907072471,0.004849070724709991,0.04795278782587002
1589997407.6295965,-0.19065926013473586,-4.549340739865264,8.662637040538943,0.4133333333333333,0.4955555555555556,-0.6611111111111111,0.09993056376314856,0.004120375842099039,-0.03743056376314856
1589997407.6395965,-0.18,-4.56,8.644886341765925,0.4133333333333333,0.4955555555555556,-0.6611111111111111,0.05184654534567928,-0.010653454654320722,0.03657672732716036
1589997407.6495965,-0.18290885868806003,-4.5629088586880595,8.68,0.4133333333333333,0.4955555555555556,-0.6611111111111111,0.10681963319962481,0.08068036680037519,0.0
1589997407.6595964,-0.19218532660575482,-4.565629346788491,8.693111959634528,0.4075057957179871,0.49871213843053475,-0.6564976438322954,0.048841708714032456,0.11134170871403246,-0.013658291285967544
1589997407.6695964,-0.1862425864313612,-4.55458580452288,8.74,0.38666666666666666,0.51,-0.64,0.0,0.03383872173200251,-0.005177443464005019
1589997407.6795964,-0.18278525031165935,-4.555738249896113,8.688858998753362,0.38666666666666666,0.51,-0.64,-0.02663593814929029,0.05327187629858058,0.00922812370141942
1589997407.6895964,-0.20300162446249403,-4.553001624462493,8.63500812231247,0.38666666666666666,0.51,-0.64,-0.0625,0.06871954132823699,-0.043739847109412325
1589997407.6995964,-0.20909814683063996,-4.56,8.67180370633872,0.38666666666666666,0.51,-0.64,-0.06813658230850018,-0.06813658230850018,0.0056365823085001866
1589997407.7095964,-0.20199325812243793,-4.56,8.686013483755124,0.38666666666666666,0.51,-0.64,-0.11254213673476302,-0.11254213673476302,0.05004213673476302
1589997407.7195964,-0.20898078163291628,-4.5769423448987485,8.71,0.3944444444444444,0.4955555555555556,-0.6677777777777778,0.01274022958854637,0.006370114794273185,0.21814942602863407
1589997407.7295964,-0.19802597330675084,-4.551974026693249,8.692233759760757,0.3944444444444444,0.4955555555555556,-0.6677777777777778,0.125,0.05016233316719278,-0.02548699950157833
1589997407.7395964,-0.19227764887857696,-4.56,8.638221191028615,0.3944444444444444,0.4955555555555556,-0.6677777777777778,0.13923530549110597,0.028470610982211913,0.06805877803557617
1589997407.7495964,-0.19965003866976025,-4.56,8.697200309358081,0.3944444444444444,0.4955555555555556,-0.6677777777777778,0.18531274168600154,0.1206254833720031,-0.1162509667440062
1589997407.7595963,-0.18,-4.586427691206869,8.687144617586261,0.3952382908429179,0.494894016890161,-0.6671162391123832,-0.0550576900143107,0.2276730700429321,-0.0476153800286214
1589997407.7695963,-0.18,-4.561417951979647,8.737164096040706,0.40079601067118953,0.49026258369993464,-0.6624848059221569,-0.0029540666242645897,0.07136219987279377,0.05659186675147082
1589997407.7795963,-0.18306667732225151,-4.55,8.682399904099737,0.4011111111111111,0.49,-0.6622222222222223,-0.024166533471855933,0.004999800207783907,0.0625
1589997407.7895963,-0.19375448197773165,-4.565017927910927,8.627508963955464,0.4011111111111111,0.49,-0.6622222222222223,0.015568975278354408,-0.125,0.0859655123608228
