time,acc_x,acc_y,acc_z,mag_x,mag_y,mag_z,gyr_x,gyr_y,gyr_z
1589995552.3821619,-4.03,-0.8,8.81,0.3,-0.3288888888888889,-0.5966666666666667,0.0625,-0.1875,0.0625
1589995552.3921618,-4.020514496358948,-0.8094855036410512,8.772057985435795,0.3,-0.3288888888888889,-0.5966666666666667,-0.11535319326970919,0.049637591026278904,0.0625
1589995552.4021618,-4.046255708769994,-0.8012480970766686,8.813759514616658,0.3,-0.3288888888888889,-0.5966666666666667,-0.015601213458356314,-0.046898786541643686,0.0625
1589995552.4121618,-4.03744819952264,-0.81255180047736,8.8513795011934,0.3,-0.3288888888888889,-0.5966666666666667,0.03922437649174998,0.01594875298349996,0.02327562350825002
1589995552.4221618,-4.02328718016181,-0.8334256396763796,8.916989738867327,0.3082045575800098,-0.3288888888888889,-0.6063629619884965,-0.021410247977372884,-0.021410247977372884,0.0
1589995552.4321618,-4.041549115273062,-0.8543660768487084,8.932816961575645,0.31222222222222223,-0.3288888888888889,-0.6111111111111112,-0.1073939901522135,-0.1073939901522135,0.089787980304427
1589995552.4421618,-4.021749903956972,-0.8317499039569727,8.854666410551927,0.31222222222222223,-0.3288888888888889,-0.6111111111111112,-0.007291266487386358,-0.007291266487386358,0.125
1589995552.4521618,-4.03353450166141,-0.8096982475078854,8.863534501661409,0.31222222222222223,-0.3288888888888889,-0.6111111111111112,0.08459063538381095,0.0,0.16729531769190548
1589995552.4621618,-4.0340049482799465,-0.8179851551601611,8.88798515516016,0.31222222222222223,-0.3288888888888889,-0.6111111111111112,0.125,-0.14987629300134236,0.11256185349932882
1589995552.4721618,-4.035637656091799,-0.83,8.9,0.31222222222222223,-0.3288888888888889,-0.602967830089624,0.125,-0.28523535057374283,0.02726464942625717
1589995552.4821618,-4.025388949972512,-0.8226944749862561,8.885388949972514,0.31222222222222223,-0.3288888888888889,-0.5966666666666667,0.3532976566794942,-0.22118093732820232,0.0913190626717977
1589995552.4921618,-4.02,-0.8112644414273639,8.76643773855573,0.31222222222222223,-0.3288888888888889,-0.5966666666666667,0.49209724107897634,-0.13290275892102366,0.015805517842047298
1589995552.5021617,-4.038426569074115,-0.8284265690741155,8.805279707222347,0.31222222222222223,-0.3288888888888889,-0.5966666666666667,0.21208485821694428,-0.24016605671322228,0.0
1589995552.5121617,-4.047149467241824,-0.8085515982745272,8.838597868967296,0.31222222222222223,-0.3288888888888889,-0.5966666666666667,0.14281582973859824,-0.20531582973859824,0.0
1589995552.5221617,-4.032080259863301,-0.8268796102050484,8.903759220410096,0.29529802320422877,-0.33287105336371087,-0.5956711255479611,0.2929975637815524,-0.1875,0.1679975637815524
1589995552.5321617,-4.0382860431900065,-0.8134279136199877,8.918286043190006,0.2933333333333333,-0.3333333333333333,-0.5955555555555555,0.3125,-0.1875,0.08392446012492272
1589995552.5421617,-4.031868419159092,-0.8343947425227256,8.846815772431823,0.2933333333333333,-0.3333333333333333,-0.5955555555555555,0.3633223802556784,-0.035032859232964786,-0.03914476051135682
1589995552.5521617,-4.036669205233353,-0.8333307947666471,8.850007615700058,0.2933333333333333,-0.3333333333333333,-0.5955555555555555,0.3333174672915446,-0.12504759812536614,-0.020817467291544614
1589995552.5621617,-4.035736727596663,-0.83,8.877053089613348,0.2933333333333333,-0.3333333333333333,-0.5955555555555555,0.2592090949582855,-0.21414545252085726,-0.026645452520857246
1589995552.5721617,-4.03,-0.83,8.90342472965858,0.2906696547099933,-0.3333333333333333,-0.5959360810731755,0.27311824146450125,-0.25,-0.01969087926774938
1589995552.5821617,-4.034952036059638,-0.8101918557614516,8.91,0.2855555555555556,-0.3333333333333333,-0.5966666666666667,0.40654977462726816,-0.18809954925453634,0.0005995492545363482
1589995552.5921617,-4.034282859841604,-0.8014342803167914,8.835677177940855,0.2855555555555556,-0.3333333333333333,-0.5966666666666667,0.375,-0.23219637796991935,-0.0625
1589995552.6021616,-4.035857989315201,-0.81,8.809289946576008,0.2855555555555556,-0.3333333333333333,-0.5966666666666667,0.41161243322000973,-0.27588756677999027,0.010724866440019423
1589995552.6121616,-4.029292556919962,-0.8046462784599808,8.856768607700097,0.2855555555555556,-0.3333333333333333,-0.5966666666666667,0.4709607596251201,-0.25,-0.004421519250240147
1589995552.6221616,-4.015678055969948,-0.8129658320901558,8.897287776120208,0.2855555555555556,-0.3366948453567071,-0.5904238586232583,0.5,-0.33103645056347397,-0.03548784981217536
1589995552.6321616,-4.024965484838628,-0.822517257580686,8.905034515161372,0.2855555555555556,-0.3411111111111111,-0.5822222222222222,0.3830821496982182,-0.3907328598792873,0.0
1589995552.6421616,-4.039314414648963,-0.81,8.842600451271371,0.2855555555555556,-0.3411111111111111,-0.5822222222222222,0.1541075457780092,-0.1789301831120368,-0.10017736266597241
1589995552.6521616,-4.03,-0.7957153819323335,8.8314269271015,0.2855555555555556,-0.3411111111111111,-0.5822222222222222,0.03572113707708406,0.02677886292291594,-0.053581705615626085
1589995552.6621616,-4.03,-0.7959515412287508,8.84595154122875,0.2855555555555556,-0.3411111111111111,-0.5822222222222222,-0.14878853071876982,-0.011894265359384912,0.07439426535938491
1589995552.6721616,-4.03,-0.8230820668693009,8.888470111448836,0.30179849150061916,-0.33512687155240345,-0.5882064617809298,-0.29808763931104354,-0.014412360688956433,0.028824721377912865
1589995552.6821616,-4.03,-0.8170291060662982,8.887029106066299,0.30666666666666664,-0.3333333333333333,-0.59,-0.23143191291436338,0.0405340435428183,0.0810680870856366
1589995552.6921616,-4.0219927458162745,-0.81,8.815941966530202,0.30666666666666664,-0.3333333333333333,-0.59,-0.2875906772965596,0.0625,0.07495466135172017
1589995552.7021616,-4.02,-0.8024615767016032,8.860307386387175,0.30666666666666664,-0.3333333333333333,-0.59,-0.17115456315506025,-0.2201908736898795,0.0625
1589995552.7121615,-4.032723206727241,-0.8,8.892723206727242,0.30666666666666664,-0.3333333333333333,-0.59,-0.045479957954737846,-0.23297995795473786,0.0625
1589995552.7221615,-4.05,-0.8008992173774158,8.911798434754832,0.30636692754086137,-0.33313350724946317,-0.5909491738983833,0.059689945695575786,-0.11656983708672736,0.05125978278230314
1589995552.7321615,-4.046520941903108,-0.8234790580968925,8.93608376761243,0.3,-0.3288888888888889,-0.6111111111111112,0.06523233931673422,0.0625,-0.10052354757768771
1589995552.7421615,-4.04,-0.823852761660764,8.866969331625349,0.3,-0.3288888888888889,-0.6111111111111112,0.20671011981011228,0.004869640569663179,0.04328988018988772
1589995552.7521615,-4.035314905041265,-0.81,8.788740379834941,0.3,-0.3288888888888889,-0.6111111111111112,0.13287262603161976,-0.15428184349209506,0.0
1589995552.7621615,-4.03,-0.8189354081033471,8.827870816206694,0.3,-0.3288888888888889,-0.6111111111111112,-0.055846300645918966,-0.15957684967704053,0.08376945096887846
1589995552.7721615,-4.034616860534836,-0.83,8.859233721069671,0.3056428295425777,-0.3288888888888889,-0.6111111111111112,-0.09614462165727305,-0.009578486629092206,0.15864462165727305
1589995552.7821615,-4.034297492401216,-0.8242974924012157,8.881405015197569,0.31222222222222223,-0.3288888888888889,-0.6111111111111112,-0.16942201747720365,0.16064067249240122,0.05371865501519757
1589995552.7921615,-4.018948099507513,-0.8255259502462432,8.862370248768784,0.31222222222222223,-0.3288888888888889,-0.6111111111111112,-0.25,0.1529628109609799,0.0
1589995552.8021615,-4.043124637681159,-0.8167501449275363,8.853249855072463,0.31222222222222223,-0.3288888888888889,-0.6111111111111112,0.08124637681159419,0.08359420289855073,-0.08281159420289855
1589995552.8121614,-4.043214556482184,-0.8211902956785444,8.882380591357089,0.31222222222222223,-0.3288888888888889,-0.6111111111111112,0.1800606520090978,-0.042409021986353296,-0.055060652009097794
1589995552.8221614,-4.036182686286788,-0.8238173137132122,8.912365372573575,0.30878739650734016,-0.3316367494607945,-0.5980587733945593,0.125,-0.125,0.0
1589995552.8321614,-4.04,-0.82,8.92,0.30666666666666664,-0.3333333333333333,-0.59,0.21671073325279783,-0.21671073325279783,-0.04585536662639892
1589995552.8421614,-4.032342401619639,-0.8046848032392763,8.843424016196382,0.30666666666666664,-0.3333333333333333,-0.59,0.2021400101227382,-0.2978599898772618,0.03321997975452359
1589995552.8521614,-4.023390824352467,-0.8132183512950644,8.833218351295065,0.30666666666666664,-0.3333333333333333,-0.59,0.31142204339122875,-0.43642204339122875,0.0625
1589995552.8621614,-4.016517727455076,-0.8130354549101523,8.846964545089847,0.30666666666666664,-0.3333333333333333,-0.59,0.39676420340577406,-0.5,0.0625
1589995552.8721614,-4.0107155998838,-0.8014311997675996,8.8585688002324,0.30666666666666664,-0.3333333333333333,-0.59,0.43302750072625157,-0.5,0.0625
1589995552.8821614,-4.012287016399987,-0.81,8.88,0.32,-0.3411111111111111,-0.6111111111111112,-0.02858770499983368,-0.19880409833338877,0.03989180333322245
1589995552.8921614,-4.03,-0.8148883680520478,8.86044652779181,0.32,-0.3411111111111111,-0.6111111111111112,-0.12779079869880589,-0.15555230032529851,0.03473849837350734
1589995552.9021614,-4.0332451402834915,-0.82,8.852980561133966,0.32,-0.3411111111111111,-0.6111111111111112,0.060846380315467255,-0.2889106338591121,-0.06415361968453274
1589995552.9121614,-4.037861705244653,-0.8157234104893055,8.886414884266042,0.32,-0.3411111111111111,-0.6111111111111112,0.2676860533255201,-0.47327131555816,0.009042631116319956
1589995552.9221613,-4.019333286273956,-0.7919999647054672,8.904666643136979,0.3179259167754915,-0.3378518374725977,-0.614962979956627,0.5625,-0.4250002205908305,-0.10416629901528253
1589995552.9321613,-3.9904080487975886,-0.7702720325317255,8.889727967468275,0.31222222222222223,-0.3288888888888889,-0.6255555555555555,0.5573993900301479,-0.5565492883685059,0.12414989833835799
1589995552.9421613,-4.02,-0.7849697565952486,8.809637079142982,0.31222222222222223,-0.3288888888888889,-0.6255555555555555,-0.03257314895787786,0.15795119151727155,0.031060978720303167
1589995552.9521613,-4.02,-0.8015628987715455,8.787735072850205,0.31222222222222223,-0.3288888888888889,-0.6255555555555555,-0.48584420531377964,0.5722681173221598,0.0
1589995552.9621613,-4.02,-0.82,8.836664631569061,0.31222222222222223,-0.3288888888888889,-0.6255555555555555,-0.8176924341332832,0.8437309209599398,0.0
1589995552.9721613,-4.025865664985764,-0.8141343350142363,8.883462659943055,0.3167844061000385,-0.32432670501107264,-0.6209933716777393,-1.0733208123220472,0.9891791876779528,0.07332081232204728
1589995552.9821613,-4.035339585566274,-0.81,8.9,0.32,-0.3211111111111111,-0.6177777777777778,-1.0248827706323687,0.9375,0.125
1589995552.9921613,-4.024291046008521,-0.8204726359943191,8.852873138025565,0.32,-0.3211111111111111,-0.6177777777777778,-0.9047730125177528,0.7084110876242693,0.059546025035505504
1589995553.0021613,-4.027684481096712,-0.8182103459355253,8.845368962193424,0.32,-0.3211111111111111,-0.6177777777777778,-0.6171013173396166,0.46315733104851664,0.11052800685445004
1589995553.0121613,-4.04,-0.8245673538127012,8.889423138416934,0.32,-0.3211111111111111,-0.6177777777777778,-0.37680269244707837,0.31610538489415674,0.06610538489415677
1589995553.0221612,-4.036238861438405,-0.8249554457536213,8.913761138561595,0.3124777228768107,-0.3240364411034625,-0.6098375963699668,-0.26548576798006673,0.09347153596013345,0.008021348029899913
1589995553.0321612,-4.025095347365089,-0.8098093052698212,8.900381389460359,0.3,-0.3288888888888889,-0.5966666666666667,-0.0035755261908529956,-0.0625,0.06369184206361767
1589995553.0421612,-4.025168403456983,-0.8044947896290501,8.83348436888715,0.3,-0.3288888888888889,-0.5966666666666667,0.025987391969271245,-0.0625,0.032302521606145745
1589995553.0521612,-4.026451612903226,-0.79,8.793548387096774,0.3,-0.3288888888888889,-0.5966666666666667,-0.125,-0.01814516129032258,0.04032258064516129
1589995553.0621612,-4.02,-0.8007143871945445,8.832143161583634,0.3,-0.3288888888888889,-0.5966666666666667,-0.19196491996590265,0.12946491996590265,-0.02232163998863421
1589995553.0721612,-4.030698969444947,-0.8146505152775266,8.884650515277528,0.3,-0.3247281785491874,-0.6008273770063681,-0.37936855903091665,0.3837371180618333,0.004368559030916652
1589995553.0821612,-4.04,-0.821854478752675,8.885927239376338,0.3,-0.3211111111111111,-0.6044444444444445,-0.3634095077957811,0.38886426169367166,0.02545475389789055
1589995553.0921612,-4.034276182036178,-0.8357238179638221,8.867104728144712,0.3,-0.3211111111111111,-0.6044444444444445,-0.3125,0.2409522754522233,0.0
1589995553.1021612,-4.034846650218258,-0.8351533497817423,8.854846650218258,0.3,-0.3211111111111111,-0.6044444444444445,-0.1610421806794458,0.1875,-0.030291563864110835
1589995553.1121612,-4.037552135054618,-0.8275521350546177,8.867343594836147,0.3,-0.3211111111111111,-0.6044444444444445,0.03059831181727905,0.15690168818272096,-0.03190168818272095
1589995553.1221611,-4.0306102284011915,-0.8206102284011916,8.888169314796425,0.3,-0.3211111111111111,-0.6044444444444445,0.11737214498510427,0.07012785501489573,0.054872144985104274
1589995553.1321611,-4.032996507260067,-0.8070034927399337,8.882020956439602,0.3,-0.3288888888888889,-0.6044444444444445,0.0,-0.13131548887375613,0.0
1589995553.1421611,-4.027377467380394,-0.7957924891267983,8.810547423887588,0.3,-0.3288888888888889,-0.6044444444444445,0.052593885915021746,-0.07889082887253263,0.0
1589995553.1521611,-4.005632123143901,-0.8031036305682967,8.800575137992691,0.3,-0.3288888888888889,-0.6044444444444445,0.015803078597527803,0.0035946124543263513,0.0
1589995553.162161,-4.004850472044773,-0.8216168240149245,8.844850472044774,0.3,-0.3288888888888889,-0.6044444444444445,-0.125,0.2398948499067217,-0.010105150093278309
1589995553.172161,-4.032975729096018,-0.8270242709039821,8.875951458192036,0.30363700222846624,-0.33252589111735514,-0.6044444444444445,-0.0506067725995543,0.13170507944966572,-0.0625
1589995553.182161,-4.035493663835121,-0.810987327670241,8.88549366383512,0.31222222222222223,-0.3411111111111111,-0.6044444444444445,0.1813292020609943,-0.11265840412198859,-0.006170797939005705
1589995553.192161,-4.0359041364836505,-0.8177124094509511,8.838671044614447,0.31222222222222223,-0.3411111111111111,-0.6044444444444445,0.286900853022815,-0.25,-0.011301706045629953
1589995553.202161,-4.028125171561899,-0.8062503431237991,8.83968707109525,0.31222222222222223,-0.3411111111111111,-0.6044444444444445,0.38671767773812793,-0.36132651660719184,-0.025391161130936042
1589995553.212161,-4.0107347100873705,-0.79,8.86926528991263,0.31222222222222223,-0.3411111111111111,-0.6044444444444445,0.5243620929308975,-0.46645403097696586,0.0
1589995553.222161,-4.012093898573693,-0.79,8.88,0.30998261137524213,-0.3361839672477549,-0.6071319774608206,0.5494131339144216,-0.42441313391442154,0.0
1589995553.232161,-4.03,-0.79974618667429,8.88974618667429,0.30666666666666664,-0.3288888888888889,-0.6111111111111112,0.13293166642844018,-0.007931666428440176,0.09137050007146796
1589995553.242161,-4.03,-0.8052968291660847,8.843561949993015,0.30666666666666664,-0.3288888888888889,-0.6111111111111112,-0.3932637239837966,0.4300792708478838,0.09931554686408717
1589995553.252161,-4.03,-0.794588033060965,8.807059834695174,0.30666666666666664,-0.3288888888888889,-0.6111111111111112,-0.861773553582782,0.6977991734758754,0.0676495867379377
1589995553.262161,-4.033608335207738,-0.7936083352077375,8.851650011246425,0.30666666666666664,-0.3288888888888889,-0.6111111111111112,-1.1301562851450788,0.8576041900967193,0.07989580990328074
1589995553.272161,-4.039189493433396,-0.8016210131332083,8.89405253283302,0.3061263289555972,-0.3304198457369189,-0.6099403794037941,-1.2398686679174484,0.9223030018761726,0.0
1589995553.282161,-4.026644105601169,-0.82,8.919864633607014,0.3,-0.3477777777777778,-0.5966666666666667,-0.978179620051147,0.6241539600438403,0.02097433999269329
1589995553.292161,-4.026030113845024,-0.8230150569225119,8.855879544619905,0.3,-0.3477777777777778,-0.5966666666666667,-0.6875,0.4126882115313992,0.08134410576569959
1589995553.302161,-4.023197211380096,-0.8187981409200641,8.816802788619905,0.3,-0.3477777777777778,-0.5966666666666667,-0.7225058096247998,0.5,0.125
1589995553.312161,-4.014277274892806,-0.7928909004287756,8.842831824678418,0.3,-0.3477777777777778,-0.5966666666666667,-0.9103978084802287,0.4465340638399238,0.17846593616007622
1589995553.322161,-4.02,-0.7530718731349646,8.890470628357063,0.3022570835820047,-0.3455206941957731,-0.5992999308456722,-1.1673203171625885,0.4384804757438827,0.29232031716258844
1589995553.332161,-4.015410428497677,-0.669514713474445,8.93623128549303,0.30666666666666664,-0.3411111111111111,-0.6044444444444445,-1.22131517811048,0.5051303562209603,0.5471089313371192
1589995553.342161,-4.01,-0.6056597940388844,8.885278352311076,0.30666666666666664,-0.3411111111111111,-0.6044444444444445,-1.1603737127430276,0.2476159892011931,1.3739046069103655
1589995553.352161,-4.0021097422195835,-0.5881646133293751,8.867615902231458,0.30666666666666664,-0.3411111111111111,-0.6044444444444445,-1.0017147221809906,-0.09862822225520756,3.0258398891692644
1589995553.362161,-3.993569852039565,-0.5878492601978256,8.920709556118695,0.30666666666666664,-0.3411111111111111,-0.6044444444444445,-0.6340073980217444,-0.45080417722553745,5.160339859396714
1589995553.372161,-3.959578847704878,-0.62,8.94,0.3017671330551367,-0.3411111111111111,-0.5991366163652869,-0.2665668723919066,-0.8584331276080934,7.560229424553775
1589995553.382161,-4.273209553377569,-0.6976120614435584,8.881790953917331,0.2933333333333333,-0.3411111111111111,-0.59,0.05503769201111988,-0.3614729814735902,9.9720163450417
1589995553.392161,-4.445166978511084,-0.7283367352724387,8.796516697851109,0.2933333333333333,-0.3411111111111111,-0.59,0.4299165107444577,0.807728426036174,12.170373362816806
1589995553.402161,-3.9877711295380647,-0.6163547338245763,8.819174827327473,0.2933333333333333,-0.3411111111111111,-0.59,0.3948585432018008,-0.09921335398349274,15.937420637974489
1589995553.4121609,-3.804819076996085,-0.5480421758215684,8.86629523075098,0.2933333333333333,-0.3411111111111111,-0.59,0.2609184066911852,-2.0,18.862763598884804
1589995553.4221609,-3.9789803060861315,-0.5418221319254953,8.822754923478469,0.2933333333333333,-0.3411111111111111,-0.59,0.49417005279392573,-2.0,18.823888324534344
1589995553.4321609,-1.2789510040160643,-0.8118726907630521,8.82,0.3,-0.3333333333333333,-0.5966666666666667,-0.375,-1.1835215863453814,18.068586847389557
1589995553.4421608,-2.424382329317269,-0.6939606425702811,8.82,0.3,-0.3333333333333333,-0.5966666666666667,-0.375,2.501229919678715,15.436621485943775
1589995553.4521608,-2.304887218045113,-1.0377001326846527,8.912874834144183,0.3,-0.3333333333333333,-0.5966666666666667,0.7342989827509951,0.6421107916850951,7.828670942061035
1589995553.4621608,-1.9852134831460675,-1.1201573033707866,8.638561797752809,0.3,-0.3333333333333333,-0.5966666666666667,4.573174157303371,2.847752808988764,6.6875
1589995553.4721608,-2.073273106323836,-0.9892826808740638,8.593273106323835,0.3019730780119939,-0.33563525768065955,-0.5946935886546727,5.202643618253417,3.167043085476025,6.132571809126708
1589995553.4821608,-2.2395162382513067,-0.928145128524608,8.791129228852354,0.30666666666666664,-0.3411111111111111,-0.59,1.0559434166689239,1.2389081502749262,3.8986869904385273
1589995553.4921608,-2.350236501485605,-0.899952699702879,8.876556299306717,0.30666666666666664,-0.3411111111111111,-0.59,-1.25,-0.4581362487619958,1.7673843533349272
1589995553.5021608,-2.451228811820234,-0.8738559408988303,8.821398317258362,0.30666666666666664,-0.3411111111111111,-0.59,-1.0195977837061359,-0.23675867022368152,0.13585830084137082
1589995553.5121608,-2.4749944423185553,-0.8187541682610835,8.767497221159278,0.30666666666666664,-0.3411111111111111,-0.59,0.6952864483682283,0.7734288161227427,-1.9684373804187394
1589995553.5221608,-2.5248774660633484,-0.8082924886877828,8.826990769230768,0.30083121166415283,-0.33896120663650076,-0.5918427752639517,0.5188076923076923,0.74339592760181,-4.083316742081448
1589995553.5321608,-2.59,-0.83,8.95,0.2855555555555556,-0.3333333333333333,-0.5966666666666667,-0.25,0.5625,-5.9375
1589995553.5421607,-2.606021657834571,-0.8246594473884763,8.89125392127324,0.2855555555555556,-0.3333333333333333,-0.5966666666666667,0.11716299204225228,0.8629060843982064,-8.77466857487195
1589995553.5521607,-2.6125062236690924,-0.8312406644963615,8.847493776330907,0.2855555555555556,-0.3333333333333333,-0.5966666666666667,0.5780083062045194,1.2420902551704327,-12.374066449636155
1589995553.5621607,-2.606164997466973,-0.8561649974669732,8.88774248860138,0.2855555555555556,-0.3333333333333333,-0.5966666666666667,0.754703148747126,1.5338280854214568,-15.251812088383149
1589995553.5721607,-2.621476379306393,-0.8729527586127857,8.942618103468035,0.28949256703926984,-0.3326771647527143,-0.59781496168275,0.6157726293350448,1.8238189653196415,-17.933686421252894
1589995553.5821607,-2.63,-0.8870106202475964,8.897010620247597,0.31222222222222223,-0.3288888888888889,-0.6044444444444445,0.6839435524414001,2.2032909413686923,-20.960641456670647
1589995553.5921607,-2.6250692832990783,-0.8724653583504608,8.84548498309355,0.31222222222222223,-0.3288888888888889,-0.6044444444444445,1.2979575515481006,2.0453594278326594,-24.800375422661276
1589995553.6021607,-2.6111652191208643,-0.8794173904395677,8.748156533846052,0.31222222222222223,-0.3288888888888889,-0.6044444444444445,1.0807065487635086,2.349510831731088,-27.233586653848704
1589995553.6121607,-2.6408881922675027,-0.8954440961337513,8.824942528735631,0.31222222222222223,-0.3288888888888889,-0.6044444444444445,0.6763975966562175,2.6163140020898643,-30.38153082549634
1589995553.6221607,-2.632010798303124,-0.9013405322020825,8.843351330505206,0.31222222222222223,-0.3291867849337961,-0.6044444444444445,0.9416891631315079,2.591824141920555,-34.99716062475897
1589995553.6321607,-2.6582189537337406,-0.9217810462662593,8.879313722402445,0.31222222222222223,-0.3333333333333333,-0.6044444444444445,1.011131539164121,3.0111315391641207,-39.09426081068313
1589995553.6421607,-2.6604695680898502,-0.9378521760673879,8.819530431910149,0.31222222222222223,-0.3333333333333333,-0.6044444444444445,1.1442935007019572,3.1279348005615657,-43.02472850772153
1589995553.6521606,-2.688179866215212,-0.9586348996614088,8.791820133784787,0.31222222222222223,-0.3333333333333333,-0.6044444444444445,1.3607802048063424,3.301124163845074,-45.406082252869766
1589995553.6621606,-2.78671231671038,-0.97,8.861369853368304,0.31222222222222223,-0.3333333333333333,-0.6044444444444445,1.5958903958879755,3.691780791775951,-50.184931084863315
1589995553.6721606,-2.860102620304872,-0.9703078609146158,8.91948689847564,0.31243886508806307,-0.3334131491260115,-0.6042962151151849,1.6887827538108997,3.879489638338149,-52.78527572979974
1589995553.6821606,-2.8767910280792037,-1.0067910280792034,8.872263676026401,0.3333333333333333,-0.3411111111111111,-0.59,1.8407959503300146,4.3549439254950215,-56.923194708580375
1589995553.6921606,-2.9007726117711696,-1.03,8.877836687040727,0.3333333333333333,-0.3411111111111111,-0.59,1.9375,4.501931529427924,-59.48771976512602
1589995553.7021606,-2.95,-1.036401833092137,8.759205499276412,0.3333333333333333,-0.3411111111111111,-0.59,1.9375,4.705022913651712,-63.70779214905934
1589995553.7121606,-2.957479064709081,-1.064958129418162,8.814958129418162,0.3333333333333333,-0.3411111111111111,-0.59,1.8595930759470727,4.890581384810585,-66.57616231647634
1589995553.7221606,-2.979885180182143,-1.110229639635714,8.860114819817856,0.3337033083019836,-0.34097077577817475,-0.5904847947865073,1.625,4.940370495446425,-68.71835782604907
1589995553.7321606,-2.9707468735021134,-1.1285062529957732,8.869253126497886,0.3631489631598569,-0.3298017342803608,-0.6290687563244102,1.625,5.1688281624471655,-71.17427774630703
1589995553.7421606,-2.974944800969349,-1.1660220796122605,8.856878562132568,0.3655555555555556,-0.3288888888888889,-0.6322222222222222,1.975137997576628,5.337362002423372,-74.79644095274425
1589995553.7521605,-2.959361549497848,-1.1993615494978478,8.799361549497847,0.3655555555555556,-0.3288888888888889,-0.6322222222222222,2.0970741955318712,5.353722586595614,-77.17419681287149
1589995553.7621605,-3.0123985091341776,-1.2643910548050676,8.854797018268355,0.3655555555555556,-0.3288888888888889,-0.6322222222222222,2.277444092531672,5.69995341044306,-79.47716455519003
1589995553.7721605,-3.0197378735913767,-1.3084272415482607,8.869475747182753,0.3655555555555556,-0.3288888888888889,-0.6322222222222222,2.552670259676629,5.929308549730524,-81.12852155805977
1589995553.7821605,-3.0823014540241656,-1.3824149088674995,8.894829817735,0.3922222222222223,-0.2977777777777777,-0.6044444444444445,2.8132090927708377,6.1724068195781285,-83.69388183493754
1589995553.7921605,-3.024868685729325,-1.3641050514165398,8.832553531479705,0.3922222222222223,-0.2977777777777777,-0.6044444444444445,3.0064141428383433,6.363813142706747,-85.53535357095859
1589995553.8021605,-2.9854433854078546,-1.3956452916737163,8.698507510386705,0.3922222222222223,-0.2977777777777777,-0.6044444444444445,3.055695768240182,6.758066145921456,-86.76739420600455
1589995553.8121605,-2.924874184806885,-1.4627461957654626,8.697117119799888,0.3922222222222223,-0.2977777777777777,-0.6044444444444445,3.078945311336768,6.567218069741818,-88.98040930883535
1589995553.8221605,-2.943609332658349,-1.5501768857389595,8.878223549030702,0.3922222222222223,-0.2977777777777777,-0.6044444444444445,2.181219476787469,5.864650025311932,-90.34651383967125
1589995553.8321605,-2.9796215950176994,-1.5926488348761052,8.878107975088497,0.4188888888888889,-0.27111111111111114,-0.64,1.741895716205728,6.222975467090692,-92.73953068506634
1589995553.8421605,-2.9716819050864145,-1.648226664395101,8.838409525432072,0.4188888888888889,-0.27111111111111114,-0.64,2.883226143827967,6.967321398148674,-93.83123805061805
1589995553.8521605,-2.9616064619707005,-1.6930822295805739,8.743082229580574,0.4188888888888889,-0.27111111111111114,-0.64,3.4676211619506323,7.069465871462974,-95.68975767609874
1589995553.8621604,-2.925841942868518,-1.790395142828705,8.821683885737036,0.4188888888888889,-0.27111111111111114,-0.64,2.8879939285358813,6.650987857071763,-97.19984821339703
1589995553.8721604,-2.909330304350532,-1.8313393912989357,8.793348478247339,0.4223861883916655,-0.26932525604586355,-0.6414138019266543,2.954242391236696,6.787670380282567,-98.52958315180183
1589995553.8821604,-2.8942518682269265,-1.8816147247519044,8.817007472907706,0.4711111111111111,-0.24444444444444444,-0.6611111111111111,3.2054629117908546,7.456203294326838,-100.33342444193478
1589995553.8921604,-2.871557067271353,-1.962814310909549,8.740299823633157,0.4711111111111111,-0.24444444444444444,-0.6611111111111111,3.25,7.777321113630637,-102.02955719324767
1589995553.9021604,-2.8383396942354784,-1.9886564892232346,8.696996183458714,0.4711111111111111,-0.24444444444444444,-0.6611111111111111,3.235424617794348,7.672924617794348,-103.41230917293565
1589995553.9121604,-2.7984721542943416,-2.0576392285282923,8.73069491993961,0.4711111111111111,-0.24444444444444444,-0.6611111111111111,3.1684019286792693,7.615450964339635,-104.85852010547133
1589995553.9221604,-2.786208539358285,-2.1075829212834303,8.788483415743313,0.47254344068687015,-0.24099000252643735,-0.66001580025906,3.0625,7.576717977406432,-106.61374381925145
1589995553.9321604,-2.74,-2.218226342682464,8.773645268536493,0.49,-0.1988888888888889,-0.6466666666666666,3.2675463551777226,7.818348785059241,-108.7062707789455
1589995553.9421604,-2.7425325432656136,-2.2651952595936793,8.769869826937546,0.49,-0.1988888888888889,-0.6466666666666666,3.498372836719338,7.921671604589918,-110.47566544394282
1589995553.9521604,-2.745025313251487,-2.3163960258195164,8.741421339071003,0.49,-0.1988888888888889,-0.6466666666666666,3.1427667383875457,7.892766738387546,-112.19575053790659
1589995553.9621603,-2.671171147154563,-2.408828852845437,8.758234229430913,0.49,-0.1988888888888889,-0.6466666666666666,3.441216396340779,8.224324594511168,-114.2575459156471
1589995553.9721603,-2.641746548434168,-2.4382534515658323,8.752349309686833,0.49,-0.1988888888888889,-0.6466666666666666,3.661900886743742,8.555351330115613,-115.32418761926142
1589995553.9821603,-2.6002877019219435,-2.529232794874818,8.759904099359352,0.5164109316249395,-0.1669756798420871,-0.6906848860415656,3.6880993790040484,8.99700310497976,-117.60701862987855
1589995553.9921603,-2.560023316062176,-2.580753088880032,8.758493822239936,0.5166666666666667,-0.16666666666666666,-0.6911111111111111,3.7355881327222002,8.8027949382224,-120.6966221602232
1589995554.0021603,-2.457424687162058,-2.651716875225295,8.622575312837942,0.5166666666666667,-0.16666666666666666,-0.6911111111111111,3.7196914104742778,9.214326175395232,-123.05930081363613
1589995554.0121603,-2.4245907802163185,-2.6754092197836816,8.662170744513285,0.5166666666666667,-0.16666666666666666,-0.6911111111111111,4.02869237635199,9.5,-126.10164338968812
1589995554.0221603,-2.3904676163960414,-2.711091104924096,8.74046761639604,0.5168918153017976,-0.1655582426167912,-0.691215025865787,3.806654795049485,9.500974200825086,-128.79578743877903
1589995554.0321603,-2.4160389781941594,-2.770757615786372,8.766038978194159,0.5292039524638545,-0.10494464428051113,-0.6968975507098132,3.487012772573008,9.554247871237832,-131.29964994817811
1589995554.0421603,-2.34,-2.8015728496196606,8.70008041461172,0.5311111111111111,-0.09555555555555556,-0.6977777777777778,3.655998704338377,9.645163211569004,-135.11114895929114
1589995554.0521603,-2.34,-2.850657694558221,8.658007690378668,0.5311111111111111,-0.09555555555555556,-0.6977777777777778,3.787475967566664,9.995769246844437,-136.90800489007773
1589995554.0621603,-2.347254604099469,-2.866952034127562,8.674634689418374,0.5311111111111111,-0.09555555555555556,-0.6977777777777778,3.723708511081053,10.613191915513474,-139.4672510664863
1589995554.0721602,-2.251245239829362,-2.9193207782748933,8.709547185516596,0.5311111111111111,-0.09555555555555556,-0.6977777777777778,3.996462386848403,10.995047341587764,-141.1037743210904
1589995554.0821602,-2.2553118774261125,-3.004064367721662,8.750623754852226,0.5377777777777778,-0.03666666666666667,-0.7111111111111111,4.0625,11.043951149130194,-142.79690612869436
1589995554.0921602,-2.237177786736545,-3.05188147550897,8.711533360209636,0.5377777777777778,-0.03666666666666667,-0.7111111111111111,4.038981556137875,11.175740778068938,-143.6212961096553
1589995554.1021602,-2.2118141503729087,-3.068790566418061,8.635442451118728,0.5377777777777778,-0.03666666666666667,-0.7111111111111111,3.827617919774239,11.07005895988712,-144.1497052005644
1589995554.1121602,-2.143784374069294,-3.183551786246118,8.64088794656153,0.5377777777777778,-0.03666666666666667,-0.7111111111111111,3.840248330047794,11.334698664038235,-144.51810267192354
1589995554.1221602,-2.1021453390251166,-3.2073455205570762,8.64683638013927,0.5377777777777778,-0.03666666666666667,-0.7111111111111111,4.0261368793521575,11.483409503481726,-144.22068099303655
1589995554.1321602,-2.08,-3.2804696281468932,8.702910924628533,0.5528951848145012,-0.0114709882721277,-0.7388263573451039,3.6525810301023944,11.090081030102395,-143.63732292709216
1589995554.1421602,-2.028474448108551,-3.371525551891449,8.610846688651305,0.5577777777777778,-0.0033333333333333327,-0.7477777777777778,3.2351734966077843,11.365465300678443,-142.14616721628263
1589995554.1521602,-2.0181689979362534,-3.3803662004127495,8.562563402889246,0.5577777777777778,-0.0033333333333333327,-0.7477777777777778,3.486267484521899,11.317077505159368,-140.82464744324696
1589995554.1621602,-1.9700802568218299,-3.389983948635634,8.62988764044944,0.5577777777777778,-0.0033333333333333327,-0.7477777777777778,3.125601926163724,11.437299357945426,-139.50220706260032
1589995554.1721601,-1.9504878844361602,-3.4290242311276797,8.63975605778192,0.5577777777777778,-0.0033333333333333327,-0.7477777777777778,3.003049277726002,11.254573916589003,-137.60976380475302
1589995554.1821601,-1.8837166474199236,-3.43,8.66485625721753,0.5780310243994679,0.006793289977511701,-0.7542219926119519,2.482161307968152,11.25,-133.31622272533883
1589995554.1921601,-1.8563423959218353,-3.5324384027187765,8.63658878504673,0.5822222222222222,0.008888888888888889,-0.7555555555555555,2.35213997451147,11.257620008496177,-132.05649957519117
1589995554.2021601,-1.8357834455264364,-3.5461443696490424,8.561205966930265,0.5822222222222222,0.008888888888888889,-0.7555555555555555,2.2236465345402263,11.300451155153258,-129.9149422423371
1589995554.21216,-1.7381782297028452,-3.5536435405943094,8.585465310891465,0.5822222222222222,0.008888888888888889,-0.7555555555555555,1.7215348391069567,10.232797549499479,-122.1073041336407
1589995554.22216,-1.7249332112293554,-3.580133577541289,8.625200366311933,0.5822222222222222,0.008888888888888889,-0.7555555555555555,1.5145814254586794,9.653327991284302,-119.70664453532068
1589995554.23216,-1.71,-3.6208212989883943,8.699589350505802,0.62,0.045555555555555564,-0.7622222222222222,1.3929659153711225,8.979467525290145,-114.45817364298243
1589995554.24216,-1.7044339458437974,-3.6359519606136708,8.68595196061367,0.62,0.045555555555555564,-0.7622222222222222,1.8156625307705696,8.468374692294303,-110.33479778451898
1589995554.25216,-1.5959173556709425,-3.56,8.60931955927849,0.62,0.045555555555555564,-0.7622222222222222,1.887758263528305,7.84097796392452,-105.73929065728294
1589995554.26216,-1.5503873500624175,-3.56,8.601731225010402,0.62,0.045555555555555564,-0.7622222222222222,2.0300395310549453,7.461561250520146,-102.13483187994139
1589995554.27216,-1.5613393975347702,-3.6524707226506714,8.642678795069541,0.62,0.045555555555555564,-0.7622222222222222,1.9291287654076856,7.241628765407686,-97.84484790059983
1589995554.28216,-1.535824042066313,-3.7020879789668437,8.652087978966843,0.5433333333333333,-0.021111111111111112,-0.7333333333333333,1.9782502190953795,6.786400262914455,-91.18245319879254
1589995554.29216,-1.4747591475673503,-3.7285026135906714,8.668769601930036,0.5433333333333333,-0.021111111111111112,-0.7333333333333333,1.7155759951749094,6.40942400482509,-86.58187072778448
1589995554.30216,-1.415732006433454,-3.711637716123844,8.54228287092883,0.5433333333333333,-0.021111111111111112,-0.7333333333333333,2.031792822677925,6.093207177322075,-82.57645757941295
1589995554.31216,-1.4010368985349457,-3.75481550732527,8.57481550732527,0.5433333333333333,-0.021111111111111112,-0.7333333333333333,1.78240307921706,5.726383695060472,-78.04206557241248
1589995554.32216,-1.3752338461538463,-3.7930215384615384,8.629532307692308,0.5433333333333333,-0.021111111111111112,-0.7333333333333333,1.8531923076923076,5.42951923076923,-73.69278846153846
1589995554.33216,-1.3631860535016533,-3.8,8.667255785993387,0.515320442173463,0.05384230037070434,-0.6583799218515178,1.832412834385332,4.949128343853321,-69.72354974451457
1589995554.34216,-1.2908706533692313,-3.770373137158242,8.670124379052748,0.5022222222222222,0.08888888888888889,-0.6233333333333333,1.8125,4.626554738159342,-63.682525311895645
1589995554.35216,-1.29,-3.7993068539939086,8.574752724519797,0.5022222222222222,0.08888888888888889,-0.6233333333333333,1.5377482438071093,4.1212884469797,-60.55693872251272
1589995554.36216,-1.2281678750697156,-3.7096946458449525,8.629389291689906,0.5022222222222222,0.08888888888888889,-0.6233333333333333,1.4336830730619075,3.75,-54.999041411042946
1589995554.37216,-1.1891801450083659,-3.703196690834728,8.616393381669456,0.5022222222222222,0.08888888888888889,-0.6233333333333333,1.3524586354340955,3.75,-52.31863496932515
1589995554.38216,-1.19611077073888,-3.7696287219703466,8.679628721970346,0.5070575501368296,0.1701223978542935,-0.5923872346798459,1.0949102438426663,3.260423048645999,-47.24657670628599
1589995554.39216,-1.0367064463075133,-3.259015804885876,8.441171727706687,0.5077777777777778,0.18222222222222226,-0.5877777777777777,-1.027268693088371,4.208084710578042,-43.33415023667215
1589995554.40216,-1.1577095992413333,-3.828150398651259,9.762515190896,0.5077777777777778,0.18222222222222226,-0.5877777777777777,1.1072275297671315,-0.915352463910646,-39.11014497207685
1589995554.41216,-1.0251231077236487,-3.5924410803975975,8.171477292683784,0.5077777777777778,0.18222222222222226,-0.5877777777777777,6.309405842787398,5.391713278423659,-34.230225492606515
1589995554.42216,-1.0354870024490277,-3.6664610073470834,8.277649228408722,0.5077777777777778,0.18222222222222226,-0.5877777777777777,-1.1824654775604149,-0.2722791449057276,-31.402313667345314
1589995554.43216,-1.0751129208294854,-3.910491982201327,9.368613046763496,0.4888888888888889,0.2344444444444445,-0.5733333333333334,0.10045336243808245,1.0732358744018136,-26.28336726555285
1589995554.44216,-0.8462240785828226,-3.3030562085467214,7.502288640752246,0.4888888888888889,0.2344444444444445,-0.5733333333333334,3.5667988099236,1.2382999433296953,-21.991701473427923
1589995554.45216,-1.0208156127588137,-3.7961010072747623,8.823833240067152,0.4888888888888889,0.2344444444444445,-0.5733333333333334,-1.5825842893116953,1.25,-18.507239787353107
1589995554.4621599,-0.9513734893940674,-3.663496154821263,8.405369094904081,0.4888888888888889,0.2344444444444445,-0.5733333333333334,1.4343784331953013,0.5570372580917773,-13.947713756021296
1589995554.4721599,-1.0488494042085694,-3.911616665258176,8.78641130736077,0.4888888888888889,0.2344444444444445,-0.5733333333333334,1.2128422631623426,0.1693489605340996,-10.236982907969239
1589995554.4821599,-1.030796670630202,-3.774340071343638,8.426206896551724,0.5166666666666667,0.2533333333333333,-0.59,0.9574167657550535,0.11006242568370987,-6.106123662306778
1589995554.4921598,-1.039546279491833,-3.9318330308529945,8.933684210526316,0.5166666666666667,0.2533333333333333,-0.59,1.1761569872958257,-0.05399274047186933,-3.1531306715063523
1589995554.5021598,-1.0996422516107156,-4.017138012885724,8.73212953543574,0.5166666666666667,0.2533333333333333,-0.59,0.6294718548660563,-0.2567077822990844,0.03811673448626654
1589995554.5121598,-1.090753009494744,-3.946024075957952,8.536566208884366,0.5166666666666667,0.2533333333333333,-0.59,0.7405873813157002,-0.42338107197355035,2.5382160796032553
1589995554.5221598,-1.09,-3.9636869302318405,8.608825988369402,0.5166666666666667,0.2533333333333333,-0.59,0.49092420058924247,-0.5115216569745021,4.4895089389008005
1589995554.5321598,-1.1153758337084168,-3.941936249437375,8.74612750112525,0.5180764352060232,0.275184745693359,-0.5942293056180695,0.35214974016940137,-0.7607487008470069,7.4717383076230615
1589995554.5421598,-1.1235985105598976,-4.003219362721331,8.757992552799488,0.5188888888888888,0.2877777777777778,-0.5966666666666667,0.1749534549968,-0.91500930900064,10.38043752303008
1589995554.5521598,-1.111715490064114,-4.041715490064114,8.491464701923418,0.5188888888888888,0.2877777777777778,-0.5966666666666667,0.010721812900711988,-1.248169122595728,13.871074793666537
1589995554.5621598,-1.122731203459044,-4.0972904155656975,8.580043238049484,0.5188888888888888,0.2877777777777778,-0.5966666666666667,-0.07957002161902474,-1.3125,16.20511049723757
1589995554.5721598,-1.1056347739342194,-4.099543467417774,8.696547839098672,0.5188888888888888,0.2877777777777778,-0.5966666666666667,-0.16307066572778217,-1.502853328638911,18.887038626294633
1589995554.5821598,-1.078350530150396,-4.015927915827177,8.69087632537599,0.5298911659690706,0.29813286208853707,-0.5966666666666667,-0.26030918656002605,-1.661404593280013,21.50289751104056
1589995554.5921597,-1.0917194891201514,-4.02067880794702,8.655520340586566,0.5377777777777778,0.3055555555555556,-0.5966666666666667,-0.3125,-1.9137446783349101,24.344459555345317
1589995554.6021597,-1.1603230251071648,-4.083087875076546,8.589676974892836,0.5377777777777778,0.3055555555555556,-0.5966666666666667,-0.3125,-2.269299219228414,27.15439375382731
1589995554.6121597,-1.1978923253150058,-4.043512791141657,8.719461626575029,0.5377777777777778,0.3055555555555556,-0.5966666666666667,-0.5449360442917144,-2.3125,29.940578465063002
1589995554.6221597,-1.1688138965716217,-4.04,8.652034741429055,0.5377777777777778,0.3055555555555556,-0.5966666666666667,-0.8061414330342043,-2.5074131464273632,31.97667489105995
1589995554.6321597,-1.0947043181337444,-4.04,8.648655909104646,0.5699073990135544,0.31177419192377037,-0.6163590151660137,-0.5835014202399299,-2.679099431904028,34.94858806998459
1589995554.6421597,-1.1311135723749586,-4.122227144749917,8.658222714474991,0.5722222222222222,0.31222222222222223,-0.6177777777777778,-1.1278116201556807,-2.7902839309373966,36.975110756873136
1589995554.6521597,-1.1805193984889342,-4.180519398488935,8.595168962417706,0.5722222222222222,0.31222222222222223,-0.6177777777777778,-1.25,-2.9644477443335036,39.147723683890874
1589995554.6621597,-1.1690551567580831,-4.141128699102195,8.552073542344111,0.5722222222222222,0.31222222222222223,-0.6177777777777778,-1.2063649099126736,-3.174540360349306,40.871552702619795
1589995554.6721597,-1.16,-4.130047494964055,8.60530871726636,0.5722222222222222,0.31222222222222223,-0.6177777777777778,-1.250296843525346,-3.25,42.47364791816821
1589995554.6821597,-1.16,-4.1794327731092435,8.696288515406163,0.6372132741985683,0.2983477279800809,-0.6323825085589792,-1.4768032212885154,-3.537530637254902,44.52689513305322
1589995554.6921597,-1.1524409431369942,-4.131968488232948,8.589055090191907,0.6711111111111111,0.2911111111111111,-0.64,-1.3735235784248547,-3.7819882107875724,45.77116158090679
1589995554.7021596,-1.15,-4.0149831029185865,8.541362100265326,0.6711111111111111,0.2911111111111111,-0.64,-1.5284474933668482,-3.866486873341712,46.053986873341714
1589995554.7121596,-1.2403261966927763,-3.883866318537859,8.59806684073107,0.6711111111111111,0.2911111111111111,-0.64,-1.6028241949521322,-3.8346758050478678,46.022175805047866
1589995554.7221596,-1.3251032304285528,-3.7989380617428683,8.63702064608571,0.6711111111111111,0.2911111111111111,-0.64,-1.8882742282141463,-3.680862885892927,45.56120961964309
1589995554.7321596,-1.3337935994246675,-3.7651743976986696,8.652412801150666,0.949709536937153,0.3221431139877742,-0.711718406648288,-1.728469974829198,-3.431049982020856,45.103469974829196
1589995554.7421596,-1.3386093965008847,-3.8016563790053075,8.685828189502653,1.12,0.3411111111111111,-0.7555555555555555,-1.4010738156084135,-3.4739261843915865,44.614647631216826
1589995554.7521596,-1.357984125869214,-3.8639523776076423,8.555119055980894,1.12,0.3411111111111111,-0.7555555555555555,-1.656001966706469,-3.1627976399522373,43.94429567324577
1589995554.7621596,-1.3946032913487174,-3.913254114185897,8.609206582697434,1.12,0.3411111111111111,-0.7555555555555555,-2.0119058563942263,-3.016864714535258,43.60466178633814
1589995554.7721596,-1.4336709167957884,-3.940202550077473,8.626734183359158,1.12,0.3411111111111111,-0.7555555555555555,-1.6416135400526444,-2.9579113540052644,43.47832270801053
1589995554.7821596,-1.4660384413539753,-3.9580192206769875,8.710192206769877,1.3195894924050264,-0.11420241843785534,-1.021971886935479,-1.5377402584623459,-3.0377402584623456,43.487620129231175
1589995554.7921596,-1.4291312662204616,-4.009042480535445,8.664610025952738,1.3688888888888888,-0.22666666666666666,-1.0877777777777775,-1.2048985794290399,-3.2157577516732685,43.85760142057096
1589995554.8021595,-1.4114606147571935,-3.9004486066007096,8.538987991843516,1.3688888888888888,-0.22666666666666666,-1.0877777777777775,-1.1783711577675402,-3.30337115776754,44.63132505097802
1589995554.8121595,-1.4741986736667587,-3.8942663719259465,8.598465045592706,1.3688888888888888,-0.22666666666666666,-1.0877777777777775,-1.4549944736114948,-3.401664824537165,45.5079010085659
1589995554.8221595,-1.5,-3.871521374623477,8.638136750107579,1.3688888888888888,-0.22666666666666666,-1.0877777777777775,-1.4353632795690947,-3.412072655913819,46.29561953763744
1589995554.8321595,-1.5007082958430809,-3.83,8.652833183372323,1.3234005558554776,-0.20651958490792394,-1.0610986343550675,-1.254426849019255,-3.3927073960770198,47.03098794313478
1589995554.8421595,-1.5237164729231643,-3.8117113694357814,8.68085568471789,0.7266666666666667,0.057777777777777775,-0.7111111111111111,-1.369651970513184,-3.710727955769776,47.52322795576978
1589995554.8521595,-1.556604034666084,-3.79,8.575910470225523,0.7266666666666667,0.057777777777777775,-0.7111111111111111,-1.402908261112325,-3.6741330444492997,47.071532177797195
1589995554.8621595,-1.588114963749303,-3.7718850362506973,8.56340237312256,0.7266666666666667,0.057777777777777775,-0.7111111111111111,-1.4599138925748572,-3.590804630858286,46.058907382834285
1589995554.8721595,-1.6422292363338566,-3.708562410427899,8.653812529857367,0.7266666666666667,0.057777777777777775,-0.7111111111111111,-1.5049477922609704,-3.4523433767829115,44.51171688391456
1589995554.8821595,-1.7102716688227684,-3.6347736093143594,8.710362225097025,0.6666839154808106,0.12056346126203825,-0.6998993819174932,-1.6897639068564037,-3.25,42.45941138421733
1589995554.8921595,-1.7200514579759862,-3.5767524299599773,8.597061177815895,0.6077777777777778,0.18222222222222226,-0.6888888888888889,-1.0231918238993711,-3.042202687249857,40.14915666094912
1589995554.9021595,-1.6854690870313371,-3.649946680885097,8.626300622864207,0.6077777777777778,0.18222222222222226,-0.6888888888888889,-1.2268788929012868,-2.835287862630571,37.45575725261143
1589995554.9121594,-1.6961943072218302,-3.5971256175017645,8.56902846389085,0.6077777777777778,0.18222222222222226,-0.6888888888888889,-1.2737855798635616,-2.761892789931781,34.67206833686191
1589995554.9221594,-1.633966606850277,-3.712066786299446,8.695273464929391,0.6077777777777778,0.18222222222222226,-0.6888888888888889,-0.878562163532808,-2.4611039049699617,33.299582585628464
1589995554.9321594,-1.6164524783687706,-3.7635475216312293,8.860488631028238,0.5858411399527504,0.18679235510243625,-0.7071694204097451,-0.9959839694144477,-2.3125,31.538236132537392
1589995554.9421594,-1.5213235071424966,-3.8463419312503153,8.775156226338904,0.5811111111111111,0.18777777777777774,-0.7111111111111111,-1.0625,-2.351045505022462,30.40199888950583
1589995554.9521594,-1.4226274904930607,-3.89377124841551,8.523137452465305,0.5811111111111111,0.18777777777777774,-0.7111111111111111,-0.24497635453570377,-1.9857030259693826,29.096406051938764
1589995554.9621594,-1.4,-3.948990511743662,8.704952558718308,0.5811111111111111,0.18777777777777774,-0.7111111111111111,-0.7823339555140769,-2.1924288380774617,26.339117669933117
1589995554.9721594,-1.2807116908378386,-3.80510312079865,8.689316628050001,0.5811111111111111,0.18777777777777774,-0.7111111111111111,-0.34439450499156155,-1.6798928745101405,21.432293901427386
1589995554.9821594,-1.2742952468945694,-3.6457098860486603,8.45998973411354,0.5766660963396412,0.1719027250225279,-0.7314311786378309,0.7589698182938096,-0.4106226260137563,14.258296119494918
1589995554.9921594,-1.424036536047971,-3.643509134011993,8.682109608143914,0.5733333333333334,0.16,-0.7466666666666667,-0.8733841165806722,-0.7565925254497281,4.170954190489471
1589995555.0021594,-1.3375930318565563,-3.5907241053893437,8.526692937485652,0.5733333333333334,0.16,-0.7466666666666667,-0.02262829341699213,-0.11937441018185524,-6.330843344300763
1589995555.0121593,-1.2934873124361694,-3.747898499489355,8.589214916070913,0.5733333333333334,0.16,-0.7466666666666667,1.2310914054521171,1.9543889281692721,-16.535512739937673
1589995555.0221593,-1.293593687536883,-3.742343187831947,8.675625249852468,0.5733333333333334,0.16,-0.7466666666666667,1.192381641316556,2.0947238297386304,-26.03229878547905
1589995555.0321593,-1.2986073067880732,-3.5378538642385338,8.629748852483486,0.5293404319720698,0.11409436379694245,-0.6280771064754347,1.3939783371272902,2.9596176810837034,-39.54794613202971
1589995555.0421593,-2.0738766345264827,-1.8528945978074232,-3.2489122969224677,0.5222222222222223,0.10666666666666667,-0.6088888888888889,-41.725048705587106,119.62708030643245,-109.98588776251486
1589995555.0521593,-2.770678675631105,-3.5940314601040213,-2.18042115945706,0.5222222222222223,0.10666666666666667,-0.6088888888888889,-47.22485887352531,-2.2742214258531135,-344.7170017759736
1589995555.0621593,-2.113864164231663,-3.873312354836292,0.06123398516520567,0.5222222222222223,0.10666666666666667,-0.6088888888888889,-43.59699745261107,-64.47628446467371,-549.1048995092531
1589995555.0721593,-0.590339101403103,-2.618154144936391,-0.1973949854889039,0.5222222222222223,0.10666666666666667,-0.6088888888888889,-43.52555398564165,-16.176252536714166,-562.8327309773714
1589995555.0821593,-0.3738488078368554,-2.4622974554864148,0.01000492883987432,0.5521382265760308,0.23744234284188698,-0.6259837485196366,-46.33183029388208,-10.92267882447169,-545.1724631877272
1589995555.0921593,-1.059991024682124,-3.7863660433807027,3.8795639491398655,0.5611111111111111,0.2766666666666667,-0.6311111111111111,-33.76315725504862,13.757874906507105,-527.6511462228871
1589995555.1021593,-1.2657785836177473,-3.9361177474402727,4.55778156996587,0.5611111111111111,0.2766666666666667,-0.6311111111111111,8.193232721843003,74.81884598976109,-498.0580204778157
1589995555.1121593,-2.94417237578613,-2.6846007218344106,14.294079228890666,0.5611111111111111,0.2766666666666667,-0.6311111111111111,81.46418653152082,165.4646727972164,-452.40301700849346
1589995555.1221592,-1.5910159986335688,-1.3464350375768617,13.716427351400595,0.5611111111111111,0.2766666666666667,-0.6311111111111111,151.36162213903438,112.25768973468459,-408.6606642137326
1589995555.1321592,0.30077771456081237,-0.21015843144120094,-0.6603466234846165,0.4523851274794423,0.3872780719798095,-0.6229409504913903,126.48672534903059,14.276253884196244,-344.18954604140225
1589995555.1421592,-0.3357739130434782,-0.49271872909698994,-0.8323822742474916,0.3688888888888889,0.4722222222222222,-0.6166666666666667,33.48502926421405,2.574864130434783,-286.2236726588629
1589995555.1521592,1.3196228398712138,-0.38121492870753665,7.385029239766083,0.3688888888888889,0.4722222222222222,-0.6166666666666667,-14.015112688087264,26.471926539194428,-259.7856667652277
1589995555.1621592,1.1087475795833008,-1.2760860893811479,15.412172178762296,0.3688888888888889,0.4722222222222222,-0.6166666666666667,-58.92449994191,42.15321842808458,-238.4556543354504
1589995555.1721592,-1.8368027928878785,-2.9555338150523665,15.965793618575953,0.3688888888888889,0.4722222222222222,-0.6166666666666667,-82.96164853454576,37.04475521636762,-209.805218397337
1589995555.1821592,0.6966084365901549,-1.6494004333401042,7.815337531315593,0.2727854891251194,0.513409393549552,-0.614950534528028,22.41006500101564,25.56739200352089,-159.0104039711558
1589995555.1921592,0.7387445092245029,-1.3403050874530789,5.628055267151186,0.24444444444444444,0.5255555555555556,-0.6144444444444445,32.604484466096956,23.922649948087212,-142.45488080025558
1589995555.2021592,1.341752269847973,-2.9450773331925673,11.323230574324324,0.24444444444444444,0.5255555555555556,-0.6144444444444445,5.103812552787161,-1.0270913613809114,-128.18301309121622
1589995555.2121592,1.2897543769003001,-3.2045875479422112,12.09047713678186,0.24444444444444444,0.5255555555555556,-0.6144444444444445,-10.026906013394012,9.966144850062598,-111.7762676119314
1589995555.2221591,0.8518273200083961,-2.4736546400167922,8.99645660843809,0.24444444444444444,0.5255555555555556,-0.6144444444444445,-1.713835506215453,9.40892698882851,-98.68600006996758
1589995555.2321591,0.6013673417399057,-1.9449445930454718,7.041781301745001,0.19812762705387849,0.5703284790331026,-0.6229358609660482,5.288757005477009,5.732398739014138,-82.28132164692396
1589995555.2421591,0.7362786204814731,-2.519998188815938,9.238830427892236,0.17777777777777778,0.59,-0.6266666666666667,-2.071203116745906,7.777619613614067,-69.4651384801147
1589995555.252159,1.8978386114271037,-4.089273054199846,8.849332501559577,0.17777777777777778,0.59,-0.6266666666666667,-5.868630967670911,0.34445983633628074,-53.99453689772852
1589995555.262159,1.1344091141309902,-3.2166292020026566,7.623519362419536,0.17777777777777778,0.59,-0.6266666666666667,-12.650607949320527,-7.3852495657504855,0.999219628078059
1589995555.272159,-2.4349045786116124,-0.24823988587117435,13.134901617722269,0.17777777777777778,0.59,-0.6266666666666667,-2.5522967080293952,4.2824520201340475,55.743788861672634
1589995555.282159,-1.6502980561555074,-0.6251490280777537,6.587933613731954,0.15080080330415674,0.6071200030313364,-0.6235539388427873,30.357545185858815,9.26263641013982,76.06063714902808
1589995555.292159,0.48279315935026557,-1.4722441908515844,7.9758835309450395,0.12,0.6266666666666667,-0.62,-6.649484249340411,-10.16916462697479,81.125
1589995555.302159,0.8849616115954508,-2.4747615972446453,11.470520037312095,0.12,0.6266666666666667,-0.62,-25.26688013489757,-15.000270198758656,85.12126991174254
1589995555.312159,0.17119858411720365,-2.246797876175805,8.01492740323162,0.12,0.6266666666666667,-0.62,-1.7809765330536536,-5.848146979777785,91.9212148897119
1589995555.322159,2.103339102435098,-5.043267458241095,8.118759508955524,0.12,0.6266666666666667,-0.62,5.205725498088146,-6.539504930569532,99.94875477963373
1589995555.332159,5.307927716498474,-9.489982566131356,9.168095349850805,0.1326469306333188,0.615424950548161,-0.62,-14.215892899051195,-10.08821286083079,112.13135330405338
1589995555.342159,1.3213139728128862,-4.939299654834448,8.773200238632974,0.14,0.6088888888888889,-0.62,-6.984765841394298,-10.054976136702603,133.41530127412963
1589995555.352159,-1.1099237722438258,-2.0733079240812753,7.4415848162550535,0.14,0.6088888888888889,-0.62,5.668542852360227,-6.447216785557931,151.6198591331668
1589995555.362159,-0.1126607565294272,-2.4871855958326363,8.40702382374728,0.14,0.6088888888888889,-0.62,-5.933039021243042,-11.692352266481876,159.6777193003417
1589995555.372159,0.26873030738174025,-2.6933044057355726,9.027947597344488,0.14,0.6088888888888889,-0.62,-11.671628842271753,-14.428369076606106,161.75130590414352
1589995555.382159,-0.1153391188528855,-2.8678814176604024,8.33836840024141,0.14,0.6088888888888889,-0.62,-6.870761014338931,-12.955375538490355,166.44306309962332
1589995555.392159,0.20137192440735602,-3.8376806269420936,8.25780922042643,0.2088888888888889,0.5988888888888889,-0.6322222222222222,-4.941800699642362,-12.993153813832594,173.61988215521117
1589995555.402159,0.5123923736737266,-5.4846412455790885,8.477665758770682,0.2088888888888889,0.5988888888888889,-0.6322222222222222,-9.1078905646571,-13.945424610756534,182.46558803203382
1589995555.412159,-0.17659870728797566,-3.2490021545200407,8.48946350670394,0.2088888888888889,0.5988888888888889,-0.6322222222222222,-5.604211552500846,-14.802910382649882,203.68226838909564
1589995555.422159,-0.17778605609061726,-3.1887176691501606,8.674824641104852,0.2088888888888889,0.5988888888888889,-0.6322222222222222,-4.794278878187655,-15.339886577018596,214.1637440184142
1589995555.432159,-0.08126904612815697,-3.4787382592360676,8.617599666040492,0.2402199726338737,0.5895302534845428,-0.6375118857116352,-7.269352692548528,-16.1021120329785,217.59685477979545
1589995555.442159,-0.24185601489501085,-4.362952108402579,8.361776023170016,0.29444444444444445,0.5733333333333334,-0.6466666666666666,-6.911550098265697,-16.187250025859395,220.03555020170327
1589995555.452159,-0.35993194523211536,-4.842109697804424,8.738570849874423,0.29444444444444445,0.5733333333333334,-0.6466666666666666,-8.121597261605768,-16.747447946204325,226.80738323341166
1589995555.462159,-0.37987575127138234,-4.031274560795192,8.683354715672676,0.29444444444444445,0.5733333333333334,-0.6466666666666666,-7.297945922907998,-17.31017033633842,237.8969187037679
1589995555.472159,-0.41689769098050733,-4.604873536213796,8.490693072941522,0.29444444444444445,0.5733333333333334,-0.6466666666666666,-11.737314617671892,-20.105713813736646,216.99240116001616
1589995555.482159,-1.6431026055570177,-3.754879497687709,9.291562206263864,0.32373826622050106,0.547515049734097,-0.6531212375664757,-21.332701996465765,-16.2186783283829,66.31623162386735
1589995555.492159,-3.8147024481185303,-2.3147147132414267,11.282211646960702,0.36,0.5155555555555555,-0.6611111111111111,1.4258481332482944,8.872421257911004,-84.69786709512829
1589995555.5021589,-3.6429125280358856,-3.1643244686532097,10.948663889778917,0.36,0.5155555555555555,-0.6611111111111111,35.7588112784364,25.47341263483926,-74.75088112784364
1589995555.5121589,-1.0553603978831831,-2.722261858094865,8.50686005488044,0.36,0.5155555555555555,-0.6611111111111111,14.44801058408467,4.193609736377892,-17.38530386368091
1589995555.5221589,-0.86148906009245,-4.1652283513097075,10.102188392398562,0.36,0.5155555555555555,-0.6611111111111111,-19.030030816640988,-6.0988790446841294,5.3655148947098095
1589995555.5321589,-0.6866159880133968,-4.267121893178213,9.697829631588226,0.3767339444150655,0.5032043108682452,-0.6591189748712224,-19.540760510312005,-4.946657963158822,24.017643883306892
1589995555.5421588,-0.5254147858360919,-4.038692279399472,8.826869629183804,0.4066666666666667,0.4811111111111111,-0.6555555555555556,4.192557344434413,-2.043394940983716,48.28716312234594
1589995555.5521588,2.901400439907038,-9.60906166998672,8.581604000664012,0.4066666666666667,0.4811111111111111,-0.6555555555555556,-0.9558251369521908,-4.364285047310757,62.52973003818061
1589995555.5621588,2.19049851073836,-8.988852484715473,9.291629304488687,0.4066666666666667,0.4811111111111111,-0.6555555555555556,-9.721269660866385,-5.927342974342896,37.79528857710194
1589995555.5721588,-1.1026982099863916,-3.0433277504448863,9.019391395373182,0.4066666666666667,0.4811111111111111,-0.6555555555555556,3.5201180257510725,1.7788247147492937,-4.69502904846645
1589995555.5821588,0.19896836277353014,-4.326524387028737,8.60896836277353,0.4095609456015467,0.4806287312886311,-0.6516965169757155,9.020206630635382,4.242420247824941,-7.906528473503823
1589995555.5921588,0.3250034223134839,-5.719822039698837,9.155537303216974,0.4133333333333333,0.48,-0.6466666666666666,-6.426095140314853,-2.5694130732375084,7.657144079397673
1589995555.6021588,-0.3498718583836983,-4.810283034446316,8.549257901515901,0.4133333333333333,0.48,-0.6466666666666666,-4.039943112388124,-1.5048053106113146,3.3480382443277517
1589995555.6121588,-0.3778873743336553,-3.93802797753211,8.26070408929913,0.4133333333333333,0.48,-0.6466666666666666,3.014965922507245,1.0928701119816822,-1.6690145254194841
1589995555.6221588,-0.2267377137161696,-4.558721153108947,8.594754274323392,0.4133333333333333,0.48,-0.6466666666666666,-0.1697749750824197,-0.021721421452119916,-0.2322749750824197
1589995555.6321588,-0.22030621789465615,-4.674488077896189,8.466124357893124,0.4133333333333333,0.48,-0.6466666666666666,0.11160296710879397,0.05867227631679828,0.04910296710879397
1589995555.6421587,-0.21,-4.555006042377205,8.568680076268228,0.4133333333333333,0.4722222222222222,-0.6844444444444444,0.125,0.1003269597443403,0.0625
1589995555.6521587,-0.20558944521466396,-4.617073342575967,8.538516102638697,0.4133333333333333,0.4722222222222222,-0.6844444444444444,-0.0955277392668015,0.09006596740835018,0.0625
1589995555.6621587,-0.2223542144458474,-4.581295900224187,8.537408199551628,0.4133333333333333,0.4722222222222222,-0.6844444444444444,-0.263228927770763,0.1808855361146185,0.1183855361146185
1589995555.6721587,-0.24644728855591974,-4.591578308447358,8.534606940325686,0.4133333333333333,0.4722222222222222,-0.6844444444444444,-0.08059110694899677,0.25,0.14309110694899677
1589995555.6821587,-0.24171797274890058,-4.5503078364934035,8.654538245259895,0.4133333333333333,0.47012247775134375,-0.67795432517082,-0.0214746593612573,0.21778801095811406,0.05176267031937135
1589995555.6921587,-0.2547726529277069,-4.566591429506052,8.661135099771018,0.4133333333333333,0.46,-0.6466666666666666,-0.15482908079816815,0.09232908079816814,0.029829080798168137
1589995555.7021587,-0.2514857418654225,-4.59811406507662,8.609514740779472,0.4133333333333333,0.46,-0.6466666666666666,-0.2939282266822185,0.09839294332944537,0.0625
1589995555.7121587,-0.2284177434240886,-4.6320887171204435,8.466329026303645,0.4133333333333333,0.46,-0.6466666666666666,-0.4375,0.13488910359944623,0.014240597600369172
1589995555.7221587,-0.22136999119330691,-4.577899970644356,8.551369991193306,0.4133333333333333,0.46,-0.6466666666666666,-0.3664375550418318,0.1789375550418318,0.0085624449581682
1589995555.7321587,-0.2353644431720584,-4.61218665903235,8.602448897795592,0.41024296211470557,0.46,-0.65001456882018,-0.19205553965073002,0.0625,0.125
1589995555.7421587,-0.22,-4.560696546894359,8.677442762484514,0.4,0.46,-0.6611111111111111,-0.07630602542692452,0.11337068361794969,0.15043534180897483
1589995555.7521586,-0.22912195568577184,-4.604796740523714,8.611756088628457,0.4,0.46,-0.6611111111111111,-0.09247962827321003,0.1875,0.168495925654642
1589995555.7621586,-0.24832310932063725,-4.572794817798938,8.573353781358726,0.4,0.46,-0.6611111111111111,0.10753238875663795,0.1875,0.12849352224867241
1589995555.7721586,-0.23735008645080163,-4.624700172901603,8.529748703237976,0.4,0.46,-0.6611111111111111,-0.09187608063502044,0.25,0.07531412095253065
1589995555.7821586,-0.23303826308383033,-4.60696173691617,8.635442605374255,0.40607652616766066,0.46185671632900743,-0.6611111111111111,0.009494572136969779,0.24050542786303022,-0.04351085572606044
1589995555.7921586,-0.2419912356736974,-4.581991235673698,8.622013146489454,0.44,0.4722222222222222,-0.6611111111111111,-0.012582165559086977,0.13744522296060868,0.0625
1589995555.8021586,-0.23,-4.589844430471134,8.59237336686928,0.44,0.4722222222222222,-0.6611111111111111,-0.17461107617783367,0.0625,0.0625
1589995555.8121586,-0.2227186096111086,-4.612718609611108,8.538203475972228,0.44,0.4722222222222222,-0.6611111111111111,-0.25,0.08525434496528565,0.03974565503471435
1589995555.8221586,-0.22152190113438766,-4.591358574149209,8.581521901134387,0.44,0.4722222222222222,-0.6611111111111111,-0.2860059410449615,0.14300297052248076,-0.01800297052248075
1589995555.8321586,-0.2433868613138686,-4.576613138686132,8.621021897810218,0.4326520681265207,0.47075263584752636,-0.6611111111111111,-0.3061131386861314,0.17372262773722627,-0.034945255474452555
1589995555.8421586,-0.22,-4.592939950441166,8.656469975220583,0.4066666666666667,0.4655555555555556,-0.6611111111111111,-0.04043734512864454,0.125,0.04043734512864454
1589995555.8521585,-0.2256261926283017,-4.58,8.633121422115096,0.4066666666666667,0.4655555555555556,-0.6611111111111111,0.03516370392688561,0.08983629607311439,0.0
1589995555.8621585,-0.23807796663028225,-4.58,8.588077966630282,0.4066666666666667,0.4655555555555556,-0.6611111111111111,0.08896187431779198,0.036038125682208016,0.0
1589995555.8721585,-0.23,-4.595147022719118,8.595147022719118,0.4066666666666667,0.4655555555555556,-0.6611111111111111,-0.043566221601102906,0.1875,0.018933778398897094
1589995555.8821585,-0.23121514280885586,-4.626354571573432,8.626354571573433,0.40747676187257054,0.4655555555555556,-0.6611111111111111,-0.03037857022139598,0.16471607233395302,0.04731071488930201
1589995555.8921585,-0.24267575115562404,-4.601337875577812,8.595986373266564,0.4133333333333333,0.4655555555555556,-0.6611111111111111,-0.1998296658320493,0.008361722361325116,-0.07086172236132511
1589995555.9021585,-0.2567409836065574,-4.605654644808744,8.566740983606557,0.4133333333333333,0.4655555555555556,-0.6611111111111111,0.1046311475409836,0.0760792349726776,-0.1046311475409836
1589995555.9121585,-0.23382131147540985,-4.575095081967214,8.543821311475408,0.4133333333333333,0.4655555555555556,-0.6611111111111111,-0.03861680327868852,0.17157786885245901,0.03861680327868852
1589995555.9221585,-0.21604420006344505,-4.593022100031723,8.551511050015861,0.4133333333333333,0.4655555555555556,-0.6611111111111111,-0.28777625039653165,-0.08722374960346833,-0.08722374960346833
1589995555.9321585,-0.24828617597668007,-4.61114254934888,8.56171382402332,0.41409503289925326,0.4659364053385156,-0.6611111111111111,-0.478577199708501,0.12142953328475016,0.12857046671524983
1589995555.9421585,-0.22634222511385815,-4.623657774886142,8.602684450227716,0.4266666666666667,0.4722222222222222,-0.6611111111111111,-0.025902732595966163,0.14177781392322708,0.1280416395575797
1589995555.9521585,-0.24,-4.591818497591701,8.600909596146721,0.4266666666666667,0.4722222222222222,-0.6611111111111111,0.23295375602074841,0.3806806340311226,0.0
1589995555.9621584,-0.24,-4.578908694704729,8.540545652647635,0.4266666666666667,0.4722222222222222,-0.6611111111111111,0.17462410111135324,0.4409103290477228,0.0
1589995555.9721584,-0.24,-4.611303988256456,8.539566026422975,0.4266666666666667,0.4722222222222222,-0.6611111111111111,-0.09782496330142453,0.29891248165071227,0.01358751834928774
1589995555.9821584,-0.24,-4.58175188420692,8.61,0.4254987438620532,0.47115162631799323,-0.6598458614061132,-0.01642391443987667,0.2554746381466256,0.057025361853374444
1589995555.9921584,-0.24,-4.599713086673518,8.61,0.4135246088843211,0.4601753359217388,-0.6468738818469034,-0.18481018756423434,0.3116033958547448,0.0008966041452552198
1589995556.0021584,-0.24680088375867976,-4.59680088375868,8.614809721345477,0.4133333333333333,0.46,-0.6466666666666666,-0.20749447650825142,0.10752209396699432,-0.03998895301650284
1589995556.0121584,-0.2345095571095571,-4.592745221445221,8.550980885780886,0.4133333333333333,0.46,-0.6466666666666666,-0.1985270979020979,-0.04534236596736597,-0.07352709790209791
1589995556.0221584,-0.22,-4.602176186645213,8.58,0.4133333333333333,0.46,-0.6466666666666666,-0.08970233306516492,0.013601166532582462,0.08970233306516492
1589995556.0321584,-0.2190148596587782,-4.609014859658778,8.584925701706108,0.4133333333333333,0.46120406041704887,-0.6489653274628508,-0.19365712713263622,0.05634287286736379,0.18134287286736378
1589995556.0421584,-0.21328226501199096,-4.6,8.616870939952037,0.4133333333333333,0.4722222222222222,-0.67,-0.18845753102516938,0.04102831264988708,0.06345753102516939
1589995556.0521584,-0.22202549859974316,-4.597974501400256,8.575821509801798,0.4133333333333333,0.4722222222222222,-0.67,-0.03718126750321053,0.11234063375160527,-0.03718126750321053
1589995556.0621583,-0.22851510884869491,-4.591484891151305,8.530394238059134,0.4133333333333333,0.4722222222222222,-0.67,0.04393886060868622,0.07178056969565688,0.04393886060868622
1589995556.0721583,-0.24882454050374403,-4.58,8.569403675970047,0.4133333333333333,0.4722222222222222,-0.67,0.0,0.11765337814840027,0.10296013444520082
1589995556.0821583,-0.2416865214431586,-4.58,8.626507828454733,0.4133333333333333,0.4722222222222222,-0.67,0.0,0.07304075901974132,-0.030877722940776037
1589995556.0921583,-0.23108260232715064,-4.617834795345699,8.63891739767285,0.4133333333333333,0.4655555555555556,-0.6466666666666666,-0.1875,0.0,0.0
1589995556.1021583,-0.23798554994157436,-4.604028900116851,8.632014450058426,0.4133333333333333,0.4655555555555556,-0.6466666666666666,-0.1875,0.0,0.0
1589995556.1121583,-0.23864706354944965,-4.58,8.543382341126375,0.4133333333333333,0.4655555555555556,-0.6466666666666666,-0.1292279264079698,0.012683779223909376,0.05827207359203021
1589995556.1221583,-0.2217984253233711,-4.58,8.585503936691572,0.4133333333333333,0.4655555555555556,-0.6466666666666666,-0.18187992086446533,0.170639762593396,0.00562007913553466
1589995556.1321583,-0.22922314459174825,-4.591165283112377,8.628834716887622,0.4133333333333333,0.4658145073583062,-0.6470119357370008,-0.18992767315078676,0.002427673150786767,0.125
1589995556.1421583,-0.21190063189195885,-4.617149052162062,8.602850947837938,0.4133333333333333,0.4715886782582359,-0.6547108302702405,-0.24406052533762854,0.056560525337628544,0.125
1589995556.1521583,-0.22512339055793992,-4.58768508583691,8.55975321888412,0.4133333333333333,0.4722222222222222,-0.6555555555555556,-0.0625,0.21952119098712447,0.046489404506437765
1589995556.1621583,-0.23791347681640906,-4.6037404304492275,8.540432615917954,0.4133333333333333,0.4722222222222222,-0.6555555555555556,-0.04945923010255669,0.2994592301025567,-0.013040769897443306
1589995556.1721582,-0.23181647077668543,-4.58,8.587265883106742,0.4133333333333333,0.4722222222222222,-0.6555555555555556,-0.011352942354283885,0.23864705764571612,-0.01708823058286446
1589995556.1821582,-0.23932207677227596,-4.580338961613862,8.621016884841586,0.4135216453410344,0.4724858590330038,-0.6552542563432338,-0.06461851008663758,0.19385553025991273,0.1790259596534497
1589995556.1921582,-0.22262244122590896,-4.5952448824518175,8.639510235096365,0.4188888888888889,0.48,-0.6466666666666666,-0.15778051532386195,0.2930487116903452,-0.0625
1589995556.2021582,-0.23197992682487956,-4.606040146350241,8.590200731751205,0.4188888888888889,0.48,-0.6466666666666666,-0.23762545734450286,0.08724908531099426,-0.05012545734450287
1589995556.2121582,-0.23942961392128734,-4.590570386078713,8.51228154431485,0.4188888888888889,0.48,-0.6466666666666666,-0.1839350870080459,0.18037017401609182,0.007129825983908189
1589995556.2221582,-0.23165504955534505,-4.5983449504446545,8.556620198221381,0.4188888888888889,0.48,-0.6466666666666666,-0.125,0.07284405972090656,0.10431188055818688
1589995556.2321582,-0.2375851489488046,-4.5924148510511955,8.580340595795219,0.4188888888888889,0.48,-0.6466666666666666,-0.125,0.1099071809300287,0.0301856381399426
1589995556.2421582,-0.23995779683341845,-4.570211015832908,8.620084406333163,0.4188888888888889,0.4722222222222222,-0.64,-0.18697246041773072,0.0625,0.12394492083546141
1589995556.2521582,-0.23,-4.61695638667992,8.625796471172963,0.4188888888888889,0.4722222222222222,-0.64,-0.04981827783300199,0.08152258325049702,-0.112318277833002
1589995556.2621582,-0.23,-4.5908983598409545,8.504192345924453,0.4188888888888889,0.4722222222222222,-0.64,0.058756833996023855,0.24438525099403577,-0.003743166003976145
1589995556.2721581,-0.21154160530191457,-4.598458394698085,8.584624815905745,0.4188888888888889,0.4722222222222222,-0.64,0.07682483431516937,0.16822993372606776,-0.05286496686303387
1589995556.2821581,-0.21926307069219442,-4.5907369293078055,8.607789212076582,0.4188888888888889,0.4722222222222222,-0.64,-0.16447095913107512,0.07171161634756996,-0.004605808173784982
1589995556.2921581,-0.21180862318371224,-4.581808623183712,8.626382753632576,0.4088772061134261,0.4722222222222222,-0.657292906612163,-0.1875,0.16489221020359696,0.05119610510179848
1589995556.302158,-0.21077975646060867,-4.591559512921218,8.592202435393913,0.4066666666666667,0.4722222222222222,-0.6611111111111111,-0.25,0.07224695575760837,-0.04787956636358745
1589995556.312158,-0.2183016803859328,-4.6066033607718655,8.516983196140671,0.4066666666666667,0.4722222222222222,-0.6611111111111111,-0.25,0.16627100482416024,0.09315650723624039
1589995556.322158,-0.23,-4.608574376066342,8.55140499146927,0.4066666666666667,0.4722222222222222,-0.6611111111111111,-0.24108985041463318,0.2679492520731659,0.017820299170733644
1589995556.332158,-0.23,-4.600253342856009,8.617973257151926,0.4066666666666667,0.4722222222222222,-0.6611111111111111,-0.18908339285005754,0.00791696425028765,0.12183321429988495
1589995556.342158,-0.2483480473852529,-4.574955857844241,8.638348047385254,0.4133333333333333,0.4655555555555556,-0.67,-0.13532470384216927,0.125,0.05217529615783073
1589995556.352158,-0.23876535082166458,-4.598765350821664,8.618888157394982,0.4133333333333333,0.4655555555555556,-0.67,-0.1720668852708075,0.125,0.0
1589995556.362158,-0.22681076139480216,-4.588405380697401,8.547973096512994,0.4133333333333333,0.4655555555555556,-0.67,-0.07246637064124331,0.1349663706412433,0.0
1589995556.372158,-0.21102138241208343,-4.580510691206042,8.591532073618126,0.4133333333333333,0.4655555555555556,-0.67,-0.11542453988671773,0.17792453988671772,0.006383640075521514
1589995556.382158,-0.2238978003591877,-4.586948900179594,8.610846700538781,0.4133333333333333,0.4655555555555556,-0.67,0.0052918783673845116,0.05720812163261549,0.08686125224492303
1589995556.392158,-0.2378894490328578,-4.582110550967142,8.651557796131431,0.4177163605738099,0.4655555555555556,-0.6629871564152375,-0.08542716936608388,0.09861811291072257,0.026381887089277425
1589995556.402158,-0.22324452167197606,-4.596755478328023,8.568644174148083,0.4188888888888889,0.4655555555555556,-0.6611111111111111,-0.010139130224925186,0.13513913022492519,0.0
1589995556.412158,-0.23854903456304444,-4.584352896310866,8.518705792621732,0.4188888888888889,0.4655555555555556,-0.6611111111111111,-0.0625,0.16029439805708323,0.009068533980972262
1589995556.422158,-0.2301304644534543,-4.609608606639638,8.569217213279275,0.4188888888888889,0.4655555555555556,-0.6611111111111111,-0.0625,0.0024462085022680935,0.06168459716591065
1589995556.432158,-0.22083416572329137,-4.600834165723291,8.615829171383542,0.4188888888888889,0.4655555555555556,-0.6611111111111111,-0.11978646422942887,0.057286464229428874,0.0625
1589995556.442158,-0.2130790422851757,-4.6069209577148245,8.633841915429649,0.4058159687608875,0.4617105790473199,-0.6611111111111111,0.04802394287060699,0.0625,0.019244014282348253
1589995556.452158,-0.23738295537673737,-4.600872348207754,8.603489392831017,0.4,0.46,-0.6611111111111111,0.125,-0.05159564740307243,0.057047823701536216
1589995556.462158,-0.22595989352262644,-4.592979946761313,8.536819520851818,0.4,0.46,-0.6611111111111111,0.03724933451641525,0.0691259982253771,-0.025250665483584747
1589995556.472158,-0.22,-4.600010230702337,8.560040922809351,0.4,0.46,-0.6611111111111111,-0.06230817433116784,-6.394188961072177e-05,0.0
1589995556.482158,-0.22,-4.607162003171518,8.58864801268607,0.4,0.46,-0.6611111111111111,0.07178755946595736,-0.04476251982198578,0.0
1589995556.492158,-0.21026474775849463,-4.590529495516989,8.648676261207527,0.4064901681610036,0.47189864162850653,-0.6838266996746236,0.125,-0.0016546734905914448,-0.060845326509408555
1589995556.502158,-0.21830648733540048,-4.5983064873354005,8.65,0.4066666666666667,0.4722222222222222,-0.6844444444444444,0.021168908307494072,-0.051915545846252964,0.09324663753875892
1589995556.512158,-0.23074515596489706,-4.590745155964897,8.532980623859588,0.4066666666666667,0.4722222222222222,-0.6844444444444444,-0.07181444956121297,0.004657224780606482,-0.004657224780606482
1589995556.522158,-0.23803388652359023,-4.59803388652359,8.56213554609436,0.4066666666666667,0.4722222222222222,-0.6844444444444444,-0.1629235815448779,0.05021179077243896,-0.05021179077243896
1589995556.532158,-0.21751174743024962,-4.6,8.607480420949583,0.4066666666666667,0.4722222222222222,-0.6844444444444444,-0.1875,0.015649473813020072,0.031201052373959856
1589995556.542158,-0.23147781916694884,-4.607159273055649,8.62,0.41143951537043305,0.48654076833352145,-0.6685349487652231,0.036227282989050674,0.0,0.10724545659781014
1589995556.5521579,-0.23031907642498084,-4.5901595382124905,8.608723694300076,0.4133333333333333,0.4922222222222222,-0.6622222222222223,-0.060505772343869814,-0.06449422765613019,-0.0009971138280650933
1589995556.5621579,-0.24818693022066968,-4.599093465110334,8.53725227911732,0.4133333333333333,0.4922222222222222,-0.6622222222222223,0.05116831387918548,-0.17616831387918547,-0.05683415693959274
