time,acc_x,acc_y,acc_z,mag_x,mag_y,mag_z,gyr_x,gyr_y,gyr_z
1589995348.6471412,-4.11,-0.75,8.88,0.3233333333333333,-0.3322222222222222,-0.5788888888888889,0.0625,-0.1875,0.1875
1589995348.6571412,-4.129134267774465,-0.7308657322255343,8.91,0.3216018688822646,-0.3317412598747031,-0.5776383867853393,0.0625,-0.0408566943616414,-0.005410826409589649
1589995348.6671412,-4.12,-0.74,8.914521568559973,0.3033333333333333,-0.32666666666666666,-0.5644444444444444,0.04837009825008173,0.13098039300032693,-0.03424019650016347
1589995348.6771412,-4.12,-0.74,8.928955555173184,0.3033333333333333,-0.32666666666666666,-0.5644444444444444,0.003263890083796482,-0.04944443966481407,0.055972219832407036
1589995348.6871412,-4.103007420038713,-0.7430074200387132,8.786014840077426,0.3033333333333333,-0.32666666666666666,-0.5644444444444444,-0.18138912572587335,-0.1437963752419578,0.043703624758042216
1589995348.6971412,-4.11,-0.7530410614085689,8.809123184225706,0.3033333333333333,-0.32666666666666666,-0.5644444444444444,-0.30299668309822225,-0.15899004929466673,0.0
1589995348.7071412,-4.11,-0.7640387539986365,8.84211626199591,0.3033333333333333,-0.32666666666666666,-0.5644444444444444,-0.26862889375426086,-0.05588668126278251,0.0
1589995348.7171412,-4.11,-0.7626703808288179,8.89664809585591,0.3228789844564858,-0.3307386773173234,-0.5644444444444444,-0.25,-0.13743035945966572,0.04581011981988857
1589995348.7271411,-4.11,-0.76,8.87591339260109,0.33,-0.3322222222222222,-0.5644444444444444,-0.1875,0.022010324060797247,0.04048967593920275
1589995348.7371411,-4.111380681187827,-0.7572386376243482,8.818284087126957,0.33,-0.3322222222222222,-0.5644444444444444,-0.17887074257608815,0.09911222772826449,-0.05387074257608816
1589995348.7471411,-4.119136126622537,-0.7417277467549277,8.864816759735216,0.33,-0.3322222222222222,-0.5644444444444444,-0.13039920860914905,-0.046302374172552785,-0.005399208609149067
1589995348.757141,-4.1198606930055846,-0.7602786139888306,8.92055722797766,0.32990712867038985,-0.33205195811793686,-0.5644444444444444,-0.003482674860381589,0.0616293312849046,-0.060758662569809205
1589995348.767141,-4.111152863994021,-0.7776942720119584,8.955388544023917,0.3241019093293472,-0.3214090559926921,-0.5644444444444444,-0.22117840014947993,0.007205399962630019,0.04808920007473996
1589995348.777141,-4.102516307526204,-0.764967384947591,8.894771694633137,0.3233333333333333,-0.32,-0.5644444444444444,-0.23427307796122182,-0.0625,-0.09354615592244366
1589995348.787141,-4.112194109907905,-0.7456117801841918,8.805358769355328,0.3233333333333333,-0.32,-0.5644444444444444,-0.17378681307559962,0.006065934622001834,0.0
1589995348.797141,-4.118323026445107,-0.7333539471097873,8.856646052890213,0.3233333333333333,-0.32,-0.5644444444444444,-0.13548108471808518,0.2604810847180852,0.0
1589995348.807141,-4.111981190558992,-0.7460376188820176,8.843962381117983,0.3233333333333333,-0.32,-0.5644444444444444,-0.1751175590063051,0.3001175590063051,0.0
1589995348.817141,-4.11,-0.7232358556549026,8.851078618551634,0.3033333333333333,-0.3322222222222222,-0.5788888888888889,-0.12837068297385681,0.23988795107842953,-0.18075863405228634
1589995348.827141,-4.11,-0.7708073571388064,8.866935785712935,0.3033333333333333,-0.3322222222222222,-0.5788888888888889,-0.17792433035292338,0.09122700894122984,-0.08165133929415323
1589995348.837141,-4.114770095773574,-0.7723850478867871,8.819540191547148,0.3033333333333333,-0.3322222222222222,-0.5788888888888889,-0.30046725353790443,-0.12212619716967646,-0.11009345070758088
1589995348.847141,-4.122799682551134,-0.7781999206377836,8.859000396811082,0.3033333333333333,-0.3322222222222222,-0.5788888888888889,-0.03999900797229537,-0.3350009920277046,-0.0625
1589995348.857141,-4.092538869449154,-0.7706347173622885,8.896826413188558,0.3033333333333333,-0.3322222222222222,-0.5788888888888889,0.05456603297139352,-0.4295660329713935,-0.0625
1589995348.867141,-4.09,-0.7538869435766256,8.964452225693499,0.3149705407502149,-0.3223753544079378,-0.574413039882396,0.012146698676954691,-0.3367933973539094,-0.1128533013230453
1589995348.877141,-4.10894617317356,-0.7489461731735602,8.957354078082721,0.31777777777777777,-0.32,-0.5733333333333334,0.1875,0.2204320883262466,-0.055913582334750675
1589995348.887141,-4.101966340477476,-0.7419663404774769,8.849016829761261,0.31777777777777777,-0.32,-0.5733333333333334,0.1875,0.5,0.0
1589995348.897141,-4.118753276900603,-0.7587532769006023,8.8406233615497,0.31777777777777777,-0.32,-0.5733333333333334,0.1875,0.5,0.0
1589995348.907141,-4.110466041349507,-0.7409320826990129,8.801864165398026,0.31777777777777777,-0.32,-0.5733333333333334,0.008738275303246085,0.44041275843441535,-0.059587241565584634
1589995348.917141,-4.118060631790201,-0.7590303158951005,8.8609696841049,0.2966666666666667,-0.3388888888888889,-0.5722222222222222,-0.5625,-0.125,-0.0625
1589995348.927141,-4.101872985855155,-0.7509364929275776,8.869063507072422,0.2966666666666667,-0.3388888888888889,-0.5722222222222222,-0.5625,-0.125,-0.0625
1589995348.937141,-4.12,-0.7608868601868293,8.80064232224195,0.2966666666666667,-0.3388888888888889,-0.5722222222222222,-0.07912862850304948,-0.11945712383231684,-0.125
1589995348.947141,-4.12,-0.7689820890913303,8.897785069095962,0.2966666666666667,-0.3388888888888889,-0.5722222222222222,-0.23091417046244114,-0.06886194317918629,-0.125
1589995348.957141,-4.105850279760756,-0.7629251398803781,8.952449160717732,0.2966666666666667,-0.3388888888888889,-0.5722222222222222,-0.028910621261817482,-0.018282124252363502,-0.125
1589995348.967141,-4.129374817198011,-0.76,8.950416788534659,0.31733783432452634,-0.3323611517337753,-0.5787499593773359,0.3072901433167593,0.24479014331675927,-0.125
1589995348.977141,-4.11246906779661,-0.7687654661016949,8.923703601694916,0.31777777777777777,-0.3322222222222222,-0.5788888888888889,0.14814751059322034,0.19521583686440677,-0.07021583686440677
1589995348.987141,-4.119091385073905,-0.7663655402956221,8.836365540295622,0.31777777777777777,-0.3322222222222222,-0.5788888888888889,0.05114231342381892,0.13067884328809054,0.0
1589995348.997141,-4.110645011881268,-0.7325800475250714,8.802580047525073,0.31777777777777777,-0.3322222222222222,-0.5788888888888889,-0.0544373514841516,0.18346867574207582,0.0
1589995349.0071409,-4.082511175761017,-0.7391629414129947,8.845814707064973,0.31777777777777777,-0.3322222222222222,-0.5788888888888889,-0.005231616168783558,0.1875,0.0
1589995349.0171409,-4.104935503419617,-0.7483118344732058,8.825064496580383,0.3122365547956406,-0.3322222222222222,-0.5733476659067517,-0.1038979309150723,0.23944896545753613,0.0
1589995349.0271409,-4.1167999634177015,-0.76,8.860399890253102,0.3111111111111111,-0.3322222222222222,-0.5722222222222222,-0.125,0.09250034295905069,-0.10499977136063288
1589995349.0371408,-4.1022295053874,-0.76,8.820032774243302,0.3111111111111111,-0.3322222222222222,-0.5722222222222222,-0.09713118265749844,0.2360655913287492,-0.013934408671250778
1589995349.0471408,-4.119814437112578,-0.7599072185562887,8.900278344331134,0.3111111111111111,-0.3322222222222222,-0.5722222222222222,0.125,0.12615976804639073,-0.12326034793041392
1589995349.0571408,-4.103040591881624,-0.7515202959408118,8.925439112177564,0.3111111111111111,-0.3322222222222222,-0.5722222222222222,0.125,0.23099630073985203,0.03399445110977806
1589995349.0671408,-4.1,-0.7508203165840704,8.963437467327438,0.3111111111111111,-0.3388888888888889,-0.5644444444444444,-0.005126978650440164,0.18237302134955985,-0.0625
1589995349.0771408,-4.1,-0.759590782677791,8.893273738577673,0.3111111111111111,-0.3388888888888889,-0.5644444444444444,-0.05994239173619388,0.12755760826380613,-0.0625
1589995349.0871408,-4.099555042166751,-0.7604449578332488,8.801779831332995,0.3111111111111111,-0.3388888888888889,-0.5644444444444444,-0.1875,0.25278098645780506,-0.06528098645780507
1589995349.0971408,-4.091677090963731,-0.7683229090362691,8.833291636145075,0.3111111111111111,-0.3388888888888889,-0.5644444444444444,-0.1875,0.3020181814766815,-0.1145181814766815
1589995349.1071408,-4.12184835037623,-0.7461137372178275,8.847962087594057,0.3111111111111111,-0.3388888888888889,-0.5644444444444444,-0.1875,0.3125,-0.07523695253714066
1589995349.1171408,-4.10011797271469,-0.7700589863573453,8.89,0.2966666666666667,-0.32666666666666666,-0.5577777777777778,0.0007373294668160548,0.18676267053318393,0.12463133526659197
1589995349.1271408,-4.1139395636986755,-0.7769697818493376,8.89,0.2966666666666667,-0.32666666666666666,-0.5577777777777778,0.08712227311672048,0.10037772688327952,0.08143886344163975
1589995349.1371408,-4.12,-0.7344431119192232,8.78977484622229,0.2966666666666667,-0.32666666666666666,-0.5577777777777778,0.3527844404038841,-0.10833833030291307,0.005553889899028976
1589995349.1471407,-4.12,-0.7367877687987947,8.834302150390357,0.2966666666666667,-0.32666666666666666,-0.5577777777777778,0.20530578003013286,-0.20984710998493356,0.042423554992466785
1589995349.1571407,-4.113024074631357,-0.7330240746313572,8.894879626843213,0.2966666666666667,-0.32666666666666666,-0.5577777777777778,0.16859953355401747,-0.20640046644598253,-0.11189813421606981
1589995349.1671407,-4.117153526970955,-0.7443070539419087,8.931460580912862,0.31176855693868144,-0.3354098662978331,-0.5728796680497925,-0.03604771784232366,-0.09808091286307055,-0.008661825726141104
1589995349.1771407,-4.100691218029611,-0.78,8.95239660167428,0.31777777777777777,-0.3388888888888889,-0.5788888888888889,-0.3211402253701367,-0.06682011268506834,-0.13364022537013667
1589995349.1871407,-4.10814602847342,-0.78,8.870393686792386,0.31777777777777777,-0.3388888888888889,-0.5788888888888889,-0.41432535591774344,-0.11341267795887172,-0.22682535591774344
1589995349.1971407,-4.090113461949447,-0.76,8.860226923898894,0.31777777777777777,-0.3388888888888889,-0.5788888888888889,-0.24858172563190922,-0.05966345126381846,0.0007091371840453848
1589995349.2071407,-4.0982623224728485,-0.76,8.876524644945698,0.31777777777777777,-0.3388888888888889,-0.5788888888888889,-0.14672096908939014,0.14405806182121972,0.05163951545530493
1589995349.2171407,-4.108463991622639,-0.7507680041886811,8.925391974867914,0.2966666666666667,-0.3322222222222222,-0.5644444444444444,-0.05769997382074349,0.13949973820743491,0.009600052358513017
1589995349.2271407,-4.090746477205447,-0.760746477205447,8.863281705150976,0.2966666666666667,-0.3322222222222222,-0.5644444444444444,0.013996447602131439,-0.41883806986382477,0.11100355239786856
1589995349.2371407,-4.1,-0.7686742118027486,8.780662894098626,0.2966666666666667,-0.3322222222222222,-0.5644444444444444,0.19578617623282135,-0.19992926434923203,-0.05835691188358933
1589995349.2471406,-4.099349075212258,-0.7497830250707527,8.791952774363224,0.2966666666666667,-0.3322222222222222,-0.5644444444444444,0.3138560933077957,-0.3777121866155913,-0.0013560933077956605
1589995349.2571406,-4.0813637403161716,-0.7437879134387239,8.845908779051486,0.2966666666666667,-0.3322222222222222,-0.5644444444444444,0.35132554100797575,-0.4526510820159515,-0.03882554100797576
1589995349.2671406,-4.088159937279499,-0.74,8.898159937279498,0.2966666666666667,-0.328859270874167,-0.5617540833660003,0.29933359466875736,-0.5,-0.024666797334378675
1589995349.2771406,-4.093727369332494,-0.74,8.922545261335012,0.2966666666666667,-0.32666666666666666,-0.56,0.3676118250157431,-0.3431842333123426,0.03920394167191436
1589995349.2871406,-4.105820351456377,-0.7637305271845662,8.874628769902678,0.2966666666666667,-0.32666666666666666,-0.56,0.23974560679528184,-0.10168420509646137,0.11193859830117954
1589995349.2971406,-4.11,-0.7635209639250682,8.879437108224796,0.2966666666666667,-0.32666666666666666,-0.56,0.10651204906335242,0.058981926404971366,0.04401204906335242
1589995349.3071406,-4.0969362581095625,-0.7534681290547813,8.903063741890438,0.2966666666666667,-0.32666666666666666,-0.56,-0.019148386815232885,0.0025274197771506662,-0.04082419340761644
1589995349.3171406,-4.096294712123118,-0.75,8.916294712123118,0.30995550337102734,-0.3224701919179212,-0.5586011750837515,-0.0625,-0.10184195076948882,0.016183901538977655
1589995349.3271406,-4.1083414097673305,-0.76668281953466,8.84492731209403,0.31777777777777777,-0.32,-0.5577777777777778,0.04176762209162457,-0.07286618895418771,0.0625
1589995349.3371406,-4.094506501367061,-0.7467597520505916,8.806759752050592,0.31777777777777777,-0.32,-0.5577777777777778,0.2077515496838019,-0.3045859161396698,0.0625
1589995349.3471406,-4.11,-0.7594470353097935,8.820552964690206,0.31777777777777777,-0.32,-0.5577777777777778,0.25576004885631803,-0.1898040195425272,0.1851959804574728
1589995349.3571405,-4.11,-0.73948748453412,8.84051251546588,0.31777777777777777,-0.32,-0.5577777777777778,0.4636720361029155,-0.2729688144411662,0.10203118555883378
1589995349.3671405,-4.102346537752582,-0.7223465377525823,8.903574235731924,0.30162046858878494,-0.32,-0.5628800859427229,0.5625,-0.36033413904636036,0.11033413904636039
1589995349.3771405,-4.092556782134246,-0.7274432178657531,8.912556782134248,0.2966666666666667,-0.32,-0.5644444444444444,0.28337933003425964,-0.3284798883390433,-0.014560334982870182
1589995349.3871405,-4.099858657243816,-0.7201413427561837,8.83113074204947,0.2966666666666667,-0.32,-0.5644444444444444,0.1875,-0.06603356890459364,0.12234982332155478
1589995349.3971405,-4.090303858370702,-0.7587845665171898,8.878480708146489,0.2966666666666667,-0.32,-0.5644444444444444,-0.05490354073243647,0.11930265554932734,-0.05680265554932734
1589995349.4071405,-4.097461765839866,-0.76,8.88,0.2966666666666667,-0.32,-0.5644444444444444,-0.10913603649916463,0.17163603649916465,0.030772072998329264
1589995349.4171405,-4.094254127840444,-0.7542541278404447,8.885745872159555,0.3049662597860244,-0.3308533140791601,-0.5567832815650373,-0.08908829900277915,0.1875,-0.009323401994441718
1589995349.4271405,-4.094509745319471,-0.7590194906389428,8.899019490638944,0.3111111111111111,-0.3388888888888889,-0.5511111111111111,-0.1470577247400892,0.21568590824669642,-0.006128183506607175
1589995349.4371405,-4.105732202791026,-0.7470711888358947,8.835481363716658,0.3111111111111111,-0.3388888888888889,-0.5511111111111111,-0.10669493022434201,0.03504239533651299,0.0625
1589995349.4471405,-4.099183011862719,-0.7408169881372815,8.834084940686408,0.3111111111111111,-0.3388888888888889,-0.5511111111111111,-0.0338030879290048,-0.0573938241419904,-0.005106175858009598
1589995349.4571404,-4.084474455471924,-0.733423366415773,8.88,0.3111111111111111,-0.3388888888888889,-0.5511111111111111,-0.0625,0.03453465330047292,-0.027965346699527077
1589995349.4671404,-4.096358524129225,-0.7527170482584495,8.929075572387674,0.3211079869678596,-0.32343917165573216,-0.569287249032472,0.09086116371148217,0.11362038790382739,-0.0511203879038274
1589995349.4771404,-4.091927385703919,-0.7680726142960813,8.915782157111757,0.3233333333333333,-0.32,-0.5733333333333334,0.22590767870101597,0.07454616064949202,0.08886151805152395
1589995349.4871404,-4.0837546218487395,-0.7637546218487395,8.866282352941177,0.3233333333333333,-0.32,-0.5733333333333334,0.25,0.17960084033613444,0.046932773109243694
1589995349.4971404,-4.088981245373036,-0.7510187546269639,8.84,0.3233333333333333,-0.32,-0.5733333333333334,0.30613278358147566,0.41839835074442705,0.05613278358147569
1589995349.5071404,-4.09,-0.7385029277245317,8.874491216826405,0.3233333333333333,-0.32,-0.5733333333333334,0.3125,0.617141754304192,0.0625
1589995349.5171404,-4.094892596854622,-0.7202148062907556,8.885322209436133,0.32659506456974813,-0.32,-0.5624608958786174,0.3430787303413886,0.7194212696586114,0.09307873034138857
1589995349.5271404,-4.1,-0.71,8.846106165145782,0.33,-0.32,-0.5511111111111111,0.275442354774093,0.7372788226129535,0.125
1589995349.5371404,-4.1,-0.7438625528689827,8.755343617827544,0.33,-0.32,-0.5511111111111111,0.09126928342664353,0.37962832799550156,0.1779102388577855
1589995349.5471404,-4.109444959351746,-0.75,8.796669756110479,0.33,-0.32,-0.5511111111111111,-0.11459298784524535,0.13540701215475465,0.1284690040515849
1589995349.5571404,-4.102808698790832,-0.742808698790832,8.879104313300848,0.33,-0.32,-0.5511111111111111,-0.34972816278650065,0.08005436744269988,0.035108734885399756
1589995349.5671403,-4.082855657373107,-0.7514295617512619,8.944288685253786,0.3261901460829127,-0.3269847321813267,-0.5587308189452856,-0.3660652390546132,-0.04465214141808019,-0.0714347609453868
1589995349.5771403,-4.094167938931298,-0.76,8.978055979643766,0.3233333333333333,-0.3322222222222222,-0.5644444444444444,-0.26215012722646314,0.27779898218829513,-0.024300254452926218
1589995349.5871403,-4.1,-0.76,8.93122184209357,0.3233333333333333,-0.3322222222222222,-0.5644444444444444,-0.19918941884746966,0.17175767538987868,-0.05081058115253033
1589995349.5971403,-4.091100610565436,-0.7688993894345634,8.928899389434562,0.3233333333333333,-0.3322222222222222,-0.5644444444444444,-0.020636448101937904,0.2362423679320414,-0.0068788160339792945
1589995349.6071403,-4.09,-0.77,8.93,0.3233333333333333,-0.3322222222222222,-0.5644444444444444,0.08688006840624483,0.2934400342031224,0.0
1589995349.6171403,-4.09,-0.77,8.914724414191916,0.30805774752524945,-0.32288714200617097,-0.570384950036477,0.17273620565026204,0.4079724113005241,0.04773620565026203
1589995349.6271403,-4.1102433956663695,-0.7632522014445434,8.88975660433363,0.3033333333333333,-0.32,-0.5722222222222222,0.44054244582962304,0.4796737409716038,0.0625
1589995349.6371403,-4.110430851762234,-0.7552154258811172,8.817800536454524,0.3033333333333333,-0.32,-0.5722222222222222,0.6223071764860353,0.5299035882430176,0.0625
1589995349.6471403,-4.122259308824686,-0.7221758639691411,8.761129654412343,0.3033333333333333,-0.32,-0.5722222222222222,0.8266206801542942,0.7016206801542942,0.13206034007714712
1589995349.6571403,-4.130287650197096,-0.6902876501970966,8.774856174901451,0.3033333333333333,-0.32,-0.5722222222222222,0.8767978137318536,0.7214467205977805,0.09644672059778048
1589995349.6671402,-4.1166802486915595,-0.6833197513084408,8.799918507850643,0.3011201657943728,-0.3240574738214276,-0.5652138583488473,0.646512434577962,0.4175155432224525,-0.041496891355509505
1589995349.6771402,-4.1242597968069665,-0.6947532656023222,8.85901306240929,0.2966666666666667,-0.3322222222222222,-0.5511111111111111,-0.01428701015965167,-0.2376632801161103,-0.125
1589995349.6871402,-4.127082799580761,-0.7452102014673343,8.847706998951905,0.2966666666666667,-0.3322222222222222,-0.5511111111111111,-0.7382962617910795,-1.1054937696517992,-0.125
1589995349.6971402,-4.077242560160801,-0.7944328227652566,8.909406673987084,0.2966666666666667,-0.3322222222222222,-0.5511111111111111,-0.9375,-1.742910284565707,-0.125
1589995349.7071402,-4.066274858778922,-0.7883001882947717,8.943725141221078,0.2966666666666667,-0.3322222222222222,-0.5511111111111111,-0.5306285305269673,-1.3610987515798705,-0.02328213263174185
1589995349.7171402,-4.095948082751351,-0.7753160275837836,8.988476303421619,0.3002106850558557,-0.3322222222222222,-0.5706032122516508,-0.12104965520270566,-0.44307275881758684,0.029274827601352832
1589995349.7271402,-4.1025529224767,-0.7874470775233003,9.0251058449534,0.3033333333333333,-0.3322222222222222,-0.5877777777777777,-0.0625,-0.20213270356188137,0.0
1589995349.7371402,-4.1200678980378616,-0.7833107006540461,8.95310700654046,0.3033333333333333,-0.3322222222222222,-0.5877777777777777,0.3555812091221206,-0.45904060456106033,0.04180812091221206
1589995349.7471402,-4.143817001147592,-0.7592744982786128,8.899274498278613,0.3033333333333333,-0.3322222222222222,-0.5877777777777777,0.9511031572760098,-1.0374594144484564,0.1920343857586699
1589995349.7571402,-4.15649199478926,-0.7435080052107409,8.909475984367777,0.3033333333333333,-0.3322222222222222,-0.5877777777777777,1.409024772030088,-2.1020743160902633,0.006550195402781872
1589995349.7671402,-4.152534669860138,-0.7250693397202755,8.905069339720276,0.31826399361305774,-0.3280748165889654,-0.5811419287645669,2.3556913273603595,-3.8222744611017476,0.1549498802448328
1589995349.7771401,-4.0867733990147785,-0.7270251778872469,8.85784893267652,0.3233333333333333,-0.32666666666666666,-0.5788888888888889,2.8006294471811715,-5.128147235905857,0.42562944718117135
1589995349.7871401,-4.034317111459968,-0.7171585557299843,8.782213500784929,0.3233333333333333,-0.32666666666666666,-0.5788888888888889,2.875,-5.821036106750393,0.45987048665620095
1589995349.7971401,-3.7545643443869787,-0.6295649528445391,8.500651353818071,0.3233333333333333,-0.32666666666666666,-0.5788888888888889,2.5733685731670217,-5.195649528445391,0.2866842865835108
1589995349.80714,-3.796319514219562,-0.667049495434887,8.626707439605084,0.3233333333333333,-0.32666666666666666,-0.5788888888888889,1.9165392512341093,-3.8817002315320432,0.0717203267659779
1589995349.81714,-4.094021731041154,-0.7971195207263526,9.08826077249386,0.3216727030669875,-0.3283272969330125,-0.5745712501963898,0.32472836198556226,-0.20176564709384537,-0.4188179095036094
1589995349.82714,-4.06734506810795,-0.7748380381988825,8.915781689369316,0.31777777777777777,-0.3322222222222222,-0.5644444444444444,0.7636444144177044,1.0693222072088522,-0.16408446846583646
1589995349.83714,-4.069895095420586,-0.8659160763364688,8.88214686641118,0.31777777777777777,-0.3322222222222222,-0.5644444444444444,1.1001311307242674,1.2002622614485348,0.125
1589995349.84714,-4.1,-0.87472534681356,8.850183102124292,0.31777777777777777,-0.3322222222222222,-0.5644444444444444,0.8397446410310829,0.8704224468926662,0.06135561172316656
1589995349.85714,-4.087281905055487,-0.8345638101109741,8.843042540073982,0.31777777777777777,-0.3322222222222222,-0.5644444444444444,0.4395277820591862,0.22755953298397041,-0.07948809340320592
1589995349.86714,-4.0615433275563255,-0.7408032928942808,8.853826689774698,0.31777777777777777,-0.32705425572886576,-0.5644444444444444,-0.10319811525129985,-0.4974897097053726,-0.1875
1589995349.87714,-4.032219166408429,-0.6066574992252867,8.888146110938953,0.31777777777777777,-0.32,-0.5644444444444444,-0.35182638673690736,-0.6018263867369074,-0.2615868066315463
1589995349.88714,-4.052209069946195,-0.4948455034588778,8.820950038431976,0.31777777777777777,-0.32,-0.5644444444444444,-0.18289777094542659,-0.19803996925441963,-0.24539777094542659
1589995349.89714,-4.085365518239722,-0.4836551823972206,8.85048277359583,0.31777777777777777,-0.32,-0.5644444444444444,-0.19206897799652578,0.028965511001737117,-0.019827555008685577
1589995349.90714,-4.066258784705954,-0.624964861176183,8.937805911470534,0.31777777777777777,-0.32,-0.5644444444444444,-0.43547824448473244,0.07419129779389298,0.31047824448473244
1589995349.91714,-4.05,-0.7149669306537227,8.981208663317153,0.313616622668824,-0.3276287843664153,-0.5644444444444444,-0.5234891708535582,0.007967512560674433,0.3594783417071163
1589995349.92714,-4.042662457180837,-0.7593501712766502,9.007337542819162,0.3111111111111111,-0.3322222222222222,-0.5644444444444444,-0.45414035738023417,-0.10835964261976584,0.26664035738023417
1589995349.93714,-4.070471845823749,-0.7578112616705005,8.888112616705005,0.3111111111111111,-0.3322222222222222,-0.5644444444444444,-0.24705096360156958,0.027359229118744305,0.059550963601569584
1589995349.94714,-4.0757707665117495,-0.75,8.843201544805918,0.3111111111111111,-0.3322222222222222,-0.5644444444444444,-0.3028654186031289,-0.2900193100739674,-0.003211527132290365
1589995349.95714,-4.053701370878103,-0.737402741756206,8.88314931456095,0.3111111111111111,-0.3322222222222222,-0.5644444444444444,-0.5590496480177843,-0.907465728047425,0.08218321600592812
1589995349.96714,-4.041172174960476,-0.7064834751185726,8.888827825039526,0.3142369110057132,-0.33157101391084676,-0.5628815444971433,-0.6435434389821576,-1.2426739064970262,0.10302171949107883
1589995349.97714,-4.05,-0.68,8.866301694601352,0.3377777777777778,-0.32666666666666666,-0.5511111111111111,-0.29109639781461244,-1.0590783868876747,-0.08390360218538753
1589995349.98714,-4.05,-0.6973544586477746,8.832562374865239,0.3377777777777778,-0.32666666666666666,-0.5511111111111111,-0.2345049476359156,-0.7505197905436624,-0.1095049476359156
1589995349.99714,-4.038668082524272,-0.7613319174757281,8.826997876213593,0.3377777777777778,-0.32666666666666666,-0.5511111111111111,-0.1875,-0.5625,-0.027087757888349516
1589995350.00714,-4.03519066555044,-0.7648093344495605,8.923050648807033,0.3377777777777778,-0.32666666666666666,-0.5511111111111111,-0.1875,-0.4327333612390122,-0.06488331938049392
1589995350.01714,-4.043895725055979,-0.7483128248320631,9.011687175167937,0.3170005774792233,-0.3370552668159439,-0.5619325695999415,-0.16315171840013148,-0.16641031040078885,-0.027606873600525897
1589995350.02714,-4.054673418689088,-0.7159797439327346,9.03,0.28444444444444444,-0.3533333333333333,-0.5788888888888889,-0.09579113319319701,-0.05433546722721193,0.06658226638639403
1589995350.03714,-4.050387506435558,-0.7,8.948293804702248,0.28444444444444444,-0.3533333333333333,-0.5788888888888889,-0.09253904238887936,-0.21753904238887936,0.09011712716663806
1589995350.04714,-4.052372258907448,-0.7041240863024824,8.86,0.28444444444444444,-0.3533333333333333,-0.5788888888888889,-0.04767338182845439,-0.14689784243793919,0.1359489212189696
1589995350.0571399,-4.059880621488132,-0.7150596892559339,8.854940310744066,0.28444444444444444,-0.3533333333333333,-0.5788888888888889,-0.09561528924793539,0.0,-0.03236917354876122
1589995350.0671399,-4.055770093395373,-0.7315401867907475,8.861540186790746,0.2998313601654411,-0.3449987539844601,-0.5788888888888889,-0.3221261674421719,-0.18031541860542966,-0.08893691627891406
1589995350.0771399,-4.046173334591432,-0.74,8.863086667295715,0.3111111111111111,-0.3388888888888889,-0.5788888888888889,-0.41820832940177394,-0.13966668239290433,-0.14891665880354782
1589995350.0871398,-4.04,-0.7134712263283691,8.826839032910462,0.3111111111111111,-0.3388888888888889,-0.5788888888888889,-0.3545975822761537,-0.3112072531715389,-0.02169516455230741
1589995350.0971398,-4.04,-0.6813046357615894,8.859854304635762,0.3111111111111111,-0.3388888888888889,-0.5788888888888889,-0.27355132450331127,-0.35960264900662253,0.0625
1589995350.1071398,-4.047169486988009,-0.6807542304820143,8.922262691446043,0.3111111111111111,-0.3388888888888889,-0.5788888888888889,-0.31721394051258933,-0.26769070632494046,0.0625
1589995350.1171398,-4.058988911276119,-0.6984833669141786,8.975450100742536,0.3111111111111111,-0.3388888888888889,-0.5788888888888889,-0.42802104321361645,-0.19381930452425572,0.0625
1589995350.1271398,-4.034270884987934,-0.7528126549638005,8.9943746900724,0.31777777777777777,-0.3322222222222222,-0.5733333333333334,-0.40169303117458427,-0.7675790935237529,-0.125
1589995350.1371398,-4.04,-0.7601301253132832,8.900780751879699,0.31777777777777777,-0.3322222222222222,-0.5733333333333334,-0.37581328320802004,-0.7207832080200501,-0.09415664160401002
1589995350.1471398,-4.04,-0.7415365686597833,8.856926862680433,0.31777777777777777,-0.3322222222222222,-0.5733333333333334,-0.286051777061823,-0.509603554123646,-0.08894822293817702
1589995350.1571398,-4.031868662277452,-0.73,8.888131337722548,0.31777777777777777,-0.3322222222222222,-0.5733333333333334,-0.25,-0.386679139234075,-0.07417913923407499
1589995350.1671398,-4.022956076414713,-0.7211317707558597,8.897043923585287,0.31777777777777777,-0.3305799575473814,-0.5733333333333334,-0.23152452240804097,-0.27554904481608194,-0.01847547759195903
1589995350.1771398,-4.023499390221368,-0.703250304889316,8.886749695110685,0.31777777777777777,-0.32666666666666666,-0.5733333333333334,-0.22812881111644923,-0.12655678332532613,-0.04218559444177538
1589995350.1871397,-4.026095024469821,-0.7220712683523653,8.84780995106036,0.31777777777777777,-0.32666666666666666,-0.5733333333333334,-0.23705457279771613,0.1508908544045677,0.0
1589995350.1971397,-4.05,-0.742622633474002,8.820981067792017,0.31777777777777777,-0.32666666666666666,-0.5733333333333334,-0.125,0.30943416314994776,0.0491743776375392
1589995350.2071397,-4.054548580059222,-0.7409028398815557,8.902742900296111,0.31777777777777777,-0.32666666666666666,-0.5733333333333334,-0.18185725074027703,0.03971412388958445,0.1875
1589995350.2171397,-4.051267300517511,-0.73,8.956198098447466,0.3114708281515358,-0.32909241652291354,-0.5733333333333334,-0.22271031411722228,-0.00792062823444458,0.16021031411722228
1589995350.2271397,-4.0356529309344165,-0.73,8.968264654672083,0.3033333333333333,-0.3322222222222222,-0.5733333333333334,-0.1875,0.0625,0.125
1589995350.2371397,-4.03,-0.7381159119953027,8.91159430801644,0.3033333333333333,-0.3322222222222222,-0.5733333333333334,-0.11141332504403688,0.11322444997064207,0.15036222498532104
1589995350.2471397,-4.023907400566433,-0.75,8.882185198867134,0.3033333333333333,-0.3322222222222222,-0.5733333333333334,-0.038078746459795594,0.11134250708040881,0.11134250708040881
1589995350.2571397,-4.0280316003449546,-0.7459841998275225,8.902047400517432,0.3033333333333333,-0.3322222222222222,-0.5733333333333334,-0.0625,0.1628950043119379,0.08759875107798448
1589995350.2671397,-4.04,-0.7390338648538579,8.919033864853859,0.3033333333333333,-0.3316854804743655,-0.5733333333333334,-0.06853834466338773,0.3125,0.11896165533661227
1589995350.2771397,-4.04,-0.7339009435366253,8.91,0.3033333333333333,-0.32666666666666666,-0.5733333333333334,-0.05185730868827575,0.3125,0.0625
1589995350.2871397,-4.04,-0.7444891809316536,8.865108190683465,0.3033333333333333,-0.32666666666666666,-0.5733333333333334,0.09055738082283514,0.3686147616456703,0.11861476164567028
1589995350.2971396,-4.04,-0.75,8.836395535638793,0.3033333333333333,-0.32666666666666666,-0.5733333333333334,0.09750465037625772,0.38250930075251544,0.10501395112877314
1589995350.3071396,-4.044323154368989,-0.7456768456310109,8.895938926213933,0.3033333333333333,-0.32666666666666666,-0.5733333333333334,0.08951971480618182,0.23144085558145455,0.027019714806181813
1589995350.3171396,-4.05,-0.7374087328561718,8.937773801431485,0.3070762747633074,-0.328106259524349,-0.5770762747633075,0.125,0.18978167859570555,0.04630458035107361
1589995350.3271396,-4.05,-0.73,8.950294386397045,0.31777777777777777,-0.3322222222222222,-0.5877777777777777,0.13713201700369473,0.31433991498152636,0.012132017003694729
1589995350.3371396,-4.05,-0.7264193959032519,8.884935771322764,0.31777777777777777,-0.3322222222222222,-0.5877777777777777,0.23225755120935077,0.12963632681402615,0.0625
1589995350.3471396,-4.048782309467016,-0.7187823094670159,8.841217690532984,0.31777777777777777,-0.3322222222222222,-0.5877777777777777,0.2896683025065499,0.25,0.05488943416884996
1589995350.3571396,-4.043227163561077,-0.7196814906832298,8.866135817805382,0.31777777777777777,-0.3322222222222222,-0.5877777777777777,0.08466045548654244,0.25,0.0
1589995350.3671396,-4.049272777547352,-0.7403636112263238,8.900363611226323,0.3175353702935619,-0.3322222222222222,-0.5877777777777777,-0.004545140329047421,0.2522725701645237,0.0022725701645237104
1589995350.3771396,-4.03282576807925,-0.7471742319207507,8.91282576807925,0.3111111111111111,-0.3322222222222222,-0.5877777777777777,-0.125,0.29483894950469186,0.08016105049530814
1589995350.3871396,-4.042132043877935,-0.7357359122441308,8.900811605098589,0.3111111111111111,-0.3322222222222222,-0.5877777777777777,-0.1383252742370912,0.2233494515258176,0.09834945152581759
1589995350.3971395,-4.05,-0.7292961206790654,8.867184482716262,0.3111111111111111,-0.3322222222222222,-0.5877777777777777,-0.1875,0.125,0.0
1589995350.4071395,-4.046537325225875,-0.7365373252258751,8.9238506990965,0.3111111111111111,-0.3322222222222222,-0.5877777777777777,-0.1442165653234395,0.125,0.021641717338280256
1589995350.4171395,-4.04106586169045,-0.73,8.95106586169045,0.31241383095499453,-0.3322222222222222,-0.5886067813147945,-0.055838364434687156,0.11167672886937431,0.04917672886937431
1589995350.4271395,-4.046996448340959,-0.7330035516590407,8.96,0.3233333333333333,-0.3322222222222222,-0.5955555555555555,0.0,-0.018772197869004578,-0.04372780213099542
1589995350.4371395,-4.044980279314365,-0.7350197206856349,8.890276089598888,0.3233333333333333,-0.3322222222222222,-0.5955555555555555,0.0933802371443455,0.0308802371443455,0.0
1589995350.4471395,-4.040395557718685,-0.7396044422813149,8.853615547984603,0.3233333333333333,-0.3322222222222222,-0.5955555555555555,0.15748611787089067,0.18502776425821865,-0.030013882129109333
1589995350.4571395,-4.040714576113682,-0.7464284746287728,8.900714576113682,0.3233333333333333,-0.3322222222222222,-0.5955555555555555,0.10267796642982982,0.383932201421021,0.004466100710510526
1589995350.4671395,-4.057258924650228,-0.737258924650229,8.941928602798168,0.3178511826337913,-0.3340496057887362,-0.5870277655784901,0.09676344187213752,0.5564731162557249,0.125
1589995350.4771395,-4.05,-0.7260219603528889,8.980109801764444,0.3033333333333333,-0.3388888888888889,-0.5644444444444444,0.1875,0.3998627477944443,0.07527450441111135
1589995350.4871395,-4.0461485270166015,-0.7161485270166014,8.903782324199216,0.3033333333333333,-0.3388888888888889,-0.5644444444444444,0.1393565877075178,0.3652848815612767,0.048143412292482216
1589995350.4971395,-4.048441652373375,-0.71,8.851104130933438,0.3033333333333333,-0.3388888888888889,-0.5644444444444444,0.11526032733359509,0.32914049100039267,0.125
1589995350.5071394,-4.057547937755477,-0.717356186733566,8.882452062244523,0.3033333333333333,-0.3388888888888889,-0.5644444444444444,0.1875,0.39152383291521203,0.09434922194347467
1589995350.5171394,-4.050189645795688,-0.7394310626129366,8.889810354204313,0.3033333333333333,-0.3388888888888889,-0.5644444444444444,0.1875,0.25355585866914615,0.002370572446097438
1589995350.5271394,-4.056974749786099,-0.7369747497860994,8.94,0.3111111111111111,-0.32,-0.6,0.1875,0.3503156276737569,0.0625
1589995350.5371394,-4.047640410958904,-0.7205616438356164,8.909325342465753,0.3111111111111111,-0.32,-0.6,0.1875,0.4375,0.0625
1589995350.5471394,-4.04,-0.6933209289737647,8.819962786921295,0.3111111111111111,-0.32,-0.6,0.14598838782794027,0.47901161217205973,0.041744193913970135
1589995350.5571394,-4.041371974202194,-0.7013719742021944,8.844115922606584,0.3111111111111111,-0.32,-0.6,0.04535032247256889,0.5496377418544267,0.004287419381857777
1589995350.5671394,-4.063610550227158,-0.72,8.907221100454317,0.3111111111111111,-0.322206447361041,-0.595185933030456,-0.22134890837960625,0.36371703054013127,0.07378296945986876
1589995350.5771394,-4.077709589461961,-0.7245808210760781,8.93770958946196,0.3111111111111111,-0.3322222222222222,-0.5733333333333334,-0.36068493413725566,0.30534246706862783,0.11784246706862783
1589995350.5871394,-4.055716683298558,-0.7642833167014425,8.88573346638846,0.3111111111111111,-0.3322222222222222,-0.5733333333333334,-0.25,0.30354145876803046,0.00895854123196952
1589995350.5971394,-4.053953373015872,-0.766046626984127,8.851860119047618,0.3111111111111111,-0.3322222222222222,-0.5733333333333334,-0.22529141865079366,0.3255828373015873,0.03633432539682539
1589995350.6071393,-4.036496497319062,-0.7532847135197321,8.886788216200669,0.3111111111111111,-0.3322222222222222,-0.5733333333333334,-0.20848527025083716,0.3339410810033486,0.1875
1589995350.6171393,-3.995503063620226,-0.7234908091393232,8.917248468189888,0.3056080474908855,-0.3267191586019966,-0.5672188181997493,-0.26719707381320507,0.7407590333848708,0.17030292618679493
1589995350.6271393,-4.027961154560774,-0.6943689236486195,8.92436892364862,0.2911111111111111,-0.31222222222222223,-0.5511111111111111,-0.4921115456077432,2.0934461824309727,0.1474514432009679
1589995350.6371393,-4.066207018518986,-0.72,8.918964907405067,0.2911111111111111,-0.31222222222222223,-0.5511111111111111,-1.0064693287183244,3.8017325231803136,0.12930920138450266
1589995350.6471393,-4.096422964790312,-0.7309486431935411,8.858211482395156,0.2911111111111111,-0.31222222222222223,-0.5511111111111111,-1.454607254989908,4.732892745010092,0.03421450997981611
1589995350.6571393,-4.140516564952049,-0.7605165649520488,8.881033129904099,0.2911111111111111,-0.31222222222222223,-0.5511111111111111,-1.4838573452484742,4.642300566695728,0.1185429380993897
1589995350.6671393,-4.147548789484274,-0.7675487894842734,8.895097578968548,0.2911111111111111,-0.31222222222222223,-0.5511111111111111,-1.2641003286164576,4.026980920126081,0.030640131446583063
1589995350.6771393,-4.080614547433339,-0.77,8.9,0.303226031400528,-0.3320466372412681,-0.5599219622306871,-0.8157922183928896,1.953961091964448,0.06195129693451841
1589995350.6871393,-4.062376114451586,-0.7253134287096551,8.858877600387034,0.3033333333333333,-0.3322222222222222,-0.56,-0.5,0.8015671435482756,0.04414178588706891
1589995350.6971393,-4.021849284766258,-0.695547854298776,8.778492847662587,0.3033333333333333,-0.3322222222222222,-0.56,-0.53467408936735,0.8677186255714496,0.01155802978911665
1589995350.7071393,-4.028721919087647,-0.7161657572629405,8.847219190876467,0.3033333333333333,-0.3322222222222222,-0.56,-0.6635359828933786,1.7697518802536498,0.054511994297792854
1589995350.7171392,-4.126007256665089,-0.7709981858337277,9.001996371667456,0.3041097000928993,-0.3322222222222222,-0.5613309144449703,-1.2437613385392017,3.5062386614607983,-0.0625
1589995350.7271392,-4.092923962770153,-0.7792690093074618,9.018538018614922,0.31054256279469244,-0.3322222222222222,-0.5723586790766156,-1.192068691828364,3.5579313081716357,-0.0625
1589995350.7371392,-4.06,-0.764796780392299,8.928414488234653,0.3111111111111111,-0.3322222222222222,-0.5733333333333334,-0.4425804901925238,1.9375,-0.032520122548130956
1589995350.7471392,-4.0599924406418575,-0.7799811016046456,8.859984881283715,0.3111111111111111,-0.3322222222222222,-0.5733333333333334,-0.0625,1.9377598529361235,0.06252362299419303
1589995350.7571392,-4.05671819778409,-0.73,8.831145465189394,0.3111111111111111,-0.3322222222222222,-0.5733333333333334,-0.0625,2.764318314867414,0.07275563192471976
1589995350.7671392,-4.081809438202247,-0.7274013483146067,8.86779595505618,0.31284354556803995,-0.33395465667915103,-0.5698684644194757,-0.07874157303370787,3.011308988764045,-0.20867415730337077
1589995350.7771392,-4.014894601272144,-0.7260421594911423,8.89,0.31777777777777777,-0.3388888888888889,-0.56,-0.1061182515901803,2.3476285286232454,-0.8138174840981969
1589995350.7871392,-3.983506299734748,-0.7428050397877984,8.884389920424404,0.31777777777777777,-0.3388888888888889,-0.56,-0.05373425066312997,1.5756486240053051,-1.29382874668435
1589995350.7971392,-3.9840095019736688,-0.7668598577067625,8.826425177866547,0.31777777777777777,-0.3388888888888889,-0.56,0.10356294466636726,1.7089370553336327,-2.265097974330489
1589995350.8071392,-3.8254815843472136,-0.7343897029867141,8.868415445519929,0.31777777777777777,-0.3388888888888889,-0.56,0.11737128733392749,1.5724034655004455,-3.1501608908325904
1589995350.8171391,-3.6511662288472113,-0.7244168855763944,8.903250656729183,0.3156511291669212,-0.33790735876080125,-0.5606543534187252,-0.0993073798032867,1.4006926201967134,-3.715468263180402
1589995350.8271391,-3.599840521928235,-0.7499003262051468,8.979740848133382,0.3033333333333333,-0.3322222222222222,-0.5644444444444444,-0.3125,1.1875,-5.6875
1589995350.8371391,-3.5097566027964784,-0.7,8.829513205592956,0.3033333333333333,-0.3322222222222222,-0.5644444444444444,-0.2964946918694977,1.2195106162610048,-5.735515924391507
1589995350.8471391,-3.48,-0.7,8.77,0.3033333333333333,-0.3322222222222222,-0.5644444444444444,-0.25,1.3125,-5.875
1589995350.857139,-3.4314509750443203,-0.7,8.797742299974674,0.3033333333333333,-0.3322222222222222,-0.5644444444444444,-0.7268207808147124,1.182457968868715,-4.1411062515828645
1589995350.867139,-3.4177968307211843,-0.6886085246660112,8.82,0.3033333333333333,-0.3321578020678709,-0.5644444444444444,-1.5101461743103348,0.9324269128448326,-1.156336750332543
1589995350.877139,-3.1971664820223586,-0.5684364991439218,8.821563500856078,0.3033333333333333,-0.32666666666666666,-0.5644444444444444,-2.580209487360258,0.4706843589485346,1.832243931916608
1589995350.887139,-3.019764642731796,-0.56,8.829962838326074,0.3033333333333333,-0.32666666666666666,-0.5644444444444444,-3.68974518446642,0.3125774201540145,3.62724518446642
1589995350.897139,-2.8552381443937485,-0.56,8.803984970167434,0.3033333333333333,-0.32666666666666666,-0.5644444444444444,-5.25924138571753,0.3666979788178459,5.19674138571753
1589995350.907139,-2.60594601925946,-0.670527600705276,9.09881595008816,0.3033333333333333,-0.32666666666666666,-0.5644444444444444,-3.0080445544554455,-1.3567408110674082,7.150659500881595
1589995350.917139,-2.2763812200363693,-0.9726979666060506,9.041712679781783,0.3069736044525265,-0.32767785308866476,-0.5660623427196414,1.045772028434452,-0.26659365184327993,6.959580095883617
1589995350.927139,-2.344233309123415,-0.8653778423375608,8.6,0.3233333333333333,-0.3322222222222222,-0.5733333333333334,2.170763031454271,1.3246515168445165,2.7122157662439244
1589995350.937139,-2.330173417509358,-0.9028708866417119,8.6,0.3233333333333333,-0.3322222222222222,-0.5733333333333334,1.6728085367897647,0.592365495279066,-1.0370886641711827
1589995350.947139,-2.3420745592323216,-0.9211701763070713,8.611037279616161,0.3233333333333333,-0.3322222222222222,-0.5733333333333334,1.1745340047979895,0.35222858992422224,-4.41223677696965
1589995350.957139,-2.4213225100328346,-0.89,8.655025538124772,0.3233333333333333,-0.3322222222222222,-0.5733333333333334,0.6627029368843488,1.3502029368843487,-6.844228839839475
1589995350.967139,-2.4853253751302877,-0.89,8.854423882475565,0.3233333333333333,-0.3317213929695984,-0.5693266993123431,-0.19929103817184213,0.4882089618281579,-10.599850783692895
1589995350.977139,-2.625550551633267,-0.89,8.98640051918425,0.3233333333333333,-0.32713887086165794,-0.5326665224488191,0.26468932525713385,0.9521893252571338,-13.22907284312376
1589995350.987139,-2.690856340664483,-0.8818093901107471,8.939143659335517,0.3233333333333333,-0.32666666666666666,-0.5288888888888889,0.8523826236156606,1.1815434409608485,-17.150551785992825
1589995350.997139,-2.7520633059788984,-0.89,8.9020633059789,0.3233333333333333,-0.32666666666666666,-0.5288888888888889,0.7715416178194607,1.5128956623681125,-20.39412368112544
1589995351.007139,-2.8005419150306294,-0.89,8.95054191503063,0.3233333333333333,-0.32666666666666666,-0.5288888888888889,0.8581105625546951,1.815886968941433,-22.73148518897677
1589995351.017139,-2.777591357866393,-0.8912043210668035,8.875784876266188,0.32373477368893444,-0.3270012002963343,-0.5302270234075593,1.140054013335043,2.3200270066675213,-26.70699268335684
1589995351.027139,-2.7507013719707656,-0.9046493140146172,8.828727400948841,0.32821643800487244,-0.33073592055961587,-0.5451659044606858,1.3081164251827158,2.404058212591358,-29.01785084626234
1589995351.037139,-2.759411154245301,-0.9002944228773494,8.81,0.33,-0.3322222222222222,-0.5511111111111111,1.375,2.5588197140331324,-33.21313227889457
1589995351.047139,-2.783494807714253,-0.9078316025714177,8.716020769142988,0.33,-0.3322222222222222,-0.5511111111111111,1.375,2.8072375803568033,-35.955665867853476
1589995351.057139,-2.8313014780886854,-0.9304338260295618,8.763470608236494,0.33,-0.3322222222222222,-0.5511111111111111,1.307077174630478,2.9375,-40.39370487229234
1589995351.067139,-2.8564687881272874,-0.9388229293757625,8.8305834350061,0.33,-0.3322222222222222,-0.5511111111111111,1.2022133828029682,2.9375,-43.17259535572134
1589995351.077139,-2.9151264330433366,-0.9748735669566632,8.93,0.34444444444444444,-0.3322222222222222,-0.5722222222222222,1.0288793804374339,3.375,-47.424856695666314
1589995351.087139,-2.894664769493455,-0.9953352305065453,8.93,0.34444444444444444,-0.3322222222222222,-0.5722222222222222,1.4125355719977235,3.375,-49.47102305065452
1589995351.097139,-2.8813079874433205,-1.0122429460466653,8.888971784186662,0.34444444444444444,-0.3322222222222222,-0.5722222222222222,1.7640184127916583,3.688082857562462,-53.009340636645675
1589995351.1071389,-3.0276037670038365,-1.0276425017898776,8.950570007159511,0.34444444444444444,-0.3322222222222222,-0.5722222222222222,1.8602656361867347,4.121195362840306,-54.78991426945459
1589995351.1171389,-3.058747106623984,-1.0474942132479685,8.890023147008128,0.34444444444444444,-0.3322222222222222,-0.5722222222222222,2.0390082491997044,4.296838832799803,-57.139937823196256
1589995351.1271389,-3.0343528183716075,-1.0927453027139875,8.854352818371607,0.35489329621897475,-0.3274727441428903,-0.5855207608443516,1.8487734864300627,4.3659316283924845,-59.361038622129435
1589995351.1371388,-3.008932411848955,-1.13,8.758256530338508,0.3566666666666667,-0.32666666666666666,-0.5877777777777777,1.868327574055971,4.5625,-62.12187975992907
1589995351.1471388,-3.0016305951795377,-1.1332611903590752,8.669240039350713,0.3566666666666667,-0.32666666666666666,-0.5877777777777777,1.8091029267092966,4.5625,-64.30979463846532
1589995351.1571388,-3.0274194540088537,-1.1848389080177077,8.815376906050172,0.3566666666666667,-0.32666666666666666,-0.5877777777777777,1.7553761374815544,4.5625,-66.24395905066405
1589995351.1671388,-3.055123801916933,-1.2234984025559106,8.838374600638977,0.3566666666666667,-0.32666666666666666,-0.5877777777777777,1.8546825079872205,4.824206269968051,-67.95539636581469
1589995351.1771388,-3.14,-1.285604793533931,8.88439520646607,0.3955555555555556,-0.3055555555555556,-0.5877777777777777,2.027470040412932,4.8125,-70.09476032330346
1589995351.1871388,-3.14,-1.260430937900128,8.909569062099871,0.3955555555555556,-0.3055555555555556,-0.5877777777777777,2.1848066381241997,4.8125,-71.3534531049936
1589995351.1971388,-3.2295384021613276,-1.3990768043226554,8.830923195677345,0.3955555555555556,-0.3055555555555556,-0.5877777777777777,2.386539945966808,5.074039945966808,-72.99808471632575
1589995351.2071388,-3.2214444230027017,-1.3828888460054032,8.847111153994597,0.3955555555555556,-0.3055555555555556,-0.5877777777777777,2.5888894249324585,5.276389424932458,-74.0604194808954
1589995351.2171388,-3.227931955250679,-1.4275917315040743,8.881727821002716,0.3955555555555556,-0.3055555555555556,-0.5877777777777777,2.5754252796832557,5.4116494406334885,-75.39021856728512
1589995351.2271388,-3.14,-1.493200643051572,8.823598713896857,0.4088888888888889,-0.2733333333333333,-0.6,2.6608279745702332,5.763336012714883,-77.1133561080765
1589995351.2371387,-3.14,-1.5161877272146003,8.777624545570799,0.4088888888888889,-0.2733333333333333,-0.6,2.4692689398783316,5.859115530060834,-77.92748200551709
1589995351.2471387,-3.1898456679470764,-1.5503086641058472,8.660154332052924,0.4088888888888889,-0.2733333333333333,-0.6,2.189429150661545,5.68364169867691,-79.20100405463081
1589995351.2571387,-3.182685104566795,-1.5646297908664106,8.667314895433206,0.4088888888888889,-0.2733333333333333,-0.6,2.278936192915066,5.504627614169868,-79.82755335040547
1589995351.2671387,-3.1719239063462723,-1.6588370301910043,8.823445779420824,0.4088888888888889,-0.2733333333333333,-0.6,1.6058418052988293,4.8317929759704255,-81.02153612138017
1589995351.2771387,-3.17,-1.7101618013603144,8.905242702040471,0.4340237233558175,-0.2691441942555119,-0.6067026225245143,1.86165033162942,4.923139073127455,-81.95691721938236
1589995351.2871387,-3.2292156339625158,-1.7547061962249049,8.872156339625159,0.44222222222222224,-0.2677777777777778,-0.6088888888888889,2.9375,6.0,-82.29412058960848
1589995351.2971387,-3.220612809207085,-1.8112256184141693,8.7807353710485,0.44222222222222224,-0.2677777777777778,-0.6088888888888889,2.934435953964577,5.996169942455721,-82.81556404603542
1589995351.3071387,-3.2691192914369154,-1.91,8.838678937155374,0.44222222222222224,-0.2677777777777778,-0.6088888888888889,2.69850885703856,5.7012610712982,-83.06525221425964
1589995351.3171387,-3.2530025552844437,-1.91,8.814503832926667,0.44222222222222224,-0.2677777777777778,-0.6088888888888889,2.8999680589444563,5.95308507368057,-83.11561701473612
1589995351.3271387,-3.2108057953980382,-1.9432231815921521,8.795165227611772,0.4955555555555556,-0.22666666666666666,-0.6233333333333333,2.557463778762262,5.927427557524524,-83.43246377876227
1589995351.3371387,-3.218867646072315,-1.9825477963372913,8.738867646072315,0.4955555555555556,-0.22666666666666666,-0.6233333333333333,2.4964613939759843,5.8125,-83.37323069698799
1589995351.3471386,-3.1813523847856713,-2.06695713423224,8.70135238478567,0.4955555555555556,-0.22666666666666666,-0.6233333333333333,2.3792262024552224,5.8125,-83.31461310122761
1589995351.3571386,-3.171766083538684,-2.07,8.683532167077368,0.4955555555555556,-0.22666666666666666,-0.6233333333333333,2.375,5.863961977883225,-83.3125
1589995351.3671386,-3.1623882406771906,-2.0928352779684283,8.748505833905284,0.4955555555555556,-0.22666666666666666,-0.6233333333333333,2.4701469915351177,5.827426504232441,-83.02705902539465
1589995351.3771386,-3.1010603119665117,-2.114734922008372,8.806837305020931,0.5086532640074418,-0.208657317545323,-0.633975221450491,2.453953368723837,5.352033687238372,-82.75331347489535
1589995351.3871386,-3.0910596121963527,-2.1587086426872344,8.864238448785411,0.5133333333333333,-0.20222222222222225,-0.6377777777777778,2.2992548475455923,5.463990304908815,-82.58381613565919
1589995351.3971386,-3.081264212827988,-2.2149810495626823,8.825056851311952,0.5133333333333333,-0.20222222222222225,-0.6377777777777778,2.6949275692419823,5.882664449708455,-82.34386844023324
1589995351.4071386,-3.081767331151443,-2.2594183278786075,8.791767331151442,0.5133333333333333,-0.20222222222222225,-0.6377777777777778,2.926454180303481,6.073545819696519,-82.13968127045523
1589995351.4171386,-3.0758222683511685,-2.3083554632976626,8.792911134175585,0.5133333333333333,-0.20222222222222225,-0.6377777777777778,2.4319458859740166,5.726251297376615,-82.0181945885974
1589995351.4271386,-3.076878598604301,-2.347514394417204,8.817514394417204,0.5400834390167262,-0.17547211653882933,-0.6576492848568696,2.2929912412768814,5.476517517446237,-81.82803503489248
1589995351.4371386,-3.108808074335149,-2.3843703941044536,8.823245754565844,0.5522222222222222,-0.16333333333333333,-0.6666666666666666,2.370033643063121,5.68501682153156,-81.22765139378404
1589995351.4471385,-3.0836100208266584,-2.4767632569689204,8.680456784684397,0.5522222222222222,-0.16333333333333333,-0.6666666666666666,2.2650417534444087,5.632520876722205,-80.75518789049984
1589995351.4571385,-3.0710223354819366,-2.49,8.704888322590318,0.5522222222222222,-0.16333333333333333,-0.6666666666666666,2.25,5.681110403237895,-80.07028556438316
1589995351.4671385,-3.0858920961477905,-2.5456223365172668,8.765622336517266,0.5522222222222222,-0.16333333333333333,-0.6666666666666666,2.398988401385536,5.588174399076309,-79.25505799307233
1589995351.4771385,-3.023868355665986,-2.6293187061851095,8.772725175259561,0.5733333333333334,-0.1111111111111111,-0.6733333333333333,2.5909353092554794,5.595193395598545,-78.00288679119708
1589995351.4871385,-2.940123790930872,-2.620013754547875,8.809944981808501,0.5733333333333334,-0.1111111111111111,-0.6733333333333333,2.125687727393735,5.188101761469518,-77.18870352293904
1589995351.4971385,-2.967176630905001,-2.638117753936667,8.674116845474996,0.5733333333333334,-0.1111111111111111,-0.6733333333333333,2.4080899052604257,5.810297791572936,-76.16837634106247
1589995351.5071385,-2.917075883429537,-2.6664620582852314,8.686462058285231,0.5733333333333334,-0.1111111111111111,-0.6733333333333333,2.547758576188465,5.985258576188465,-75.12530210239805
1589995351.5171385,-2.9021979415432084,-2.72461440919754,8.752416467654331,0.5733333333333334,-0.1111111111111111,-0.6733333333333333,2.1723970771604284,5.707422807870321,-74.51237134645054
1589995351.5271385,-2.9074187402982266,-2.725162519403547,8.777418740298225,0.5486041990059113,-0.0888548902164312,-0.7013596855710784,2.0161328731360837,5.578632873136083,-73.818594477633
1589995351.5371385,-2.829275990912334,-2.7803620045438326,8.757646970465085,0.54,-0.0811111111111111,-0.7111111111111111,2.185237471601044,5.503393792598434,-73.05344988640418
1589995351.5471385,-2.797774836177923,-2.7961125819110384,8.65526821757825,0.54,-0.0811111111111111,-0.7111111111111111,2.0867963630560094,5.651055455415986,-72.65968545222404
1589995351.5571384,-2.763408249158249,-2.835455667789001,8.771822671156004,0.54,-0.0811111111111111,-0.7111111111111111,1.176108305274972,5.133505190796857,-72.5625
1589995351.5671384,-2.7523260429323613,-2.84,8.67489064398542,0.54,-0.0811111111111111,-0.7111111111111111,1.78193347509113,5.446197853381936,-72.17880214661807
1589995351.5771384,-2.7404720640680726,-2.8495279359319277,8.773391103046986,0.5516452550279115,-0.05570328195930398,-0.7291083234269745,1.7022520021272602,5.502950400425452,-71.64565280297816
1589995351.5871384,-2.67303411725737,-2.821300335967444,8.674767898547296,0.5522222222222222,-0.054444444444444434,-0.73,2.2256187006104198,5.7391638669379645,-70.90750839918611
1589995351.5971384,-2.67,-2.880186562187396,8.683374791597199,0.5522222222222222,-0.054444444444444434,-0.73,1.9992226575525174,5.8753886712237415,-70.58242643381126
1589995351.6071384,-2.5529409090909088,-2.859831818181818,8.614747727272727,0.5522222222222222,-0.054444444444444434,-0.73,2.1885511363636363,6.094275568181819,-69.65362215909092
1589995351.6171384,-2.537237518037518,-2.9296126984126984,8.63618759018759,0.5522222222222222,-0.054444444444444434,-0.73,1.6167171717171718,5.944062049062049,-69.27382756132756
1589995351.6271384,-2.5920079185520364,-3.046679864253394,8.858031674208146,0.5358493589743589,-0.06696486928104575,-0.7059222599296129,0.7790759332579186,5.441600678733032,-68.86245050904978
1589995351.6371384,-2.524867939567407,-2.9507170030071372,8.767056628383031,0.5333333333333333,-0.06888888888888889,-0.7022222222222222,1.9681601210101083,5.801886707003369,-68.0014152566936
1589995351.6471384,-2.39935003202643,-2.8340727505646766,8.380363752823383,0.5333333333333333,-0.06888888888888889,-0.7022222222222222,1.9444320365438426,6.412045308970772,-66.90392070930115
1589995351.6571383,-2.3341052236940767,-2.920968507873032,8.787305673581605,0.5333333333333333,-0.06888888888888889,-0.7022222222222222,-0.8838181079730068,6.213157648087978,-66.52052611847039
1589995351.6671383,-2.2647901994686457,-2.905546324800742,8.609916923206681,0.5333333333333333,-0.06888888888888889,-0.7022222222222222,0.2505192299582508,5.881829060009277,-65.93960327668367
1589995351.6771383,-2.2642241564121255,-2.942672469236376,8.659569094884878,0.5554597988633061,-0.05861588703568722,-0.6919492203690206,-0.015356354242593184,6.5681583093941605,-65.32354462333319
1589995351.6871383,-2.245135072193759,-2.935135072193759,8.741441546343735,0.5644444444444444,-0.054444444444444434,-0.6877777777777778,-0.042792268281322765,6.615990335351653,-64.65878260363297
1589995351.6971383,-2.257401563404748,-2.9822046902142447,8.680393746381007,0.5644444444444444,-0.054444444444444434,-0.6877777777777778,0.1631396569195136,6.181840800521135,-63.855561486682106
1589995351.7071383,-2.251383114128129,-2.998616885871871,8.695850657615612,0.5644444444444444,-0.054444444444444434,-0.6877777777777778,0.34906661009758166,6.9866885871871025,-62.72674480271532
1589995351.7171383,-2.176883398528547,-2.9561300391171286,8.780428261618598,0.5644444444444444,-0.054444444444444434,-0.6877777777777778,1.4260511461521312,6.805114868562395,-61.73993823344616
1589995351.7271383,-2.141904990403071,-3.053330134357006,8.631909788867562,0.5491538707613564,-0.05354499893367456,-0.7354483898485819,2.520813339731286,7.446407149712092,-60.83037428023032
1589995351.7371383,-2.2565777830356084,-3.1715968295279784,9.089619070152608,0.5455555555555556,-0.05333333333333334,-0.7466666666666667,-0.17490092274932012,3.357420442446469,-61.36406749083166
1589995351.7471383,-2.087930601215167,-3.0279414447752973,8.823867708566413,0.5455555555555556,-0.05333333333333334,-0.7466666666666667,0.9381099502573194,4.563245494758946,-60.37459336649512
1589995351.7571383,-2.0606545789797175,-2.9990857406269207,8.17738168408113,0.5455555555555556,-0.05333333333333334,-0.7466666666666667,2.1973052397049786,4.9489282421634915,-59.4003246004917
1589995351.7671382,-2.1617689731036807,-3.167264384674846,8.548467880998157,0.5455555555555556,-0.05333333333333334,-0.7466666666666667,-0.7526584147622537,2.6322195905099797,-59.74145120210889
1589995351.7771382,-2.173359668684294,-3.279920993947117,8.52375469894871,0.5215195214328697,-0.07552044175427419,-0.650522530175923,1.307068333864288,4.194048661994266,-58.169464797706276
1589995351.7871382,-2.2037997271688234,-3.29,8.760677653651882,0.5166666666666667,-0.08,-0.6311111111111111,1.2395061387014712,4.307253069350735,-57.00975647974044
1589995351.7971382,-2.1967083001433805,-3.2977638999522063,8.682610801338217,0.5166666666666667,-0.08,-0.6311111111111111,1.6028656205193563,4.222048749402581,-55.31484188306516
1589995351.8071382,-2.135104973616257,-3.245104973616257,8.667052879757493,0.5166666666666667,-0.08,-0.6311111111111111,1.5674329179297182,4.053946334343775,-53.712164589648594
1589995351.8171382,-2.12,-3.269668336570903,8.653554442286065,0.5166666666666667,-0.08,-0.6311111111111111,1.5413211839280236,4.082642367856048,-52.25932803394336
1589995351.8271382,-2.0725642703561746,-3.2583761802374496,8.719059549406376,0.5184235455423639,-0.030807391480477397,-0.608271685727047,1.2660266897260914,3.6308778162101523,-50.45219454052538
1589995351.8371382,-1.8230701965117955,-2.987684860423774,8.604611540863884,0.5188888888888888,-0.017777777777777778,-0.6022222222222222,1.6105889348003652,3.6057722337000913,-48.961505429298995
1589995351.8471382,-1.7728502454333306,-2.9685990182666773,8.46560392693329,0.5188888888888888,-0.017777777777777778,-0.6022222222222222,2.2684175585418846,3.937801762291784,-47.632850848957915
1589995351.8571382,-1.8766218809980806,-3.2014454451498597,8.731663959840544,0.5188888888888888,-0.017777777777777778,-0.6022222222222222,0.9109238889709139,2.473423888970914,-46.93119740144692
1589995351.8671381,-1.8701535900104058,-3.235076795005203,8.74776878251821,0.5188888888888888,-0.017777777777777778,-0.6022222222222222,1.0754851716961498,2.7778902185223724,-45.8490296566077
1589995351.8771381,-1.8199779344491687,-3.262017652440665,8.778026478660998,0.5304508189369068,0.035584976289997544,-0.5906602921742042,1.6001930735697756,3.250137909692697,-44.19928286959798
1589995351.8871381,-1.8608572691117984,-3.328122593270627,8.775469351682343,0.5333333333333333,0.048888888888888885,-0.5877777777777777,0.8701510321318098,2.5859675841171645,-43.148467584117164
1589995351.897138,-1.88,-3.35,8.570429041154009,0.5333333333333333,0.048888888888888885,-0.5877777777777777,1.6658971282350445,2.936159246393721,-41.62768150721256
1589995351.907138,-1.8567073855658522,-3.3189431807544696,8.556585228868295,0.5333333333333333,0.048888888888888885,-0.5877777777777777,1.4176846391463072,2.6397371992885894,-40.57063207900403
1589995351.917138,-1.9153507098572948,-3.416937525221028,8.706642393337981,0.5333333333333333,0.048888888888888885,-0.5877777777777777,1.3242621702923805,2.388606744561429,-39.89229589309953
1589995351.927138,-1.9342641901545654,-3.457830237693207,8.735660475386414,0.5411970530083272,0.07891400037522911,-0.5820587089232367,1.375,2.2320755942330175,-38.75825594233017
1589995351.937138,-1.840099172334974,-3.342977566406754,8.711414403952146,0.5455555555555556,0.09555555555555556,-0.5788888888888889,1.803040148205497,2.4728600988036646,-37.34940966653763
1589995351.947138,-1.8576213592233008,-3.367026699029126,8.765279126213592,0.5455555555555556,0.09555555555555556,-0.5788888888888889,1.4377275485436893,1.9193719660194175,-36.01858313106796
1589995351.957138,-1.8590703469015144,-3.4131783911502525,8.612638169906562,0.5455555555555556,0.09555555555555556,-0.5788888888888889,1.4888505531092258,1.6279051659327677,-34.53635350660509
1589995351.967138,-1.8632932898575596,-3.474056547108289,8.646466449287798,0.5455555555555556,0.09555555555555556,-0.5788888888888889,1.7602915308048739,1.8694788270121847,-32.72614821091471
1589995351.977138,-1.8706568827173324,-3.5246715586413337,8.701970648151997,0.5554177349094823,0.11527991426340906,-0.5887510682428156,1.7249082754749927,1.7080275849166424,-31.05337172078327
1589995351.987138,-1.7855421136726775,-3.4369276420908466,8.66379517613939,0.5666666666666667,0.13777777777777778,-0.6,1.857680894772883,1.6852411930305107,-29.179216122650843
1589995351.997138,-1.8089791338497725,-3.490366614159636,8.680693740154931,0.5666666666666667,0.13777777777777778,-0.6,1.7413282480633536,1.5301043307511382,-27.786484744190062
1589995352.007138,-1.812379831175012,-3.477854620143777,8.669284873381258,0.5666666666666667,0.13777777777777778,-0.6,1.4955304586328682,1.2455304586328682,-26.358587155273902
1589995352.017138,-1.707798141908342,-3.346272909646885,8.781014938745301,0.5666666666666667,0.13777777777777778,-0.6,1.6896144557193775,1.5836798589875933,-24.86654217712249
1589995352.027138,-1.5915799753289475,-3.2077456825657897,8.351214021381578,0.5628238075657894,0.1562235014619883,-0.5915457099780701,2.5667146381578947,2.739643297697368,-22.82803505345395
1589995352.037138,-1.706118621892717,-3.3993022241604884,8.77034452682076,0.5611111111111111,0.16444444444444445,-0.5877777777777777,0.27551242913214136,-0.37249236807675556,-22.15547317924117
1589995352.047138,-1.75,-3.501768667464552,8.528884922003368,0.5611111111111111,0.16444444444444445,-0.5877777777777777,-1.436138355275169,-0.1498316327565572,-20.735120798425868
1589995352.057138,-1.7326096210124071,-3.5084064140082716,8.559839649793213,0.5611111111111111,0.16444444444444445,-0.5877777777777777,0.41744715456986015,1.095989430913972,-18.415841838585628
1589995352.067138,-1.724058957665488,-3.5121768729964638,8.745646254007072,0.5611111111111111,0.16444444444444445,-0.5877777777777777,1.2117345252652103,0.9808672626326052,-16.52607695231171
1589995352.077138,-1.721551401869159,-3.53,8.680429906542058,0.5665088265835929,0.1660872274143302,-0.5877777777777777,0.15221962616822426,0.35210280373831776,-14.794158878504673
1589995352.087138,-1.6670693997071742,-3.5357326500732063,8.529871449487555,0.5866666666666667,0.17222222222222222,-0.5877777777777777,0.6858931185944364,0.24919655929721818,-11.33515373352855
1589995352.097138,-1.672542519458057,-3.573813779187086,8.556356298645143,0.5866666666666667,0.17222222222222222,-0.5877777777777777,0.699949553185356,0.37950417987892765,-8.86042447391179
1589995352.107138,-1.697993450202273,-3.5960032748988633,8.643963976112502,0.5866666666666667,0.17222222222222222,-0.5877777777777777,0.6752660855326527,0.4001842130610672,-6.788236852244269
1589995352.117138,-1.7067820895522388,-3.577128358208955,8.65529552238806,0.5866666666666667,0.17222222222222222,-0.5877777777777777,0.1875,0.0021641791044776093,-4.592798507462686
1589995352.127138,-1.722729834656997,-3.5803064462093293,8.566518140433162,0.5938223553549805,0.1642246878058714,-0.5924079292819808,0.09279235559584574,-0.33809219990934714,-1.9127773781605344
1589995352.137138,-1.7369987862738607,-3.6184993931369305,8.656002427452279,0.6055555555555555,0.1511111111111111,-0.6,0.009378792894185153,-0.6395808047372099,0.5688031005185921
1589995352.1471379,-1.7,-3.6,8.660571344857896,0.6055555555555555,0.1511111111111111,-0.6,0.043638294755347196,-0.5353794315851157,3.001117052446528
1589995352.1571379,-1.6745034226011768,-3.545364477002522,8.64648973219647,0.6055555555555555,0.1511111111111111,-0.6,-0.26738321124054276,-0.5682944037468476,4.63162003122373
1589995352.1671379,-1.6569609567358423,-3.503921913471685,8.623626450932115,0.6055555555555555,0.1511111111111111,-0.6,-0.2879880408019697,-0.5189940204009849,6.501231093914878
1589995352.1771379,-1.7394727772907284,-3.615420055019801,8.698154720517548,0.6372743701106106,0.12005310519261968,-0.5927311049977998,-0.22302291484023098,-0.7467048580670517,7.807557287100577
1589995352.1871378,-1.7135962769051774,-3.5935962769051777,8.740394415357766,0.6588888888888889,0.09888888888888887,-0.5877777777777777,-0.4165023269342641,-0.7924883653286794,8.685527923211168
1589995352.1971378,-1.703720920204394,-3.5955813803065912,8.695930230051097,0.6588888888888889,0.09888888888888887,-0.5877777777777777,-0.10392455962570879,-0.6875,9.271075440374291
1589995352.2071378,-1.730496450673462,-3.625248225336731,8.574042591918456,0.6588888888888889,0.09888888888888887,-0.5877777777777777,0.09219859164543137,-0.49069154987258823,9.631205633418274
1589995352.2171378,-1.7684068528261163,-3.6548559962228517,8.587830837717524,0.6588888888888889,0.09888888888888887,-0.5877777777777777,-0.15942853770403345,-0.5566213914744368,9.639035731147983
1589995352.2271378,-1.8169209627717167,-3.6892233697010077,8.804604813858584,0.6963505084996715,0.06313784551604155,-0.5766590322311984,-0.5143900433080703,-0.9326460606312984,9.524097922045474
1589995352.2371378,-1.7753188228580745,-3.580637645716149,8.74115529469308,0.9022222222222224,-0.13333333333333333,-0.5155555555555555,-0.31611029591587186,-0.6947205918317437,10.286477948968779
1589995352.2471378,-1.7174649309841767,-3.474122245913291,8.761615232110126,0.9022222222222224,-0.13333333333333333,-0.5155555555555555,-0.39049349119066323,-0.9270541091534807,10.885621235925635
1589995352.2571378,-1.652339719664925,-3.3868076635979096,8.535886760111692,0.9022222222222224,-0.13333333333333333,-0.5155555555555555,-0.05584929916231235,-0.8727830997207708,11.928632398883083
1589995352.2671378,-1.6876101113793593,-3.489419975249031,8.547679900996124,0.9022222222222224,-0.13333333333333333,-0.5155555555555555,-0.6032490718386724,-1.0846871132661136,12.540749071838672
1589995352.2771378,-1.6655858107427188,-3.544775168799758,8.61878403708556,1.0926943688624635,-0.12125114492704939,-0.4302695197464924,-0.6202106217877659,-1.0700997682152575,13.497189609996976
1589995352.2871377,-1.7358511584729044,-3.64,8.724383243724132,1.497777777777778,-0.09555555555555556,-0.2488888888888889,-0.18896501373148183,-0.9054534290024369,15.123406858004873
1589995352.2971377,-1.7741422479959066,-3.598577520040935,8.79514651202456,1.497777777777778,-0.09555555555555556,-0.2488888888888889,-0.7669985502302575,-1.3491109500255842,16.73561529933481
1589995352.3071377,-1.7192565947242207,-3.45192206235012,8.753925659472422,1.497777777777778,-0.09555555555555556,-0.2488888888888889,-0.5893585131894484,-1.4833408273381294,18.143075539568347
1589995352.3171377,-1.5922432472914274,-3.233675670278097,8.6053242797943,1.497777777777778,-0.09555555555555556,-0.2488888888888889,-0.42736469619052375,-1.5179052873333667,19.72314206899995
1589995352.3271377,-1.6224657962629976,-3.249890548041592,8.574548510671566,1.3423708510324102,-0.04181412277730001,-0.34639911743500207,-0.01472715190368229,-1.2648981705886952,20.390924282698773
1589995352.3371377,-1.6084854288950674,-3.313802286067346,8.840526001441665,0.8744444444444445,0.12,-0.64,-0.4146071465348574,-1.7405339305941716,20.0625
1589995352.3471377,-1.5401948624411006,-3.2009743122055023,8.648635962912296,0.8744444444444445,0.12,-0.64,0.15807683538531692,-1.1911536707706338,19.41903784769722
1589995352.3571377,-1.541601115181678,-3.173202230363356,8.60398884818322,0.8744444444444445,0.12,-0.64,-0.26378136448468925,-1.2537743945992028,17.481128027003987
1589995352.3671377,-1.531369206598586,-3.19,8.715623330714847,0.8744444444444445,0.12,-0.64,-0.6746636881382561,-1.524831844069128,15.543628485860173
1589995352.3771377,-1.585027571190227,-3.2775321663885983,8.969177388796199,0.7841334791228748,0.13667279359782825,-0.6487995299544094,-0.458180160054294,-1.5989487600033934,13.332950400135735
1589995352.3871377,-1.536180009791543,-3.1912442990028085,8.762789301450695,0.6577777777777778,0.16,-0.6611111111111111,-0.561696384859182,-1.2191518075704089,10.398602772552758
1589995352.3971376,-1.385211855816405,-3.0844491748773466,8.654194947897661,0.6577777777777778,0.16,-0.6611111111111111,-0.31938531403316717,-0.8135592790820257,7.917107610590763
1589995352.4071376,-1.484194414908501,-3.2359807487828083,8.84553416531423,0.6577777777777778,0.16,-0.6611111111111111,0.7388354132855783,-0.12026589344675132,5.221841946947227
1589995352.4171376,-1.643148221815578,-3.2883332007319597,8.829629246558994,0.6577777777777778,0.16,-0.6611111111111111,-0.04166998170101044,-0.4259288726231203,1.8356422547537594
1589995352.4271376,-1.6800116131049423,-3.233325591263372,8.68332559126337,0.6422041573923121,0.16444960582441878,-0.6681563203331075,-0.6451317082430712,-0.8951317082430712,-1.0425134555687072
1589995352.4371376,-1.6616318124207858,-3.1432636248415715,8.731389100126743,0.6111111111111112,0.17333333333333334,-0.6822222222222222,0.27473859315589355,0.16861929657794678,-3.579105275665399
1589995352.4471376,-1.6323553481235216,-3.0667355028450864,8.826404961319609,0.6111111111111112,0.17333333333333334,-0.6822222222222222,0.14953487628668244,0.027375967009781982,-6.053976727830701
1589995352.4571376,-1.6768468282193367,-3.1422628401290216,8.80220453229675,0.6111111111111112,0.17333333333333334,-0.6822222222222222,0.7790143495161691,0.2552001488710611,-7.471714498387231
1589995352.4671376,-1.5333473841656184,-3.073357922289832,8.439841928136792,0.6111111111111112,0.17333333333333334,-0.6822222222222222,1.6880927694870314,1.6047374817282525,-8.729276438793894
1589995352.4771376,-1.5731245375005443,-3.1378970965916513,8.219940364776042,0.6093876869948781,0.17174248030296435,-0.6839456463384552,2.3725297087885777,2.210244090889305,-9.138842336656074
1589995352.4871376,-1.6795071486436186,-3.1749285135638123,8.51052481772601,0.5966666666666667,0.16,-0.6966666666666667,-0.280803209773827,-0.6588835307512098,-10.060513049285136
1589995352.4971375,-1.7759439930272445,-3.2216658700480783,8.655219726150644,0.5966666666666667,0.16,-0.6966666666666667,0.24861177495993478,-0.19027645008013044,-8.805558874799674
1589995352.5071375,-1.809905621572212,-3.2976414533820844,8.880660191956125,0.5966666666666667,0.16,-0.6966666666666667,-1.475237088665448,-1.3767695955210237,-7.7700468464351005
1589995352.5171375,-1.7789940545070029,-3.2984613542955192,8.802425681337535,0.5966666666666667,0.16,-0.6966666666666667,-1.4571046646183312,-1.225594549299709,-6.257030345955868
1589995352.5271375,-1.8061153129699037,-3.318430998496308,8.849754247368539,0.5784026453007758,0.16859483358394867,-0.6712402839808186,-0.2577386830352133,-0.46745040061045406,-4.449905458177167
1589995352.5371375,-7.060724560133455,-6.999831922193195,3.3135639419596483,0.54,0.18666666666666668,-0.6177777777777778,-10.652623461647414,22.891797944666518,-8.655877215070348
1589995352.5471375,-8.442155443675269,-7.3958529796195,-2.7864956189185266,0.54,0.18666666666666668,-0.6177777777777778,-44.50803601684659,57.96885135789321,-206.36432111390812
1589995352.5571375,-1.1954257789820013,-2.270011612154055,-0.04363266886007354,0.54,0.18666666666666668,-0.6177777777777778,-42.88553561060577,-26.95271676020903,-445.6114282949487
1589995352.5671375,-0.714939432553188,-2.148802200106457,-0.021083439521267153,0.54,0.18666666666666668,-0.6177777777777778,-31.636229374001967,-67.61200743584368,-496.26375469780794
1589995352.5771375,-0.7303755431409062,-1.5817281579764122,-0.1200764276846679,0.5412698936133526,0.19101103955445203,-0.6191145078970963,-36.555915628879575,-24.071410905493483,-479.1493649615922
1589995352.5871375,-0.6001986343885785,-1.1993334885164493,-0.5268792675356921,0.5584460135181737,0.24977144975515553,-0.6371946341126974,-34.77615320453135,-18.274470437616387,-455.8090520251397
1589995352.5971375,-1.3310437899976297,-4.8383529864896895,6.869340779805642,0.5611111111111111,0.2588888888888889,-0.64,-40.97690877577625,-12.786021939440626,-425.15760177174684
1589995352.6071374,-0.7474072532149135,-1.2584124340827088,0.03685678601165698,0.5611111111111111,0.2588888888888889,-0.64,10.90818415209548,61.72083448977703,-388.1223315061523
1589995352.6171374,-0.9729638311032978,-1.5973137025100108,5.232854445421102,0.5611111111111111,0.2588888888888889,-0.64,82.26102809519159,155.51978546081975,-351.0962994839991
1589995352.6271374,-1.983408210437217,-3.21539017482176,18.737307028681187,0.5611111111111111,0.2588888888888889,-0.64,102.14561765471888,173.7828848845916,-332.9612124393658
1589995352.6371374,-0.3271889922090978,-0.5756974114099019,-1.7147687861271674,0.3944444444444444,0.4633333333333333,-0.6144444444444445,145.76277802211612,64.71345658456899,-271.33318673033426
1589995352.6471374,0.25497365372398073,-0.09738629993646998,-0.8577884076385515,0.3944444444444444,0.4633333333333333,-0.6144444444444445,68.43097415822714,-40.73479950670802,-224.69458873649987
1589995352.6571374,0.572410150354927,-0.9512885435880237,7.8414008905781305,0.3944444444444444,0.4633333333333333,-0.6144444444444445,1.3969151156074773,-2.443512101056397,-188.78241853445866
1589995352.6671374,1.6344124758220502,-2.898938588007737,24.96297388781431,0.3944444444444444,0.4633333333333333,-0.6144444444444445,-46.26792190522244,34.64580814796905,-164.30065280464217
1589995352.6771374,-0.06276207937877487,-0.4202525884383088,1.254751078515962,0.3775097066436583,0.47534160195570896,-0.6239894784776148,-53.88959771354616,52.261638535375326,-131.66923533218292
1589995352.6871374,1.1645339383626394,-2.19908111174135,8.979593495934958,0.3333333333333333,0.5066666666666667,-0.6488888888888888,7.375,-2.0,-106.1875
1589995352.6971374,0.8742082980524979,-2.7153281117696864,9.931792972057579,0.3333333333333333,0.5066666666666667,-0.6488888888888888,3.7308028154106694,-0.10940146062658784,-93.80270956816257
1589995352.7071373,0.32033404104741686,-2.299859872611465,7.953480537862704,0.3333333333333333,0.5066666666666667,-0.6488888888888888,6.334288747346072,9.983837579617834,-71.01198690728945
1589995352.7171373,0.18038824275745402,-1.9415654472404313,6.8825111017128355,0.3333333333333333,0.5066666666666667,-0.6488888888888888,11.16511551067879,13.326747198139142,-56.960473937407485
1589995352.7271373,0.12514669364480824,-2.209886875747264,7.369743094515466,0.3187024603928862,0.5284039636067596,-0.6401103651246206,-4.124101367301266,-2.92865546154082,-43.73288574143904
1589995352.7371373,0.21671128994815445,-2.769110887564807,9.175860094405323,0.29444444444444445,0.5644444444444444,-0.6255555555555555,-7.1910208542908,-3.50770428693028,-27.271028398978565
1589995352.7471373,0.2923138744149077,-2.9457679060319704,8.822213194383114,0.29444444444444445,0.5644444444444444,-0.6255555555555555,5.892144308045571,4.754653139627307,-11.48658703523801
1589995352.7571373,0.27691902970882815,-2.982380720956768,8.474227485948527,0.29444444444444445,0.5644444444444444,-0.6255555555555555,2.1189000232430377,0.34928871022271046,4.052571525165871
1589995352.7671373,0.17266177480260897,-2.738526862341229,7.479926622039136,0.29444444444444445,0.5644444444444444,-0.6255555555555555,-5.517008882595262,-2.2588343202883627,17.155461508753863
1589995352.7771373,0.26592560660179826,-3.1656776286077926,8.870859301227574,0.29087786764471085,0.5689026654441114,-0.622657711905772,-2.660872644414337,-2.2633136777928318,30.058679229790204
1589995352.7871373,0.1773835811106253,-2.813170638390905,7.607560668998689,0.2766666666666667,0.5866666666666667,-0.6111111111111112,-0.6137748688237866,-3.374029842588544,42.413939522299955
1589995352.7971373,0.2440347859327217,-3.5333043450560653,9.89540870285423,0.2766666666666667,0.5866666666666667,-0.6111111111111112,-1.4702173324413863,-4.195543450560653,59.1294557530581
1589995352.8071373,0.17725834586466166,-3.4676625563909775,9.393492932330828,0.2766666666666667,0.5866666666666667,-0.6111111111111112,-1.823593984962406,-5.02443984962406,72.68821428571428
1589995352.8171372,0.12680060150375938,-3.2406027067669174,8.4915607518797,0.2766666666666667,0.5866666666666667,-0.6111111111111112,-0.8775112781954888,-6.049362781954887,80.17803571428571
1589995352.8271372,0.1261245332747639,-3.3200697342411596,8.725018669009444,0.2805421333919028,0.5845136295970911,-0.6124029333528566,-4.6386208269273,-7.171933340654514,95.549548374698
1589995352.8371372,0.1107709202723479,-3.5580507357786075,9.339163189106083,0.2958957463943188,0.5759838445957489,-0.6175208043536617,-2.9593194047880518,-9.091134965956513,106.3930375576543
1589995352.8471372,0.3007157166272082,-3.5061752998412987,9.542295184327601,0.2966666666666667,0.5755555555555556,-0.6177777777777778,-15.84952324583084,-23.54943804147046,246.07614082784818
1589995352.8571372,-1.1020692064869033,-2.7245131207980915,9.30142244391431,0.2966666666666667,0.5755555555555556,-0.6177777777777778,14.439826863297911,-10.158517373912623,295.49173624665656
1589995352.8671372,-1.538884035774387,-3.011879667971335,7.375132452209427,0.2966666666666667,0.5755555555555556,-0.6177777777777778,10.153317450413144,-9.15923100194755,297.3791302683079
1589995352.8771372,-1.0131165236645447,-2.8269159977857736,7.1379566841959585,0.30763854291601317,0.5702178860288465,-0.6198535381492758,-19.99440388873512,-24.386897142264047,294.4200067464711
1589995352.8871372,-0.4495214961306965,-3.5807781599312123,10.460565563198625,0.3377777777777778,0.5555555555555556,-0.6255555555555555,-18.459733716680997,-28.15659796861565,293.38155497635427
1589995352.8971372,-0.5290820799892089,-3.473636608889189,8.537230053281176,0.3377777777777778,0.5555555555555556,-0.6255555555555555,-6.42622833344574,-19.48874519457746,290.19850188844674
1589995352.9071372,-0.7647648571993932,-2.241626541784843,6.488476353802519,0.3377777777777778,0.5555555555555556,-0.6255555555555555,-15.971378042345492,-24.954913099399775,199.04761806609062
1589995352.9171371,-1.9510418315685718,0.34687450529428454,5.766417210531818,0.3377777777777778,0.5555555555555556,-0.6255555555555555,-26.35353443898505,-23.037883256918413,-8.266020997924102
1589995352.9271371,-2.3707286548484894,-0.9121859645454683,11.898856016368224,0.3377777777777778,0.5555555555555556,-0.6255555555555555,-0.044808203527530566,10.552722561567528,-76.3476801102167
1589995352.9371371,-2.7822388587218456,0.7020823828037143,11.050382032580407,0.4633333333333333,0.4633333333333333,-0.6677777777777778,60.30365605822061,33.12275688397648,-80.6590543970697
1589995352.947137,-0.7995478603933517,-0.9844381945665124,4.014772758344564,0.4633333333333333,0.4633333333333333,-0.6677777777777778,-2.7622995644616317,-6.886495136813735,-65.77600779281654
1589995352.957137,-2.51846313354867,-3.1082214778482276,13.555818877856202,0.4633333333333333,0.4633333333333333,-0.6677777777777778,-36.458600011963156,6.801887685927344,-57.06501724687961
1589995352.967137,-1.0716913905172072,-3.066407265621885,10.871346452924993,0.4633333333333333,0.4633333333333333,-0.6677777777777778,-4.6275309546596475,3.6135540036687006,-42.43004296765961
1589995352.977137,-0.9405575443523665,-2.468455133403216,7.277547912422618,0.4638373449892209,0.464038949651576,-0.6658625334854049,12.91906187575404,9.940328266845988,-23.325511510848283
1589995352.987137,-2.5001160973873144,-5.288933367615355,10.089730622416486,0.46844596955492707,0.4704910240435645,-0.6483497601357215,-6.108796799905065,-2.6066521132888987,-16.015080793496963
1589995352.997137,2.3815284633384004,-21.65286290115971,7.9793648055474895,0.4688888888888889,0.4711111111111111,-0.6466666666666666,-10.69879716135203,-5.990797238210729,18.97409221335975
1589995353.007137,0.3685166270986695,-3.915434764043791,9.612698252745563,0.4688888888888889,0.4711111111111111,-0.6466666666666666,-1.385931015047225,-6.393757792618149,24.973727134536883
1589995353.017137,-1.9750631532359653,-0.4946798079869267,10.06426514145644,0.4688888888888889,0.4711111111111111,-0.6466666666666666,21.08045015830865,13.926933323119872,15.789421832975862
1589995353.027137,-0.4257438804344127,-4.392967010519865,8.307893984271269,0.4688888888888889,0.4711111111111111,-0.6466666666666666,1.133856986007558,1.1200603019780075,13.156650027235896
1589995353.037137,-0.1393240740740741,-4.3906638176638175,10.184363247863248,0.43,0.4633333333333333,-0.6322222222222222,-14.332603276353275,-11.55167378917379,-14.526139601139601
1589995353.047137,-0.04223379629629631,-3.823059116809117,9.153712606837608,0.43,0.4633333333333333,-0.6322222222222222,0.04422631766381713,4.505564458689456,-23.11489494301994
1589995353.057137,-0.2761797752808989,-5.0735739899593595,8.741821659096342,0.43,0.4633333333333333,-0.6322222222222222,2.985611403299068,1.8656317236433182,-10.314875687305761
1589995353.067137,0.13395451104783188,-3.933760408030855,8.62,0.43,0.4633333333333333,-0.6322222222222222,-1.1643094654507444,-1.3496602746638793,4.873301373319396
1589995353.077137,-0.5594939924619454,-4.589831330820648,8.620037482039855,0.4300499760531412,0.4633333333333333,-0.6322222222222222,0.24882868625450305,-0.3119143431272515,-0.3122657372509006
1589995353.087137,-0.3236776128105283,-4.511225870936843,8.637505362014036,0.45334048268537985,0.4633333333333333,-0.6322222222222222,-0.2970425629385919,-0.03897871853070406,-0.2030914874122816
1589995353.097137,-0.3175720357766826,-4.515843177136301,8.617161073300476,0.4566666666666666,0.4633333333333333,-0.6322222222222222,-0.43389821116587135,-0.015174776395733919,-0.04732522360426608
1589995353.107137,-0.32054381750739414,-4.637280912463029,8.415305162017747,0.4566666666666666,0.4633333333333333,-0.6322222222222222,-0.5620843341993889,-0.02296068434727193,0.013179771884242691
1589995353.117137,-0.3548126542150759,-4.465936728924621,8.497550370116182,0.4566666666666666,0.4633333333333333,-0.6322222222222222,0.25180053760805277,0.10554745330653464,0.05601581776884487
1589995353.127137,-0.2708308854385229,-4.498219531203166,8.620356093759366,0.4566666666666666,0.4633333333333333,-0.6323145428265026,0.006676757988130207,0.0,0.061758138001318866
1589995353.137137,-0.32781575987900885,-4.388293326094543,8.65,0.4566666666666666,0.4633333333333333,-0.64,0.43195457013223715,-0.010878785822313568,0.0
1589995353.147137,-0.2708876565711405,-4.567210222204987,8.65,0.4566666666666666,0.4633333333333333,-0.64,-0.1779893938806375,-0.06170744949005313,0.0
1589995353.157137,-0.3211857292759706,-4.507051416579223,8.572339979013641,0.4566666666666666,0.4633333333333333,-0.64,0.06991080797481637,0.07351783840503673,0.04046432318992655
1589995353.167137,-0.2879347049821459,-4.534048971263391,8.626032647508929,0.4566666666666666,0.4633333333333333,-0.64,-0.1255101173269852,0.13119898826730148,-0.07489797653460296
1589995353.177137,-0.34499030777078726,-4.49125726917191,8.597504846114607,0.4566666666666666,0.4633333333333333,-0.64,0.32023677945927564,0.17577367794592758,-0.16404735589185515
1589995353.187137,-0.31,-4.481947854202305,8.652661052314981,0.4511111111111111,0.4633333333333333,-0.6466666666666666,-0.05032591123559599,-0.10673886685339398,0.006087044382202004
1589995353.1971369,-0.31,-4.497716788540707,8.755159125514597,0.4511111111111111,0.4633333333333333,-0.6466666666666666,0.048229928379419904,0.04109489256912985,0.05536496418970995
1589995353.2071369,-0.3,-4.496256299641172,8.54605914607104,0.4511111111111111,0.4633333333333333,-0.6466666666666666,-0.5492606741120025,-0.1995071160746684,0.0625
1589995353.2171369,-0.3015329891988027,-4.59489003600399,8.566934021602394,0.4511111111111111,0.4633333333333333,-0.6466666666666666,-0.224450180019954,-0.003193727497505748,0.059306272502494255
1589995353.2271369,-0.328824231119594,-4.503919229601354,8.512351537760813,0.4511111111111111,0.4633333333333333,-0.6466666666666666,0.23040385199323304,-0.06005048149915413,0.0024495185008458695
1589995353.2371368,-0.30556804577643404,-4.524431954223566,8.624015786376642,0.45563554707843806,0.45337957420521385,-0.6466666666666666,0.5044995231621452,-0.011600095367570964,0.050899904632429036
1589995353.2471368,-0.31648531277447056,-4.448786718063824,8.618242656387235,0.4566666666666666,0.4511111111111111,-0.6466666666666666,0.19848339757977945,0.07348339757977945,0.032950192739338344
1589995353.2571368,-0.3026709447181888,-4.498012834154567,8.589967914613583,0.4566666666666666,0.4511111111111111,-0.6466666666666666,0.17487967980093966,0.11665329775565995,0.1708065955113199
1589995353.2671368,-0.3164031627023753,-4.539209488107126,8.486976279732186,0.4566666666666666,0.4511111111111111,-0.6466666666666666,-0.21133895100430533,0.07374011655507719,0.08498023311015437
1589995353.2771368,-0.31150885950957263,-4.541508859509572,8.612840528827693,0.4566666666666666,0.4511111111111111,-0.6466666666666666,0.05898739645619616,0.11556962806517088,-0.043639256130341766
1589995353.2871368,-0.31,-4.526486696950032,8.64,0.45291297137500897,0.4556155454611003,-0.6369070589083567,0.125,0.0827709279688514,0.06418721609344583
1589995353.2971368,-0.3188197099776351,-4.440622610201284,8.701737969843446,0.4511111111111111,0.4577777777777778,-0.6322222222222222,0.18012318736021932,-0.10286956208065795,0.014753625279561366
1589995353.3071368,-0.32671212711607567,-4.454109841104906,8.534931809325887,0.4511111111111111,0.4577777777777778,-0.6322222222222222,-0.25,-0.125,0.04195079447547301
1589995353.3171368,-0.2903931246482227,-4.499508594189722,8.589410313027665,0.4511111111111111,0.4577777777777778,-0.6322222222222222,-0.25,-0.125,-0.18504297094860805
1589995353.3271368,-0.29,-4.564858231558378,8.581892721055203,0.4511111111111111,0.4577777777777778,-0.6322222222222222,-0.25,-0.0743295065950171,0.06585246702491454
1589995353.3371367,-0.31923556661374014,-4.49152886677252,8.63923556661374,0.43666666666666665,0.4577777777777778,-0.6166666666666667,0.21138854332062007,0.1875,0.11544458267175198
1589995353.3471367,-0.31236990718763813,-4.505260185624723,8.63236990718764,0.43666666666666665,0.4577777777777778,-0.6166666666666667,0.425940400386309,0.1875,0.029623839845476424
1589995353.3571367,-0.32960175570067446,-4.451194732897977,8.531991221496627,0.43666666666666665,0.4577777777777778,-0.6166666666666667,0.2549780537415694,0.12624451343539234,0.18376645969382294
1589995353.3671367,-0.31361930772427715,-4.50733242296503,8.579142076827168,0.43666666666666665,0.4577777777777778,-0.6166666666666667,-0.05713798016980348,0.1761896633616339,-0.017258653446535654
1589995353.3771367,-0.32704596834966093,-4.502954031650339,8.59852298417483,0.43666666666666665,0.4577777777777778,-0.6166666666666667,-0.23153730218538054,0.08096269781461944,-0.00923134890730972
1589995353.3871367,-0.30676400222155764,-4.515490665185628,8.661962660742512,0.45215733185229484,0.4577777777777778,-0.6510903670791739,-0.007958356474558892,0.0625,0.09681665741017645
1589995353.3971367,-0.3191482877950519,-4.489574143897526,8.647019007282681,0.4566666666666666,0.4577777777777778,-0.6611111111111111,0.12233839935953722,0.0,0.054515198078611646
1589995353.4071367,-0.30114666478302843,-4.482293329566057,8.58,0.4566666666666666,0.4577777777777778,-0.6611111111111111,0.026666725530361896,0.007166654893927621,-0.11066669021214476
1589995353.4171367,-0.31,-4.500829464916805,8.58331785966722,0.4566666666666666,0.4577777777777778,-0.6611111111111111,-0.25,0.05731584426996771,-0.01036831146006457
1589995353.4271367,-0.31,-4.508841958469444,8.615367833877777,0.4566666666666666,0.4577777777777778,-0.6611111111111111,-0.25,0.007237759565973216,-0.11052448086805357
1589995353.4371367,-0.291310298583994,-4.545413954956021,8.61196544787599,0.4566666666666666,0.4633333333333333,-0.6677777777777778,0.020473415374906323,0.125,-0.058405316925018734
1589995353.4471366,-0.3078539028911766,-4.487511339880882,8.636780854336765,0.4566666666666666,0.4633333333333333,-0.6677777777777778,0.2789672326746342,0.125,-0.0067065534650731715
1589995353.4571366,-0.3005232364739262,-4.507383817630369,8.532616182369631,0.4566666666666666,0.4633333333333333,-0.6677777777777778,0.42441908815184426,0.17768931611388317,0.18095954407592213
1589995353.4671366,-0.3087304569024557,-4.466347715487721,8.573652284512278,0.4566666666666666,0.4633333333333333,-0.6677777777777778,0.21923857743860678,0.023803933078955092,0.07836928871930339
1589995353.4771366,-0.3018781784028955,-4.508730929582627,8.620609107985523,0.4566666666666666,0.4633333333333333,-0.6677777777777778,-0.015545539927612595,0.15228415494570943,0.11326138498190315
1589995353.4871366,-0.3090706393709148,-4.483252762201799,8.687211918112745,0.4511111111111111,0.4633333333333333,-0.6533333333333333,-0.05959574803410863,0.12209574803410864,0.12209574803410864
1589995353.4971366,-0.29515411924748663,-4.531960582633797,8.64546235774246,0.4511111111111111,0.4633333333333333,-0.6533333333333333,-0.01610662264839576,0.07860662264839577,0.07860662264839577
1589995353.5071366,-0.32977356038389766,-4.489773560383898,8.55090575846441,0.4511111111111111,0.4633333333333333,-0.6533333333333333,0.11650851439616103,0.12216950479872034,0.0
1589995353.5171366,-0.32278492402026127,-4.482784924020262,8.578860303918955,0.4511111111111111,0.4633333333333333,-0.6533333333333333,-0.1455653492402026,0.034811550253265794,0.0
1589995353.5271366,-0.3127880052598479,-4.487211994740153,8.604423989480305,0.4511111111111111,0.4633333333333333,-0.6533333333333333,-0.25,0.09014993425190099,0.045074967125950494
1589995353.5371366,-0.2947995466779997,-4.520400906644001,8.617600226660999,0.45533345925611113,0.46924462073633344,-0.6482665155593332,-0.25,0.07749858336874912,0.014998583368749117
1589995353.5471365,-0.31,-4.53887417072092,8.64512140645732,0.4566666666666666,0.4711111111111111,-0.6466666666666666,0.12969095532950023,0.12265452233524989,0.0
1589995353.5571365,-0.31,-4.511048208757187,8.524542237947811,0.4566666666666666,0.4711111111111111,-0.6466666666666666,0.24563246351172047,0.06468376824413977,0.0
1589995353.5671365,-0.3004221121143587,-4.500422112114359,8.600844224228718,0.4566666666666666,0.4711111111111111,-0.6466666666666666,0.4190325949968061,0.01055280285896794,0.05458539785577404
1589995353.5771365,-0.3076632771092657,-4.507663277109265,8.61532655421853,0.4566666666666666,0.4711111111111111,-0.6466666666666666,0.10223162646962347,0.19158192773164373,-0.0811864457987328
1589995353.5871365,-0.3001644566007686,-4.539506630197694,8.629835543399231,0.46322369559948756,0.4711111111111111,-0.6532236955994876,-0.06147214624519614,0.06558356126441159,-0.125
1589995353.5971365,-0.3,-4.513624220837044,8.594832294449391,0.4633333333333333,0.4711111111111111,-0.6533333333333333,-0.17239907984565153,-0.04739907984565153,0.14974769961412882
1589995353.6071365,-0.30975402997927826,-4.5197540299792776,8.53147582012433,0.4633333333333333,0.4711111111111111,-0.6533333333333333,0.17827612422293387,-0.0015373126295110187,0.126537312629511
1589995353.6171365,-0.3002423420852359,-4.480969368340944,8.598303605403348,0.4633333333333333,0.4711111111111111,-0.6533333333333333,0.004543914098173535,0.06098536196727549,0.125
1589995353.6271365,-0.3221750203196966,-4.494783346879798,8.622175020319697,0.4633333333333333,0.4711111111111111,-0.6533333333333333,0.046197958999367836,0.016302041000632164,0.07880204100063216
1589995353.6371365,-0.3152004520260453,-4.507399773986977,8.63,0.4674443188816541,0.4612447457951413,-0.6434669680173636,-0.16874293709304203,-0.046248587418608406,0.0625
1589995353.6471364,-0.31,-4.516077076587092,8.63,0.4688888888888889,0.4577777777777778,-0.64,-0.06009135665336246,-0.0625,0.0625
1589995353.6571364,-0.31,-4.511910620520486,8.541016825725345,0.4688888888888889,0.4577777777777778,-0.64,0.0625,0.08917586524088766,0.0625
1589995353.6671364,-0.31,-4.51,8.568069975775115,0.4688888888888889,0.4577777777777778,-0.64,0.17516400572292584,0.04989066285138276,0.13760933714861723
1589995353.6771364,-0.31,-4.492775944019012,8.617224055980987,0.4688888888888889,0.4577777777777778,-0.64,0.2141165500396092,0.14353379984156325,0.04396620015843675
1589995353.6871364,-0.33690226956924507,-4.5069022695692444,8.638967423189749,0.4579287049903075,0.4697343420307756,-0.64,-0.03668557974370851,0.13790721012814575,0.049592789871854254
1589995353.6971364,-0.31367891076055826,-4.51,8.648773696413148,0.4566666666666666,0.4711111111111111,-0.64,-0.1721712051643406,0.01532879483565941,0.0625
1589995353.7071364,-0.31787061762425706,-4.502129382375743,8.555552588508915,0.4566666666666666,0.4711111111111111,-0.64,-0.03992591954518049,-0.049191360151606515,-0.03588272030321303
1589995353.7171364,-0.3125185548242543,-4.4925185548242546,8.563666503290856,0.4566666666666666,0.4711111111111111,-0.64,0.0,-0.015740967651589416,-0.0625
1589995353.7271364,-0.3027293096205013,-4.482729309620502,8.607718106707743,0.4566666666666666,0.4711111111111111,-0.64,0.0,0.04544181487186669,-0.0625
1589995353.7371364,-0.31733020138073276,-4.505995302071099,8.637330201380733,0.4518527218386853,0.46437158835193726,-0.6274837434472486,-0.05415687931478988,-0.09997063794436964,-0.00834312068521012
1589995353.7471364,-0.3112252583021488,-4.518774741697851,8.604901033208595,0.4511111111111111,0.4633333333333333,-0.6255555555555555,-0.0625,-0.015315728776859897,-0.1096842712231401
1589995353.7571363,-0.31,-4.52,8.521319070962829,0.4511111111111111,0.4633333333333333,-0.6255555555555555,-0.0625,0.0,0.03891860216077292
1589995353.7671363,-0.3006589542350423,-4.510658954235042,8.55670522882479,0.4511111111111111,0.4633333333333333,-0.6255555555555555,0.1710261441239425,0.05838153603098562,-0.1126446080929569
1589995353.7771363,-0.3072196133103423,-4.502780386689658,8.610537293172397,0.4511111111111111,0.4633333333333333,-0.6255555555555555,0.1875,0.24299033275855741,0.010367749568918089
1589995353.7871363,-0.31,-4.482520229705037,8.647479770294963,0.45823249900905866,0.46009633883426626,-0.6339717412531299,0.22391618811450448,0.0575866831984686,0.026083811885495516
1589995353.7971363,-0.2970175138342176,-4.482982486165782,8.655672504611406,0.4633333333333333,0.4577777777777778,-0.64,0.11476576910643316,-0.09795315382128664,0.08114053853614012
1589995353.8071363,-0.29347336027585186,-4.50449112009195,8.591615438804642,0.4633333333333333,0.4577777777777778,-0.64,-0.0625,0.04977800229876535,0.10329149827592599
1589995353.8171363,-0.31,-4.486395142782443,8.55934142869593,0.4633333333333333,0.4577777777777778,-0.64,-0.01332321413008744,0.03996964239026232,0.04917678586991256
1589995353.8271363,-0.30309722333040773,-4.500708330008777,8.597611106678368,0.4633333333333333,0.4577777777777778,-0.64,0.08628470836990346,0.04314235418495173,-0.023784708369903457
1589995353.8371363,-0.32614755180150456,-4.501284149399498,8.653579253002508,0.4633333333333333,0.4693989119117798,-0.645810567067001,0.016051867493731026,0.008025933746865513,0.046448132506268974
1589995353.8471363,-0.3145806909127748,-4.507709654543612,8.613742072738324,0.4633333333333333,0.4711111111111111,-0.6466666666666666,0.0,0.04818534089757877,0.0625
1589995353.8571362,-0.31,-4.51,8.558499806501548,0.4633333333333333,0.4711111111111111,-0.6466666666666666,0.037053744195046444,-0.04866123258513931,0.0625
1589995353.8671362,-0.30284251617984453,-4.502842516179845,8.544314967640311,0.4633333333333333,0.4711111111111111,-0.6466666666666666,0.017765726124028353,-0.08026572612402835,0.10723427387597165
1589995353.8771362,-0.31337414776680117,-4.4933129261166,8.610183664950606,0.4633333333333333,0.4711111111111111,-0.6466666666666666,0.16717684708501462,-0.020705788228746344,0.08320578822874634
1589995353.8871362,-0.33716594790994603,-4.49,8.657165947909947,0.46810165219720723,0.45394516320116507,-0.6342690376205946,0.25,0.10728717443716256,-0.09843076165574383
1589995353.8971362,-0.3267671016904616,-4.4833835508452315,8.66,0.4688888888888889,0.4511111111111111,-0.6322222222222222,0.001883156696154853,0.042294385565384965,0.08176403608653762
1589995353.9071362,-0.29783307210031346,-4.494777951933124,8.586110240334378,0.4688888888888889,0.4511111111111111,-0.6322222222222222,-0.03263780041797282,0.09236219958202718,0.09513780041797282
1589995353.9171362,-0.2979187758053605,-4.515837551610721,8.591675103221442,0.4688888888888889,0.4511111111111111,-0.6322222222222222,0.0,0.125,0.0625
1589995353.9271362,-0.31352654432246435,-4.506473455677535,8.613526544322463,0.4688888888888889,0.4511111111111111,-0.6322222222222222,0.08454090201540225,0.04045909798459775,-0.0643113530231034
1589995353.9371362,-0.32,-4.492635167497816,8.649459330008733,0.4647973152765647,0.45602099944590013,-0.6428603136142651,-0.013090609415941173,0.04603020313864706,0.10515101569323532
1589995353.9471362,-0.3034820070957932,-4.51477698935631,8.676517992904207,0.4633333333333333,0.4577777777777778,-0.6466666666666666,-0.0625,0.010881272174353779,0.08426254434870756
1589995353.9571362,-0.3,-4.512084452368593,8.561266785528899,0.4633333333333333,0.4577777777777778,-0.6466666666666666,-0.0625,0.0,0.11197217269629195
1589995353.9671361,-0.29195043315613306,-4.51,8.562198267375468,0.4633333333333333,0.4577777777777778,-0.6466666666666666,0.08842937832250441,-0.10061958554833629,-0.07623917109667258
1589995353.9771361,-0.29,-4.51,8.5952340330836,0.4633333333333333,0.4577777777777778,-0.6466666666666666,0.125,0.03271270677249463,-0.046143646613752684
1589995353.9871361,-0.29729532889727545,-4.51,8.646476644486377,0.45846978073514966,0.4577777777777778,-0.6361289693706021,0.21619161121594332,0.033808388784056675,0.04559580560797166
1589995353.997136,-0.3,-4.493380655955515,8.643380655955516,0.4566666666666666,0.4577777777777778,-0.6322222222222222,0.14612909972196936,0.15580635041704596,0.0625
1589995354.007136,-0.3,-4.504059568668324,8.56267237232422,0.4566666666666666,0.4577777777777778,-0.6322222222222222,0.08106384791148882,0.14356384791148882,-0.025372304177022367
1589995354.017136,-0.3079238117495837,-4.51,8.553771435248752,0.4566666666666666,0.4577777777777778,-0.6322222222222222,-0.08607147030469459,0.1745238234348982,-0.1120238234348982
1589995354.027136,-0.31,-4.504007122090523,8.601950145366342,0.4566666666666666,0.4577777777777778,-0.6322222222222222,-0.08754451306576752,0.00022256532883757618,-0.012633539197302548
1589995354.037136,-0.31,-4.507099623129925,8.637099623129926,0.45272243159448605,0.46172201284995834,-0.6527322445975611,-0.1512452891240626,0.09686322281015647,-0.026245289124062585
1589995354.047136,-0.31,-4.498547596009476,8.634273798004738,0.4511111111111111,0.4633333333333333,-0.6611111111111111,-0.04434495011844783,0.22328876247038804,-0.0625
1589995354.057136,-0.3224694469905286,-4.502469446990529,8.57388748854262,0.4511111111111111,0.4633333333333333,-0.6611111111111111,-0.015434043690803548,0.13309893446379467,-0.10146702184540177
1589995354.067136,-0.3151480152760097,-4.51,8.577129961809975,0.4511111111111111,0.4633333333333333,-0.6611111111111111,-0.10891245226246962,0.0625,-0.17141245226246962
