time,acc_x,acc_y,acc_z,mag_x,mag_y,mag_z,gyr_x,gyr_y,gyr_z
1589995642.1780224,-3.9,-0.86,8.85,0.30666666666666664,-0.3322222222222222,-0.6055555555555555,-1.0,-0.0625,-0.125
1589995642.1880224,-3.919901928886823,-0.8699509644434116,8.720098071113178,0.30666666666666664,-0.3322222222222222,-0.6055555555555555,-1.0621935277713224,-0.0625,-0.12469352777132234
1589995642.1980224,-3.9004071577968857,-0.8602035788984429,8.739592842203114,0.30666666666666664,-0.3322222222222222,-0.6055555555555555,-1.0012723681152684,-0.0625,-0.06377236811526842
1589995642.2080224,-3.9,-0.8446824937990712,8.831905037205573,0.30666666666666664,-0.3322222222222222,-0.6055555555555555,-0.6649295518546838,-0.014632793122097684,0.03323441375580463
1589995642.2180223,-3.918021769124636,-0.8309891154376821,8.923076191936225,0.31868117941642393,-0.3382294785971009,-0.6245785340760046,0.0006802851448720615,0.11263605702897439,0.0625
1589995642.2280223,-3.9116062524389714,-0.8383937475610285,8.946787495122056,0.32,-0.3388888888888889,-0.6266666666666667,0.42972645579499635,0.07253907774357196,0.0625
1589995642.2380223,-3.9000406633020908,-0.8499593366979091,8.840447296323,0.32,-0.3388888888888889,-0.6266666666666667,0.6244917087238645,-0.12423756308579667,0.0625
1589995642.2480223,-3.9066928175734095,-0.8433071824265906,8.846692817573409,0.32,-0.3388888888888889,-0.6266666666666667,0.7086602196676166,-0.1668301098338083,0.14616021966761664
1589995642.2580223,-3.896201464964024,-0.833100732482012,8.863798535035976,0.32,-0.3388888888888889,-0.6266666666666667,0.3619162021131782,-0.2737408439748493,0.05813873403772607
1589995642.2680223,-3.8965408703381956,-0.8103773889854136,8.843836518647217,0.30691825932360906,-0.3345283086634252,-0.6179455062157393,0.1875,-0.23073912077255648,0.040880439613721765
1589995642.2780223,-3.9095878399258344,-0.8575270395550062,8.820412160074167,0.3,-0.3322222222222222,-0.6133333333333333,-0.41173999536464767,-0.24742399953646477,-0.17719599814585907
1589995642.2880223,-3.91,-0.8456949377941871,8.777084813382562,0.3,-0.3322222222222222,-0.6133333333333333,-0.48220331939316524,-0.16059336121366952,-0.00868672242733906
1589995642.2980223,-3.91,-0.84,8.80544327998867,0.3,-0.3322222222222222,-0.6133333333333333,-0.38639180002832463,-0.18180409998583769,-0.10791229995751309
1589995642.3080223,-3.91,-0.84,8.862322822872713,0.3,-0.3322222222222222,-0.6133333333333333,-0.08885956241485865,-0.2283772053693059,-0.0841227946306941
1589995642.3180223,-3.91,-0.8485232271865036,8.89,0.3,-0.32180494454982894,-0.6067041566327194,0.3821210194938855,-0.25,-0.11577016991564756
1589995642.3280222,-3.900726673771921,-0.85,8.927093304912315,0.3,-0.32,-0.6055555555555555,0.6693331557019668,-0.1920417110745083,-0.06704171107450828
1589995642.3380222,-3.890707723877926,-0.8407077238779259,8.846369514901333,0.3,-0.32,-0.6055555555555555,0.8617301772888878,-0.3036534515259252,-0.004423274237037388
1589995642.3480222,-3.9089678329845734,-0.7925804175385663,8.849483916492286,0.3,-0.32,-0.6055555555555555,0.6379020876928317,-0.19395104384641587,0.05927447807679206
1589995642.3580222,-3.9028085383031748,-0.8115743850904756,8.857191461696825,0.3,-0.32,-0.6055555555555555,0.35532018636905405,-0.052660093184527024,0.01755336439484234
1589995642.3680222,-3.9,-0.8257847091315593,8.865784709131558,0.3038564727543729,-0.32,-0.6100547737689905,-0.003081024505720953,-0.03615443207224585,0.0
1589995642.3780222,-3.9,-0.83,8.886719670200236,0.30666666666666664,-0.32,-0.6133333333333333,-0.13525103062426386,-0.010251030624263843,0.0
1589995642.3880222,-3.8773974997990193,-0.8450683334673205,8.807124165929737,0.30666666666666664,-0.32,-0.6133333333333333,-0.26626562625612993,-0.09417708417075328,0.04708854208537664
1589995642.3980222,-3.878625159865132,-0.841374840134868,8.831750959190792,0.30666666666666664,-0.32,-0.6133333333333333,-0.4203144983141495,-0.125,-0.04531449831414951
1589995642.4080222,-3.8942455737391137,-0.8471227868695569,8.84,0.30666666666666664,-0.32,-0.6133333333333333,-0.17039549239161644,0.14210450760838356,-0.017982582065269398
1589995642.4180222,-3.8915554788502575,-0.8415554788502573,8.865333563449227,0.31792602819965693,-0.330321081405241,-0.6133333333333333,-0.009721742814108196,0.25,0.10555651437178361
1589995642.4280221,-3.8975792536732308,-0.832420746326769,8.87757925367323,0.32,-0.3322222222222222,-0.6133333333333333,0.2842220127461628,0.2973703354576938,0.07762966454230619
1589995642.4380221,-3.917606497983989,-0.8241311673386703,8.815442840725375,0.32,-0.3322222222222222,-0.6133333333333333,0.41168020413330997,0.23913959173338006,0.09918020413330997
1589995642.4480221,-3.9153975632086766,-0.8346024367913233,8.81380731037397,0.32,-0.3322222222222222,-0.6133333333333333,0.3462347700542292,0.1418673850271146,0.033734770054229174
1589995642.458022,-3.9031651147488686,-0.8331651147488685,8.877844196757922,0.32,-0.3322222222222222,-0.6133333333333333,-0.11468032819572105,0.1677180328195721,0.04271803281957211
1589995642.468022,-3.9087910568557365,-0.8387910568557361,8.9,0.31316251133442746,-0.3322222222222222,-0.6064958446677607,-0.42238821069670196,0.13255589465164902,0.11744410534835098
1589995642.478022,-3.8965389271990314,-0.8332694635995157,8.893269463599516,0.31222222222222223,-0.3322222222222222,-0.6055555555555555,-0.4375,0.25119755750908035,0.04086829499394641
1589995642.488022,-3.9057665122256418,-0.8536497683384625,8.811167438871792,0.31222222222222223,-0.3322222222222222,-0.6055555555555555,-0.4375,0.01687789576921772,0.049270350705130375
1589995642.498022,-3.8936895511472716,-0.8518447755736356,8.838931346558185,0.31222222222222223,-0.3322222222222222,-0.6055555555555555,-0.2845895420056678,-0.011529847335222596,-0.03944030532955481
1589995642.508022,-3.903447543424318,-0.8567237717121587,8.856723771712158,0.31222222222222223,-0.3322222222222222,-0.6055555555555555,-0.08190570719602977,-0.04202357320099256,0.021547146401985115
1589995642.518022,-3.904374889439236,-0.8543748894392358,8.865625110560764,0.3053470870923993,-0.32097200110069385,-0.5936803221494977,0.1406277640191049,-0.09765694100477623,0.0625
1589995642.528022,-3.9070987377458835,-0.8287037867623502,8.862901262254116,0.3,-0.31222222222222223,-0.5844444444444444,0.4274684436470815,0.05246844364708145,0.0625
1589995642.538022,-3.918192257871662,-0.828192257871662,8.81084645277003,0.3,-0.31222222222222223,-0.5844444444444444,0.6024032233957752,0.02259677660422478,0.01129838830211239
1589995642.548022,-3.9035381220189365,-0.8217690610094681,8.832923755962128,0.3,-0.31222222222222223,-0.5844444444444444,0.41922652523670534,0.051443368690823665,0.0
1589995642.558022,-3.906662287988255,-0.8266622879882548,8.873311439941274,0.3,-0.31222222222222223,-0.5844444444444444,-0.04139299926592743,0.0625,0.0
1589995642.568022,-3.901773122977886,-0.854680631066342,8.89,0.31005507191591714,-0.32867597626645023,-0.601812295935574,-0.19858201861178748,-0.040335962776425066,0.0
1589995642.578022,-3.9146875187969923,-0.86,8.882656240601504,0.31222222222222223,-0.3322222222222222,-0.6055555555555555,-0.1875,0.029296992481203002,0.1376954887218045
1589995642.588022,-3.9065382811033964,-0.86,8.792498827172077,0.31222222222222223,-0.3322222222222222,-0.6055555555555555,-0.1875,-0.14783935775942952,0.1454321284481141
1589995642.598022,-3.913277705345502,-0.853361147327249,8.81638852672751,0.31222222222222223,-0.3322222222222222,-0.6055555555555555,0.06145697522816168,-0.04253585397653192,0.0835071707953064
1589995642.608022,-3.910784652150823,-0.8453923260754116,8.854607673924589,0.31222222222222223,-0.3322222222222222,-0.6055555555555555,0.1875,0.0625,0.0625
1589995642.618022,-3.90350985999183,-0.8329802800163404,8.85649014000817,0.31729201998819856,-0.3322222222222222,-0.6114053222086051,0.29718312474468006,0.018626750102127977,-0.0033098748468080447
1589995642.628022,-3.9190591676540287,-0.82,8.872647919135071,0.32666666666666666,-0.3322222222222222,-0.6222222222222222,0.5,-0.0625,-0.125
1589995642.638022,-3.9156323660110517,-0.8343676339889485,8.823372618725609,0.32666666666666666,-0.3322222222222222,-0.6222222222222222,0.5299325708103095,-0.24209542486185712,-0.005269716758761936
1589995642.648022,-3.907262658227848,-0.8354746835443038,8.81988924050633,0.32666666666666666,-0.3322222222222222,-0.6222222222222222,0.29015031645569617,-0.4375,0.034216772151898736
1589995642.658022,-3.91,-0.83629172041277,8.88145860206385,0.32666666666666666,-0.3322222222222222,-0.6222222222222222,0.0695302422605611,-0.39817674742018705,0.0
1589995642.668022,-3.915620702826585,-0.8343792971734147,8.91124140565317,0.30793099057804935,-0.3278505644682115,-0.6091072489601902,-0.1405175706646295,-0.3047412146676852,0.07025878533231475
1589995642.678022,-3.9121746194913287,-0.83,8.873047716947973,0.2933333333333333,-0.3244444444444444,-0.5988888888888889,-0.34781725635839106,-0.10327411546241336,0.07609137182080447
1589995642.688022,-3.91,-0.8547147979139504,8.802332138200782,0.2933333333333333,-0.3244444444444444,-0.5988888888888889,-0.16904335071707954,-0.011010837679269886,0.0625
1589995642.698022,-3.8866128447024675,-0.8522042815674891,8.813387155297532,0.2933333333333333,-0.3244444444444444,-0.5988888888888889,0.06989296081277213,-0.14616972060957908,-0.034946480406386066
1589995642.7080219,-3.905409955643174,-0.837295022178413,8.851762444553968,0.2933333333333333,-0.3244444444444444,-0.5988888888888889,0.3235152784622967,-0.22720305569245935,0.01690611138491868
1589995642.7180219,-3.899147491400783,-0.836950836199739,8.86304916380026,0.3118688965326375,-0.31594897797809673,-0.5934826829557586,0.4809427262483691,-0.03278636875815441,0.10594272624836912
1589995642.7280219,-3.901707280996931,-0.8341463595015346,8.865853640498464,0.32,-0.31222222222222223,-0.5911111111111111,0.42682949376918244,-0.010670506230817584,0.08841474688459121
1589995642.7380219,-3.91,-0.8103315529577748,8.825745994154993,0.32,-0.31222222222222223,-0.5911111111111111,0.2828041544895697,-0.09323194850347677,0.09323194850347677
1589995642.7480218,-3.904922797033167,-0.79,8.810463217800997,0.32,-0.31222222222222223,-0.5911111111111111,0.0923024443718804,-0.06153496291458693,0.09326748145729347
1589995642.7580218,-3.9,-0.8009768560792302,8.865612664184871,0.32,-0.31222222222222223,-0.5911111111111111,0.022868450165062865,-0.022868450165062865,0.01676309966987427
1589995642.7680218,-3.903736784776062,-0.825605177164093,8.913736784776063,0.31626321522393797,-0.31222222222222223,-0.5911111111111111,0.039145095149612355,-0.039145095149612355,-0.039145095149612355
1589995642.7780218,-3.913245646233533,-0.8533771768832334,8.902982584934133,0.3,-0.31222222222222223,-0.5911111111111111,-0.0625,-0.021929422080835273,0.041392644479791185
1589995642.7880218,-3.896137587726457,-0.86,8.822963114085196,0.3,-0.31222222222222223,-0.5911111111111111,0.034060306838583326,-0.16335992329035418,0.0
1589995642.7980218,-3.8760886877828056,-0.8460886877828054,8.814778280542987,0.3,-0.31222222222222223,-0.5911111111111111,0.23097285067873302,-0.125,0.08694570135746607
1589995642.8080218,-3.887618649016936,-0.8223813509830641,8.85349153202258,0.3,-0.31222222222222223,-0.5911111111111111,0.3234110375705665,0.09523311271169943,0.125
1589995642.8180218,-3.9089555718664997,-0.81,8.8789555718665,0.2970148093778334,-0.32117779408872194,-0.5975790241258053,0.4029861620828116,0.25,0.04104151375156513
1589995642.8280218,-3.913836911487759,-0.8161630885122411,8.88383691148776,0.2933333333333333,-0.3322222222222222,-0.6055555555555555,0.5145386064030132,0.05740348399246706,0.05305790960451977
1589995642.8380218,-3.91,-0.8307338178130809,8.837064728747677,0.2933333333333333,-0.3322222222222222,-0.6055555555555555,0.49541363866824406,-0.1966727226635119,0.125
1589995642.8480217,-3.91,-0.84,8.841722595996062,0.2933333333333333,-0.3322222222222222,-0.6055555555555555,0.586509271414506,-0.27524768214637346,0.050495364292746966
1589995642.8580217,-3.9040130572654355,-0.8340130572654355,8.88197388546913,0.2933333333333333,-0.3322222222222222,-0.6055555555555555,0.6126632158179444,-0.437091960455139,0.0
1589995642.8680217,-3.9,-0.8425319755850689,8.908797963377603,0.30516908805256504,-0.3273486761613621,-0.6013782303605326,0.5625,-0.6408248474066803,0.039162423703340186
1589995642.8780217,-3.893048686514886,-0.8360973730297723,8.906097373029773,0.31222222222222223,-0.3244444444444444,-0.5988888888888889,0.21493432574430826,-0.5571628721541155,-0.024391418563922934
1589995642.8880217,-3.89,-0.8225999077774362,8.803798801106671,0.31222222222222223,-0.3244444444444444,-0.5988888888888889,0.24750230556409467,-0.361248270826929,-0.016249423608976334
1589995642.8980217,-3.903459202031961,-0.82,8.78345920203196,0.31222222222222223,-0.3244444444444444,-0.5988888888888889,0.3125,-0.3545600063498783,0.0841200126997566
1589995642.9080217,-3.9061471225585014,-0.8277057548829971,8.805411509765994,0.31222222222222223,-0.3244444444444444,-0.5988888888888889,0.336580484009366,-0.3027585479719018,0.125
1589995642.9180217,-3.900047121104146,-0.8399057577917073,8.829811515583415,0.31222222222222223,-0.3244444444444444,-0.5988888888888889,0.3747054930990852,-0.18838352070274436,0.125
1589995642.9280217,-3.8869165571491155,-0.8269165571491153,8.867666228596462,0.30666666666666664,-0.32,-0.6055555555555555,0.3364569643639411,0.0625,-0.004685446545911666
1589995642.9380217,-3.8866296325376886,-0.8222098775125628,8.831160489949749,0.30666666666666664,-0.32,-0.6055555555555555,0.16712959327889448,0.14537040672110552,0.09737653109296482
1589995642.9480217,-3.905837414299706,-0.83,8.816650342801175,0.30666666666666664,-0.32,-0.6055555555555555,-0.15101616062683643,0.2814030362389814,-0.026016160626836437
1589995642.9580216,-3.903163657373971,-0.8205090278780875,8.846327314747942,0.30666666666666664,-0.32,-0.6055555555555555,-0.16772714141268236,-0.016591434349270545,-0.042727141412682364
1589995642.9680216,-3.902283597526226,-0.8077164024737742,8.875432804947549,0.3015223983508172,-0.32171475610528316,-0.6029834213976308,-0.17322751546108872,-0.21161375773054436,-0.07234127319163308
1589995642.9780216,-3.899254322766571,-0.8246271613832853,8.909254322766571,0.2933333333333333,-0.3244444444444444,-0.5988888888888889,-0.3078395172910663,-0.22108024135446686,-0.1875
1589995642.9880216,-3.900392777165606,-0.83,8.84314221732485,0.2933333333333333,-0.3244444444444444,-0.5988888888888889,-0.2248871432125973,-0.21752257135748054,-0.1274548572850389
1589995642.9980216,-3.89,-0.8247595281306714,8.807164246823955,0.2933333333333333,-0.3244444444444444,-0.5988888888888889,-0.12800589836660617,-0.11898820326678766,-0.029747050816696916
1589995643.0080216,-3.8950419554906968,-0.82,8.865125866472091,0.2933333333333333,-0.3244444444444444,-0.5988888888888889,-0.1875,0.12604888726742064,0.06302444363371032
1589995643.0180216,-3.90871973069823,-0.806920403952655,8.88871973069823,0.3107727947297933,-0.3278354508270894,-0.6080930490703539,-0.16025084156803127,0.14100336627212512,0.125
1589995643.0280216,-3.9135002588948886,-0.809499223315334,8.887000517789778,0.3333333333333333,-0.3322222222222222,-0.62,-0.0031298542791626527,0.04062338190694578,0.0031298542791626527
1589995643.0380216,-3.883176402349131,-0.8334117988254344,8.812941005872828,0.3333333333333333,-0.3322222222222222,-0.62,0.14632374265896514,-0.10514748531793025,0.021323742658965125
1589995643.0480216,-3.8901554268900385,-0.84,8.786718475630012,0.3333333333333333,-0.3322222222222222,-0.62,0.1875,-0.14550952731241992,0.020509527312419916
1589995643.0580215,-3.892246124993105,-0.8438769375034475,8.801630812510343,0.3333333333333333,-0.3322222222222222,-0.62,-0.03057773456892271,-0.10076914060345303,-0.04846171879309393
1589995643.0680215,-3.8806781951569307,-0.8496609024215346,8.818982707264604,0.3333333333333333,-0.3322222222222222,-0.62,-0.3559257612113188,-0.06461935986540901,-0.12076128026918197
1589995643.0780215,-3.89,-0.82,8.885727203217979,0.30666666666666664,-0.31222222222222223,-0.6133333333333333,-0.5892049798876368,0.3034099597752734,0.08920497988763672
1589995643.0880215,-3.89526815023234,-0.81473184976766,8.84312294837362,0.30666666666666664,-0.31222222222222223,-0.6133333333333333,-0.4932962441914993,0.40792593895212514,0.05914812209574967
1589995643.0980215,-3.89464162618395,-0.8207167476321003,8.820716747632101,0.30666666666666664,-0.31222222222222223,-0.6133333333333333,-0.44197967270062694,0.40401016364968656,-0.03348983635031346
1589995643.1080215,-3.9090100828438596,-0.8347525207109648,8.853762603554825,0.30666666666666664,-0.31222222222222223,-0.6133333333333333,-0.410890236669409,0.25618698222587866,-0.0625
1589995643.1180215,-3.9272069038502244,-0.8455861922995517,8.888379288449329,0.30821838674987545,-0.31439463033871456,-0.6133333333333333,-0.24267259625560408,0.09008629812780204,-0.11487055280829693
1589995643.1280215,-3.916866031213994,-0.8552990468209909,8.908433015606997,0.31222222222222223,-0.32,-0.6133333333333333,-0.013531737718655075,-0.048968262281344925,-0.1912380852623861
1589995643.1380215,-3.903518730962459,-0.83,8.86481269037541,0.31222222222222223,-0.32,-0.6133333333333333,0.0740634518770521,-0.20253965742315755,0.08101586296926302
1589995643.1480215,-3.9133007159045943,-0.8233985681908119,8.816503579522971,0.31222222222222223,-0.32,-0.6133333333333333,-0.22937052559628737,0.02062947440371263,0.0
1589995643.1580215,-3.900702204422084,-0.8138595591155833,8.857719118231167,0.31222222222222223,-0.32,-0.6133333333333333,-0.16337775552760492,0.08662224447239508,-0.024122244472395075
1589995643.1680214,-3.876686699133078,-0.8233433495665389,8.873343349566538,0.3112935140092948,-0.32074296657034196,-0.6085040506261105,-0.15634390218630195,0.13544796739543397,-0.03115609781369806
1589995643.1780214,-3.900585812719449,-0.8305858127194488,8.880585812719449,0.30666666666666664,-0.3244444444444444,-0.5844444444444444,-0.19482265899310963,0.09924199424483224,0.09558066474827741
1589995643.1880214,-3.8957203323404923,-0.82,8.807076344254584,0.30666666666666664,-0.3244444444444444,-0.5844444444444444,-0.16975623138422952,0.1072562313842295,-0.009004154256153002
1589995643.1980214,-3.9044999735948034,-0.8244999735948034,8.768999947189606,0.30666666666666664,-0.3244444444444444,-0.5844444444444444,-0.2218751650324784,0.1875,0.021874504902564817
1589995643.2080214,-3.9052408700680576,-0.8347591299319425,8.794277389795827,0.30666666666666664,-0.3244444444444444,-0.5844444444444444,-0.2172445620746408,0.1577554379253592,0.09525543792535919
1589995643.2180214,-3.8926571636162337,-0.8446856727675327,8.850628654464934,0.31198099389913386,-0.3244444444444444,-0.5921206948913416,-0.32910727260146005,0.045892727398539945,-0.016607272601460058
1589995643.2280214,-3.911078732789734,-0.83,8.902157465579469,0.32666666666666666,-0.3244444444444444,-0.6133333333333333,-0.4096210399679187,0.13848415987167492,-0.02787896003208127
1589995643.2380214,-3.91387655159038,-0.8422468968192397,8.858765515903801,0.32666666666666666,-0.3244444444444444,-0.6133333333333333,-0.36095689487975174,0.21172844743987587,0.0
1589995643.2480214,-3.91,-0.8557817234004633,8.854690340402781,0.32666666666666666,-0.3244444444444444,-0.6133333333333333,-0.3486357712528961,0.1513642287471039,0.0361357712528961
1589995643.2580214,-3.91,-0.855499745726245,8.889000508547511,0.32666666666666666,-0.3244444444444444,-0.6133333333333333,-0.29062023236709306,0.18125317842193794,0.0625
1589995643.2680213,-3.9041955663783696,-0.85,8.908706650432446,0.32086223304503597,-0.320897290564559,-0.6133333333333333,-0.16936114493240406,0.21372228986480812,0.08063885506759594
1589995643.2780213,-3.8931773071813707,-0.8436453856372587,8.901404235367664,0.30666666666666664,-0.31222222222222223,-0.6133333333333333,-0.06542549034930062,0.08528366023286707,0.10514183011643354
1589995643.2880213,-3.896114620365668,-0.83,8.808916962925343,0.30666666666666664,-0.31222222222222223,-0.6133333333333333,-0.010350868143727779,0.0,0.0625
1589995643.2980213,-3.89,-0.83,8.762756172341454,0.30666666666666664,-0.31222222222222223,-0.6133333333333333,-0.08193480716475715,0.008613038567048571,0.0625
1589995643.3080213,-3.8996322714573353,-0.83,8.78642151430489,0.30666666666666664,-0.31222222222222223,-0.6133333333333333,0.1875,-0.017768928811125503,0.002298303391655869
1589995643.3180213,-3.9192718787557164,-0.83,8.799514585837144,0.30666666666666664,-0.31222222222222223,-0.6133333333333333,0.1875,-0.18143232296430412,-0.12044924222322809
1589995643.3280213,-3.9,-0.85,8.873091827329288,0.31222222222222223,-0.3244444444444444,-0.6222222222222222,-0.2022956832321991,-0.043176079191950226,-0.02385215838390045
1589995643.3380213,-3.9024034473037736,-0.845193105392453,8.86557931617736,0.31222222222222223,-0.3244444444444444,-0.6222222222222222,-0.39002154564858443,0.06008618259433772,0.03245690870283114
1589995643.3480213,-3.9049180905407788,-0.83,8.886064822969878,0.31222222222222223,-0.3244444444444444,-0.6222222222222222,-0.4692619341201339,0.31352386824026773,-0.030738065879866126
1589995643.3580213,-3.9037046064316216,-0.8337046064316215,8.953704606431621,0.31222222222222223,-0.3244444444444444,-0.6222222222222222,-0.5694613705929032,0.375,-0.04630758039526886
1589995643.3680212,-3.91,-0.8373846853677027,8.957384685367703,0.31076926964872376,-0.3244444444444444,-0.6123421447224329,-0.7365371493555724,0.40769143290371496,-0.09230856709628507
1589995643.3780212,-3.8818204874923246,-0.7924273166564327,8.954696585417945,0.30666666666666664,-0.3244444444444444,-0.5844444444444444,-0.9630609765864858,0.5,-0.05870731772432389
1589995643.3880212,-3.85,-0.6328591201642483,8.90397610094812,0.30666666666666664,-0.3244444444444444,-0.5844444444444444,-0.9351729567002699,0.27717767422547235,0.1296540865994602
1589995643.3980212,-3.807856204412631,-0.5293652879083043,8.85,0.30666666666666664,-0.3244444444444444,-0.5844444444444444,-0.6369008517192951,0.003966950573098357,1.5749275132514837
1589995643.4080212,-3.6812745098039215,-0.5474976657329599,8.86124649859944,0.30666666666666664,-0.3244444444444444,-0.5844444444444444,-0.20319794584500467,-0.22651143790849673,4.413602941176471
1589995643.4180212,-3.451404713042247,-0.6309886066095818,8.911550491826482,0.3014082513622532,-0.3244444444444444,-0.5844444444444444,0.2614464652183144,-0.5739464652183144,8.403226947845162
1589995643.4280212,-2.9280556387858114,-0.8029444303593242,8.834111139281353,0.2933333333333333,-0.3244444444444444,-0.5844444444444444,0.6253471662018577,-0.8305555235439187,12.860068972272801
1589995643.4380212,-2.65,-0.85,8.74,0.2933333333333333,-0.3244444444444444,-0.5844444444444444,0.8125,-0.9375,14.4375
1589995643.4480212,-1.7543805344408745,-1.2489577619308831,8.772567980565785,0.2933333333333333,-0.3244444444444444,-0.5844444444444444,1.524924574876577,-0.47951277329362907,17.948735404748845
1589995643.4580212,-1.9055958756800067,-1.317371273141315,8.739205499093325,0.2933333333333333,-0.3244444444444444,-0.5844444444444444,3.9350171846666386,2.818048117066588,20.469041243199932
1589995643.4680212,-2.038254122211445,-0.9547720659553831,8.562327837051408,0.2933333333333333,-0.3244444444444444,-0.5844444444444444,3.382274490785645,1.2703685741998059,19.142458777885548
1589995643.4780211,-2.2305018228608193,-0.9532218171420401,9.004225462863678,0.2933333333333333,-0.3244444444444444,-0.5988888888888889,-1.523272750017871,-1.8559091071556222,15.236408964186147
1589995643.4880211,-2.323816804801372,-0.9061831951986281,8.995022863675334,0.2933333333333333,-0.3244444444444444,-0.5988888888888889,-1.0093508859674192,-1.4284349099742784,12.990934909974278
1589995643.4980211,-2.3952181607034233,-0.84,8.809136205275673,0.2933333333333333,-0.3244444444444444,-0.5988888888888889,0.6277270087927888,-0.105966239009014,11.04880965547752
1589995643.508021,-2.41202271172527,-0.8415170337939526,8.925056779313175,0.2933333333333333,-0.3244444444444444,-0.5988888888888889,0.7556112327267752,0.08391366808044876,8.90131515939253
1589995643.518021,-2.4514734829998375,-0.87,9.02,0.29218729100012647,-0.3237895631111834,-0.6023270158885093,-0.30329073125101674,-0.6598721937530503,5.423745831299821
1589995643.528021,-2.459983207388749,-0.8699832073887489,9.019882451721243,0.2855555555555556,-0.32,-0.6222222222222222,-0.24965890008396305,-0.4995801847187238,2.811266792611251
1589995643.538021,-2.4334529696910345,-0.827309406061793,8.707712872741517,0.2855555555555556,-0.32,-0.6222222222222222,0.5288675757724135,0.6008972726827596,-1.04989166625863
1589995643.548021,-2.4771794719491553,-0.8164102640254225,8.63435894389831,0.2855555555555556,-0.32,-0.6222222222222222,0.34775660063556174,0.8301283003177808,-4.908650990466573
1589995643.558021,-2.5102799083574063,-0.8059440183285188,8.684335890028887,0.2855555555555556,-0.32,-0.6222222222222222,0.2888995417870306,0.75,-8.782793355911943
1589995643.568021,-2.5660846414281315,-0.8111791320406279,8.779622037550016,0.2855555555555556,-0.32165616770972266,-0.6106290482541636,0.5073695752539242,0.843159433671899,-12.428050938750385
1589995643.578021,-2.6258476974530485,-0.83,8.91565731926936,0.2855555555555556,-0.3244444444444444,-0.5911111111111111,0.625,1.0742860818111655,-16.57179379984564
1589995643.588021,-2.652429859049453,-0.834859718098906,8.94570140950547,0.2855555555555556,-0.3244444444444444,-0.5911111111111111,0.6857464762363262,1.2786197143544893,-20.06481685789938
1589995643.598021,-2.6652814188077216,-0.857922128211582,8.888484965827024,0.2855555555555556,-0.3244444444444444,-0.5911111111111111,0.9740266026447753,1.7110399039671629,-24.375819231737303
1589995643.608021,-2.678997885188677,-0.88,8.94,0.2855555555555556,-0.3244444444444444,-0.5911111111111111,1.2562632175707698,2.150052870283079,-28.13218844752465
1589995643.618021,-2.6713642444074006,-0.8827284888148011,8.94,0.2884356270822901,-0.32641501969957853,-0.5902016148395107,1.2698673622687329,2.3835265275462536,-32.78154262106151
1589995643.628021,-2.6799960898108703,-0.8999921796217407,8.94,0.30665841182294845,-0.3388832408379238,-0.5844470512371975,1.0001221934103022,2.4374755613179397,-36.93561822148134
1589995643.638021,-2.6547640772187724,-0.8873820386093862,8.859315042453428,0.30666666666666664,-0.3388888888888889,-0.5844444444444444,1.0788622586913361,2.9597603282220253,-42.56649584970219
1589995643.648021,-2.64527111328898,-0.8852711132889802,8.661317778322244,0.30666666666666664,-0.3388888888888889,-0.5844444444444444,1.141472229028063,3.4326528015982207,-46.36770858855237
1589995643.658021,-2.676891008123033,-0.9168910081230329,8.669222752030759,0.30666666666666664,-0.3388888888888889,-0.5844444444444444,1.2402844003844777,3.7784954013456717,-50.07316501441791
1589995643.668021,-2.745380469626543,-0.9164565635518512,8.708293596730245,0.30810145856707805,-0.3381714929386832,-0.5875531602286691,1.4019023481327135,3.8817255870331784,-54.54198639605706
1589995643.678021,-2.7873974194582467,-0.9668769033498958,8.851151226158038,0.31930597852219905,-0.3325692329611227,-0.6118296201314313,1.6119870972912325,3.934246774322808,-57.7983000080141
1589995643.688021,-2.817652856785088,-0.9923471432149118,8.903569997495618,0.32,-0.3322222222222222,-0.6133333333333333,1.838017870559193,4.135848225465994,-62.83999118993954
1589995643.698021,-2.8101499051912278,-0.9998500948087725,8.851049336338592,0.32,-0.3322222222222222,-0.6133333333333333,2.119378555328969,4.3703154627741405,-65.32534390540589
1589995643.708021,-2.772083639031548,-1.0483345561261923,8.882501834189288,0.32,-0.3322222222222222,-0.6133333333333333,2.5625,4.914068231841526,-69.08863719735876
1589995643.718021,-2.7799740391669956,-1.0798961566679837,8.929844235001974,0.32,-0.3322222222222222,-0.6133333333333333,2.5625,5.062013234381173,-71.5543872396862
1589995643.728021,-2.877535774752418,-1.1462321126237909,8.901160563118955,0.3388888888888889,-0.3388888888888889,-0.6222222222222222,2.6485492961013057,5.469197184405223,-75.47366902845745
1589995643.738021,-2.886527508985347,-1.150417473043959,8.83527508985347,0.3388888888888889,-0.3388888888888889,-0.6222222222222222,2.578984655792093,5.581593862316837,-78.14243502902958
1589995643.748021,-2.872094288480155,-1.1831761858664085,8.75418857696031,0.3388888888888889,-0.3388888888888889,-0.6222222222222222,2.3255893030009682,5.532940464666021,-80.59630929332043
1589995643.7580209,-2.84940368724129,-1.222981563793551,8.70940368724129,0.3388888888888889,-0.3388888888888889,-0.6222222222222222,2.1912269547419387,5.654815637935512,-82.5716703707098
1589995643.7680209,-2.8429971436863246,-1.2550142815683758,8.702997143686325,0.3388888888888889,-0.3388888888888889,-0.6222222222222222,2.23126785196047,5.975142815683759,-84.01314267057691
1589995643.7780209,-2.8572856810965694,-1.2959285216448542,8.751857043289707,0.38498403847974055,-0.2995159486133698,-0.6078174879750811,2.4120532602803375,6.016964493146442,-86.57812136993728
1589995643.7880208,-2.8912957601059412,-1.4077745606356473,8.839633919152469,0.3922222222222223,-0.2933333333333333,-0.6055555555555555,2.727992503310664,6.086795501986399,-89.45475052185039
1589995643.7980208,-2.9,-1.4616847768190049,8.77393114591101,0.3922222222222223,-0.2933333333333333,-0.6055555555555555,3.0210597102375627,6.271059710237562,-91.36231845460033
1589995643.8080208,-2.9,-1.4840257803345052,8.826060154113845,0.3922222222222223,-0.2933333333333333,-0.6055555555555555,3.3003222541813146,6.550322254181315,-92.85171868896701
1589995643.8180208,-2.8798249118947674,-1.5605252643156973,8.87,0.39245567302919887,-0.2930998825263567,-0.6056236453742571,3.624452849671149,6.753282901973108,-95.20500881052324
1589995643.8280208,-2.860994859592808,-1.6170154212215764,8.87,0.4175624094318117,-0.26799314612374386,-0.6129464434916858,3.565608936227525,7.106346382634851,-97.0880140407192
1589995643.8380208,-2.8676276475202647,-1.6841241174932449,8.833193236293907,0.4188888888888889,-0.26666666666666666,-0.6133333333333333,3.174612132833609,6.913663601499172,-99.67529961649089
1589995643.8480208,-2.823758040617101,-1.6987473197942997,8.738142421337052,0.4188888888888889,-0.26666666666666666,-0.6133333333333333,3.1289146256428135,7.050756123071559,-101.18331735378715
1589995643.8580208,-2.7841417531209847,-1.7903543828024624,8.753787370318523,0.4188888888888889,-0.26666666666666666,-0.6133333333333333,2.838385957006156,7.224114042993844,-103.70078935509234
1589995643.8680208,-2.799388363486842,-1.8304077576754387,8.73,0.4194325657894737,-0.26585115131578946,-0.614511299951267,2.9425969709429824,7.135193941885965,-105.21935606839364
1589995643.8780208,-2.7765906623235614,-1.8609844372059356,8.73878754976475,0.4455555555555555,-0.22666666666666666,-0.6711111111111111,3.242422186029678,7.652461093014839,-107.05207202316323
1589995643.8880208,-2.79729098805646,-1.8954849800941005,8.76638798407528,0.4455555555555555,-0.22666666666666666,-0.6711111111111111,3.414924900470503,7.738712450235251,-108.00083695258776
1589995643.8980207,-2.7820602985192964,-2.0241205970385936,8.748241194077186,0.4455555555555555,-0.22666666666666666,-0.6711111111111111,3.689384328728022,7.762876865745604,-109.80716044916649
1589995643.9080207,-2.7879891897648905,-2.0420108102351096,8.78150810767633,0.4455555555555555,-0.22666666666666666,-0.6711111111111111,3.9375,7.828209454961791,-110.81597971083953
1589995643.9180207,-2.740785995417964,-2.1021136109968865,8.81,0.4551790714523487,-0.2184764403715235,-0.6698825771668396,3.972052517182635,8.14803501145509,-112.30436762027844
1589995643.9280207,-2.7,-2.2,8.81,0.4977777777777778,-0.18222222222222226,-0.6644444444444444,4.125,8.25,-113.375
1589995643.9380207,-2.6671831809872026,-2.222675685557587,8.757324314442412,0.4977777777777778,-0.18222222222222226,-0.6644444444444444,3.8485923217550275,8.0625,-114.55985374771481
1589995643.9480207,-2.648956180143104,-2.3,8.683131459570687,0.4977777777777778,-0.18222222222222226,-0.6644444444444444,3.6679283776832063,8.069023874105598,-115.81145360800636
1589995643.9580207,-2.642417808539494,-2.3,8.702746574381518,0.4977777777777778,-0.18222222222222226,-0.6644444444444444,3.545333910115512,8.109888696628163,-116.58788523593509
1589995643.9680207,-2.5173394609365296,-2.355321078126941,8.72266053906347,0.49945293200292584,-0.17877337528809398,-0.6657254447342634,3.3694572102844367,8.505542789715562,-118.19552695317351
1589995643.9780207,-2.484944812362031,-2.4201103752759385,8.752527593818984,0.5166666666666667,-0.14333333333333334,-0.6788888888888889,3.3598923841059603,8.578297461368653,-119.84685430463576
1589995643.9880207,-2.4727240641092405,-2.458172192327721,8.747741711508418,0.5166666666666667,-0.14333333333333334,-0.6788888888888889,3.593639703755135,8.66756350170688,-120.89180480819302
1589995643.9980206,-2.4875734393510434,-2.54882497038331,8.684559363893742,0.5166666666666667,-0.14333333333333334,-0.6788888888888889,4.1875,8.998164016223923,-122.59698210951147
1589995644.0080206,-2.471528350228361,-2.672823883257213,8.735647766514425,0.5166666666666667,-0.14333333333333334,-0.6788888888888889,4.199266180238387,9.193383090119193,-124.03384343321822
1589995644.0180206,-2.3909135573910567,-2.703654229564227,8.788629663913413,0.5182400155068199,-0.14074492072533942,-0.6791934080192411,4.321064600541156,9.26427433423526,-125.64814600541156
1589995644.0280206,-2.397115864729914,-2.8036209146618245,8.755705288243304,0.5511111111111111,-0.08666666666666667,-0.6855555555555556,4.406053180322288,9.575920974239674,-127.79986630447118
1589995644.0380206,-2.361417669087608,-2.869067606672719,8.743805889695869,0.5511111111111111,-0.08666666666666667,-0.6855555555555556,4.14575383709714,9.613106594700408,-128.80387805691103
1589995644.0480206,-2.3496058574354084,-2.9304729710775104,8.649921171487081,0.5511111111111111,-0.08666666666666667,-0.6855555555555556,3.8730292871770415,9.314963391028698,-130.7623169551435
1589995644.0580206,-2.2913542054641454,-2.9885590342440245,8.65729158907171,0.5511111111111111,-0.08666666666666667,-0.6855555555555556,3.625,9.643012071949697,-132.56466900729575
1589995644.0680206,-2.2340771131109936,-2.9893073936827244,8.749846479618846,0.5522392800423505,-0.0809318079328667,-0.6873418230300179,3.6620180430562908,9.808171210517028,-134.17355412916888
1589995644.0780206,-2.155820207536865,-3.104179792463135,8.670722883670125,0.5644444444444444,-0.01888888888888889,-0.7066666666666667,3.885252594210814,10.30456444565811,-135.670412342982
1589995644.0880206,-2.1034730105341835,-3.15,8.738996800037372,0.5644444444444444,-0.01888888888888889,-0.7066666666666667,3.3940873683227055,9.956587368322706,-136.73718263144372
1589995644.0980206,-2.057117553568351,-3.155855657468931,8.58936905195029,0.5644444444444444,-0.01888888888888889,-0.7066666666666667,3.8930152901978055,10.404278287344656,-137.37837614652548
1589995644.1080205,-1.9687708480937518,-3.1960132508664767,8.653621201386363,0.5644444444444444,-0.01888888888888889,-0.7066666666666667,4.4451821994140515,10.605066254332382,-137.83014907224785
1589995644.1180205,-1.9314667304448527,-3.238044359406863,8.717066539110295,0.5644444444444444,-0.01888888888888889,-0.7066666666666667,4.262222753707107,10.565555688426777,-138.46944311573222
1589995644.1280205,-1.8861799014409582,-3.321910049279521,8.734269852161438,0.5644444444444444,0.03,-0.7422222222222222,4.0891865760089825,10.75,-138.94943780799701
1589995644.1380205,-1.8630356323596882,-3.3377381862670132,8.699940357852883,0.5644444444444444,0.03,-0.7422222222222222,3.92299090074935,10.73549090074935,-138.96130906866495
1589995644.1480205,-1.775701941420716,-3.425701941420716,8.583223543934462,0.5644444444444444,0.03,-0.7422222222222222,3.7164214173493435,10.582647149590393,-138.43955855122883
1589995644.1580205,-1.7443227471664235,-3.3943227471664237,8.606757939625181,0.5644444444444444,0.03,-0.7422222222222222,3.471271462237684,10.72973712265739,-137.99828863202782
1589995644.1680205,-1.6944865341052102,-3.4537188522527056,8.646410772715832,0.5644444444444444,0.03,-0.7422222222222222,3.266824502894538,10.522432670526051,-137.08412251447268
1589995644.1780205,-1.6386234085401234,-3.477931528825477,8.660691879714646,0.5777777777777777,0.05111111111111112,-0.7566666666666667,2.6961036966242276,10.519391917261153,-135.5431528825477
1589995644.1880205,-1.559882752500256,-3.4636150459091373,8.596267706591119,0.5777777777777777,0.05111111111111112,-0.7566666666666667,3.1882327968734,10.653608944601837,-134.11150459091374
1589995644.1980205,-1.5254298627925746,-3.493427602905569,8.552285068603714,0.5777777777777777,0.05111111111111112,-0.7566666666666667,2.8250141242937854,10.680359160613397,-131.0822255851493
1589995644.2080204,-1.4983480225988701,-3.5137389830508474,8.565825988700565,0.5777777777777777,0.05111111111111112,-0.7566666666666667,2.5288064971751414,10.638043785310735,-129.34729519774012
1589995644.2180204,-1.4624898862199747,-3.5566801517067006,8.652530341340077,0.5777777777777777,0.05111111111111112,-0.7566666666666667,2.3801872629582808,10.854250948166877,-126.23342683312264
1589995644.2280204,-1.3785936141435609,-3.567031929282195,8.647187228287123,0.6144444444444445,0.054444444444444434,-0.7511111111111111,2.0449201767945127,10.349600883972563,-122.49800441986281
1589995644.2380204,-1.3642631709461441,-3.6071315854730717,8.621394756419217,0.6144444444444445,0.054444444444444434,-0.7511111111111111,1.8478620460334994,9.704934455240199,-119.32845504858089
1589995644.2480204,-1.33,-3.5958447714031796,8.577793028537574,0.6144444444444445,0.054444444444444434,-0.7511111111111111,1.2759701787301274,8.96508714328034,-116.12699651920609
1589995644.2580204,-1.3269061080552735,-3.6530938919447267,8.651031297314908,0.6144444444444445,0.054444444444444434,-0.7511111111111111,0.9761736493090826,8.036717567127278,-112.85037229047282
1589995644.2680204,-1.302790309906664,-3.677209690093336,8.65906989669778,0.6144444444444445,0.054444444444444434,-0.7511111111111111,1.2776211261667019,7.835752582555532,-109.73541502961075
1589995644.2780204,-1.2825319854683304,-3.703734007265835,8.646265992734165,0.5966666666666667,0.042222222222222223,-0.8011111111111111,1.5858375454114675,7.345828068235666,-104.79076172800505
1589995644.2880204,-1.216281788027168,-3.7368591059864165,8.613140894013583,0.5966666666666667,0.042222222222222223,-0.8011111111111111,1.7928694124151003,7.087038234481125,-101.2712199889433
1589995644.2980204,-1.188819297503174,-3.74,8.522361404993651,0.5966666666666667,0.042222222222222223,-0.8011111111111111,2.0049195937367754,6.747540203131613,-96.45035442234447
1589995644.3080204,-1.1634623057856235,-3.74,8.573075388428753,0.5966666666666667,0.042222222222222223,-0.8011111111111111,2.110573725893235,6.694713137053382,-92.69963273079016
1589995644.3180203,-1.1517463934911916,-3.7565072130176165,8.637775245561658,0.5966666666666667,0.042222222222222223,-0.8011111111111111,1.918659837279792,6.481159837279792,-88.3186219489961
1589995644.3280203,-1.0997463744122906,-3.7515217535262564,8.7,0.5155555555555555,0.06222222222222223,-0.6788888888888889,1.8125,6.048233560691345,-82.88745364545395
1589995644.3380203,-1.0928026289649693,-3.793184226210185,8.7,0.5155555555555555,0.06222222222222223,-0.6788888888888889,1.8125,5.6576478792795175,-79.80616660320509
1589995644.3480203,-1.01,-3.7311041354585694,8.552429098008854,0.5155555555555555,0.06222222222222223,-0.6788888888888889,1.6930206772928484,5.054218984060728,-74.14924763940552
1589995644.3580203,-1.01,-3.766401965899719,8.630084324979382,0.5155555555555555,0.06222222222222223,-0.6788888888888889,1.8695098294985946,4.789485255752108,-70.92832061165065
1589995644.3680203,-0.9857302418975308,-3.820449596837449,8.64382016126502,0.5155555555555555,0.06222222222222223,-0.6788888888888889,1.5835660276723245,4.384128023719136,-66.04703628462963
1589995644.3780203,-0.9670140506954741,-3.7609953164348418,8.637014050695475,0.4988888888888889,0.1688888888888889,-0.6144444444444445,1.7876170891289511,4.093896361411189,-60.33943197062769
1589995644.3880203,-0.9392350033233632,-3.776119973413094,8.601585036556996,0.4988888888888889,0.1688888888888889,-0.6144444444444445,1.5481563123130608,3.793375083084081,-56.28553272474244
1589995644.3980203,-0.930523014290462,-3.8458158856763047,8.505753157195082,0.4988888888888889,0.1688888888888889,-0.6144444444444445,1.3848065179461615,3.5755753572615485,-52.419587591392485
1589995644.4080203,-0.8897099533437014,-3.850580093312597,8.553480559875585,0.4988888888888889,0.1688888888888889,-0.6144444444444445,1.4356872083981338,3.1213744167962676,-47.69466854587869
1589995644.4180202,-0.8815561819595645,-3.866887636080871,8.651325816485226,0.4988888888888889,0.1688888888888889,-0.6144444444444445,1.3847261372472783,3.0194522744945567,-44.3821989210731
1589995644.4280202,-0.8683170191890843,-3.878317019189084,8.738219134323591,0.51,0.23777777777777775,-0.5911111111111111,1.1769813699317773,2.5881847947612204,-39.10616315285098
1589995644.4380202,-0.8496071086331561,-3.8603928913668435,8.608428434532625,0.51,0.23777777777777775,-0.5911111111111111,1.0772334262566425,2.1752221447861313,-35.345299024305255
1589995644.4480202,-0.8404723843540378,-3.8695276156459624,8.571889537416151,0.51,0.23777777777777775,-0.5911111111111111,1.4197855867235822,1.8897620110636815,-31.748501339402388
1589995644.4580202,-0.8478233674272226,-3.893470102281668,8.609116837136114,0.51,0.23777777777777775,-0.5911111111111111,1.0952276750590086,1.4349355822187255,-28.482049075531076
1589995644.4680202,-0.8090535970825505,-3.688443584926511,8.688244004862415,0.51,0.23777777777777775,-0.5911111111111111,1.1706100121560392,1.26984749696099,-24.85258730246436
1589995644.4780202,-0.8298494176132258,-3.8051868551114194,8.640301164773549,0.5038012017046093,0.2749705675501219,-0.5973099094065019,1.2001882279834677,0.8016940518512096,-20.22511127489234
1589995644.4880202,-0.8465490725632514,-3.9189416530692625,8.705137943322267,0.5022222222222222,0.28444444444444444,-0.5988888888888889,0.7372512612764681,0.7693634070406422,-16.264190532455597
1589995644.4980202,-0.8317637490317583,-3.913527498063517,8.512928737412858,0.5022222222222222,0.28444444444444444,-0.5988888888888889,0.8989179899302866,0.014664020139426914,-10.521843532145624
1589995644.5080202,-0.8361504349309227,-3.9284513047927683,8.563805219171073,0.5022222222222222,0.28444444444444444,-0.5988888888888889,1.0528206549548014,0.05282065495480129,-7.434184717721303
1589995644.5180202,-0.8471955269685122,-3.9831731618110733,8.653173161811074,0.5022222222222222,0.28444444444444444,-0.5988888888888889,1.2149440871064026,-0.14483226131920796,-2.5569849077227054
1589995644.5280201,-0.8593016877637131,-3.981396624472574,8.679301687763713,0.5104903891233005,0.3185506329113924,-0.5988888888888889,1.0755933544303797,-0.715084388185654,2.6988528481012652
1589995644.5380201,-0.8697291341701948,-4.009187402510585,8.602166926638441,0.5111111111111111,0.3211111111111111,-0.5988888888888889,1.1841141771274357,-0.8108070885637179,7.682145819406275
1589995644.5480201,-0.8768860943005007,-4.0168860943005,8.579341717098497,0.5111111111111111,0.3211111111111111,-0.5988888888888889,0.7571191062187084,-1.0276904468906458,11.169470971494075
1589995644.55802,-0.8716541620737475,-4.028345837926253,8.578345837926253,0.5111111111111111,0.3211111111111111,-0.5988888888888889,0.3538540518436867,-1.5422918963126266,17.06906491128258
1589995644.56802,-0.8938952966807638,-4.061860395574352,8.611860395574352,0.5111111111111111,0.3211111111111111,-0.5988888888888889,0.1631543957452262,-1.8241274723396983,21.969831314878892
1589995644.57802,-0.9279143464033527,-4.060695217865549,8.703743039210059,0.49353541152381497,0.3345513519719846,-0.6050920769785227,-0.5147037717434985,-2.8054782134450886,33.99127389632011
1589995644.58802,-0.9471212580687085,-4.008636225793874,8.641514967725167,0.4922222222222222,0.33555555555555555,-0.6055555555555555,-0.5625,-2.875,34.8125
1589995644.59802,-0.9937506197322756,-4.0350004957858205,8.586249380267725,0.4922222222222222,0.33555555555555555,-0.6055555555555555,-0.8359413733267229,-3.421882746653446,40.22663919186911
1589995644.60802,-1.0738204551137784,-4.04,8.58,0.4922222222222222,0.33555555555555555,-0.6055555555555555,-1.2210333833458364,-4.019050075018755,52.64979057264316
1589995644.61802,-1.0874858871356183,-4.025028225728763,8.662344758491802,0.4922222222222222,0.33555555555555555,-0.6055555555555555,-1.3435735891952296,-4.483581151378533,58.16331907596863
1589995644.62802,-1.0668273317828214,-4.054759002325768,8.655240997674232,0.5044522415590664,0.3316934441860258,-0.6100613521533402,-1.375,-4.806036470446708,63.01857105621942
1589995644.63802,-1.067216073591918,-4.006831687234349,8.673040183979795,0.5133333333333333,0.3288888888888889,-0.6133333333333333,-1.3211997700252562,-5.179601034886347,67.80471011888874
1589995644.64802,-1.0957044742549604,-3.9613402682946424,8.667250783195437,0.5133333333333333,0.3288888888888889,-0.6133333333333333,-1.820447425496024,-5.7139177845610085,73.4332074865451
1589995644.65802,-1.110725980846463,-3.935644114921223,8.587822057460611,0.5133333333333333,0.3288888888888889,-0.6133333333333333,-2.25,-6.009074760580785,77.29010271856657
1589995644.66802,-1.1481444465396946,-3.9081444465396946,8.605031114463511,0.5133333333333333,0.3288888888888889,-0.6133333333333333,-2.531444465396945,-6.230541674523854,80.3720417688101
1589995644.67802,-1.1978979779411765,-3.8928026960784314,8.714394607843138,0.5680960307734204,0.2958246187363834,-0.6257324346405229,-2.575637637867647,-6.370620787377451,82.83239889705882
1589995644.68802,-1.2468968779564806,-3.9368968779564804,8.635585619678336,0.5722222222222222,0.2933333333333333,-0.6266666666666667,-2.6797421948912015,-6.4336210974456005,84.87199621570483
1589995644.69802,-1.2825131788394353,-3.9562565894197177,8.573101937030989,0.5722222222222222,0.2933333333333333,-0.6266666666666667,-2.7383018419366176,-6.6407073677464705,86.62565894197176
1589995644.70802,-1.316445188957384,-3.924739748056821,8.507109622085231,0.5722222222222222,0.2933333333333333,-0.6266666666666667,-2.9152824309836505,-6.6875,88.48754187885285
1589995644.71802,-1.3774928654881156,-3.898440175441957,8.600612514604203,0.5722222222222222,0.2933333333333333,-0.6266666666666667,-2.98241630116259,-7.0019141081381315,90.03498903487771
1589995644.72802,-1.4366329513760543,-3.89,8.612525286467958,0.7604748890158346,0.28112234954131526,-0.6398952324413529,-2.4848491212742365,-7.010522026949831,93.08101540710373
1589995644.73802,-1.4679439533771457,-3.8830140116557135,8.66588790675429,0.7777777777777778,0.28,-0.6411111111111111,-2.96144912582148,-7.39296184436611,95.36463407613412
1589995644.74802,-1.5260124284747432,-3.872331261920876,8.613312619208761,0.7777777777777778,0.28,-0.6411111111111111,-3.2833592259890483,-7.706288838983572,98.6464806497262
1589995644.75802,-1.5918534352680818,-3.844073282365959,8.641853435268082,0.7777777777777778,0.28,-0.6411111111111111,-3.2584860049290816,-7.804013995070918,102.29175573382959
1589995644.76802,-1.6075881974293487,-3.84,8.65,0.7777777777777778,0.28,-0.6411111111111111,-3.3448524678668576,-8.097057403600573,105.54814780207231
1589995644.77802,-1.6442283166864171,-3.8057716833135826,8.675671237514813,1.302611966969509,0.1497422392766899,-0.8265144931625378,-3.6958904689351617,-8.401426979290108,109.32551422041645
1589995644.78802,-1.7012641224915903,-3.7829119591694695,8.637279897923676,1.3911111111111112,0.12777777777777774,-0.8577777777777778,-3.8034001275954066,-8.384099872404594,111.78830472103004
1589995644.79802,-1.7521755273862454,-3.771564894522751,8.53721383975026,1.3911111111111112,0.12777777777777774,-0.8577777777777778,-3.7070611815343866,-8.375,113.44298523082017
1589995644.8080199,-1.750911757139182,-3.670029328531001,8.629058914329818,1.3911111111111112,0.12777777777777774,-0.8577777777777778,-3.630698482119887,-8.602206071520452,113.97150758940056
1589995644.8180199,-1.7351198387940556,-3.697200403014861,8.662320241808917,1.3911111111111112,0.12777777777777774,-0.8577777777777778,-3.299496473619965,-8.531998992462848,114.09300100753715
1589995644.8280199,-1.7470647105989963,-3.624676447005019,8.678532355299497,1.1066992677945073,-0.16611446031604618,-0.803739527547623,-3.1341727793781367,-8.553327220621863,112.89847392569715
1589995644.8380198,-1.7588667625209682,-3.5833997124370955,8.697733525041935,1.0577777777777777,-0.21666666666666667,-0.7944444444444444,-3.2358345315121015,-8.5625,110.69247843278217
1589995644.8480198,-1.7522808545944826,-3.564561709188965,8.63824683675586,1.0577777777777777,-0.21666666666666667,-0.7944444444444444,-2.912287388508608,-8.224787388508608,108.12175637834474
1589995644.8580198,-1.7435991147513858,-3.5728017704972284,8.671207081988912,1.0577777777777777,-0.21666666666666667,-0.7944444444444444,-2.9725221312153556,-7.964977868784644,104.63711270373128
1589995644.8680198,-1.7455929808568824,-3.552035095715588,8.705592980856883,1.0577777777777777,-0.21666666666666667,-0.7944444444444444,-2.92267547857794,-7.630307087511395,100.0213166590702
1589995644.8780198,-1.7204625637005095,-3.493078204625637,8.68046256370051,0.7911203667407116,-0.03451914281980922,-0.7230623067206761,-2.4432820462563702,-7.022129802038417,93.24053679929439
1589995644.8880198,-1.7438170766139078,-3.5025447177426052,8.692544717742607,0.6966666666666667,0.03,-0.6977777777777778,-2.4886306073641027,-6.6284171496902555,87.84785275946255
1589995644.8980198,-1.77,-3.5390786215854204,8.640045054186793,0.6966666666666667,0.03,-0.6977777777777778,-2.4262643584852053,-6.119522973576328,80.10534460364492
1589995644.9080198,-1.762289669363513,-3.5268690080905394,8.623130991909461,0.6966666666666667,0.03,-0.6977777777777778,-2.02336260113174,-5.311035635785437,70.53208156011785
1589995644.9180198,-1.7666869800332778,-3.486565099833611,8.656747920133112,0.6966666666666667,0.03,-0.6977777777777778,-1.68673824875208,-4.832444623544093,61.896607217138104
1589995644.9280198,-1.75424682835256,-3.4384936567051203,8.65424682835256,0.6336539800769068,0.07025810532123548,-0.6925267205619645,-1.6609573227964998,-3.8506127562297516,50.05921291670451
1589995644.9380198,-1.7748960585398303,-3.3802078829203395,8.691493430899717,0.6166666666666667,0.0811111111111111,-0.6911111111111111,-1.2725656910028271,-3.1581989023781807,37.89531016131714
1589995644.9480197,-1.7874181027128477,-3.3403275891486097,8.625818972871523,0.6166666666666667,0.0811111111111111,-0.6911111111111111,-0.5847791545811295,-2.2743265867599387,26.926913602627536
1589995644.9580197,-1.8212642112432547,-3.322183947189186,8.6,0.6166666666666667,0.0811111111111111,-0.6911111111111111,-0.32614966993241473,-1.2183947189186357,13.944733326347777
1589995644.9680197,-1.836401142857143,-3.3328022857142856,8.670412571428573,0.6166666666666667,0.0811111111111111,-0.6911111111111111,0.047564285714285726,-0.5599214285714287,3.4661214285714284
1589995644.9780197,-1.7621869619526687,-3.293312177171601,8.71,0.6149374880433927,0.07332980730637798,-0.7274238621998657,0.7363314877958205,0.3683640829141487,-9.969398821781844
1589995644.9880197,-1.8217675343289104,-3.3535907808960195,8.750883767164455,0.6144444444444445,0.07111111111111111,-0.7377777777777778,1.0794188358222756,1.3801753432891026,-21.863557029913544
1589995644.9980197,-1.7846794858778858,-3.245528843225243,8.594038457633657,0.6144444444444445,0.07111111111111111,-0.7377777777777778,1.3410957582895084,1.8218149099474101,-31.15509832686958
1589995645.0080197,-1.8596053023532915,-3.2896053023532916,8.62624565584351,0.6144444444444445,0.07111111111111111,-0.7377777777777778,1.022477906861285,2.518530930394201,-40.80784244365008
1589995645.0180197,-1.869820380453999,-3.319910190226999,8.68,0.6144444444444445,0.07111111111111111,-0.7377777777777778,1.3775258998656388,3.2519645887843858,-48.39436523230323
1589995645.0280197,-1.8245512744516894,-3.2891025489033785,8.723589804386485,0.5853845748534545,0.05537034841599157,-0.7286965685305934,2.2780453467694133,4.096154416123296,-57.31891671606402
1589995645.0380197,-1.7872209311273568,-3.2753172758753366,8.76,0.5611111111111111,0.042222222222222223,-0.7211111111111111,2.5625,4.613102154674875,-65.10928145440555
1589995645.0480196,-1.7611780490570317,-3.2923560981140634,8.712493291507615,0.5611111111111111,0.042222222222222223,-0.7211111111111111,2.6672942099096715,5.022088419819343,-71.71078130314827
1589995645.0580196,-1.767631261610664,-3.3350875077404427,8.619824984519115,0.5611111111111111,0.042222222222222223,-0.7211111111111111,2.9375,5.655703076622234,-82.37616921422286
1589995645.0680196,-9.892343599228047,-10.776069877774205,4.230985445480862,0.5611111111111111,0.042222222222222223,-0.7211111111111111,-33.9497125281441,110.34424252171117,-102.82595890961724
1589995645.0780196,-5.800569294029073,-7.194220188799444,0.8218271848033825,0.5441635618360006,0.06368911797069554,-0.6589700971023725,-25.994932530260034,39.62880060230498,-153.79683427926102
1589995645.0880196,0.3734867141931304,-0.368801036941024,-0.2926701231367466,0.5277777777777778,0.08444444444444445,-0.5988888888888889,4.786151166558652,-24.233656027219702,-194.96083117303954
1589995645.0980196,-0.4382514777001612,-0.5286018269747448,-0.05863621708758732,0.5277777777777778,0.08444444444444445,-0.5988888888888889,8.854238312735088,2.4311458893068245,-188.85247850617947
1589995645.1080196,-0.09820715577461794,-0.5098109996099429,0.0,0.5277777777777778,0.08444444444444445,-0.5988888888888889,10.418045902627567,3.4392818517073867,-175.46637752207369
1589995645.1180196,0.02514938588974578,-0.3916168713700848,-0.011616871370084738,0.5277777777777778,0.08444444444444445,-0.5988888888888889,13.48242525944968,14.241816623821766,-160.04706750452252
1589995645.1280196,-0.12976967526654187,-0.25400911532514037,-0.0037787905916822663,0.5331848475805504,0.18537641409619926,-0.64665133881338,14.028513367787092,22.913597704891348,-140.47925398795473
1589995645.1380196,-0.16,-0.22,0.0,0.5344444444444445,0.2088888888888889,-0.6577777777777778,13.875,24.0,-137.5625
1589995645.1480196,-0.3656940718406496,0.16301654756534747,-1.7164815650150755,0.5344444444444445,0.2088888888888889,-0.6577777777777778,60.4221498777332,-72.50775741316683,-119.83025242753021
1589995645.1580195,-0.3689625917840842,-0.04835185552689025,-0.8655551696765231,0.5344444444444445,0.2088888888888889,-0.6577777777777778,31.522170817622545,-71.08335607263346,-90.59952061420917
1589995645.1680195,-0.09915436112623721,0.055828021397226035,-0.3150176174765367,0.5344444444444445,0.2088888888888889,-0.6577777777777778,-2.7476196386815737,-46.68450602998174,-73.4360475591787
1589995645.1780195,1.0551229654657095,-0.45265748351255647,4.058511419382087,0.5227120987333457,0.22726956383627708,-0.6499562139703785,-20.915901855040445,-6.840538806406549,-58.577972206880865
1589995645.1880195,3.202614547967431,-2.6791413033680858,19.766357599975965,0.5011111111111111,0.2611111111111111,-0.6355555555555555,-9.30797817203978,98.4185639064988,-41.35208665084277
1589995645.1980195,1.195024122090453,-1.4347950102831222,9.589665942683608,0.5011111111111111,0.2611111111111111,-0.6355555555555555,-7.074341207449978,92.41356050704442,-34.53489414150345
1589995645.2080195,-0.35719731151009737,-0.5224551140430034,1.3795400939726796,0.5011111111111111,0.2611111111111111,-0.6355555555555555,-0.4353996172635899,21.187157715405924,-32.810117621433236
1589995645.2180195,-0.2213990243115752,-1.0435552150949483,3.239197677700278,0.5011111111111111,0.2611111111111111,-0.6355555555555555,-3.0414314800628954,-39.6453705196952,-33.31637049953635
1589995645.2280195,-0.2595369030390738,-2.4070622286541243,7.853024602026049,0.5049059334298118,0.2701238141180254,-0.6417221418234443,-8.837011577424024,-43.9218523878437,-27.994301736613604
1589995645.2380195,-0.4376822112415071,-3.2348143143916,10.729126003705991,0.51,0.2822222222222222,-0.65,2.614405593730698,7.813790823810997,-11.874022834311303
1589995645.2480195,-0.5395629680547014,-2.3501092579863245,7.192021272747006,0.51,0.2822222222222222,-0.65,9.515696790998879,32.909134076191165,0.27561638508013453
1589995645.2580194,-0.700058999434252,-2.690265497454134,8.243906489937768,0.51,0.2822222222222222,-0.65,-4.521834336862524,-7.074168552493333,-1.368046856057545
1589995645.2680194,-1.0241579390875164,-3.5826579992777177,11.769184623409977,0.51,0.2822222222222222,-0.65,-11.235526764576061,-9.642595602102645,3.1503300429356766
1589995645.2780194,-0.794648772314236,-2.5521573113359546,7.779747373848037,0.5041231838915026,0.29313630928086043,-0.6323695516745076,9.6663216150029,0.9513779242121544,12.714154234065862
1589995645.2880194,-0.7797299023633544,-2.5232439091157954,7.752164887307235,0.5022222222222222,0.2966666666666667,-0.6266666666666667,5.156231465005932,-1.5743281777534444,17.452707249749064
1589995645.2980194,-0.913684186513368,-3.039924719408705,9.866728944246738,0.5022222222222222,0.2966666666666667,-0.6266666666666667,-9.22591377520759,-4.564379163244821,20.98096741262889
1589995645.3080194,-0.9073039121554387,-2.891801407049212,8.988333013284919,0.5022222222222222,0.2966666666666667,-0.6266666666666667,-3.2848860045737833,-2.0727244557722186,26.574028289370318
1589995645.3180194,-0.8485307549190957,-2.609943056886734,7.702824603935277,0.5022222222222222,0.2966666666666667,-0.6266666666666667,3.0850658228561763,-0.636674042961042,32.66457828268591
1589995645.3280194,-0.852810704566072,-2.602810704566072,8.073728454792864,0.5080552363673017,0.2966666666666667,-0.6324996808117461,-4.222418355004536,-4.121008466888418,38.245936649531295
1589995645.3380194,-1.0966690582101688,-3.05871430621323,9.3256024298082,0.5111111111111111,0.2966666666666667,-0.6355555555555555,-3.026845075811929,-3.932113048261348,44.36564009661836
1589995645.3480194,-1.042402821020851,-2.8651441173695633,8.174705160864232,0.5111111111111111,0.2966666666666667,-0.6355555555555555,-0.030035262760637726,-3.6530244598547035,50.181362923389
1589995645.3580194,-1.0419598520866349,-2.805341785525621,7.865387216059165,0.5111111111111111,0.2966666666666667,-0.6355555555555555,-0.284297411516112,-3.882349445324881,53.000283940834656
1589995645.3680193,-0.8604016610582086,-3.5243853368654685,8.325395575284599,0.5111111111111111,0.2966666666666667,-0.6355555555555555,-2.0634889382114983,-4.593559819574712,59.27794086059998
1589995645.3780193,-5.086242591860925,-12.833715024604,6.474976653137459,0.5186420906017903,0.29708505441614885,-0.6518726777853605,-8.09848447433641,2.5456363815954886,45.64365391868108
1589995645.3880193,-9.591311143270623,-20.39381910274964,4.901878437047757,0.5311111111111111,0.2977777777777777,-0.6788888888888889,-21.3660998552822,5.8155481186685964,-29.015077785817653
1589995645.3980193,0.041631740559176844,-0.7694483650272047,9.140383558692022,0.5311111111111111,0.2977777777777777,-0.6788888888888889,-0.9808287992242626,-4.4672433065776005,-160.01615781393093
1589995645.4080193,1.1901487816307403,-0.7568732427366448,8.675456888472352,0.5311111111111111,0.2977777777777777,-0.6788888888888889,45.206112347703844,20.89154756326148,-149.5383888823805
1589995645.4180193,0.18205409291041424,-0.8635780393566359,4.06495282595022,0.5311111111111111,0.2977777777777777,-0.6788888888888889,30.385805103782907,11.849980905741758,-131.5189819390781
1589995645.4280193,-0.6724245524296677,-2.5572642796248934,9.86743989769821,0.5256835275172871,0.2977777777777777,-0.6788888888888889,-17.82924126172208,2.3467551150895147,-115.74246057118499
1589995645.4380193,-1.40824244824905,-2.9696013966521426,11.01913046667547,0.5188888888888888,0.2977777777777777,-0.6788888888888889,-15.59607301615246,11.380008215600839,-97.86653224623329
1589995645.4480193,-0.5728251152891096,-2.498069882937212,7.406111741752394,0.5188888888888888,0.2977777777777777,-0.6788888888888889,10.124824849237319,8.713985455835402,-85.45690847818375
1589995645.4580193,-0.8834103827207276,-2.7634103827207275,8.58695339143615,0.5188888888888888,0.2977777777777777,-0.6788888888888889,5.041895604395604,7.030882910193255,-72.62386320575976
1589995645.4680192,-0.9400957493108951,-2.9904860002901494,9.147371246191788,0.5188888888888888,0.2977777777777777,-0.6788888888888889,-3.341587480052227,1.459360945887132,-64.38466560278543
1589995645.4780192,-1.2717952766411669,-8.49554038427326,7.795708281444583,0.5188888888888888,0.3168240625432406,-0.6670983316531262,3.4732643212951433,4.420932663227184,-53.500175124533
1589995645.4880192,-1.6180256521593908,-12.408515982497747,8.57532716523598,0.5188888888888888,0.34444444444444444,-0.65,-1.3063124185844548,1.9171106249373726,-76.01769013661111
1589995645.4980192,-0.5993631662918325,-5.070618764777118,9.494214482056012,0.5188888888888888,0.34444444444444444,-0.65,4.647566941545085,9.893286382946005,-121.85431083366973
1589995645.5080192,-0.24203475319083498,-2.3565034599415653,9.176355528217746,0.5188888888888888,0.34444444444444444,-0.65,12.48728279255728,13.561494694756266,-135.8089189604798
1589995645.5180192,-0.7953736089030207,-2.78697933227345,9.25383147853736,0.5188888888888888,0.34444444444444444,-0.65,0.9432631160572349,7.656448728139905,-125.63836446740858
1589995645.5280192,-0.7440919102923508,-2.8438416099319186,9.199708650380456,0.4978490855693499,0.3641268410982067,-0.6628953633248788,1.0858279935923107,7.489218311974369,-112.44463981778134
1589995645.5380192,-0.12288824293400957,-6.118804502442947,8.879942482528294,0.4844444444444445,0.37666666666666665,-0.6711111111111111,5.517692034139403,8.585263467128456,-101.9280761024182
1589995645.5480192,0.08553073407331406,-7.375250443055686,8.959776606659826,0.4844444444444445,0.37666666666666665,-0.6711111111111111,0.842522852345863,6.27583422721761,-106.70706440630538
1589995645.5580192,-0.020734344252807027,-4.757685843268897,8.588701007061003,0.4844444444444445,0.37666666666666665,-0.6711111111111111,3.5730871628660728,8.738931010533626,-129.105561986341
1589995645.5680192,-0.1333193075816407,-2.9066596537908205,8.249968442058693,0.4844444444444445,0.37666666666666665,-0.6711111111111111,7.917411784725338,11.917674767569574,-144.06177679717834
1589995645.5780191,-0.1592729297835806,-2.91963646489179,8.308364092013058,0.4844444444444445,0.37666666666666665,-0.6711111111111111,6.538625605247281,10.052258171805144,-145.40001044196586
1589995645.5880191,-4.245122546626305,-11.650182989942387,8.282447417244411,0.4622222222222222,0.4244444444444445,-0.6644444444444444,2.785354213455717,10.696570159164144,-133.52344009374085
1589995645.5980191,-9.666243419589234,-20.971604508044784,7.223078149328984,0.4622222222222222,0.4244444444444445,-0.6644444444444444,-0.16094201823978693,8.548961499962928,-100.94940729962185
1589995645.608019,1.2951650533195131,-4.509675163823545,5.861611531772105,0.4622222222222222,0.4244444444444445,-0.6644444444444444,-0.08665848280950783,-2.885091837810298,6.687587841042848
1589995645.618019,2.664403696217153,-3.1360525555876406,5.6769275194917705,0.4622222222222222,0.4244444444444445,-0.6644444444444444,18.8184016748484,-6.008536673404563,48.81065911059775
1589995645.628019,0.29954154424975166,-2.877606264927818,8.224516497220518,0.4521712826944168,0.4411960103241201,-0.6669571793263958,6.799441461816491,0.01888567140834052,14.44237201707848
1589995645.638019,0.0781975948729027,-3.867493339094117,9.810567437171455,0.4355555555555555,0.4688888888888889,-0.6711111111111111,-14.264581983149709,-1.317558687981566,-15.926694030388132
1589995645.648019,-1.6139359121927157,-6.4723869522321795,8.977444503823069,0.4355555555555555,0.4688888888888889,-0.6711111111111111,-4.800281848639315,3.6195993998191236,-26.189970350653624
1589995645.658019,-1.1667068939508223,-6.607283652637402,8.381153517373159,0.4355555555555555,0.4688888888888889,-0.6711111111111111,1.462994041333535,2.5628488459797856,-24.958110197616534
1589995645.668019,0.47751759136850186,-4.382129515117915,8.59957674101241,0.4355555555555555,0.4688888888888889,-0.6711111111111111,0.20045897479636654,0.7478837050620495,-5.941815216000682
1589995645.678019,0.03236775677343362,-4.135264486453133,8.496086273629887,0.4355555555555555,0.4688888888888889,-0.6849972887567547,1.3487336624221686,-0.8090291411903292,4.313415044595277
1589995645.688019,-0.29055553315863736,-4.634721830276154,8.605554928441846,0.4355555555555555,0.4688888888888889,-0.7,0.375,-0.0034720822414835706,-0.42534645232815965
1589995645.698019,-0.16165092568523814,-4.518278312104671,8.437452849262051,0.4355555555555555,0.4688888888888889,-0.7,0.062057736186927726,-0.022847890130837878,-0.005601406579441408
1589995645.708019,-0.050578311656766836,-4.605096385276128,8.564518073619361,0.4355555555555555,0.4688888888888889,-0.7,-0.2806475920242012,-0.02944277607260362,-0.0012048159515975904
1589995645.718019,-0.08279562581449373,-4.621182503257975,8.542795625814493,0.4355555555555555,0.4688888888888889,-0.7,-0.2674726613405859,-0.02486330670292934,-0.045027338659414134
1589995645.728019,-0.08873689727463312,-4.644947589098533,8.548736897274633,0.4355555555555555,0.4688888888888889,-0.7,-0.304605607966457,-0.21052803983228513,-0.007894392033542981
1589995645.738019,-0.09474691186031392,-4.572626544069843,8.652120367790472,0.3944444444444444,0.4566666666666666,-0.6788888888888889,0.0625,-0.29608409956348103,-0.013252298690443025
1589995645.748019,-0.08,-4.6003630889522995,8.605564293257242,0.3944444444444444,0.4566666666666666,-0.6788888888888889,0.08795386119037454,-0.22454613880962546,0.09954613880962546
1589995645.758019,-0.09185382667149086,-4.63,8.543328889989146,0.3944444444444444,0.4566666666666666,-0.6788888888888889,0.03239197912897758,-0.15045679165159104,0.02545679165159103
1589995645.768019,-0.11599850371399562,-4.625998503713996,8.497339817239352,0.3944444444444444,0.4566666666666666,-0.6788888888888889,-0.12914484582910277,-0.07083645059584247,-0.07083645059584247
1589995645.778019,-0.08819751682304995,-4.6072099327078,8.608197516823049,0.3992510662496445,0.45766804620941665,-0.6774869575290389,0.2612655198559378,-0.125,-0.09120344043218653
1589995645.788019,-0.08024699080655862,-4.6390120367737655,8.600246990806559,0.4204524689602881,0.4620850051074674,-0.6713032150717678,0.3109563074590086,-0.125,0.05786892237702587
1589995645.798019,-0.11040695948219552,-4.623604639654797,8.591627837928783,0.4211111111111111,0.4622222222222222,-0.6711111111111111,0.440043496763722,0.1424420043150373,0.06504349676372201
1589995645.808019,-0.09244774672912293,-4.597761266354386,8.52713422710386,0.4211111111111111,0.4622222222222222,-0.6711111111111111,0.19011266354385398,0.23600791471490873,-0.01660474882894524
1589995645.818019,-0.093420049974304,-4.592899750128479,8.58,0.4211111111111111,0.4622222222222222,-0.6711111111111111,-0.24918703149090007,-0.04112468766060005,0.08387531233939996
1589995645.828019,-0.0814726695068236,-4.6511639829590585,8.590308686547765,0.42389282017955565,0.4622222222222222,-0.6711111111111111,-0.33818326232941004,-0.125,0.009204184417647485
1589995645.838019,-0.09415444260548213,-4.6207722130274105,8.620918901761625,0.44,0.4622222222222222,-0.6711111111111111,-0.09903473371573673,-0.09903473371573673,0.0625
1589995645.848019,-0.1,-4.61544547398432,8.56848182466144,0.44,0.4622222222222222,-0.6711111111111111,0.009488595866001426,-0.13448859586600143,0.08649619862200048
1589995645.8580189,-0.0932341818950037,-4.580297454314989,8.543234181895004,0.44,0.4622222222222222,-0.6711111111111111,0.06157045526565967,-0.12314091053131934,0.06157045526565967
1589995645.8680189,-0.08448256942685912,-4.6185058101910474,8.541953518471624,0.44,0.4622222222222222,-0.6711111111111111,-0.0625,0.0969839410821305,-0.0344839410821305
1589995645.8780189,-0.10218451928758336,-4.6126051602374725,8.589158718100222,0.44,0.4622222222222222,-0.6711111111111111,-0.0625,-0.01365324554739597,0.07615324554739597
1589995645.8880188,-0.0717597845161817,-4.648240215483819,8.600439946129045,0.41025761017925244,0.45691108118280294,-0.678546708566298,0.11675101008039834,-0.002749663306533895,-0.11400134677386442
1589995645.8980188,-0.11352543535726536,-4.593237282321367,8.600864459107694,0.4088888888888889,0.4566666666666666,-0.6788888888888889,0.43930095647436285,0.0625,0.001800956474362854
1589995645.9080188,-0.1,-4.598363745777847,8.546545016888611,0.4088888888888889,0.4566666666666666,-0.6788888888888889,0.25114046666925494,0.042046822223084986,-0.11477341111154249
1589995645.9180188,-0.1,-4.590221687308304,8.579113250766781,0.4088888888888889,0.4566666666666666,-0.6788888888888889,-0.054186725938579816,-0.05972890864619326,-0.06388554567690337
1589995645.9280188,-0.08397489406442157,-4.601924682193265,8.6,0.41131799081714654,0.4566666666666666,-0.6760181320645844,-0.3125,-0.13742154395131742,-0.012421543951317424
1589995645.9380188,-0.09657433093994779,-4.639722992819844,8.593148661879896,0.4211111111111111,0.4566666666666666,-0.6644444444444444,-0.26967913674934724,-0.1875,0.001731294875979103
1589995645.9480188,-0.0986276425652869,-4.622875880855096,8.562744714869426,0.4211111111111111,0.4566666666666666,-0.6644444444444444,-0.07965446793391366,-0.1695257446556523,0.10702574465565227
