time,acc_x,acc_y,acc_z,mag_x,mag_y,mag_z,gyr_x,gyr_y,gyr_z
1589995672.2783866,-3.78,-0.71,8.75,0.31555555555555553,-0.3144444444444445,-0.6077777777777778,0.0625,-0.1875,0.0625
1589995672.2883866,-3.8359322862646317,-0.7845763816861757,8.824576381686175,0.31555555555555553,-0.3144444444444445,-0.6077777777777778,-0.44244425100014817,0.12323492369239886,0.14018373092309971
1589995672.2983866,-3.8632673592575864,-0.789604155545518,8.822871514803104,0.30283834526432973,-0.31818480041245206,-0.6077777777777778,-0.6237629860797438,0.2283419907198292,0.2716580092801708
1589995672.3083866,-3.914153721464271,-0.82,8.84099959475888,0.2966666666666667,-0.32,-0.6077777777777778,-0.7134607591516953,0.18605632851546672,0.7423088612724571
1589995672.3183866,-3.88177842959418,-0.82,8.735779896181086,0.2966666666666667,-0.32,-0.6077777777777778,-0.5111151849636248,-0.16804842631365657,1.0458272225545628
1589995672.3283865,-3.8634413183783445,-0.8282793408108277,8.821072748919105,0.2966666666666667,-0.32,-0.6077777777777778,-0.1895247195939595,-0.13575411993232658,1.0107541199323267
1589995672.3383865,-3.86,-0.83,8.847975438347412,0.2966666666666667,-0.32,-0.6077777777777778,0.0743859586853127,-0.22469297934265636,0.9501535103286718
1589995672.3483865,-3.861486363175504,-0.8092568184122478,8.9,0.3111111111111111,-0.32,-0.6144444444444445,0.2985653452296462,-0.30321023015309745,0.8842897698469026
1589995672.3583865,-3.8790828527456918,-0.7990828527456917,8.893579969219841,0.3111111111111111,-0.32,-0.6144444444444445,0.10207131864229058,-0.1760356593211453,0.9885356593211453
1589995672.3683865,-3.871989379154053,-0.791989379154053,8.84392565407837,0.3111111111111111,-0.32,-0.6144444444444445,-0.07526552114867494,-0.08736723942566253,0.8998672394256625
1589995672.3783865,-3.85082709478022,-0.82,8.89917290521978,0.3111111111111111,-0.32,-0.6144444444444445,-0.4426693423763736,-0.2344919728708791,1.1353386847527474
1589995672.3883865,-3.858028846153846,-0.82,8.891971153846155,0.3111111111111111,-0.32,-0.6144444444444445,-0.48768028846153844,-0.09945913461538461,1.2253605769230769
1589995672.3983865,-3.86119919828065,-0.8223983965613001,8.857601603438699,0.31555555555555553,-0.32666666666666666,-0.6,-0.43000501074593706,0.025025053729685345,1.0
1589995672.4083865,-3.8710725921301625,-0.8453629606508125,8.830346670828538,0.31555555555555553,-0.32666666666666666,-0.6,-0.35488889755945296,-0.24329629918648432,0.9664814959324216
1589995672.4183865,-3.8792551551922587,-0.8862757759612946,8.75670360326967,0.31555555555555553,-0.32666666666666666,-0.6,-0.20146584014514524,-0.19215528004838175,0.7107764002419088
1589995672.4283864,-3.8538332189430338,-0.89,8.776166781056967,0.31555555555555553,-0.32666666666666666,-0.6,0.13958476321207958,-0.46007063601006637,0.3604152367879204
1589995672.4383864,-3.861527035809965,-0.8611824104750884,8.843398696954806,0.31555555555555553,-0.32666666666666666,-0.6,0.43965390834297674,-0.42795602618772094,0.16841205237544188
1589995672.4483864,-3.87,-0.8278943600350012,8.89,0.3041224511441678,-0.32666666666666666,-0.6047077488752773,0.7384903746718638,-0.33716987510937874,0.02466987510937873
1589995672.4583864,-3.86,-0.82,8.89859451779054,0.2966666666666667,-0.32666666666666666,-0.6077777777777778,0.7470719120636237,-0.24707191206362364,-0.0029280879363763742
1589995672.4683864,-3.86,-0.82,8.848931383577053,0.2966666666666667,-0.32666666666666666,-0.6077777777777778,0.6436070491188601,-0.14360704911886013,-0.10639295088113987
1589995672.4783864,-3.8598019562179786,-0.8196039124359571,8.880792175128086,0.2966666666666667,-0.32666666666666666,-0.6077777777777778,0.18626222636236608,-0.0012377736376339077,-0.125
1589995672.4883864,-3.851987703772706,-0.8039754075454122,8.912049184909176,0.2966666666666667,-0.32666666666666666,-0.6077777777777778,0.13742314857941312,-0.05007685142058686,-0.125
1589995672.4983864,-3.863401898395149,-0.813401898395149,8.899897152407277,0.30634581550760764,-0.322199367201617,-0.6122450772428275,0.0831190675151593,-0.1462618649696814,-0.25064279745452206
1589995672.5083864,-3.8502374837148707,-0.82,8.801068676716918,0.3111111111111111,-0.32,-0.6144444444444445,0.000742136608970774,-0.12574213660897077,-0.25074213660897077
1589995672.5183864,-3.8573438134053175,-0.8126561865946823,8.748593306162777,0.3111111111111111,-0.32,-0.6144444444444445,0.32129183648264786,-0.07910116621676458,-0.2958988337832354
1589995672.5283864,-3.8697309335514953,-0.8098654667757477,8.791345332242523,0.3111111111111111,-0.32,-0.6144444444444445,0.3766816653031543,-0.06418166530315426,-0.24915916734842286
1589995672.5383863,-3.8544803199709117,-0.802240159985456,8.867598400145441,0.3111111111111111,-0.32,-0.6144444444444445,0.47199800018180166,-0.15949800018180166,-0.20150099990909917
1589995672.5483863,-3.8603367813326916,-0.7901683906663459,8.880673562665384,0.3111111111111111,-0.32666666666666666,-0.6,0.3686853500120279,-0.05934267500601395,-0.0625
1589995672.5583863,-3.8805474489795917,-0.8008211734693877,8.916989030612244,0.3111111111111111,-0.32666666666666666,-0.6,0.00171077806122449,0.12157844387755103,-0.05907844387755102
1589995672.5683863,-3.8974506179712725,-0.8283004119808485,8.815948558067031,0.3111111111111111,-0.32666666666666666,-0.6,0.04125514976060572,0.010622425119697139,0.0625
1589995672.5783863,-3.87,-0.81,8.880150774174185,0.3111111111111111,-0.32666666666666666,-0.6,-0.19032701576596459,0.12123064564538055,0.060615322822690276
1589995672.5883863,-3.87,-0.81,8.8875558341131,0.3111111111111111,-0.32666666666666666,-0.6,-0.32917188962059285,-0.06389585282745713,-0.03194792641372857
1589995672.5983863,-3.879159332420627,-0.81,8.880840667579374,0.290757039065273,-0.30834800182541233,-0.62137177564813,-0.20326251711324075,-0.06775417237108025,-0.11974582762891975
1589995672.6083863,-3.8601967654452953,-0.8296064691094087,8.808425876437635,0.2888888888888889,-0.30666666666666664,-0.6233333333333333,-0.3075808638676089,-0.12377021596690223,-0.06495956806619554
1589995672.6183863,-3.8684995150147476,-0.813000969970505,8.74200387988202,0.2888888888888889,-0.30666666666666664,-0.6233333333333333,-0.1000121246313122,-0.07187803115782805,-0.1687439376843439
1589995672.6283863,-3.878655667506297,-0.8273113350125945,8.764622670025188,0.2888888888888889,-0.30666666666666664,-0.6233333333333333,0.26208753148614605,-0.38708753148614605,-0.07930415617128463
1589995672.6383862,-3.8581882100579965,-0.8227294033526654,8.813623579884007,0.2888888888888889,-0.30666666666666664,-0.6233333333333333,0.3125,-0.3466175419083181,0.028382458091681897
1589995672.6483862,-3.856177114820169,-0.8323542296403381,8.879416918561352,0.3026158107114869,-0.30666666666666664,-0.6137244880575147,0.23528606474788627,-0.042251226617601945,-0.053320902878170595
1589995672.6583862,-3.842281869483432,-0.831140934741716,8.918859065258284,0.3111111111111111,-0.30666666666666664,-0.6077777777777778,0.24286915786427435,-0.04110747359282302,-0.014261684271451316
1589995672.6683862,-3.846702318830563,-0.823297681169437,8.839572174033245,0.3111111111111111,-0.30666666666666664,-0.6077777777777778,0.2081105073089816,0.06316847807305526,-0.08377898538203683
1589995672.6783862,-3.8588641563578547,-0.8111358436421453,8.808864156357854,0.3111111111111111,-0.30666666666666664,-0.6077777777777778,0.07669804552681585,0.23580195447318414,-0.3466039089463683
1589995672.6883862,-3.8672492474636737,-0.8172492474636739,8.846246237318368,0.3111111111111111,-0.30666666666666664,-0.6077777777777778,-0.11873118659184659,0.06876881340815341,-0.42030779664796164
1589995672.6983862,-3.87,-0.8294958012596221,8.869495801259621,0.2973949537361014,-0.3193277350128295,-0.6077777777777778,-0.1875,-0.11869751574527641,-0.3781512421273618
1589995672.7083862,-3.860853206865402,-0.83,8.888293586269196,0.2966666666666667,-0.32,-0.6077777777777778,-0.07316508581752483,-0.06783254290876242,-0.20349762872628727
1589995672.7183862,-3.86,-0.8398060123329907,8.742909815005138,0.2966666666666667,-0.32,-0.6077777777777778,-0.0012124229188078123,-0.18507515416238438,-0.43265030832476875
1589995672.7283862,-3.86,-0.84,8.789980237839337,0.2966666666666667,-0.32,-0.6077777777777778,0.2231260617827549,-0.05362436293034706,-0.392874787643449
1589995672.7383862,-3.86,-0.8271538558626782,8.854961504480627,0.2966666666666667,-0.32,-0.6077777777777778,0.47307680171652156,0.0,-0.5757210021456519
1589995672.7483861,-3.8667317061347166,-0.8065365877305669,8.886731706134718,0.2966666666666667,-0.32,-0.6025420063396649,0.6045731633419783,0.0,-0.6454268366580217
1589995672.7583861,-3.8793899300514716,-0.8,8.918169790154415,0.2966666666666667,-0.32,-0.6,0.5076258743566056,-0.11737412564339449,-0.5076258743566056
1589995672.7683861,-3.850513335948225,-0.8098288880172584,8.792224455775642,0.2966666666666667,-0.32,-0.6,0.19284724946067855,-0.125,-0.3771388997842714
1589995672.778386,-3.85,-0.8192258309846553,8.826903323938621,0.2966666666666667,-0.32,-0.6,-0.15846866192457393,-0.125,-0.14435422538361742
1589995672.788386,-3.8635901963554176,-0.82,8.857180392710834,0.2966666666666667,-0.32,-0.6,-0.272438727221359,-0.04006127277864105,-0.20993872722135895
1589995672.798386,-3.875073350675935,-0.82,8.87,0.3000489004506233,-0.32676446756791333,-0.6,-0.4076253251737814,0.0317084417245938,-0.2182915582754062
1589995672.808386,-3.8581622164689517,-0.8272792611770161,8.87,0.3033333333333333,-0.3333333333333333,-0.6,-0.4545046176436493,0.1079953823563507,-0.09650923528729859
1589995672.818386,-3.840806553577073,-0.811613107154146,8.778065535770729,0.3033333333333333,-0.3333333333333333,-0.6,-0.3800409598567064,0.06754095985670636,-0.005040959856706356
1589995672.828386,-3.84,-0.8178325946817083,8.816995568090249,0.3033333333333333,-0.3333333333333333,-0.6,-0.08127769943593877,-0.035407433521353754,-0.09790743352135375
1589995672.838386,-3.850510633995079,-0.830510633995079,8.856276584987699,0.3033333333333333,-0.3333333333333333,-0.6,0.16422865617310997,-0.0625,-0.092154268765378
1589995672.848386,-3.8550144623617038,-0.8350144623617036,8.904927688191481,0.3033333333333333,-0.3372109737186749,-0.5966763082411358,0.3748192204787042,-0.0625,-0.12481922047870417
1589995672.858386,-3.8616082614897973,-0.83,8.895175215530609,0.3033333333333333,-0.3411111111111111,-0.5933333333333334,0.40122418284438377,-0.0987758171556162,-0.2237758171556162
1589995672.868386,-3.87,-0.8208800606647849,8.797040485318279,0.3033333333333333,-0.3411111111111111,-0.5933333333333334,0.2040011374647175,-0.01100075830981169,-0.19300037915490584
1589995672.878386,-3.8633700425871704,-0.8067400851743413,8.823149787064146,0.3033333333333333,-0.3411111111111111,-0.5933333333333334,0.021751064679265353,-0.16574893532073465,-0.1875
1589995672.888386,-3.8761559093053863,-0.8053853031017956,8.856155909305386,0.3033333333333333,-0.3411111111111111,-0.5933333333333334,-0.09615814438622197,-0.18268371122755606,-0.1875
1589995672.898386,-3.8791167016072676,-0.8208832983927323,8.875441649196366,0.30998423790666974,-0.32962318502989363,-0.6048212594145509,-0.19302061495457723,-0.22703092243186582,-0.08546907756813418
1589995672.908386,-3.87,-0.8473113079809663,8.862688692019033,0.31555555555555553,-0.32,-0.6144444444444445,-0.25,-0.15020648767844016,0.05409783744051994
1589995672.918386,-3.8434654649130873,-0.8588448450289708,8.762706704681321,0.31555555555555553,-0.32,-0.6144444444444445,-0.13943943713786444,-0.23556056286213556,0.007219718568932214
1589995672.928386,-3.867757255275425,-0.8322427447245752,8.80551451055085,0.31555555555555553,-0.32,-0.6144444444444445,0.04848284547140497,-0.07651715452859503,-0.05782761515713498
1589995672.938386,-3.87,-0.7952960877930593,8.865526259531105,0.31555555555555553,-0.32,-0.6144444444444445,0.10587989025867597,0.1110195610347039,0.06763967077602795
1589995672.948386,-3.8642918702184534,-0.78,8.895708129781546,0.30477353263485624,-0.32,-0.6144444444444445,0.017972566595999634,0.1875,0.017972566595999634
1589995672.958386,-3.865210376957969,-0.78,8.9,0.2966666666666667,-0.32,-0.6144444444444445,-0.12762971197461623,-0.04045399191115681,0.002629711974616228
1589995672.968386,-3.862822343553129,-0.8158882822343553,8.799512809743804,0.2966666666666667,-0.32,-0.6144444444444445,-0.3669414111717766,-0.25,0.0625
1589995672.978386,-3.866847977684798,-0.8368479776847977,8.801087866108787,0.2966666666666667,-0.32,-0.6144444444444445,-0.4802998605299861,-0.20720013947001395,-0.023099721059972114
1589995672.988386,-3.865924740163326,-0.8522257795100222,8.828150519673349,0.2966666666666667,-0.32,-0.6144444444444445,-0.525470373979213,-0.16202962602078694,0.013911121937639201
1589995672.998386,-3.86,-0.8640969234515788,8.84590307654842,0.2976505127580702,-0.3209838460914035,-0.6157562392329825,-0.5256057715723679,-0.11577644289309197,0.10655288578618394
1589995673.008386,-3.872634468611421,-0.83,8.873682765694289,0.3033333333333333,-0.32666666666666666,-0.6233333333333333,-0.1545691423572355,0.1349135720534556,-0.03948271441069112
1589995673.018386,-3.8873450584195837,-0.8079648247412494,8.818584591062915,0.3033333333333333,-0.32666666666666666,-0.6233333333333333,0.07521984536719117,0.20409338487760295,0.12112646048958822
1589995673.0283859,-3.87836658586612,-0.8116334141338802,8.82326682826776,0.3033333333333333,-0.32666666666666666,-0.6233333333333333,0.05229116166324818,0.1875,0.1511455808316241
1589995673.0383859,-3.8749733588272783,-0.82,8.854920076481836,0.3033333333333333,-0.32666666666666666,-0.6233333333333333,0.09325047801147228,0.1875,0.06283301465901849
1589995673.0483859,-3.8749894043915414,-0.8250105956084584,8.880021191216917,0.3033333333333333,-0.3339041936566622,-0.608301546507958,0.1561837774471347,0.1561837774471347,-0.03131622255286532
1589995673.0583858,-3.862021023802811,-0.83,8.858084095211245,0.3033333333333333,-0.3411111111111111,-0.5933333333333334,0.07513139876757018,0.125,-0.0625
1589995673.0683858,-3.8733638551600587,-0.83,8.796544579359765,0.3033333333333333,-0.3411111111111111,-0.5933333333333334,-0.06278614212554967,0.04147590524963356,-0.0625
1589995673.0783858,-3.8638402300030803,-0.83,8.850798849984598,0.3033333333333333,-0.3411111111111111,-0.5933333333333334,-0.125,-0.10099856248074751,-0.0625
1589995673.0883858,-3.8476121311307727,-0.8361939344346135,8.888581803303842,0.3033333333333333,-0.3411111111111111,-0.5933333333333334,-0.1637120902163351,-0.1637120902163351,0.09234836086534037
1589995673.0983858,-3.8473315394102476,-0.8326684605897522,8.885336921179505,0.2927433319629754,-0.325633416800588,-0.6039233347036912,-0.05003363605785402,-0.05003363605785402,0.14167787868595133
1589995673.1083858,-3.875757104795737,-0.8214142984014209,8.862828596802842,0.2888888888888889,-0.32,-0.6077777777777778,0.16098190497335702,0.10732126998223801,0.071339365008881
1589995673.1183858,-3.863538290182529,-0.82,8.818845725456322,0.2888888888888889,-0.32,-0.6077777777777778,0.2903856863591935,0.22788568635919348,0.0625
1589995673.1283858,-3.86,-0.82,8.85950963814677,0.2888888888888889,-0.32,-0.6077777777777778,0.6219352384173149,0.40471761920865745,0.010927460263780858
1589995673.1383858,-3.8739671062339855,-0.8293114041559905,8.883967106233985,0.2888888888888889,-0.32,-0.6077777777777778,0.6584018620125297,0.2629111720751781,0.05819627597494064
1589995673.1483858,-3.887537147537148,-0.8391790491790492,8.897537147537149,0.2907132240465574,-0.3205473005473006,-0.6065919599252932,0.6403928278928279,0.04710717210717211,0.11986905736905737
1589995673.1583858,-3.8541199207768977,-0.8064796831075901,8.858239841553795,0.3111111111111111,-0.32666666666666666,-0.5933333333333334,0.6287475242780476,-0.272001980577562,0.0625
1589995673.1683857,-3.8566971017500173,-0.79,8.789726084249844,0.3111111111111111,-0.32666666666666666,-0.5933333333333334,0.2907155703119596,-0.33314311406239194,0.0625
1589995673.1783857,-3.86,-0.7957384474734043,8.782953789893618,0.3111111111111111,-0.32666666666666666,-0.5933333333333334,0.04403881316489361,-0.13317351645611702,0.0983652967087766
1589995673.1883857,-3.8552837495874135,-0.8,8.847162504125867,0.3111111111111111,-0.32666666666666666,-0.5933333333333334,-0.15092969523599956,0.05895313015733304,0.09552343492133347
1589995673.1983857,-3.85380781482268,-0.8076156296453599,8.90761562964536,0.30814947736013776,-0.3220126707722801,-0.5907947901182133,-0.25,0.17259768528349967,0.03870115735825016
1589995673.2083857,-3.870267036100068,-0.8302670361000682,8.935400554150101,0.3033333333333333,-0.3144444444444445,-0.5866666666666667,-0.15374653656186002,0.18583102437457333,0.03208448781271333
1589995673.2183857,-3.8644904963727607,-0.8244904963727605,8.841433474609325,0.3033333333333333,-0.3144444444444445,-0.5866666666666667,0.1798359941756156,0.22193439767024625,-0.03443439767024624
1589995673.2283857,-3.86,-0.8264811643835616,8.842405821917808,0.3033333333333333,-0.3144444444444445,-0.5866666666666667,0.3715218321917808,0.16898544520547945,-0.021992722602739725
1589995673.2383857,-3.86,-0.8116373886441036,8.873771958516922,0.3033333333333333,-0.3144444444444445,-0.5866666666666667,0.4375,0.06761683951282396,-0.05738316048717603
1589995673.2483857,-3.8649753552797264,-0.7949753552797266,8.880049289440548,0.307203054106454,-0.3277120585237153,-0.5866666666666667,0.4375,0.0,-0.09390402950170894
1589995673.2583857,-3.87,-0.810350734396389,8.844123164009027,0.3111111111111111,-0.3411111111111111,-0.5866666666666667,0.3081158200451367,0.0,0.034538134966147466
1589995673.2683856,-3.8639230710290398,-0.82,8.7592307102904,0.3111111111111111,-0.3411111111111111,-0.5866666666666667,-0.0024040303425024723,-0.037980806068500496,0.125
1589995673.2783856,-3.8525179363730766,-0.82,8.764892381761541,0.3111111111111111,-0.3411111111111111,-0.5866666666666667,-0.0782371023317285,-0.2027886930048145,0.0782371023317285
1589995673.2883856,-3.8542913402033565,-0.8242913402033563,8.822913402033564,0.3111111111111111,-0.3411111111111111,-0.5866666666666667,-0.08932087627097712,-0.22317912372902288,0.03567912372902288
1589995673.2983856,-3.860290028149791,-0.8302900281497909,8.880580056299582,0.3113850265859137,-0.340901646336262,-0.5869728074914461,-0.12590633796809692,-0.1875,-0.0009063379680969034
1589995673.3083856,-3.860762867647059,-0.8355721507352941,8.915190716911765,0.33,-0.32666666666666666,-0.6077777777777778,-0.03720990349264705,-0.2175580193014706,-0.0023839613970588203
1589995673.3183856,-3.850038319515084,-0.82,8.854789242667039,0.33,-0.32666666666666666,-0.6077777777777778,0.125,-0.18726050303072528,-0.03160924545391208
1589995673.3283856,-3.86,-0.796673305639333,8.827214476754111,0.33,-0.32666666666666666,-0.6077777777777778,0.05210408012291583,0.04509047971319638,-0.10070136004097195
1589995673.3383856,-3.862928857685238,-0.774644288426191,8.864142284629523,0.33,-0.32666666666666666,-0.6077777777777778,-0.08080536053273872,0.27588927893452253,-0.11741608159821618
1589995673.3483856,-3.87,-0.8158230640738756,8.844176935926123,0.31900087897156826,-0.3227846239507496,-0.616835877448251,-0.1977883009234454,0.07831754861483185,-0.46836490277033627
1589995673.3583856,-3.8760425442291493,-0.8502127211457455,8.815829823083403,0.3111111111111111,-0.32,-0.6233333333333333,-0.21223409856781802,-0.18882950716090985,-0.9271272114574558
1589995673.3683856,-3.875691583393811,-0.8613831667876216,8.778457916969055,0.3111111111111111,-0.32,-0.6233333333333333,-0.10671718863395299,-0.2855723962113177,-1.1788552075773646
1589995673.3783855,-3.8660131292564768,-0.8539868707435231,8.793855578178754,0.3111111111111111,-0.32,-0.6233333333333333,0.09967176858807836,-0.2749179421470196,-1.125410289264902
1589995673.3883855,-3.8559707721035967,-0.8479123163107899,8.87208768368921,0.3111111111111111,-0.32,-0.6233333333333333,0.17445197694243728,-0.13622127953235366,-0.8367693025899163
1589995673.3983855,-3.8556109644523198,-0.8281296785158934,8.910573536325174,0.3119423651040474,-0.3175062380211912,-0.6204239443580564,0.050810490724333704,0.16006852782699887,-0.5822944165190034
1589995673.4083855,-3.8727669379715315,-0.82,8.989150406957297,0.31555555555555553,-0.30666666666666664,-0.6077777777777778,0.04520663767792768,0.26729336232207235,-0.10239668116103616
1589995673.4183855,-3.8660701291431767,-0.8230350645715885,8.927509095997761,0.31555555555555553,-0.30666666666666664,-0.6077777777777778,0.1819074607172844,0.1875,-0.0055925392827156015
1589995673.4283855,-3.875053253721709,-0.83,8.839893492556582,0.31555555555555553,-0.30666666666666664,-0.6077777777777778,0.281582835760681,0.24933432847863798,0.09408283576068101
1589995673.4383855,-3.866088366061504,-0.8339116339384957,8.846088366061505,0.31555555555555553,-0.30666666666666664,-0.6077777777777778,0.22555228788440163,0.3125,0.13584313634679512
1589995673.4483855,-3.8696617075128095,-0.8303382924871906,8.84,0.31412419147958376,-0.31525485112249724,-0.6031258445308695,0.1875,0.332628557318353,0.22987144268164703
1589995673.4583855,-3.903706059336558,-0.7997204554975816,8.829720455497581,0.3111111111111111,-0.3333333333333333,-0.5933333333333334,-0.00524145942034504,0.26792141143314163,0.23033143542674334
1589995673.4683855,-3.8654032641796725,-0.78,8.768892986296155,0.3111111111111111,-0.3333333333333333,-0.5933333333333334,-0.6686215264560336,0.02579730919299581,1.0098511253330797
1589995673.4783854,-3.813605137939104,-0.8119743103044801,8.784764034426273,0.3111111111111111,-0.3333333333333333,-0.5933333333333334,-0.9149678878806001,-0.11990366364180036,1.7797752151642008
1589995673.4883854,-3.825110321816812,-0.8501470957557493,8.8502941915115,0.3111111111111111,-0.3333333333333333,-0.5933333333333334,-0.8745403257632834,-0.15602016288164172,1.5597419545797009
1589995673.4983854,-3.8483857134465134,-0.8658071432767432,8.894192856723258,0.30785000032635584,-0.3305380955178288,-0.6119682521033635,-0.5504464547964518,-0.046383936438935555,0.9516518093168067
1589995673.5083854,-3.854717053062975,-0.8652829469370249,8.9,0.3033333333333333,-0.32666666666666666,-0.6377777777777778,-0.022407908217970396,0.0625,0.4268894898615645
1589995673.5183854,-3.8676645130413974,-0.8523354869586025,8.858782802903406,0.3033333333333333,-0.32666666666666666,-0.6377777777777778,0.3090053441812236,0.17290320650873414,0.3236021376724894
1589995673.5283854,-3.874207394443229,-0.828414788886458,8.853170422227084,0.3033333333333333,-0.32666666666666666,-0.6377777777777778,0.47370378472981844,0.25,0.44740756945963683
1589995673.5383854,-3.8625949232951307,-0.7940822315329562,8.87,0.3033333333333333,-0.32666666666666666,-0.6377777777777778,0.6619860529190238,0.22685913529728233,0.5
1589995673.5483854,-3.852603266844668,-0.75,8.866095099732998,0.3033333333333333,-0.32753442228155594,-0.6319927403451826,0.8886887466624784,0.22004083555834775,0.508135208889587
1589995673.5583854,-3.8737054373876574,-0.7611163121629718,8.836294562612343,0.3033333333333333,-0.3333333333333333,-0.5933333333333334,0.377228130617136,0.391182032654284,0.516182032654284
1589995673.5683854,-3.8739328790584118,-0.7891006814123821,8.796630834821267,0.3033333333333333,-0.3333333333333333,-0.5933333333333334,-0.05125851765477536,0.23666098823014978,0.3427012352876872
1589995673.5783854,-3.8643836905585003,-0.8275347622340017,8.772604286702006,0.3033333333333333,-0.3333333333333333,-0.5933333333333334,-0.33989806599062766,-0.10188839594376584,0.09760193400937237
1589995673.5883853,-3.8730658555426807,-0.8408024333719583,8.846131711085361,0.3033333333333333,-0.3333333333333333,-0.5933333333333334,-0.33667680571649283,-0.23585361143298572,0.04333840285824643
1589995673.5983853,-3.8768679808558026,-0.8231320191441974,8.878792114865185,0.3033333333333333,-0.33124532057053496,-0.5978573609860631,-0.3087253589537033,-0.023349760697531155,0.0
1589995673.6083853,-3.87,-0.8077204567340762,8.915544091346815,0.3033333333333333,-0.32666666666666666,-0.6077777777777778,-0.3261022836703811,0.0625,0.0
1589995673.6183853,-3.852185301016419,-0.7978146989835809,8.838741204065675,0.3033333333333333,-0.32666666666666666,-0.6077777777777778,-0.3359558248631743,-0.08595582486317435,0.0
1589995673.6283853,-3.8519194894452626,-0.8159597447226313,8.807879234167894,0.3033333333333333,-0.32666666666666666,-0.6077777777777778,-0.40025159548355427,-0.1875,0.03724840451644575
1589995673.6383853,-3.86,-0.8293423030391904,8.834013454558786,0.3033333333333333,-0.32666666666666666,-0.6077777777777778,-0.3166106060050592,-0.0999159090075888,0.004110606005059213
1589995673.6483853,-3.867960420531849,-0.8479604205318491,8.865920841063698,0.3033333333333333,-0.329320140177283,-0.6077777777777778,-0.27487631416202846,-0.07462894248608534,-0.03762368583797155
1589995673.6583853,-3.88,-0.8499244614798377,8.88496223073992,0.3033333333333333,-0.3333333333333333,-0.6077777777777778,-0.21804182637347858,-0.25047211575101425,-0.03148605787550714
1589995673.6683853,-3.88,-0.8242863187961176,8.83809685012298,0.3033333333333333,-0.3333333333333333,-0.6077777777777778,0.03868417920710904,-0.3779736716828436,-0.09523683584142181
1589995673.6783853,-3.8685012249603687,-0.7812530624009224,8.834496325118893,0.3033333333333333,-0.3333333333333333,-0.6077777777777778,0.04376531200461162,-0.4015663280011529,-0.05313265600230581
1589995673.6883852,-3.86,-0.7816830620640315,8.886019674476838,0.3033333333333333,-0.3333333333333333,-0.6077777777777778,-0.14381148274011804,-0.18527320693972457,0.0542076551600787
1589995673.6983852,-3.8509180067149673,-0.8372459798550981,8.941191317665076,0.3033333333333333,-0.3356879241850085,-0.6013867454660881,-0.2689208193438181,0.10034163868763621,0.06823754196854567
1589995673.7083852,-3.808110546226399,-0.878110546226399,8.977491740700799,0.3033333333333333,-0.3411111111111111,-0.5866666666666667,-0.07797013813998871,0.22658831031000187,-0.10158831031000189
1589995673.7183852,-3.7651060365530995,-0.8394826393128993,8.946352831033499,0.3033333333333333,-0.3411111111111111,-0.5866666666666667,0.5241202629543696,0.32617688362437414,-0.2650023405381202
1589995673.7283852,-3.753371422860379,-0.9440357130959123,8.890421427857547,0.3033333333333333,-0.3411111111111111,-0.5866666666666667,1.1061606756171503,0.6197321517806577,-1.1302678482193425
1589995673.7383852,-3.581583745767127,-0.8947705875786105,8.861984519778215,0.3033333333333333,-0.3411111111111111,-0.5866666666666667,0.04258223867822722,0.8925338629851524,-0.8198935734752354
1589995673.7483852,-3.247113817792774,-0.6296646366554193,8.792919718541684,0.30111856362987954,-0.33852721312374834,-0.5984787717517535,0.43959602090362926,1.2086826701506048,1.8496252880421364
1589995673.7583852,-2.6489315870454457,-0.7623623672458438,8.933203737756594,0.2966666666666667,-0.3333333333333333,-0.6222222222222222,-0.5010109017900701,0.5772647952865237,7.0989112282808575
1589995673.7683852,-1.990658160298293,-0.6060903773133103,8.701851674477474,0.2966666666666667,-0.3333333333333333,-0.6222222222222222,0.8307648889953134,0.20987839085964494,13.753867632470154
1589995673.7783852,-1.901146328390209,-0.5718048954797214,8.667707343219583,0.2966666666666667,-0.3333333333333333,-0.6222222222222222,1.6721033589422905,0.417987314632839,16.820732088618904
1589995673.7883852,-1.9746593491316344,-0.7848111102093815,8.72803035221555,0.2966666666666667,-0.3333333333333333,-0.6222222222222222,0.6522239186008765,-0.403172425336796,17.01491361994806
1589995673.7983851,-2.110572693318578,-0.979140960022133,8.770572693318577,0.2966666666666667,-0.3299045511135703,-0.6073641659365826,0.12857933324111218,-0.3732103333794439,15.246351500899156
1589995673.8083851,-2.13,-0.95,8.79,0.2966666666666667,-0.32666666666666666,-0.5933333333333334,0.25,-0.3125,14.0625
1589995673.8183851,-2.2226510963700017,-0.9227496775382348,8.82815045144647,0.2966666666666667,-0.32666666666666666,-0.5933333333333334,0.1818741938455869,-0.4487516123088262,10.860587110742584
1589995673.828385,-2.333257725262921,-0.8722852289475657,8.90988658789438,0.2966666666666667,-0.32666666666666666,-0.5933333333333334,0.09035653618445705,-0.4932130723689141,6.247466026329595
1589995673.838385,-2.35598778071884,-0.85802443856232,8.9299389035942,0.2966666666666667,-0.32666666666666666,-0.5933333333333334,0.23803459355074996,-0.16165992442025007,3.4336814746375
1589995673.848385,-2.343590660421211,-0.8721364465262631,8.904272893052527,0.2980909643508421,-0.32524236898249126,-0.5978436093332221,0.5133527907891443,0.3034111631565774,0.8013909250187721
1589995673.858385,-2.3249276328788775,-0.8898552657577554,8.89536183560561,0.3033333333333333,-0.32,-0.6144444444444445,0.5009045890140289,0.5615954109859711,-3.909457740565106
1589995673.868385,-2.3646335375014447,-0.9,8.795785276782619,0.3033333333333333,-0.32,-0.6144444444444445,0.4684228013405755,0.9033052120651797,-7.884982087137409
1589995673.878385,-2.409724495230717,-0.887034006359044,8.739448990461435,0.3033333333333333,-0.32,-0.6144444444444445,0.520259365063994,1.228018730127988,-11.315136824351587
1589995673.888385,-2.430079643944718,-0.8599601780276411,8.780039821972359,0.3033333333333333,-0.32,-0.6144444444444445,0.5620022253455141,1.3127488873272428,-14.196708831107987
1589995673.898385,-2.4816075384751723,-0.84,8.816250553865242,0.3051389504294712,-0.32154767179668964,-0.6165080068400306,0.3850471154698254,1.5100471154698254,-19.886197308953417
1589995673.908385,-2.524326912642431,-0.84,8.87,0.3111111111111111,-0.32666666666666666,-0.6233333333333333,0.7061296120455779,1.8311296120455778,-25.357567485078675
1589995673.918385,-2.544062583578497,-0.84,8.845390478737631,0.3111111111111111,-0.32666666666666666,-0.6233333333333333,0.9443367210484086,2.025391147365606,-29.3911222920567
1589995673.928385,-2.5710291331896267,-0.842058266379254,8.806174799137763,0.3111111111111111,-0.32666666666666666,-0.6233333333333333,1.2067962473055065,2.238956659481351,-32.650609935332156
1589995673.938385,-2.5925209749684295,-0.8750251699621153,8.882537754943172,0.3111111111111111,-0.32666666666666666,-0.6233333333333333,1.453256093552684,2.73445365613161,-37.72048043489543
1589995673.948385,-2.6287994533534,-0.9185593440240801,8.94783901603612,0.3111111111111111,-0.32666666666666666,-0.6233333333333333,1.6799965834587507,2.8704979500752503,-40.71345490165551
1589995673.958385,-2.6081095083299473,-0.93,8.905945245835026,0.31555555555555553,-0.3333333333333333,-0.6144444444444445,1.5489733594067452,3.3648954947175946,-46.54587502539618
1589995673.968385,-2.636069191251382,-0.9500864890642273,8.835723234994473,0.31555555555555553,-0.3333333333333333,-0.6144444444444445,1.4626081113302842,3.725432445321137,-50.31898667981705
1589995673.978385,-2.67055822741326,-0.98,8.747038818275506,0.31555555555555553,-0.3333333333333333,-0.6144444444444445,1.543992614221917,3.9409889213328753,-53.97026365510134
1589995673.988385,-2.6940968018463565,-0.9861452027695351,8.766145202769534,0.31555555555555553,-0.3333333333333333,-0.6144444444444445,1.6121974942301351,4.152117540389054,-57.26663781734256
1589995673.998385,-2.705159907682163,-1.0027398615232443,8.782739861523243,0.31555555555555553,-0.3333333333333333,-0.6144444444444445,1.5776252884932411,4.394122980547313,-59.16810913287174
1589995674.008385,-2.7007655876942347,-1.0284688246115308,8.817703236917296,0.3473629757198585,-0.31589055453355436,-0.6226528109384581,1.8510753845551684,4.384569846177933,-63.23204430701789
1589995674.018385,-2.7,-1.054019101393561,8.811993632868813,0.35,-0.3144444444444445,-0.6233333333333333,2.1251989728495917,4.725278561989428,-65.80183055021624
1589995674.028385,-2.68,-1.088500232162204,8.770200278594645,0.35,-0.3144444444444445,-0.6233333333333333,2.553126451013775,5.02125058040551,-69.91563805912398
1589995674.038385,-2.718372493251934,-1.1464453542508286,8.841927139001106,0.35,-0.3144444444444445,-0.6233333333333333,2.6925859585877068,5.210652886723067,-72.98661482581838
1589995674.048385,-2.82,-1.191583622366974,8.899208188816514,0.35096776922426187,-0.31413651787308844,-0.6239051969658517,2.3848976397935875,5.4473976397935875,-75.04389962778107
1589995674.058385,-2.82,-1.2270653920988073,8.881467303950597,0.37265107294927113,-0.3072372848696764,-0.6367180582579026,2.6066587006175452,5.669158700617545,-77.4278310316386
1589995674.068385,-2.7956113908725633,-1.2921943045637183,8.840251258926534,0.3744444444444445,-0.30666666666666664,-0.6377777777777778,2.583856789430281,5.660071192953521,-80.63243293035987
1589995674.0783849,-2.780892741213833,-1.2995536293930834,8.774017335462249,0.3744444444444445,-0.30666666666666664,-0.6377777777777778,2.445869448879687,5.568079632586458,-82.33427679715052
1589995674.0883849,-2.715683089500861,-1.386475365748709,8.79,0.3744444444444445,-0.30666666666666664,-0.6377777777777778,2.3799517265490535,5.803961381239243,-85.11065243115318
1589995674.0983849,-2.7006432874354562,-1.4090350688468158,8.79,0.3744444444444445,-0.30666666666666664,-0.6377777777777778,2.6149486338209984,5.991958907056799,-86.80263016351118
1589995674.1083848,-2.7068808195517082,-1.4649534435863327,8.819357541344875,0.3955555555555556,-0.27555555555555555,-0.6233333333333333,3.0,6.4375,-91.25
1589995674.1183848,-2.7,-1.532625285231507,8.808436786921233,0.3955555555555556,-0.27555555555555555,-0.6233333333333333,3.0263026775656394,6.463802677565639,-91.63138882470177
1589995674.1283848,-2.714116453249577,-1.6011746798743658,8.718232906499154,0.3955555555555556,-0.27555555555555555,-0.6233333333333333,3.235284791012322,6.716898707417251,-94.62854403237498
1589995674.1383848,-2.7429591458296736,-1.6488774374890203,8.78775487497804,0.3955555555555556,-0.27555555555555555,-0.6233333333333333,3.419005338564541,6.944516015693623,-98.1288184888056
1589995674.1483848,-2.748735627233969,-1.678850609362215,8.835057491064124,0.4011749900712478,-0.27372923933795557,-0.6240357626477948,3.335488351061539,6.836206989363077,-99.89367921278154
1589995674.1583848,-2.738504683075583,-1.7434890728236405,8.87,0.44,-0.2611111111111111,-0.6288888888888889,3.0749609743701445,7.015576217962681,-101.83411157699848
1589995674.1683848,-2.71,-1.8200071918097978,8.809956849141212,0.44,-0.2611111111111111,-0.6288888888888889,3.333348316270412,7.375044948811236,-103.97955622303071
1589995674.1783848,-2.6978126532614026,-1.844874938695439,8.697312408043159,0.44,-0.2611111111111111,-0.6288888888888889,3.3445316331535064,7.530468366846494,-105.42812040215792
1589995674.1883848,-2.6618840151336016,-1.8750721210688106,8.727536060534407,0.44,-0.2611111111111111,-0.6288888888888889,3.2264498108299833,7.589674716244975,-106.8451022700402
1589995674.1983848,-2.6697200311076545,-1.9408399066770359,8.760279968892345,0.4405599377846906,-0.2596179436852695,-0.6292932884000544,3.1337490278857905,7.4479988334629486,-108.095746305966
1589995674.2083848,-2.681644181931006,-1.9916441819310058,8.784429454620671,0.46,-0.20777777777777776,-0.6433333333333333,3.460046022844798,7.902684091379191,-109.63328238836156
1589995674.2183847,-2.710099336007989,-2.0547516599800275,8.777822842025964,0.46,-0.20777777777777776,-0.6433333333333333,3.5773489374375864,8.077969787487516,-110.56001659980028
1589995674.2283847,-2.6807063893901435,-2.128234026524641,8.682295765517965,0.46,-0.20777777777777776,-0.6433333333333333,3.806981332889504,8.123896266577901,-111.2948402652464
1589995674.2383847,-2.6568568290931616,-2.1665697551635295,8.770283413349853,0.46,-0.20777777777777776,-0.6433333333333333,4.167855181832261,8.07499084855055,-112.84820121221507
1589995674.2483847,-2.674572486519211,-2.261053261435792,8.900198234474214,0.46,-0.20777777777777776,-0.6433333333333333,4.278578040745069,8.591697523476988,-113.58635360496713
1589995674.2583847,-2.514023588018649,-2.2140825580652717,8.778047176037298,0.5188888888888888,-0.18222222222222226,-0.6733333333333333,5.873157186043046,9.877716986353862,-114.92220930108786
1589995674.2683847,-2.567598620484108,-2.4015951716943778,8.885197240968216,0.5188888888888888,-0.18222222222222226,-0.6733333333333333,1.687607774679071,6.585084782747536,-118.04741952823963
1589995674.2783847,-2.5287232375048982,-2.468723237504898,8.903318015033308,0.5188888888888888,-0.18222222222222226,-0.6733333333333333,3.1000097965872255,7.821817890349471,-120.10053524990204
1589995674.2883847,-2.4913688504150193,-2.4313688504150193,8.64930818282213,0.5188888888888888,-0.18222222222222226,-0.6733333333333333,5.29458003811763,9.923002164155179,-120.84762299169962
1589995674.2983847,-2.4936216063804078,-2.6151027148956736,8.674237895754452,0.5197393413715011,-0.17315072907435755,-0.6751759803789934,3.7793240957061145,9.029324095706114,-123.6473656650286
1589995674.3083847,-2.4513846370740353,-2.648892290340772,8.834738379118665,0.5253709372790175,-0.11308037272751685,-0.6873777715119455,3.145769556110529,8.39576955611053,-125.86480655361315
1589995674.3183846,-2.4,-2.686475008774284,8.673869975432005,0.5255555555555556,-0.1111111111111111,-0.6877777777777778,4.3536875219357105,9.54118752193571,-128.2634065900035
1589995674.3283846,-2.3810788796442046,-2.7436514004447443,8.610746820578168,0.5255555555555556,-0.1111111111111111,-0.6877777777777778,4.378371498888139,9.580653624166105,-130.0355280088949
1589995674.3383846,-2.32,-2.831113497052278,8.736672392925469,0.5255555555555556,-0.1111111111111111,-0.6877777777777778,4.229175613946043,9.534743099207434,-131.95147239682973
1589995674.3483846,-2.3186217969722787,-2.8713782030277213,8.827932695458419,0.5260915233996694,-0.10743590303718752,-0.6887731466311321,4.422375729077921,9.939603266924438,-133.39433080477096
1589995674.3583846,-2.280934395039109,-2.8963552016536305,8.736447983463698,0.5333333333333333,-0.057777777777777775,-0.7022222222222222,4.7844599276536774,10.41529989664811,-135.01636013435746
1589995674.3683846,-2.224675340105745,-2.9355410998237588,8.656190419612269,0.5333333333333333,-0.057777777777777775,-0.7022222222222222,3.820346690033466,9.5625,-136.4761901225767
1589995674.3783846,-2.171583174102074,-3.0112024036997034,8.792344714906815,0.5333333333333333,-0.057777777777777775,-0.7022222222222222,2.960420647448146,9.712800462462962,-137.5300600924926
1589995674.3883846,-2.1070840200054457,-3.0185420100027227,8.592915979994554,0.5333333333333333,-0.057777777777777775,-0.7022222222222222,4.417988062653158,10.748712937619123,-137.8593492497958
1589995674.3983846,-2.0950626961493817,-3.0125313480746905,8.604937303850617,0.5333333333333333,-0.057777777777777775,-0.7022222222222222,4.079888329201358,10.485746478267723,-138.3101488943982
1589995674.4083846,-2.052050720956586,-3.114360517369388,8.704873197608535,0.5259543068526695,0.0012544340675324228,-0.7085471020627911,3.759612754483998,10.552887245516002,-138.855774491032
1589995674.4183846,-2.0121417390332077,-3.1578582609667922,8.649426782453133,0.5255555555555556,0.004444444444444445,-0.7088888888888889,4.270551088293392,10.70446847862547,-138.73303152137453
1589995674.4283845,-1.9792759713581407,-3.2009653715224795,8.57096537152248,0.5255555555555556,0.004444444444444445,-0.7088888888888889,4.006033572015495,10.689008393003874,-138.48491606996126
1589995674.4383845,-1.948948080106311,-3.2405259599468446,8.610613619937984,0.5255555555555556,0.004444444444444445,-0.7088888888888889,4.248356375166111,10.75,-137.8656861259413
1589995674.4483845,-1.8316058564334508,-3.2991970717832744,8.67906325041382,0.5255555555555556,0.004444444444444445,-0.7088888888888889,4.065009150677267,10.75,-136.8267185205045
1589995674.4583845,-1.8101563736659072,-3.3396872526681856,8.68,0.5685500792794234,0.057360781335358615,-0.7441664468161651,3.69043200623576,10.68798866770596,-135.63428468641325
1589995674.4683845,-1.8066730876088164,-3.4333269123911836,8.705012039266531,0.5688888888888889,0.057777777777777775,-0.7444444444444445,3.3958233006112244,10.645853398777552,-133.96888544174848
1589995674.4783845,-1.744523800703834,-3.495476199296166,8.58848212631969,0.5688888888888889,0.057777777777777775,-0.7444444444444445,3.492931561400259,10.451636877199482,-132.6579239210965
1589995674.4883845,-1.6969836632482709,-3.525661221082757,8.62144625963908,0.5688888888888889,0.057777777777777775,-0.7444444444444445,3.1069217545114873,10.47288263176723,-130.23709158120678
1589995674.4983845,-1.6219604102074887,-3.500653470069163,8.629782176643612,0.5688888888888889,0.057777777777777775,-0.7444444444444445,3.002722791954845,10.316584187932268,-128.36151025518723
1589995674.5083845,-1.5482365766722281,-3.525879531321098,8.635883892006675,0.6,0.057777777777777775,-0.7888888888888889,2.4926614875625663,10.37868288336114,-125.00742027529198
1589995674.5183845,-1.508810181531176,-3.6103966061562747,8.588016969218627,0.6,0.057777777777777775,-0.7888888888888889,2.05506363456985,10.175106057616416,-122.87853936464089
1589995674.5283844,-1.475959636676341,-3.6264645813178547,8.540808072664731,0.6,0.057777777777777775,-0.7888888888888889,1.8952018166182951,9.869949545845426,-119.67487638396216
1589995674.5383844,-1.4224797123281014,-3.705013525114599,8.558773668950549,0.6,0.057777777777777775,-0.7888888888888889,2.054497303075951,9.710662771109707,-116.31148561640508
1589995674.5483844,-1.3817167986782644,-3.7321888008811572,8.606330401542024,0.6,0.057777777777777775,-0.7888888888888889,1.6723449876087273,9.158664982101495,-114.2733399339132
1589995674.5583844,-1.355852621211443,-3.6910368446971393,8.696889465908582,0.6233333333333333,0.08333333333333333,-0.7944444444444444,1.200460558714241,8.372697206428795,-110.13062407664414
1589995674.5683844,-1.3308161346644583,-3.697295966333886,8.678112100998343,0.6233333333333333,0.08333333333333333,-0.7944444444444444,1.2786995791735685,7.981502104132157,-107.9008119935533
1589995674.5783844,-1.32,-3.7419803341086912,8.611227532247833,0.6233333333333333,0.08333333333333333,-0.7944444444444444,1.3649754176358637,7.655073747092408,-103.68402410657644
1589995674.5883844,-1.2674536177237512,-3.841273191138124,8.643819573414374,0.6233333333333333,0.08333333333333333,-0.7944444444444444,1.8590851107734443,7.069297887707055,-98.98276610013694
1589995674.5983844,-1.2517172228787965,-3.849141388560602,8.667424165681805,0.6233333333333333,0.08333333333333333,-0.7944444444444444,1.7607326429924774,6.725064250473672,-95.78631089725552
1589995674.6083844,-1.2235536839125203,-3.8940771934791325,8.61710736782504,0.5704407011583741,0.023584248839397824,-0.7836700193717676,2.0254824592445795,6.522210524453252,-91.58074557057589
1589995674.6183844,-1.183123831775701,-3.87,8.619194592790388,0.5633333333333334,0.015555555555555557,-0.7822222222222223,1.6311394359145528,6.106581692256341,-86.80796061415221
1589995674.6283844,-1.134125,-3.87,8.542196428571428,0.5633333333333334,0.015555555555555557,-0.7822222222222223,1.674888392857143,5.9753348214285715,-83.65803571428572
1589995674.6383843,-1.0690456284260756,-3.842863114721773,8.559543715739244,0.5633333333333334,0.015555555555555557,-0.7822222222222223,1.9255703553259456,5.470175888314864,-78.20149761407106
1589995674.6483843,-1.0607751311274993,-3.867674606617502,8.642248688725008,0.5633333333333334,0.015555555555555557,-0.7822222222222223,1.8221891390937415,5.211722847734354,-74.53146443782782
1589995674.6583843,-1.0587966842776462,-3.9487966842776463,8.696016578611768,0.51,0.10222222222222224,-0.6433333333333333,1.8200207232647112,4.992479276735288,-69.59854937147021
1589995674.6683843,-1.0434599260172628,-3.935094944512947,8.708934648581998,0.51,0.10222222222222224,-0.6433333333333333,1.8903282983970406,4.876186806411837,-65.4127774352651
1589995674.6783843,-0.9688806999191669,-3.88,8.405891303314155,0.51,0.10222222222222224,-0.6433333333333333,1.9365787409062811,4.103552493937521,-61.21225809519281
1589995674.6883843,-0.9585990352912444,-3.8814009647087557,8.74758456465991,0.51,0.10222222222222224,-0.6433333333333333,1.0294383090120893,3.476902132433753,-57.631038969959704
1589995674.6983843,-0.9457943582855048,-3.894205641714495,8.542709732568078,0.51,0.10222222222222224,-0.6433333333333333,1.869745237513738,3.8370336732201733,-54.830015874954206
1589995674.7083843,-0.9581705242334322,-3.972682096933729,8.749813649851632,0.49485789647213985,0.19307484338938347,-0.616077546983185,1.1143422354104846,2.750776458951533,-50.49622403560831
1589995674.7183843,-0.9511625148279953,-3.905270858046659,9.072789756471984,0.4933333333333334,0.20222222222222225,-0.6133333333333333,2.0106601656083547,5.611439652966762,-44.55086874607494
1589995674.7283843,-0.5547767857142858,-3.248075892857143,7.662611607142857,0.4933333333333334,0.20222222222222225,-0.6133333333333333,4.447600446428572,11.196707589285714,-39.41473214285714
1589995674.7383842,-0.6398883928571428,-3.4097879464285716,7.620055803571429,0.4933333333333334,0.20222222222222225,-0.6133333333333333,7.745675223214286,-4.229771205357142,-38.56361607142857
1589995674.7483842,-0.8745681086378272,-3.8302678613094403,10.268664893368799,0.4933333333333334,0.20222222222222225,-0.6133333333333333,-9.720437257921507,-5.105196229408746,-36.48559487143591
1589995674.7583842,-0.6533469237230839,-3.4034829642074205,8.718244790919707,0.4933333333333334,0.2525895725059814,-0.6021405888258313,1.837245692392795,1.275850765227724,-30.141581214530106
1589995674.7683842,-0.6296847357677477,-3.4825901564980724,8.250698571104559,0.4933333333333334,0.26222222222222225,-0.6,2.173140167838512,2.6448457700158765,-24.20748752551599
1589995674.7783842,-0.693105012474484,-3.5650365162168294,8.713666591063733,0.4933333333333334,0.26222222222222225,-0.6,0.03270582898616459,-0.0901536629621229,-22.701255953731003
1589995674.7883842,-0.7029129235339888,-3.685435382330056,8.798934002970928,0.4933333333333334,0.26222222222222225,-0.6,1.581267241989107,1.5800470396831012,-17.84412799745349
1589995674.7983842,-0.7279110094451003,-3.8674660566706023,9.268442665289257,0.4933333333333334,0.26222222222222225,-0.6,0.430005718713105,0.5361166709710743,-14.857230482585596
1589995674.8083842,-0.6830888921432233,-3.698985868053013,8.203587903639159,0.4888888888888889,0.2888888888888889,-0.5866666666666667,1.1875,0.6021843193966464,-9.676287801127627
1589995674.8183842,-0.7675461301896463,-3.944679651460789,8.848534085084571,0.4888888888888889,0.2888888888888889,-0.5866666666666667,1.1875,-0.02164755253716044,-7.660830984110712
1589995674.8283842,-0.7434494749287155,-3.868278739828917,8.530348424786146,0.4888888888888889,0.2888888888888889,-0.5866666666666667,1.487064469017317,-0.1465592183044718,-4.08183809722512
1589995674.8383842,-0.7799115028861534,-3.9557876069267683,8.63973450865846,0.4888888888888889,0.2888888888888889,-0.5866666666666667,1.3503318641769246,-0.37444689303845885,-2.304314234300021
1589995674.8483841,-0.7165023317788141,-3.8881279147235177,8.504630246502332,0.4888888888888889,0.2888888888888889,-0.5866666666666667,1.1976598934043972,-0.2652398401065956,0.656562291805463
1589995674.8583841,-0.7667317237318079,-3.9745528728863464,8.844244132245311,0.5155555555555555,0.3422222222222222,-0.6077777777777778,0.5340445444603348,-0.506808908892067,3.4734741734668124
1589995674.8683841,-0.7402681500799192,-3.9304469167998657,8.47375410111887,0.5155555555555555,0.3422222222222222,-0.6077777777777778,0.8097067700008413,-0.5619413540001682,5.7890368680070665
1589995674.878384,-0.7201782682512733,-3.9203820033955856,8.430713073005093,0.5155555555555555,0.3422222222222222,-0.6077777777777778,0.12595500848896435,-0.9379775042444821,8.256048387096774
1589995674.888384,-0.7824874787775892,-4.053901740237691,8.679949915110358,0.5155555555555555,0.3422222222222222,-0.6077777777777778,0.4597543505942275,-1.1048771752971138,10.370110887096775
1589995674.898384,-0.7575342164326894,-4.013184878757206,8.620719095189896,0.5155555555555555,0.3422222222222222,-0.6077777777777778,0.14490549223253973,-1.3279111472956915,12.755567046604762
1589995674.908384,-0.7677843481966864,-4.053353044590059,8.706706089180118,0.5247770694353189,0.3369527857195003,-0.6077777777777778,0.17365217622928986,-1.4120507254097632,14.843181192619822
1589995674.918384,-0.7521614993228156,-4.076080749661408,8.585130495259708,0.5311111111111111,0.3333333333333333,-0.6077777777777778,0.07600937076759764,-1.6984859438486035,17.851396921556425
1589995674.928384,-0.7811081043332518,-4.1052355179999305,8.582216208666503,0.5311111111111111,0.3333333333333333,-0.6077777777777778,-0.14681465833304236,-1.9593146583330423,20.485979564579768
1589995674.938384,-0.81,-4.062871185446009,8.599722711267606,0.5311111111111111,0.3333333333333333,-0.6077777777777778,-0.1241334727112676,-2.104455509096244,23.679953418427232
1589995674.948384,-0.8040062879366119,-3.9880440155562824,8.621955984443717,0.5311111111111111,0.3333333333333333,-0.6077777777777778,-0.2872642023770581,-2.2748428015847053,26.310731517827936
1589995674.958384,-0.7920162099265738,-4.047821690807688,8.665967580146852,0.5408690767564097,0.3439783867645682,-0.6201970067808851,-0.38760131204108655,-2.474797375917827,29.2837514544798
1589995674.968384,-0.79,-4.020525328330207,8.655864379522916,0.5433333333333333,0.3466666666666667,-0.6233333333333333,-0.5516952559635486,-2.5883476279817743,31.207735861699277
1589995674.978384,-0.7806473480857042,-4.056115911485774,8.593884088514226,0.5433333333333333,0.3466666666666667,-0.6233333333333333,-0.7419081489286969,-2.625,33.21539778714436
1589995674.988384,-0.793971151836109,-4.101913455508327,8.603971151836108,0.5433333333333333,0.3466666666666667,-0.6233333333333333,-1.0119590969270433,-2.5813401505121596,33.880078043341925
1589995674.998384,-0.8214332937048743,-4.069988981355293,8.660011018644706,0.5433333333333333,0.3466666666666667,-0.6233333333333333,-0.9463892191260475,-2.6071526952184882,34.482221561747906
1589995675.008384,-0.83,-3.9733693646762607,8.589436521890127,0.6230601559428804,0.3497628539524743,-0.6233333333333333,-1.0056204011200105,-2.7991605348266804,34.407299331466646
1589995675.018384,-0.8874338438068415,-4.00563867863639,8.55820483482955,0.6577777777777778,0.3511111111111111,-0.6233333333333333,-1.2676208707387198,-3.02884065305404,34.10737912926128
1589995675.028384,-0.856873886454471,-4.011374777290894,8.534124331872682,0.6577777777777778,0.3511111111111111,-0.6233333333333333,-1.1507770742042664,-2.846869432272355,33.5773312226128
1589995675.038384,-0.8953842877899695,-4.055384287789969,8.666152863369907,0.6577777777777778,0.3511111111111111,-0.6233333333333333,-0.9548089207876146,-2.869230359737462,32.762505323412995
1589995675.048384,-0.9077398341088408,-3.974861824802751,8.664520331782319,0.6577777777777778,0.3511111111111111,-0.6233333333333333,-0.6956301840987255,-2.7782520736394902,31.961890552296175
1589995675.058384,-0.93,-3.97,8.650039062500001,0.9955555555555556,0.4444444444444444,-0.7533333333333333,-1.249267578125,-2.625,30.74853515625
1589995675.068384,-0.93,-3.97,8.669778802710843,0.9955555555555556,0.4444444444444444,-0.7533333333333333,-0.8791474491716867,-2.625,30.008294898343372
1589995675.078384,-0.9178312280856183,-3.890902982556519,8.59698736851371,0.9955555555555556,0.4444444444444444,-0.7533333333333333,-0.8369725877675572,-2.5109177633026714,29.84789035107023
1589995675.088384,-0.9322549699069852,-3.934583622104687,8.627892394674449,0.9955555555555556,0.4444444444444444,-0.7533333333333333,-0.9863669523983221,-2.333179828561007,29.784773390479664
1589995675.098384,-0.95,-4.0253110433232795,8.644066870030162,0.9955555555555556,0.4444444444444444,-0.7533333333333333,-1.1568980069234989,-2.3137960138469977,30.099582062311487
1589995675.108384,-0.9758736117023334,-4.096921945745134,8.682795557447466,1.2502668885363055,0.19605777210204284,-1.032768339718535,-1.0904739561162493,-2.375,30.860130219418753
1589995675.118384,-0.9784692368099056,-4.063876947239622,8.663111565644575,1.487777777777778,-0.03555555555555556,-1.2933333333333332,-1.0,-2.4759254524535677,31.884410897236883
1589995675.1283839,-1.032300469483568,-4.003145539906103,8.606291079812205,1.487777777777778,-0.03555555555555556,-1.2933333333333332,-1.2053990610328638,-2.6857394366197185,33.23767605633803
1589995675.1383839,-1.033845624207284,-4.0461543757927165,8.535639789816996,1.487777777777778,-0.03555555555555556,-1.2933333333333332,-0.8982311107084617,-2.674678383765175,34.55369858670049
1589995675.1483839,-1.01,-4.088409237280339,8.645683135523047,1.487777777777778,-0.03555555555555556,-1.2933333333333332,-0.8551154660042323,-2.701705155334744,35.355115466004236
1589995675.1583838,-1.0298027262911644,-4.027390003599065,8.723596364945115,1.0015108321836323,0.02972009777457861,-0.9295499170215744,-0.8349772809069642,-2.791255679773259,35.08744320226741
1589995675.1683838,-1.0495128696022122,-3.9138970431823017,8.71,0.7511111111111111,0.06333333333333334,-0.7422222222222222,-0.9878217400553073,-2.6341336949585195,33.56698042969581
1589995675.1783838,-1.0322746040415074,-3.927725395958493,8.523883342435827,0.7511111111111111,0.06333333333333334,-0.7422222222222222,-0.6122569634079738,-2.6803918623702896,31.56128481703987
1589995675.1883838,-1.0562475886541713,-3.9649967848722287,8.578742765962513,0.7511111111111111,0.06333333333333334,-0.7422222222222222,-0.5625,-2.468770094548572,28.523693705494296
1589995675.1983838,-1.08004169549543,-3.9365971741742833,8.636763956156003,0.7511111111111111,0.06333333333333334,-0.7422222222222222,-0.6877605968464368,-2.2704858708714175,25.66154159535341
1589995675.2083838,-1.10831891223733,-3.90168108776267,8.687478368355995,0.6177901387172091,0.22616810877626697,-0.7035489630545254,-0.6355067985166872,-1.7867737948084055,20.601977750309025
1589995675.2183838,-1.0923080858636416,-3.926537871204538,8.716537871204538,0.6055555555555555,0.2411111111111111,-0.7,-0.4591383049716383,-1.5841383049716382,16.601042709376042
1589995675.2283838,-1.0231134414594754,-3.679175405473033,8.594587702736517,0.6055555555555555,0.2411111111111111,-0.7,-0.12396925684129112,-1.3534795045608607,12.937437444553126
1589995675.2383838,-1.0514069732790305,-3.602395351147313,8.549296513360485,0.6055555555555555,0.2411111111111111,-0.7,-0.019367736167676564,-0.9674418893414125,9.983357753054534
1589995675.2483838,-1.0920374191389695,-3.6340748382779386,8.760374191389694,0.6055555555555555,0.2411111111111111,-0.7,-0.321379029109971,-0.950233869618559,6.045088738010261
1589995675.2583838,-1.0596180670873465,-3.6298090335436735,8.658281301893059,0.5876080298165984,0.2508326875530462,-0.7097215764419351,0.19346770176021255,-0.49522583859183,3.149161408170043
1589995675.2683837,-1.0937986990756592,-3.6379328996918865,8.731396097226977,0.5788888888888889,0.25555555555555554,-0.7144444444444444,-0.11644342690859288,-0.5302015576857241,-0.21577370763437154
1589995675.2783837,-1.0922091231160307,-3.608836492464122,8.485110185945038,0.5788888888888889,0.25555555555555554,-0.7144444444444444,0.29942980524809354,-0.07557019475190646,-2.0581753767938995
1589995675.2883837,-1.1053560012587158,-3.6972546746385335,8.619865350535783,0.5788888888888889,0.25555555555555554,-0.7144444444444444,0.08559163782109674,-0.12945001573394724,-3.3957667400917537
1589995675.2983837,-1.1361722270855623,-3.7414833187433127,8.787655545828876,0.5788888888888889,0.25555555555555554,-0.7144444444444444,0.15430567713905907,-0.13561626625166162,-4.88172762052978
1589995675.3083837,-1.115173069608216,-3.714826930391784,8.641380753138076,0.5898465829846583,0.26651324965132495,-0.7393482946621022,0.24569703309243063,0.23706732597945984,-7.101274248763788
1589995675.3183837,-1.1330290042273368,-3.689294661030218,8.706763347424456,0.5911111111111111,0.2677777777777778,-0.7422222222222222,0.4273854607014248,0.6338167371222796,-7.489885460701425
1589995675.3283837,-1.1230597911815519,-3.696940208818448,8.696119582363103,0.5911111111111111,0.2677777777777778,-0.7422222222222222,0.39412369488469917,0.5735394914744987,-7.738960508525501
1589995675.3383837,-1.0441590953402222,-3.731946968219926,8.662684343926692,0.5911111111111111,0.2677777777777778,-0.7422222222222222,0.7697285045817899,0.528945700916358,-7.966445700916358
1589995675.3483837,-1.0256298877523164,-3.7287402244953674,8.671259775504632,0.5911111111111111,0.2677777777777778,-0.7422222222222222,0.8319396046440672,0.6328735969039552,-9.16116434891526
1589995675.3583837,-0.9602756536304712,-3.5912781297793317,8.696090233777584,0.5458200827001352,0.2212948801980919,-0.6730938104370483,0.9176066018498288,0.7880639611098973,-11.705044698128322
1589995675.3683836,-0.7424113597617558,-3.4295716351237617,8.810856729752476,0.5066666666666667,0.1811111111111111,-0.6133333333333333,1.4564716005956106,1.1507801204169275,-15.410035283454542
1589995675.3783836,-1.5619878555449025,-3.4237909875359542,1.2965356343879835,0.5066666666666667,0.1811111111111111,-0.6133333333333333,-78.21056647491211,73.67675375519335,-332.5753595397891
1589995675.3883836,0.11422499578343759,-7.26699563886948,0.08056260993181208,0.5066666666666667,0.1811111111111111,-0.6133333333333333,-101.14550153000988,-25.474253367226467,-850.3473197720647
1589995675.3983836,-0.5337879875568319,-8.621700167504187,4.23403565446279,0.5066666666666667,0.1811111111111111,-0.6133333333333333,-101.3657461414214,2.8136403744915057,-907.9242753948313
1589995675.4083836,-1.2358096654275093,-8.089879553903346,5.75448029739777,0.48454473358116484,0.28943230070218917,-0.6079935563816604,-67.5431784386617,91.51245353159852,-866.4900464684015
1589995675.4183836,-1.241846704394141,-6.582266977363515,3.4201539613848206,0.4744444444444445,0.3388888888888889,-0.6055555555555555,-28.862423019307588,157.9914905126498,-811.859260569241
1589995675.4283836,-16.20827713044923,-17.25137236289423,10.756579653052992,0.4744444444444445,0.3388888888888889,-0.6055555555555555,19.402922470870216,207.07615569899616,-732.2155292603052
1589995675.4383836,-1.6118717014792239,-1.4790324339056973,0.6392638568844617,0.4744444444444445,0.3388888888888889,-0.6055555555555555,88.29880571867488,73.80121379370152,-389.143477910751
1589995675.4483836,0.11385786997763558,0.07113750289195675,5.796350350890721,0.4744444444444445,0.3388888888888889,-0.6055555555555555,119.02742779748593,31.32120960900748,-246.96570380581477
1589995675.4583836,1.0000300208307806,5.268993383163828,13.525365457664503,0.2766761290146905,0.5774809391550599,-0.57108217947147,186.4800001531675,19.052923201813503,-184.64105578360494
1589995675.4683836,0.5821807970488883,1.6548714069591526,1.578675937247425,0.23222222222222225,0.6311111111111111,-0.5633333333333334,154.22212349491224,1.2064586657824385,-159.2727343377614
1589995675.4783835,0.13893781623524237,0.583186551294273,-1.70079746278507,0.23222222222222225,0.6311111111111111,-0.5633333333333334,90.45974646183177,0.9789291083082787,-136.10119756911345
1589995675.4883835,0.9432964529775464,1.3672046859746176,5.961392775789131,0.23222222222222225,0.6311111111111111,-0.5633333333333334,4.08322486169866,8.844553368044256,-105.16520907907582
1589995675.4983835,0.8287422340009558,0.0022240083416606993,19.76852369987401,0.23222222222222225,0.6311111111111111,-0.5633333333333334,-79.99772315028022,10.769973009080244,-77.85197354129556
1589995675.5083835,0.8215377411500281,-0.490473871511519,6.958025847536991,0.1406006812206475,0.6065527599148127,-0.6086718278495765,-65.78916541799339,0.017528251233065006,-55.61085487294749
1589995675.5183835,1.3836031084154663,-0.6503582259287338,7.782617513267628,0.12444444444444445,0.6022222222222222,-0.6166666666666667,-11.64393006065201,-0.724293972706596,-45.616755117513264
1589995675.5283835,1.3463823316437364,-0.633792903692976,8.06028530050688,0.12444444444444445,0.6022222222222222,-0.6166666666666667,34.0777244750181,10.629145546705287,-34.348560825488775
1589995675.5383835,1.1380730177075162,-0.8780730177075164,6.1976957526726375,0.12444444444444445,0.6022222222222222,-0.6166666666666667,20.70172741156561,12.356034847484212,-19.495128111198248
1589995675.5483835,5.11263323066194,-4.927112221770209,9.424515604114605,0.12444444444444445,0.6022222222222222,-0.6166666666666667,-15.119061283198699,-7.045933341082118,-6.14659368280351
1589995675.5583835,14.671776743046195,-14.31433341502267,8.554442470285505,0.08223229724026196,0.6206900366240521,-0.6237020245340305,-15.156562078789365,-3.2623529591961766,7.2586692807254005
1589995675.5683835,11.564748346946715,-11.443371450797354,9.073702061454687,0.07111111111111111,0.6255555555555555,-0.6255555555555555,-7.178194282380397,-2.882521392454298,6.916720147802412
1589995675.5783834,-1.3846684134441631,0.9250084327189496,8.131680219250693,0.07111111111111111,0.6255555555555555,-0.6255555555555555,17.283322415973977,10.470602186483557,3.4703725454764487
1589995675.5883834,0.39875882486905023,-1.4231746754725574,9.587699840583012,0.07111111111111111,0.6255555555555555,-0.6255555555555555,7.53307902527898,9.855442951491687,10.242014916875426
1589995675.5983834,1.7160925698402787,-2.8721160547040223,10.010506556023284,0.07111111111111111,0.6255555555555555,-0.6255555555555555,-12.981406976978388,-7.0518363914681075,16.606075902837922
1589995675.6083834,7.4582350433423334,-7.745124698024725,8.226690351001848,0.05997706566876666,0.6229861604534761,-0.640115461134006,-8.623976392638909,-4.080960459002416,26.78892372459855
1589995675.6183834,3.102679189322788,-4.405396276157521,8.152404020431701,0.05666666666666665,0.6222222222222222,-0.6444444444444445,4.596684997528424,-6.348080408634042,27.20135112868677
1589995675.6283834,1.8624754759068212,-3.622475475906821,8.779807609439558,0.05666666666666665,0.6222222222222222,-0.6444444444444445,1.8807397150896046,3.946097690806317,28.301293059745
1589995675.6383834,2.977553072103245,-4.510155475544749,8.845298092209857,0.05666666666666665,0.6222222222222222,-0.6444444444444445,-6.455902810249696,-1.6778762975778534,31.642431088095016
1589995675.6483834,2.1740095662213426,-4.010263895761174,8.542497113640113,0.05666666666666665,0.6222222222222222,-0.6444444444444445,-2.2849146462147454,-3.7306201550387597,35.2490103908956
1589995675.6583834,1.7634040385664909,-3.7403878479170456,8.69863561942878,0.0704324783215087,0.6243957714308814,-0.6212599195520789,-0.2657995270147353,-3.0895647625977807,39.55397262142987
1589995675.6683834,2.0415388071436595,-3.8786712344153655,8.714404133438167,0.07777777777777778,0.6255555555555555,-0.6088888888888889,-1.9104023924519824,-3.4729023924519824,41.528852633943615
1589995675.6783834,2.1574743106379835,-3.8515605825386263,8.21225881570193,0.07777777777777778,0.6255555555555555,-0.6088888888888889,-2.1029260922599247,-3.7597536408664154,45.710472573371774
1589995675.6883833,1.8733181837310104,-3.8253566468880194,8.768108403821067,0.07777777777777778,0.6255555555555555,-0.6088888888888889,-1.5687281698438749,-3.86848777511257,50.3850523923747
1589995675.6983833,1.7776182732111176,-3.7526688350088704,8.564104376108812,0.07777777777777778,0.6255555555555555,-0.6088888888888889,-1.0232259018332348,-3.5428629509166174,54.486378252513305
1589995675.7083833,1.7451321489107916,-3.708303722769791,8.524911168309373,0.09075871401566674,0.6298825343015185,-0.6197063357537964,-1.346227792077343,-4.145512900998179,58.854216366375795
1589995675.7183833,1.7950525021949078,-3.8491455662862157,8.965787532923617,0.10444444444444444,0.6344444444444445,-0.6311111111111111,-2.6263125548726953,-5.1359635645302895,63.55116330114135
1589995675.7283833,1.80432691908067,-3.9686538381613397,8.79682681517809,0.10444444444444444,0.6344444444444445,-0.6311111111111111,-2.898287165953202,-5.5,68.3387925481069
1589995675.7383833,1.6123795830337886,-3.901938482078669,8.828676697134641,0.10444444444444444,0.6344444444444445,-0.6311111111111111,-2.8003844870083188,-5.5396474145013865,73.15499833110815
1589995675.7483833,1.4162458752855571,-3.7921055080802097,8.583650478043827,0.10444444444444444,0.6344444444444445,-0.6311111111111111,-1.8754415559692021,-5.525877295033421,78.34341156189187
1589995675.7583833,1.377184784590144,-3.8999049036884,8.980785380081425,0.11879196964479823,0.629158514107472,-0.6273354465847022,-2.0170007443641005,-5.8822860332989,84.9551463662879
1589995675.7683833,1.3514567178836672,-3.883641794709168,8.764698528960452,0.12555555555555556,0.6266666666666667,-0.6255555555555555,-2.5980970088180535,-6.865485044090267,91.43421624690549
1589995675.7783833,1.342668427321216,-4.007357982497022,8.785713324012221,0.12555555555555556,0.6266666666666667,-0.6255555555555555,-3.598043213712392,-7.629210683030397,98.56939373931957
1589995675.7883832,1.2062171952391512,-3.884055592518666,8.37063477982307,0.12555555555555556,0.6266666666666667,-0.6255555555555555,-3.611489982996969,-7.898085002833838,106.55627017569799
1589995675.7983832,1.0454299082976144,-3.8247963592274457,8.47823511330453,0.12555555555555556,0.6266666666666667,-0.6255555555555555,-3.3438914172031624,-8.06193433118735,112.76413851841733
1589995675.8083832,0.9297357611824444,-3.8537886089459557,8.813260131310845,0.1435682122822716,0.6217131860668198,-0.6314096689917382,-3.1098576118244443,-8.4154726866975,119.90609940489666
1589995675.8183832,0.8631825286557833,-3.850454150746787,8.770908301493574,0.17,0.6144444444444445,-0.64,-3.681801406738451,-9.159083014935742,127.98289336575199
1589995675.8283832,0.7778404613947444,-3.841408553673693,8.659554445392144,0.17,0.6144444444444445,-0.64,-4.89730057674343,-10.071595386052557,135.1955622233053
1589995675.8383832,0.683299952396904,-3.853450166610836,8.393450166610837,0.17,0.6144444444444445,-0.64,-5.229688243798375,-10.944687847105907,144.44906909501225
1589995675.8483832,0.6124632308980031,-3.932463230898003,8.575689345928495,0.17,0.6144444444444445,-0.64,-5.358991988520866,-11.324352804017696,151.8582072820758
1589995675.8583832,0.4734167844136202,-3.85,8.731316643117276,0.18760366707131818,0.6173783889563308,-0.6450296191632338,-4.523576339827658,-11.813610718621266,161.1592295369062
1589995675.8683832,0.35937519367833903,-3.808750387356678,8.729375193678338,0.21666666666666667,0.6222222222222222,-0.6533333333333333,-4.639843023706229,-12.305467055314534,169.417158932445
1589995675.8783832,0.31508937686781874,-3.8295233233716335,8.535983145546005,0.21666666666666667,0.6222222222222222,-0.6533333333333333,-5.526594954801106,-13.028456972880663,177.1980815993169
1589995675.8883832,0.24880689655172414,-3.933269592476489,8.509617554858934,0.21666666666666667,0.6222222222222222,-0.6533333333333333,-6.399760971786834,-13.674521943573668,184.23611285266458
1589995675.8983831,0.14395568254229274,-3.9190717178153713,8.644419823634607,0.21666666666666667,0.6222222222222222,-0.6533333333333333,-6.276173456802812,-13.938950440913482,192.34137777754938
1589995675.9083831,0.019898678414096913,-4.023038074260541,8.860303964757708,0.2662531990769876,0.5987004055660443,-0.6476118103629117,-5.597626258653241,-14.429114222781624,200.40712319068598
1589995675.9183831,-0.10918946186516526,-4.028522122597757,8.790917937285405,0.3033333333333333,0.5811111111111111,-0.6433333333333333,-5.826578848876377,-15.153605194213464,207.05080203570208
1589995675.928383,-0.2189652158076853,-3.9421835731196504,8.516091786559825,0.3033333333333333,0.5811111111111111,-0.6433333333333333,-6.520114733199781,-15.74568839919869,213.35773538517574
1589995675.938383,-0.28583056270779694,-4.114950128740345,8.602475064370173,0.3033333333333333,0.5811111111111111,-0.6433333333333333,-7.58284847386446,-16.51017423693223,221.88880677699171
1589995675.948383,-0.5621613945744786,-3.82381921457252,8.00165781999804,0.3033333333333333,0.5811111111111111,-0.6433333333333333,-10.230000734502008,-18.39044412888062,218.09931201645284
1589995675.958383,-1.7517044319010453,-2.5208466794501314,9.382795527587977,0.3314454317119939,0.5554224694892316,-0.6501190122523204,-19.439694344667405,-19.201375010127745,107.94377920166365
1589995675.968383,-3.823804356694134,-2.8096739278235567,11.505802670582797,0.36777777777777776,0.5222222222222223,-0.6588888888888889,-1.7763505887791986,6.530152837834162,-65.48939211606972
1589995675.978383,-2.3677094791329667,-2.6409662460908017,9.036006686077862,0.36777777777777776,0.5222222222222223,-0.6588888888888889,34.25680739782163,23.23142456594414,-67.29586568532298
1589995675.988383,-0.9807936660268713,-3.251332053742802,9.581439059500958,0.36777777777777776,0.5222222222222223,-0.6588888888888889,19.60994481765835,9.70445057581574,-25.02870381477927
1589995675.998383,-0.8305760038240917,-4.57046171562663,10.465312011124631,0.36777777777777776,0.5222222222222223,-0.6588888888888889,-14.887699895706588,-5.363099958717191,1.5889142078046241
1589995676.008383,-0.5128332658395611,-3.919747082428303,8.849387033832787,0.3788222132230526,0.5155955609550573,-0.6566800017998339,-17.839798162942238,-7.782334885690093,18.675284394212717
1589995676.018383,0.5953996889580092,-4.370686625194401,8.119080093312597,0.4011111111111111,0.5022222222222222,-0.6522222222222223,0.2018638219284603,-3.5280180793157077,41.3146457037325
1589995676.028383,3.3945146156622155,-9.650295922049802,8.819112233850595,0.4011111111111111,0.5022222222222222,-0.6522222222222223,0.6851542764345,-4.254578671959582,60.83061169252977
1589995676.038383,-0.2551860455959366,-6.982380202386108,9.160261054455251,0.4011111111111111,0.5022222222222222,-0.6522222222222223,-8.262885380163011,-5.855061621451353,45.14419271961255
1589995676.048383,-1.8467881074105326,-2.170484439370626,8.219334392217204,0.4011111111111111,0.5022222222222222,-0.6522222222222223,2.9674176055988486,1.7166637712810844,-5.515523402988038
1589995676.058383,-0.9657955844841235,-4.041413492831383,6.916906500131938,0.40330406270462565,0.49846287663334016,-0.6600541921990598,9.628848183657315,4.361649551411734,-12.004092818189815
1589995676.068383,-0.08583448244682054,-5.16599611185207,8.742606189388972,0.4088888888888889,0.4888888888888889,-0.68,-6.4375,-3.3125,5.8125
1589995676.078383,-0.19248818379844643,-4.148572191854013,8.386404175742879,0.4088888888888889,0.4888888888888889,-0.68,-0.8061346635978799,-0.9161743249352678,1.9783789198964281
1589995676.088383,-0.09480830882547758,-4.415575073523567,8.341942876824842,0.4088888888888889,0.4888888888888889,-0.68,3.0305387754020616,0.9451752642874175,-1.170240176986461
1589995676.098383,-0.05782464784759182,-4.643895774171102,8.579578169371674,0.4088888888888889,0.4888888888888889,-0.68,-0.11952024523724447,-0.04890404904744889,0.02719190190510222
1589995676.108383,-0.06575250687727394,-4.74115382908865,8.516722424349988,0.4103047199297976,0.4858212549669201,-0.6771683379181827,-0.3274455918892537,-0.13827341600851895,-0.07190633596592422
1589995676.118383,-0.05680905053922605,-4.59404525269613,8.651415380277719,0.4155555555555556,0.4744444444444445,-0.6666666666666666,0.2557579121731162,-0.17331447804327907,0.09662895608655811
1589995676.128383,-0.06800131926121372,-4.698001319261214,8.559995602462621,0.4155555555555556,0.4744444444444445,-0.6666666666666666,0.16248900615655232,-0.07500549692172384,0.07499175461741425
1589995676.138383,-0.06017985202048948,-4.656247011952191,8.572494023904381,0.4155555555555556,0.4744444444444445,-0.6666666666666666,0.07921172453044961,-0.021208025042686398,0.081459874786568
1589995676.148383,-0.07237189409368636,-4.606185947046844,8.556281059063137,0.4155555555555556,0.4744444444444445,-0.6666666666666666,-0.2558108452138493,-0.03866216904276986,-0.125
1589995676.158383,-0.05649181322013341,-4.603508186779867,8.6379017586416,0.41321676436897786,0.47873222828650364,-0.6615992857624149,-0.0625,-0.06577850212249849,-0.10307383262583383
1589995676.168383,-0.05785531198592142,-4.621782967978882,8.595348903936646,0.4088888888888889,0.4866666666666667,-0.6522222222222223,0.10933494969203106,-0.16295215004399555,0.011143549868013317
1589995676.1783829,-0.07209684383674309,-4.648387375346972,8.612256810938625,0.4088888888888889,0.4866666666666667,-0.6522222222222223,0.33568417806106715,-0.125,0.11189472602035572
1589995676.1883829,-0.07728259184622539,-4.662336847000465,8.489021857076423,0.4088888888888889,0.4866666666666667,-0.6522222222222223,0.1875,-0.09952429855836305,0.045516199038908696
1589995676.1983829,-0.05640931439747034,-4.582316170422767,8.595637257589882,0.4088888888888889,0.4866666666666667,-0.6522222222222223,0.030407504889327558,0.0625,-0.017616429968379303
1589995676.2083828,-0.04749535637542339,-4.62497213825254,8.58502786174746,0.4088888888888889,0.4849969042502823,-0.6516656347500941,-0.21869195469279237,0.015537932039188553,0.031191954692792366
1589995676.2183828,-0.04,-4.618793854870342,8.61060307256483,0.4088888888888889,0.48,-0.65,-0.10075384070603617,-0.17349231858792766,-0.01400768141207235
1589995676.2283828,-0.047893324816352605,-4.656320025550942,8.566844458639412,0.4088888888888889,0.48,-0.65,0.03616656020440753,-0.16777786649632703,0.0789444267007346
1589995676.2383828,-0.06569675962875972,-4.6158194422274414,8.542909721113721,0.4088888888888889,0.48,-0.65,0.1511284860784895,0.0087094953594965,0.04431424303924475
1589995676.2483828,-0.06309818248241848,-4.631410905105489,8.587883642341767,0.4088888888888889,0.48,-0.65,-0.0625,-0.02377271896976893,-0.02377271896976893
1589995676.2583828,-0.06666533033996153,-4.596669339320077,8.639995991019886,0.4088888888888889,0.48074103770223076,-0.651852594255577,-0.08334168537524053,0.04165831462475946,0.048605543083172977
1589995676.2683828,-0.042661967514557156,-4.644676064970886,8.562661967514558,0.4088888888888889,0.4866666666666667,-0.6666666666666666,-0.1834508121360711,-0.10836270303401777,-0.012588109102053324
1589995676.2783828,-0.05,-4.63,8.536906759210314,0.4088888888888889,0.4866666666666667,-0.6666666666666666,0.10341637746776677,-0.0625,0.1508540943669417
1589995676.2883828,-0.05410959931969386,-4.63,8.535205592516633,0.4088888888888889,0.4866666666666667,-0.6666666666666666,0.27568499574808664,-0.0625,0.13613000850382673
1589995676.2983828,-0.06,-4.619413660782809,8.6,0.4088888888888889,0.4866666666666667,-0.6666666666666666,0.15811588641596316,-0.0625,0.04044512663085188
1589995676.3083827,-0.06,-4.612752250853772,8.607651350512263,0.4088888888888889,0.4866666666666667,-0.6629826830866881,-0.17282094070164544,-0.0943806271344303,0.01594031356721515
1589995676.3183827,-0.05139432297660146,-4.645697161488301,8.604182968929805,0.4088888888888889,0.4866666666666667,-0.6522222222222223,-0.3125,-0.16060725930187955,0.00871451860375911
1589995676.3283827,-0.04265204895910835,-4.64,8.559391804163567,0.4088888888888889,0.4866666666666667,-0.6522222222222223,-0.17989755204458255,-0.09184938801114564,-0.04592469400557282
1589995676.3383827,-0.04877091630560054,-4.64,8.534916334777597,0.4088888888888889,0.4866666666666667,-0.6522222222222223,0.12604581528002684,-0.01536354617999329,-0.007681773089996645
1589995676.3483827,-0.05,-4.5934319496076,8.621143983202533,0.4088888888888889,0.4866666666666667,-0.6522222222222223,0.26960062990499795,-0.06964989501583367,0.17320020996833266
1589995676.3583827,-0.05,-4.615087773647253,8.628362591215751,0.4088888888888889,0.4866666666666667,-0.6522222222222223,-0.001097170590665053,-0.11476619509844416,0.08296760980311167
1589995676.3683827,-0.05115740361790947,-4.627685192764181,8.603472210853727,0.4155555555555556,0.4933333333333334,-0.6733333333333333,-0.11053245477613162,-0.1802662273880658,0.0
1589995676.3783827,-0.05974032086436932,-4.610519358271262,8.62922096259311,0.4155555555555556,0.4933333333333334,-0.6733333333333333,-0.003245989195383478,-0.12662299459769175,0.0
1589995676.3883827,-0.06331318358226508,-4.630060449253205,8.523252734329061,0.4155555555555556,0.4933333333333334,-0.6733333333333333,0.1875,-0.04217041044337293,0.041792602610843235
1589995676.3983827,-0.06739689877684678,-4.6152062024463065,8.563015506115766,0.4155555555555556,0.4933333333333334,-0.6733333333333333,0.2200387652894154,0.125,0.016269382644707696
1589995676.4083827,-0.05925973917405116,-4.6314805216518975,8.603701304129745,0.4155555555555556,0.4923463188987349,-0.6722640676958517,0.2754869587025581,0.12037336983781977,0.0625
1589995676.4183826,-0.05049385554255142,-4.649012288914897,8.647530722287243,0.4155555555555556,0.48065847405673523,-0.6596022357836854,-0.16280722287242932,0.06558659714094633,0.0625
1589995676.4283826,-0.04740504737151002,-4.63,8.57664542634359,0.4155555555555556,0.48,-0.6588888888888889,-0.23378154607193763,-0.0625,0.030063092143875238
1589995676.4383826,-0.0380410447761194,-4.635876865671642,8.51195895522388,0.4155555555555556,0.48,-0.6588888888888889,-0.12628264925373134,-0.050256529850746266,-0.050256529850746266
1589995676.4483826,-0.03554202420654251,-4.648915951586915,8.547710121032711,0.4155555555555556,0.48,-0.6588888888888889,0.14231882564544535,-0.01731882564544535,0.05195647693633604
1589995676.4583826,-0.05110617137588092,-4.6188938286241195,8.623318514127643,0.41395775245706096,0.4814748951678412,-0.6588888888888889,0.15293214450372128,-0.041759286702232765,0.16675928670223275
1589995676.4683826,-0.06,-4.617282656394754,8.646358671802624,0.4011111111111111,0.4933333333333334,-0.6588888888888889,-0.1705166024672095,0.10224169876639524,-0.02275830123360476
1589995676.4783826,-0.0547209186220669,-4.632639540688967,8.605685971043435,0.4011111111111111,0.4933333333333334,-0.6588888888888889,-0.16751435346979532,0.013008612081877188,-0.0625
1589995676.4883826,-0.04076085871193211,-4.639619570644034,8.514945581627558,0.4011111111111111,0.4933333333333334,-0.6588888888888889,0.050611582626060914,-0.11786694957563654,-0.0625
1589995676.4983826,-0.06274660508083141,-4.63,8.580986420323326,0.4011111111111111,0.4933333333333334,-0.6588888888888889,0.11399884526558891,-0.0796662817551963,0.0906674364896074
1589995676.5083826,-0.06920161818073652,-4.628403236361473,8.611596763638527,0.40270787474963804,0.49280107878715773,-0.6595098525260938,0.23503034088880956,-0.125,0.004989886370396811
1589995676.5183825,-0.06,-4.61,8.616458128321197,0.4211111111111111,0.4866666666666667,-0.6666666666666666,0.04557266040149577,-0.1757820187955127,0.011717981204487304
1589995676.5283825,-0.05392199965420999,-4.619117000518685,8.552648998443946,0.4211111111111111,0.4866666666666667,-0.6666666666666666,-0.03798750216118754,-0.23652499567762492,-0.10600624891940623
1589995676.5383825,-0.04591929794373226,-4.634080702056267,8.507757893831197,0.4211111111111111,0.4866666666666667,-0.6666666666666666,-0.03251096962918351,-0.08099780607416329,-0.0440021939258367
1589995676.5483825,-0.05605101822079314,-4.621974490889603,8.557897963558414,0.4211111111111111,0.4866666666666667,-0.6666666666666666,0.1504782958199357,-0.125,-0.012340568060021435
1589995676.5583825,-0.04194607673695126,-4.628053923263049,8.595838230210854,0.4205705342397358,0.4866666666666667,-0.6679640511579675,0.0060814898029726925,-0.11283702039405462,-0.04425553059108192
1589995676.5683825,-0.06,-4.610099375,8.65,0.4155555555555556,0.4866666666666667,-0.68,0.062189453125,0.0,0.124689453125
1589995676.5783825,-0.05609138921669149,-4.63,8.624594029908495,0.4155555555555556,0.4866666666666667,-0.68,0.012214408697839083,0.0,0.05028559130216092
1589995676.5883825,-0.040230064340027294,-4.630230064340028,8.520460128680055,0.4155555555555556,0.4866666666666667,-0.68,0.0625,-0.002156853187755898,0.0007189510625852993
1589995676.5983825,-0.05560861280487805,-4.641217225609757,8.568782774390245,0.4155555555555556,0.4866666666666667,-0.68,0.14483850990853658,-0.16005383003048781,0.0487769150152439
1589995676.6083825,-0.039346283895776706,-4.61,8.601307432208447,0.4155555555555556,0.4866666666666667,-0.6795641892638512,0.4313714115229066,-0.06045713717430219,0.0020428628256978056
1589995676.6183825,-0.03148500596162066,-4.607128748509595,8.642871251490405,0.4155555555555556,0.4866666666666667,-0.6666666666666666,0.19616403455490317,-0.03589064363006456,0.0625
1589995676.6283824,-0.06,-4.604410278464681,8.619128050747232,0.4155555555555556,0.4866666666666667,-0.6666666666666666,0.007371519191484793,-0.1112178797978712,0.0349357595957424
1589995676.6383824,-0.05856884285678373,-4.62,8.515724628572865,0.4155555555555556,0.4866666666666667,-0.6666666666666666,-0.1785552678548983,-0.08038946429020337,-0.053555267854898315
1589995676.6483824,-0.051152542870135397,-4.622305085740271,8.555762714350678,0.4155555555555556,0.4866666666666667,-0.6666666666666666,-0.125,-0.16588982118496134,0.014406785876692436
1589995676.6583824,-0.057305159085241524,-4.634610318170483,8.586525795426208,0.4155555555555556,0.4866666666666667,-0.6666666666666666,-0.125,-0.0505282671517214,0.09131448856551906
1589995676.6683824,-0.04088782584019135,-4.6208878258401915,8.647780435399522,0.4155555555555556,0.5004699035598618,-0.6528634297734716,0.23335326549641222,0.0,-0.05417663274820611
1589995676.6783824,-0.05394701833535774,-4.63,8.578158944993927,0.4155555555555556,0.5011111111111111,-0.6522222222222223,-0.0625,-0.05427704513467137,0.00822295486532863
1589995676.6883824,-0.07820695239747816,-4.63,8.505379142807566,0.4155555555555556,0.5011111111111111,-0.6522222222222223,-0.0625,-0.003735515838587153,0.05876448416141285
1589995676.6983824,-0.07199608489594066,-4.621996084895941,8.516007830208117,0.4155555555555556,0.5011111111111111,-0.6522222222222223,-0.0625,0.050024469400370905,0.1125244694003709
1589995676.7083824,-0.05161370308091316,-4.629193148459543,8.60273833613589,0.4155555555555556,0.5011111111111111,-0.6522222222222223,-0.005042822127853626,0.0625,0.06754282212785362
1589995676.7183824,-0.05,-4.615741679122161,8.61,0.4195162002438442,0.49081343492156077,-0.6625198984117725,0.17822901097298677,0.0625,0.0625
1589995676.7283823,-0.05,-4.61,8.639856377521943,0.4211111111111111,0.4866666666666667,-0.6666666666666666,0.1877992134959535,-0.061901573008093014,0.0002992134959534931
1589995676.7383823,-0.058672307596590555,-4.592655384806819,8.561949231630686,0.4211111111111111,0.4866666666666667,-0.6666666666666666,0.07909615504261806,-0.11670192247869096,0.1626057674360729
1589995676.7483823,-0.04,-4.64,8.581307402607921,0.4211111111111111,0.4866666666666667,-0.6666666666666666,-0.2663425325990119,-0.14664366850247024,-0.0625
1589995676.7583823,-0.04,-4.64,8.5897999514052,0.4211111111111111,0.4866666666666667,-0.6666666666666666,-0.37249939256499554,0.11874848141248884,-0.0625
1589995676.7683823,-0.04366392609370263,-4.628168036953149,8.604504110859446,0.4155555555555556,0.4933333333333334,-0.6733333333333333,-0.028150692871537868,0.011449769042820709,0.0
1589995676.7783823,-0.058624600952363964,-4.620687699523818,8.582063098571455,0.4155555555555556,0.4933333333333334,-0.6733333333333333,0.11210563392841219,0.05820187797613739,0.0
1589995676.7883823,-0.038406123769778394,-4.614781628690665,8.506375504920886,0.4155555555555556,0.4933333333333334,-0.6733333333333333,0.21015309424445983,0.02265309424445982,-0.10507654712222991
1589995676.7983823,-0.03209361535448492,-4.637906384645515,8.544885102493797,0.4155555555555556,0.4933333333333334,-0.6733333333333333,-0.004361698655176916,-0.1918616986551769,-0.004361698655176916
1589995676.8083823,-0.052629749314531925,-4.617370250685468,8.592802748400574,0.4155555555555556,0.4933333333333334,-0.6733333333333333,-0.04714531107194151,-0.2346453110719415,-0.04714531107194151
1589995676.8183823,-0.05024699865801023,-4.629506002683979,8.58074099597403,0.42747589052909857,0.4933333333333334,-0.6798353342279932,-0.0625,-0.006174966450255698,0.05941251677487215
1589995676.8283823,-0.05139187909475678,-4.618608120905243,8.606081209052432,0.42777777777777776,0.4933333333333334,-0.68,0.1614022669733104,-0.2239022669733104,0.125
1589995676.8383822,-0.059497903098003596,-4.610502096901997,8.525020969019964,0.42777777777777776,0.4933333333333334,-0.68,0.009414316912432608,-0.07191431691243261,0.125
1589995676.8483822,-0.0762090550200946,-4.638104527510047,8.58,0.42777777777777776,0.4933333333333334,-0.68,-0.125,-0.0625,0.0625
1589995676.8583822,-0.0612917452075257,-4.630645872603763,8.58,0.42777777777777776,0.4933333333333334,-0.68,-0.125,-0.0625,0.0625
1589995676.8683822,-0.05026305088191939,-4.610526101763839,8.59947389823616,0.421286478365724,0.4868420339212796,-0.6735087005879462,-0.06414406801199614,-0.18421186397600772,0.0625
1589995676.8783822,-0.04255032096616255,-4.6312751604830815,8.614698074203025,0.4211111111111111,0.4866666666666667,-0.6733333333333333,0.02390925905777391,-0.10109074094222609,0.0
1589995676.8883822,-0.05558885244882416,-4.637794426224412,8.536466885307055,0.4211111111111111,0.4866666666666667,-0.6733333333333333,0.1461454917077265,0.021145491707726505,0.0
1589995676.8983822,-0.06,-4.629824787942204,8.560876060288978,0.4211111111111111,0.4866666666666667,-0.6733333333333333,-0.001095075361221809,0.12280984927755638,0.06140492463877819
1589995676.9083822,-0.06,-4.6204868980564155,8.607565509717924,0.4211111111111111,0.4866666666666667,-0.6733333333333333,-0.05945688714740521,0.006086225705189574,0.003043112852594787
1589995676.9183822,-0.05773777324524453,-4.631131113377378,8.591131113377378,0.4011111111111111,0.4933333333333334,-0.68,0.06956945860861083,-0.034222165565556684,0.05543054139138917
1589995676.9283822,-0.041506916740065285,-4.638995388839956,8.596483860939847,0.4011111111111111,0.4933333333333334,-0.68,0.125,0.184360590124864,0.006278819750272007
1589995676.9383821,-0.07102218608433036,-4.62102218608433,8.53306655825299,0.4011111111111111,0.4933333333333334,-0.68,0.1186113369729353,0.1058340109188059,0.125
1589995676.9483821,-0.0791421767917296,-4.62914217679173,8.557426530375189,0.4011111111111111,0.4933333333333334,-0.68,0.06786139505169009,-0.04641581484492974,0.125
1589995676.9583821,-0.061224285499774767,-4.63,8.578775714500225,0.4011111111111111,0.4933333333333334,-0.68,-0.05484821562640772,-0.0625,0.046767856249061504
1589995676.9683821,-0.05755896363425119,-4.637558963634251,8.605117927268502,0.406990305048862,0.48325471515433177,-0.6699213818209984,-0.125,-0.015256477285930055,0.047243522714069945
1589995676.978382,-0.04870446540725598,-4.631295534592744,8.589635723258047,0.4088888888888889,0.48,-0.6666666666666666,0.016194182409300262,0.03820872638604961,0.030111635181399476
1589995676.988382,-0.04278060902160637,-4.634438781956787,8.52834182706482,0.4088888888888889,0.48,-0.6666666666666666,0.1163105968074801,-0.1597576127700796,-0.1701211936149602
1589995676.998382,-0.05932824459762338,-4.600447836934918,8.580447836934917,0.4088888888888889,0.48,-0.6666666666666666,0.061100509578382034,-0.36380407662705627,-0.061100509578382034
1589995677.008382,-0.03272254408593056,-4.61818497060938,8.59818497060938,0.4088888888888889,0.48,-0.6666666666666666,0.0056719668456886654,0.07962426523449068,-0.0056719668456886654
1589995677.018382,-0.04868721461187214,-4.62,8.612458143074582,0.4165021985455775,0.48,-0.6576691188905801,0.0,0.08606830289193303,0.1167950913242009
1589995677.028382,-0.06,-4.626639622772346,8.573522640593579,0.4211111111111111,0.48,-0.6522222222222223,0.0,-0.06199292698148533,0.10450471534567644
1589995677.038382,-0.06641772630489723,-4.636417726304897,8.517911368475515,0.4211111111111111,0.48,-0.6522222222222223,0.12033236821682287,-0.125,0.0625
1589995677.048382,-0.05098109310454402,-4.649509453447728,8.557056720686369,0.4211111111111111,0.48,-0.6522222222222223,0.12806591595170003,-0.06556591595170003,0.0030659159517000267
1589995677.058382,-0.05,-4.636420029022735,8.60752989842043,0.4211111111111111,0.48,-0.6522222222222223,-0.0023122279118642786,0.06481222791186428,0.042437409303954766
1589995677.068382,-0.05,-4.63,8.62172300623564,0.41099478539911755,0.49103599168581125,-0.6696958757247566,-0.0625,0.021537577945520192,0.010768788972760096
1589995677.078382,-0.05746539896497774,-4.63,8.62,0.4088888888888889,0.4933333333333334,-0.6733333333333333,-0.01584125646888916,-0.09331748706222168,0.0
1589995677.088382,-0.04076976871119602,-4.629230231288804,8.515388380978372,0.4088888888888889,0.4933333333333334,-0.6733333333333333,0.057688945555024906,-0.004811054444975097,-0.009622108889950194
1589995677.098382,-0.04792385890700689,-4.622076141092993,8.565467012349048,0.4088888888888889,0.4933333333333334,-0.6733333333333333,0.012975881831206931,-0.04952411816879307,-0.09904823633758614
1589995677.108382,-0.05,-4.62,8.603350414389919,0.4088888888888889,0.4933333333333334,-0.6733333333333333,0.0,-0.11114669664566393,0.020940089936991813
1589995677.118382,-0.04174498630947976,-4.62,8.626510027381041,0.4244816925265382,0.47774052969568404,-0.6733333333333333,0.0,-0.021812328868497002,0.010906164434248501
1589995677.128382,-0.041672990144354896,-4.620836495072178,8.637452573917338,0.42777777777777776,0.4744444444444445,-0.6733333333333333,-0.05727190579889096,0.11977190579889097,0.0
1589995677.138382,-0.060267191875088985,-4.629465616249822,8.502137535000712,0.42777777777777776,0.4744444444444445,-0.6733333333333333,-0.0016699492193061555,0.0625,0.0016699492193061555
1589995677.148382,-0.06965700965700966,-4.610342990342991,8.58,0.42777777777777776,0.4744444444444445,-0.6733333333333333,-0.06035631035631036,0.06357184482184482,0.06357184482184482
1589995677.158382,-0.054138084138084144,-4.625861915861916,8.58,0.42777777777777776,0.4744444444444445,-0.6733333333333333,0.03663697413697413,0.11206848706848707,0.11206848706848707
1589995677.168382,-0.059884632688476123,-4.620115367311524,8.639307796130858,0.4091068049217673,0.4799359070491534,-0.6733333333333333,0.0007210456970242335,0.06322104569702423,0.001442091394048467
1589995677.178382,-0.06972656889575002,-4.6394531377915,8.59136715552125,0.4088888888888889,0.48,-0.6733333333333333,0.0,-0.2414552779921877,0.0
1589995677.188382,-0.06021619676064787,-4.630216196760648,8.511729574085182,0.4088888888888889,0.48,-0.6733333333333333,-0.06114877024595081,-0.005404919016196746,0.0
1589995677.198382,-0.06843895217337666,-4.63,8.526877904346753,0.4088888888888889,0.48,-0.6733333333333333,0.042986902167208116,0.0,0.05274345108360406
1589995677.208382,-0.06416563343920377,-4.624165633439204,8.588343665607962,0.4088888888888889,0.48,-0.6733333333333333,0.09896479100497647,-0.10939437301492942,-0.04689437301492942
1589995677.218382,-0.053297802747527614,-4.606595605495055,8.636702197252474,0.4088888888888889,0.48,-0.6778014648349816,0.08311126717204756,-0.10372253434409512,0.0006661984838573221
1589995677.2283819,-0.05,-4.62503413097292,8.62122440177031,0.4088888888888889,0.48,-0.68,0.10161582964518792,0.054847488935563724,0.023384170354812085
1589995677.2383819,-0.05800145533927597,-4.64,8.537986901946516,0.4088888888888889,0.48,-0.68,0.125,0.125,0.05000909587047481
1589995677.2483819,-0.053582407521524024,-4.633582407521524,8.571340739827807,0.4088888888888889,0.48,-0.68,0.04478009401905031,0.04478009401905031,0.10260995299047485
1589995677.2583818,-0.057583930327293156,-4.63,8.615167860654585,0.4088888888888889,0.48,-0.68,0.09479912909116449,0.047399564545582244,-0.017198693636746754
1589995677.2683818,-0.06,-4.623041536843359,8.626958463156642,0.4274447906399324,0.4946900888862428,-0.6707220491244782,0.125,0.10599039472900831,-0.019009605270991686
1589995677.2783818,-0.05038906651055974,-4.640129688836853,8.578832800468321,0.4355555555555555,0.5011111111111111,-0.6666666666666666,-0.06168944476966722,-0.0016211104606655559,-0.05925777907866889
1589995677.2883818,-0.07871999819876616,-4.649573332732922,8.493840005403701,0.4355555555555555,0.5011111111111111,-0.6666666666666666,-0.0026666704192371826,-0.11966665916152563,0.17683331832305127
1589995677.2983818,-0.049758743579888895,-4.620482512840223,8.551206282100557,0.4355555555555555,0.5011111111111111,-0.6666666666666666,0.12198429474861117,0.1799607368715279,0.0
1589995677.3083818,-0.04243143146640579,-4.635137137067188,8.587842842667971,0.4355555555555555,0.5011111111111111,-0.6666666666666666,0.030392893330072335,-0.04901776667481919,0.0
1589995677.3183818,-0.0464597547482943,-4.633540245251705,8.612919509496589,0.42909580080726123,0.49429248109902263,-0.6666666666666666,0.08074693435367877,-0.10481326641158031,0.020186733588419693
1589995677.3283818,-0.05612760464687443,-4.623872395353126,8.63225520929375,0.4194279509086812,0.4840875284282992,-0.6666666666666666,0.2015950580859303,-0.07460123547851742,0.05039876452148258
1589995677.3383818,-0.041302844394868934,-4.638697155605131,8.537165644171779,0.4155555555555556,0.48,-0.6666666666666666,0.07471416620189625,0.2296430563301729,0.12092861126603457
1589995677.3483818,-0.06,-4.639973391606144,8.570106433575424,0.4155555555555556,0.48,-0.6666666666666666,0.0,-0.06233369753840221,0.06233369753840221
1589995677.3583817,-0.06,-4.634581914004756,8.591672343980976,0.4155555555555556,0.48,-0.6666666666666666,0.0,-0.028636962529725557,0.028636962529725557
1589995677.3683817,-0.054969447661647824,-4.635030552338352,8.615030552338352,0.4138787047761049,0.48,-0.6666666666666666,0.0,0.0,0.03144095211470106
1589995677.3783817,-0.044865272914089205,-4.645134727085911,8.63,0.4088888888888889,0.48,-0.6666666666666666,-0.06081591142611504,-0.06081591142611504,0.06418408857388497
1589995677.3883817,-0.04373640963077254,-4.6462635903692275,8.561100505938498,0.4088888888888889,0.48,-0.6666666666666666,-0.125,-0.007557680576985179,0.0
1589995677.3983817,-0.04603803213389762,-4.631885903598308,8.550190160669487,0.4088888888888889,0.48,-0.6666666666666666,-0.08726229916313985,-0.0129754016737203,-0.03773770083686015
1589995677.4083817,-0.0567436621505854,-4.6334873243011705,8.576743662150585,0.4088888888888889,0.48,-0.6666666666666666,-0.10464788844115874,0.021795776882317472,-0.10464788844115874
1589995677.4183817,-0.06,-4.633996588971006,8.616020466173962,0.4128911629082181,0.48,-0.6666666666666666,-0.049957362137578176,0.0625,0.025085275724843648
1589995677.4283817,-0.04556036422809265,-4.63,8.611120728456186,0.4155555555555556,0.48,-0.6666666666666666,0.0,-0.027747723574420943,-0.05549544714884189
1589995677.4383817,-0.05908154844517799,-4.642721032296786,8.542755354664466,0.4155555555555556,0.48,-0.6666666666666666,-0.03975322592745414,0.017006451854908275,-0.045493548145091725
1589995677.4483817,-0.04284469255793406,-4.65,8.519051769147355,0.4155555555555556,0.48,-0.6666666666666666,-0.0625,0.0625,-0.05657355717097073
1589995677.4583817,-0.0702418153340719,-4.65,8.58804408450166,0.4155555555555556,0.48,-0.6666666666666666,-0.0625,-0.03200567291897466,-0.10975283645948733
1589995677.4683816,-0.07045451570680629,-4.65,8.629090968586388,0.42085860238510764,0.48,-0.6793939790575917,-0.0028407231675392636,0.05681855366492147,-0.18465927683246075
1589995677.4783816,-0.05482856661865659,-4.627242849927985,8.622414283309327,0.4211111111111111,0.48,-0.68,0.0,0.015089270683301848,-0.04526781204990554
1589995677.4883816,-0.05860173006280365,-4.628601730062804,8.542584429434767,0.4211111111111111,0.48,-0.68,0.05376081289252281,-0.05376081289252281,0.05376081289252281
1589995677.4983816,-0.06,-4.63,8.539278610065557,0.4211111111111111,0.48,-0.68,-0.05348262581947803,-0.0045086870902609835,-0.05348262581947803
1589995677.5083816,-0.06729002146924298,-4.651870064407729,8.5910301502847,0.4211111111111111,0.48,-0.68,-0.0625,0.09112526836553721,0.028625268365537207
1589995677.5183816,-0.06414640913456408,-4.654146409134564,8.615853590865434,0.4211111111111111,0.47674800507475784,-0.68,-0.025915057091025505,0.125,-0.04725482872692349
1589995677.5283816,-0.06,-4.627315623320795,8.58219270553466,0.4211111111111111,0.4744444444444445,-0.68,0.04725911808167652,-0.016777354245029547,0.06403647232670609
1589995677.5383816,-0.06,-4.646898477288592,8.525169204519013,0.4211111111111111,0.4744444444444445,-0.68,0.006461505648768129,-0.006461505648768129,-0.09915397740492748
1589995677.5483816,-0.06,-4.637948546927108,8.544102906145785,0.4211111111111111,0.4744444444444445,-0.68,-0.11298237255836113,-0.03766079085278704,-0.16266079085278703
1589995677.5583816,-0.06517957196656562,-4.635179571966566,8.565179571966565,0.4211111111111111,0.4744444444444445,-0.68,-0.1551276752089648,-0.0625,-0.12275535041792965
