time,acc_x,acc_y,acc_z,mag_x,mag_y,mag_z,gyr_x,gyr_y,gyr_z
1589995743.4876795,-3.93,-0.83,8.87,0.3088888888888889,-0.30666666666666664,-0.6044444444444445,0.5,1.0625,0.0
1589995743.4976795,-3.9781835761741564,-0.83,8.95030596029026,0.3088888888888889,-0.30666666666666664,-0.6044444444444445,0.6505736755442378,1.213073675544238,0.05019122518141263
1589995743.5076795,-3.966638049788448,-0.7910634163140805,9.00893658368592,0.30369734439743296,-0.31099295374287994,-0.5767562071566794,0.49281708157040244,1.0553170815704025,0.11117072960739939
1589995743.5176795,-3.9502451444812885,-0.7995097110374231,8.990735433443866,0.3022222222222222,-0.31222222222222223,-0.5688888888888889,0.07169291804831829,0.08548229512079586,0.06403215300805305
1589995743.5276794,-3.95,-0.828081458883526,8.905755623349423,0.3022222222222222,-0.31222222222222223,-0.5688888888888889,-0.34702127538475547,-0.581033432747473,-0.11300911802203806
1589995743.5376794,-3.942102437843074,-0.837897562156926,8.923692686470778,0.3022222222222222,-0.31222222222222223,-0.5688888888888889,-0.7698781078463028,-0.8717988174039393,-0.125
1589995743.5476794,-3.925169591193489,-0.8622456132097662,8.94483040880651,0.3022222222222222,-0.31222222222222223,-0.5688888888888889,-0.9213450275203462,-0.7057748623982688,-0.07865497247965375
1589995743.5576794,-3.9258639437740355,-0.8524081686778942,8.95,0.29766137706463924,-0.3193892646127098,-0.5988601570672913,-0.6809524598859568,-0.3318028112982363,0.010799297175440925
1589995743.5676794,-3.937956478733927,-0.8559129574678536,8.965912957467854,0.29444444444444445,-0.3244444444444444,-0.62,-0.3508160237388724,0.024183976261127615,0.012772007912957468
1589995743.5776794,-3.9456610279064757,-0.8486779441870488,8.890745609309342,0.29444444444444445,-0.3244444444444444,-0.62,-0.2063557267535826,0.38093281973925225,0.10614427324641741
1589995743.5876794,-3.955066489851549,-0.8197340405938041,8.860398939109293,0.29444444444444445,-0.3244444444444444,-0.62,0.001662246288724356,0.625,0.1875
1589995743.5976794,-3.9533849255080056,-0.8132301489839894,8.916460297967978,0.29444444444444445,-0.3244444444444444,-0.62,0.042311568850066025,0.17021362867536322,0.06346735327509906
1589995743.6076794,-3.9414589257257133,-0.8456232228228603,9.032492891291442,0.30678155172952537,-0.3244444444444444,-0.5877337194082499,-0.32029028528575443,-0.5429354279286317,-0.10676342842858481
1589995743.6176794,-3.94,-0.869220997988896,9.094848995307423,0.3088888888888889,-0.3244444444444444,-0.5822222222222222,-0.4150437458101999,-0.9453499664815992,-0.1650437458101999
1589995743.6276793,-3.94,-0.847002548519898,8.963262105469516,0.3088888888888889,-0.3244444444444444,-0.5822222222222222,0.07808517937659287,-0.8672074103117036,-0.23905851793765928
1589995743.6376793,-3.9248122707839443,-0.8551877292160558,8.952781593824085,0.3088888888888889,-0.3244444444444444,-0.5822222222222222,0.14003834619982575,-0.7650383461998258,-0.20253834619982575
1589995743.6476793,-3.9131931270232947,-0.8395793810698843,8.980420618930117,0.3088888888888889,-0.3244444444444444,-0.5822222222222222,0.03991408779118466,-0.622371131686777,-0.27258591220881534
1589995743.6576793,-3.915766187497411,-0.8184676250051783,9.001532374994822,0.3088888888888889,-0.3244444444444444,-0.6001614722141669,0.07207734371763537,-0.3102292969882762,-0.3125
1589995743.6676793,-3.9451056625802687,-0.8183685541934228,8.984894337419732,0.3088888888888889,-0.3244444444444444,-0.6133333333333333,0.020393072582214428,0.031910391126678345,-0.5217138548355711
1589995743.6776793,-3.95,-0.8463790091537977,8.892069969487341,0.3088888888888889,-0.3244444444444444,-0.6133333333333333,-0.05495626907041204,0.11745626907041204,-0.7273688072112361
1589995743.6876793,-3.95,-0.85,8.92253662261924,0.3088888888888889,-0.3244444444444444,-0.6133333333333333,0.04384155654810118,0.07182922172594941,-0.6436584434518988
1589995743.6976793,-3.95,-0.8571025774433683,8.937102577443367,0.3088888888888889,-0.3244444444444444,-0.6133333333333333,0.24006443608420713,-0.026282218042103567,-0.4918266729368446
1589995743.7076793,-3.95,-0.855265562240342,8.954203313278974,0.3115191320886989,-0.3281267849241784,-0.6091249442136373,0.4012707079935872,0.026270707993587203,-0.4079097640021376
1589995743.7176793,-3.9458100209535716,-0.8458100209535713,8.978379958092859,0.3144444444444445,-0.3322222222222222,-0.6044444444444445,0.4738126309598206,0.20356210712053818,-0.4011873690401794
1589995743.7276793,-3.9318765539532574,-0.8318765539532571,8.949382769766284,0.3144444444444445,-0.3322222222222222,-0.6044444444444445,0.3867284622078568,0.16018538662357037,-0.08209923545499753
1589995743.7376792,-3.936856548141924,-0.8231434518580758,8.953713096283849,0.3144444444444445,-0.3322222222222222,-0.6044444444444445,0.33214657411297405,0.46782740709620746,0.08570685177405186
1589995743.7476792,-3.951793946126076,-0.808206053873924,8.954103026936961,0.3144444444444445,-0.3322222222222222,-0.6044444444444445,0.2756439183560122,0.8829925715079145,-0.022424326575951115
1589995743.7576792,-3.96,-0.8153874996028089,8.95,0.3195736109787141,-0.3228187502427279,-0.5933312502868602,-0.1346874900702234,0.43738282863588707,0.019257808776333762
1589995743.7676792,-3.9424749473684213,-0.8316833684210526,8.926633263157894,0.3211111111111111,-0.32,-0.59,-0.25,0.25,0.0625
1589995743.7776792,-3.93,-0.8519895760945101,8.892015635858236,0.3211111111111111,-0.32,-0.59,-0.28746742529534397,-0.012271977067407902,0.02503257470465601
1589995743.7876792,-3.9356440898125813,-0.8543559101874187,8.913864538875487,0.3211111111111111,-0.32,-0.59,-0.2066733160141028,0.024153367971794404,0.0705511226572648
1589995743.7976792,-3.9297955688159565,-0.8397955688159566,8.960408862368087,0.3211111111111111,-0.32,-0.59,0.09822193215094757,0.3150553898005415,0.15688884745013537
1589995743.8076792,-3.9258061576827163,-0.83,9.003224630730864,0.29853160901165887,-0.32,-0.5906451286314129,0.45765394206790716,0.5463654565509304,0.11492302896604642
1589995743.8176792,-3.937328498216801,-0.83,8.968700512482393,0.2822222222222222,-0.32,-0.5911111111111111,0.4250906584349807,0.625,0.0625
1589995743.8276792,-3.9719236438323064,-0.83,8.894133623293465,0.2822222222222222,-0.32,-0.5911111111111111,0.2752386130240425,0.3755965325601063,0.11238069348797874
1589995743.8376791,-3.9478739329013126,-0.8380315167746718,8.920157583873358,0.2822222222222222,-0.32,-0.5911111111111111,-0.352363758100385,-0.038878858891891244,-0.07578791936679502
1589995743.8476791,-3.946613371522737,-0.84,8.956453486090949,0.2822222222222222,-0.32,-0.5911111111111111,-0.665334288068427,-0.41433500411974733,-0.08366642798289324
1589995743.8576791,-3.9283780626697427,-0.84,8.97,0.3014417220713398,-0.32880893743084555,-0.5951151735796772,-0.6599085944572614,-0.5174542972286307,0.02759140554273866
1589995743.867679,-3.9270785239594264,-0.84,8.984157047918853,0.3088888888888889,-0.3322222222222222,-0.5966666666666667,-0.49227767576075554,-0.45575922525358514,-0.02598154949282966
1589995743.877679,-3.944951867740923,-0.84,8.88533692581354,0.3088888888888889,-0.3322222222222222,-0.5966666666666667,-0.11042789316731194,-0.25060165323846395,-0.0625
1589995743.887679,-3.937395495882284,-0.827395495882284,8.894115764412005,0.3088888888888889,-0.3322222222222222,-0.5966666666666667,-0.0393890753678623,0.009445376839311487,0.0556672261035869
1589995743.897679,-3.934019331946654,-0.8280386638933072,8.944115991679922,0.3088888888888889,-0.3322222222222222,-0.5966666666666667,-0.1378624739997553,0.0998791753334149,0.04963752600024471
1589995743.907679,-3.94,-0.837083820809903,8.991664716760388,0.3105089884389428,-0.33416634168228687,-0.6015269653168284,-0.2864522398762124,0.1354044797524248,-0.0625
1589995743.917679,-3.935336204641053,-0.834663795358947,8.992017227846318,0.3144444444444445,-0.3388888888888889,-0.6133333333333333,-0.3458512790065812,0.2542025580131624,-0.004202558013162404
1589995743.927679,-3.9340476940028335,-0.8480953880056666,8.927618447977334,0.3144444444444445,-0.3388888888888889,-0.6133333333333333,-0.3125,0.08630764992916733,0.037201912482291835
1589995743.937679,-3.944218113306752,-0.8557818866932481,8.892654339920256,0.3144444444444445,-0.3388888888888889,-0.6133333333333333,-0.2597735836656005,-0.03613679183280025,0.052726416334399506
1589995743.947679,-3.95,-0.8414496219931271,8.922825567010308,0.3144444444444445,-0.3388888888888889,-0.6133333333333333,-0.13406013745704468,-0.10687972508591065,0.09828006872852234
1589995743.957679,-3.95,-0.8345162738976092,8.967097643385655,0.31745529370951725,-0.3358780396238161,-0.6058062101706514,-0.11895342372011464,-0.22177328813994268,0.0625
1589995743.967679,-3.936716107738071,-0.8466419461309644,8.953506377083249,0.3211111111111111,-0.3322222222222222,-0.5966666666666667,-0.27052432663705633,-0.10447567336294365,0.0625
1589995743.977679,-3.9359157451290154,-0.8381685097419694,8.906337019483939,0.3211111111111111,-0.3322222222222222,-0.5966666666666667,-0.23855318588730912,-0.0625,0.0625
1589995743.987679,-3.94,-0.8498038176033934,8.942810180275716,0.3211111111111111,-0.3322222222222222,-0.5966666666666667,-0.02246818663838812,-0.0625,0.0625
1589995743.997679,-3.94,-0.8446912488950625,8.985308751104938,0.3211111111111111,-0.3322222222222222,-0.5966666666666667,0.0625,-0.030606768531380224,-0.001286462937239552
1589995744.007679,-3.936272997235212,-0.8411810082943646,9.003727002764789,0.3165558855097033,-0.3293234422940536,-0.5995654465948352,0.08579376727992627,0.0,-0.03920623272007373
1589995744.017679,-3.935073743137044,-0.8447787705888685,8.96941005490365,0.3088888888888889,-0.3244444444444444,-0.6044444444444445,0.2518435784260954,0.06342178921304768,0.03171089460652384
1589995744.027679,-3.94,-0.83,8.899261158410733,0.3088888888888889,-0.3244444444444444,-0.6044444444444445,0.25972934404024767,0.0865764480134159,0.024076448013415894
1589995744.037679,-3.947444041887935,-0.83,8.89488808377587,0.3088888888888889,-0.3244444444444444,-0.6044444444444445,0.14097473820040696,0.0625,0.0
1589995744.047679,-3.945881962519521,-0.83,8.920590187402395,0.3088888888888889,-0.3244444444444444,-0.6044444444444445,0.04778679724102031,0.011024531494013536,0.051475468505986464
1589995744.057679,-3.940423477355544,-0.83,8.94788261322228,0.3088888888888889,-0.3244444444444444,-0.6044444444444445,-0.05455979958355023,-0.05720653305570016,0.11970653305570016
1589995744.067679,-3.9430970427857095,-0.8230970427857094,8.966902957214291,0.29444444444444445,-0.32,-0.6044444444444445,-0.1592825870534199,0.03871303482136797,0.10564348258931602
1589995744.077679,-3.945703764935748,-0.8428887051927557,8.925630119485986,0.29444444444444445,-0.32,-0.6044444444444445,-0.2944455925452769,0.15185146915157435,0.08935146915157435
1589995744.087679,-3.9443659053833606,-0.8556340946166394,8.910561337683523,0.29444444444444445,-0.32,-0.6044444444444445,-0.0510654567699837,0.16021309135399672,0.09771309135399674
1589995744.097679,-3.9476297007521204,-0.8523702992478797,8.959481196991518,0.29444444444444445,-0.32,-0.6044444444444445,0.125,0.11018562970075212,0.04768562970075212
1589995744.107679,-3.94,-0.8482675192257841,8.997821653849478,0.29748619871924115,-0.3273871175245063,-0.598795472219822,0.17388533655923272,0.0625,0.0488853365592327
1589995744.1176789,-3.94,-0.83,9.015329536208299,0.3022222222222222,-0.3388888888888889,-0.59,0.18338079739625712,0.09580960130187144,0.22492880390561432
1589995744.1276789,-3.9451398944128218,-0.83,8.948041478220494,0.3022222222222222,-0.3388888888888889,-0.59,0.0928756599198638,0.1571243400801362,0.151878299599319
1589995744.1376789,-3.95,-0.83,8.899383678095779,0.3022222222222222,-0.3388888888888889,-0.59,0.0625,0.21778699702465287,0.030286997024652876
1589995744.1476789,-3.9447030727283274,-0.840593854543345,8.925296927271672,0.3022222222222222,-0.3388888888888889,-0.59,0.0625,0.25,-0.03681738634385938
1589995744.1576788,-3.945738756635295,-0.8557387566352949,8.987387566352949,0.30923625810980493,-0.328049015244443,-0.59,0.0625,0.07066385514703488,-0.05326554205881395
1589995744.1676788,-3.95,-0.848188683106518,8.994566049319554,0.3144444444444445,-0.32,-0.59,0.21014146116852553,-0.025589634707868618,0.03691036529213138
1589995744.1776788,-3.95,-0.84,8.916841864347452,0.3144444444444445,-0.32,-0.59,0.3125,0.0,0.09941537198093649
1589995744.1876788,-3.95,-0.8331428864498922,8.900571340650323,0.3144444444444445,-0.32,-0.59,0.3982139193763463,0.08571391937634629,0.03928608062365371
1589995744.1976788,-3.9445303633281745,-0.83,8.94828745670278,0.3144444444444445,-0.32,-0.59,0.3691295416021815,0.125,0.0
1589995744.2076788,-3.9322445422653227,-0.837755457734677,8.98387772886734,0.30970499805103074,-0.32172343505215045,-0.5956011639194889,0.3852074162625969,0.14923580542086565,0.0
1589995744.2176788,-3.9274416700777732,-0.8462791649611133,8.97883749488334,0.3022222222222222,-0.3244444444444444,-0.6044444444444445,0.6162760949652067,0.327031313958248,0.0
1589995744.2276788,-3.9448751716215082,-0.84,8.91124828378492,0.3022222222222222,-0.3244444444444444,-0.6044444444444445,0.7210905320967245,0.5015603547311497,0.060939645268850345
1589995744.2376788,-3.9231764572465413,-0.8438319346790655,8.890655477432524,0.3022222222222222,-0.3244444444444444,-0.6044444444444445,0.4573528577908823,0.41355040825584033,-0.018697550464958024
1589995744.2476788,-3.8746820570957436,-0.85,8.941329485726063,0.3022222222222222,-0.3244444444444444,-0.6044444444444445,0.1708814284241987,0.36669071421209937,-0.3746392868185098
1589995744.2576787,-3.8457859369587806,-0.8442140630412193,8.978929684793904,0.30607951352807605,-0.3289446176346072,-0.5999442712542816,0.1709863179771389,0.38482421198475925,-2.1638768617942503
1589995744.2676787,-3.8936001004037064,-0.846228585771958,8.993771414228043,0.3088888888888889,-0.3322222222222222,-0.5966666666666667,0.288928661074738,0.515357322149476,-3.8871451879431884
1589995744.2776787,-3.9406071939470193,-0.8417571224211923,8.944664173316559,0.3088888888888889,-0.3322222222222222,-0.5966666666666667,0.338258992433774,0.6655359697350959,-4.834866901639062
1589995744.2876787,-3.9762314422057266,-0.8341542948038175,8.890385737009545,0.3088888888888889,-0.3322222222222222,-0.5966666666666667,0.42692868504772,0.78653565747614,-5.3125
1589995744.2976787,-4.005594061702621,-0.8583910925539318,8.941188123405242,0.3088888888888889,-0.3322222222222222,-0.5966666666666667,0.6075185571793087,0.7399443284620738,-5.015315472048249
1589995744.3076787,-3.999140810541638,-0.8674844863249828,8.974171837891673,0.3112065766064847,-0.3322222222222222,-0.5938854414055518,0.6146479736459052,0.7967780395311422,-3.754594250363901
1589995744.3176787,-3.956942843185149,-0.8304142647777235,8.953885686370297,0.3144444444444445,-0.3322222222222222,-0.59,0.6466963849535906,0.5242855398143624,-2.287231314118222
1589995744.3276787,-3.95,-0.8136398247746611,8.901838948647967,0.3144444444444445,-0.3322222222222222,-0.59,0.38649342904979245,0.4375,-1.6364934290497923
1589995744.3376787,-3.9676674271000385,-0.8276674271000384,8.909445711833397,0.3144444444444445,-0.3322222222222222,-0.59,0.25,0.47430713979174666,-1.3527714408330134
1589995744.3476787,-3.98,-0.844600732458775,8.9484029298351,0.3144444444444445,-0.3322222222222222,-0.59,0.19249084426531285,0.4424908442653128,-1.0199633770612513
1589995744.3576787,-3.9668338528678304,-0.8543887157107232,8.974388715710724,0.3144444444444445,-0.3234447908007758,-0.5865865544472153,0.09757052680798005,0.29271158042394013,-0.5579936876558603
1589995744.3676786,-3.961274251271426,-0.854362874364287,8.974362874364287,0.3144444444444445,-0.31222222222222223,-0.5822222222222222,-0.07842814089282352,0.11703592955358824,-0.20680389433038238
1589995744.3776786,-3.9535528965484943,-0.8554823678171686,8.93162342527982,0.3144444444444445,-0.31222222222222223,-0.5822222222222222,-0.1875,-0.10882399428651712,-0.125
1589995744.3876786,-3.9455233125243856,-0.8544766874756144,8.922093250097541,0.3144444444444445,-0.31222222222222223,-0.5822222222222222,-0.2565414065548186,-0.25,-0.05595859344518142
1589995744.3976786,-3.9545912904670133,-0.8454087095329867,8.935408709532986,0.3144444444444445,-0.31222222222222223,-0.5822222222222222,-0.25510886916233527,-0.10652217290583815,-0.05739113083766474
1589995744.4076786,-3.9558170108422703,-0.8483659783154598,8.93836597831546,0.31723310388293113,-0.3154756582337899,-0.5915177536838443,-0.21364368223581198,0.03635631776418801,-0.04656895329256404
1589995744.4176786,-3.9543462890625003,-0.851307421875,8.9282685546875,0.3211111111111111,-0.32,-0.6044444444444445,-0.385821533203125,-0.16298583984375,0.035335693359375
1589995744.4276786,-3.962381397394316,-0.84,8.88809301302842,0.3211111111111111,-0.32,-0.6044444444444445,-0.7708722720026386,-0.375,0.044651201143422574
1589995744.4376786,-3.9706661085429333,-0.8403996651257598,8.850932551960106,0.3211111111111111,-0.32,-0.6044444444444445,-1.4433284497506642,-0.37999581407199795,0.1933284497506643
1589995744.4476786,-4.027264833102097,-0.8675783889659675,8.93937288827226,0.3211111111111111,-0.32,-0.6044444444444445,-1.829594793111891,-0.795405206888109,1.0790520688810905
1589995744.4576786,-4.047803313474251,-0.8607322288419162,8.99414216926467,0.3211111111111111,-0.32,-0.6044444444444445,-1.70122929078593,-0.92377070921407,2.3627070921407003
1589995744.4676785,-3.9774731418757754,-0.86,9.017952103806888,0.3088888888888889,-0.31222222222222223,-0.5822222222222222,-1.2854045415513786,-0.875,5.5345792386222685
1589995744.4776785,-3.8889042612064197,-0.86,9.009103486441616,0.3088888888888889,-0.31222222222222223,-0.5822222222222222,-0.9312742114001107,-0.8712645268400664,7.116283895960155
1589995744.4876785,-3.8141690482554433,-0.8662125542282624,8.951062771141311,0.3088888888888889,-0.31222222222222223,-0.5822222222222222,-0.4483996237432407,-0.4805857680366799,5.356945329687275
1589995744.4976785,-3.896237058634578,-0.8696049022757036,9.024158039089718,0.3088888888888889,-0.31222222222222223,-0.5822222222222222,-0.7629938721553705,-0.411512255689259,3.0111715796496257
1589995744.5076785,-3.9155532565671103,-0.8211065131342209,9.04,0.3101240953980249,-0.3139515113350126,-0.5871630482587661,-0.7708117803166606,-0.38198036613889885,1.569415707088881
1589995744.5176785,-3.8801181035937233,-0.767632866542939,9.015147629492153,0.3144444444444445,-0.32,-0.6044444444444445,-0.625,-0.6094672684325966,1.5147945841066306
1589995744.5276785,-3.7675882196226596,-0.6809411707718763,8.906647048850783,0.3144444444444445,-0.32,-0.6044444444444445,-0.5356617379931701,-0.5625,2.4735295720409796
1589995744.5376785,-3.65437747207642,-0.6296604393144108,8.880113186895196,0.3144444444444445,-0.32,-0.6044444444444445,-0.3742925819050225,-0.46768887285753374,3.536555635712331
1589995744.5476785,-3.4939293326089684,-0.5631058548205107,8.908447072589745,0.3144444444444445,-0.32,-0.6044444444444445,-0.2260293472355719,-0.375,4.547647467508044
1589995744.5576785,-3.087001685560366,-0.552037545030902,9.010093862577255,0.31147800508973134,-0.3223731514837705,-0.6044444444444445,-0.5254693128862742,-0.40837244274052287,6.255418167696732
1589995744.5676785,-2.84,-0.58,9.08,0.3088888888888889,-0.3244444444444444,-0.6044444444444445,-0.875,-0.4375,7.1875
1589995744.5776784,-2.5847468560025986,-0.33029583739384655,8.9523734280013,0.3088888888888889,-0.3244444444444444,-0.6044444444444445,-0.875,-0.36813773260940186,6.45919619239872
1589995744.5876784,-2.2310218429537683,-0.5879698901791559,8.987942738005769,0.3088888888888889,-0.3244444444444444,-0.6044444444444445,-0.7025715774927876,0.3427280055274068,4.978372202962496
1589995744.5976784,-2.1201541258983463,-0.8990752446099229,8.964611654688717,0.3088888888888889,-0.3244444444444444,-0.6044444444444445,1.1510087453459172,1.1711620053684302,3.4038228418044856
1589995744.6076784,-2.1383128409386094,-0.7901229543683437,8.722495454151874,0.3088888888888889,-0.3244444444444444,-0.6044444444444445,4.215291908390337,1.7007911940427742,1.8905965884492164
1589995744.6176784,-2.068771113519026,-1.3963133405570782,8.866164828860986,0.3288888888888889,-0.32,-0.59,3.429819459493913,2.4471644145579705,-3.8816248645547837
1589995744.6276784,-2.1709378014041225,-1.1730816679003209,8.732338559540633,0.3288888888888889,-0.32,-0.59,1.9117699010833726,1.4071254738353185,-7.702724412892807
1589995744.6376784,-2.3703848530320415,-1.0516025244946599,8.930769706064083,0.3288888888888889,-0.32,-0.59,0.3000788904581163,0.876399891870421,-10.697121325801042
1589995744.6476784,-2.454235438548629,-1.0293234210885283,9.059323421088529,0.3288888888888889,-0.32,-0.59,0.0932001091256309,0.4989002182512618,-13.393943527486018
1589995744.6576784,-2.515050016837351,-0.9965192242933265,9.050784620565338,0.3249944425736277,-0.32,-0.59,0.5435096963334192,1.1804567874333933,-15.883293633500386
1589995744.6676784,-2.6082636534839923,-0.9617363465160075,9.067845574387947,0.3144444444444445,-0.32,-0.59,0.9674435028248588,1.5217043314500942,-18.523516949152544
1589995744.6776783,-2.6030960328222243,-0.9730960328222246,8.979039671777754,0.3144444444444445,-0.32,-0.59,0.8125,1.7024008205556136,-22.260660051806266
1589995744.6876783,-2.610797910405038,-0.979202089594962,8.907606268784887,0.3144444444444445,-0.32,-0.59,0.8424216401889223,1.889960820094461,-24.62933394160584
1589995744.6976783,-2.62,-0.9733301178112557,8.889990353433769,0.3144444444444445,-0.32,-0.59,1.2707529452813924,2.2290058905627848,-28.603161816017405
1589995744.7076783,-2.6291421750491986,-0.9830473916830661,8.903905216633868,0.3144444444444445,-0.32,-0.5920315944553773,1.3803614059425107,2.581546198019163,-31.60171750491983
1589995744.7176783,-2.6547900028187543,-0.99,8.885209997181246,0.3144444444444445,-0.32,-0.5966666666666667,1.25,2.6848750352344264,-35.24425091609508
1589995744.7276783,-2.651740983743575,-0.99,8.859352459358938,0.3144444444444445,-0.32,-0.5966666666666667,1.2241905741986712,2.75,-38.22797129006645
1589995744.7376783,-2.6597283692658373,-0.9965761230886124,8.869456738531674,0.3144444444444445,-0.32,-0.5966666666666667,1.2080503846519137,2.7911007693038274,-41.04891846329186
1589995744.7476783,-2.7019600676527924,-1.0198003382639607,8.961760405916753,0.3144444444444445,-0.32,-0.5966666666666667,1.25,2.948502536979704,-43.66277071866758
1589995744.7576783,-2.707971849558537,-1.0498592477926845,8.99783109735122,0.3144444444444445,-0.32,-0.5966666666666667,1.25,3.1739443584451323,-45.50387892730191
1589995744.7676783,-2.6981227400223045,-1.051877259977696,9.037371836031225,0.3144444444444445,-0.3322222222222222,-0.59,1.7546931499442397,3.3890794498327192,-49.22355614882903
1589995744.7776783,-2.662687134601737,-1.087312865398263,8.987761988442433,0.3144444444444445,-0.3322222222222222,-0.59,1.8432821634956575,3.6548464904869724,-51.08392543340881
1589995744.7876782,-2.699327313206134,-1.1113453735877323,8.870672686793865,0.3144444444444445,-0.3322222222222222,-0.59,1.8834085849233266,4.141817169846653,-54.76430603815984
1589995744.7976782,-2.6906002788123424,-1.1287994423753147,8.879399721187658,0.3144444444444445,-0.3322222222222222,-0.59,1.992496514845717,4.3599930296914335,-57.382416356297206
1589995744.8076782,-2.687558011049724,-1.1475580110497237,8.88,0.3178968692449356,-0.33054266421117245,-0.59,2.0625,4.6407458563535915,-60.553936464088395
1589995744.8176782,-2.7662585218388407,-1.2262585218388409,8.88,0.3538464852844088,-0.31305366181359096,-0.59,2.0625,4.804705253830918,-63.06798055874075
1589995744.8276782,-2.751949226410983,-1.2239830754703276,8.876059235853853,0.3555555555555556,-0.31222222222222223,-0.59,1.8501057783104526,4.75,-66.67267287717004
1589995744.8376782,-2.7976487252124644,-1.2392162417374881,8.822743153918791,0.3555555555555556,-0.31222222222222223,-0.59,1.7548984891406987,4.75,-68.76723323890462
1589995744.8476782,-2.812427970029353,-1.2724279700293528,8.962427970029353,0.3555555555555556,-0.31222222222222223,-0.59,1.9356992507338173,5.060699250733817,-72.21501694538854
1589995744.8576782,-2.825271281932546,-1.2863255383190553,8.976325538319056,0.3581326267225782,-0.31222222222222223,-0.5924599315685215,2.138178204831365,5.282945512078413,-74.49379678938026
1589995744.8676782,-2.8571502933722974,-1.3442832355425676,9.021433528914864,0.38,-0.31222222222222223,-0.6133333333333333,2.303540444282094,5.455419111435812,-77.4191471085135
1589995744.8776782,-2.84,-1.3882706545610977,8.944939887246134,0.38,-0.31222222222222223,-0.6133333333333333,2.375,5.408176636402744,-79.37575140942333
1589995744.8876781,-2.8230406451463823,-1.4601756129121704,8.836608129029276,0.38,-0.31222222222222223,-0.6133333333333333,2.438597580701065,5.68969516140213,-81.30227661344362
1589995744.8976781,-2.787769849095072,-1.4866904527147846,8.838920603619712,0.38,-0.31222222222222223,-0.6133333333333333,2.5764384431558014,5.9375,-82.87633796520664
1589995744.9076781,-2.780760540784438,-1.5077183776466854,8.866957836862246,0.38,-0.31222222222222223,-0.6133333333333333,2.620246620097261,5.9375,-84.05915874262605
1589995744.917678,-2.7933490291826533,-1.5783254854086735,8.893301941634693,0.4133333333333333,-0.28,-0.6133333333333333,2.5,6.041568567608418,-86.13664290489479
1589995744.927678,-2.815328418901865,-1.5966420945093247,8.83868632439254,0.4133333333333333,-0.28,-0.6133333333333333,2.566605236273312,5.9375,-87.78717749043489
1589995744.937678,-2.83,-1.6745234587488667,8.789046917497734,0.4133333333333333,-0.28,-0.6133333333333333,2.7405761276065275,5.994043234360834,-88.93847744786945
1589995744.947678,-2.827621233802369,-1.7142725971857857,8.863787661976309,0.4133333333333333,-0.28,-0.6133333333333333,2.7321018662055807,6.342234577470387,-90.31221306343906
1589995744.957678,-2.8185553591515347,-1.7614446408484654,8.943611602121162,0.4133333333333333,-0.27759226525255776,-0.6136543646329923,2.875,6.428470994697092,-91.38924654507473
1589995744.967678,-2.801705367186244,-1.7782946328137554,8.985736582034388,0.4133333333333333,-0.24950894531040765,-0.6173988072919456,2.875,6.323158544914029,-92.28440236823076
1589995744.977678,-2.7474946107390283,-1.8475161677829157,8.937429939607366,0.4133333333333333,-0.2466666666666667,-0.6177777777777778,3.0938173657621486,6.48461078016752,-93.53172156033504
1589995744.987678,-2.7405925718705264,-1.8682222843884218,8.84770343431684,0.4133333333333333,-0.2466666666666667,-0.6177777777777778,3.180092851618424,6.786574980664484,-94.13564996132897
1589995744.997678,-2.7,-1.9448547576625093,8.849709515325019,0.4133333333333333,-0.2466666666666667,-0.6177777777777778,3.1893155292186344,7.015171117695341,-95.3695534123441
1589995745.007678,-2.7,-1.966551351007288,8.876069189395627,0.42294198147735584,-0.24229909932847463,-0.6196703902909944,3.0,7.03793243372267,-96.08490539766399
1589995745.017678,-2.684519806272868,-2.0347683099634115,8.84071188376372,0.4866666666666667,-0.21333333333333332,-0.6322222222222222,3.0,6.855649757841085,-97.35275363238374
1589995745.027678,-2.65,-2.1032257146920776,8.808978571089936,0.4866666666666667,-0.21333333333333332,-0.6322222222222222,3.0413303584127434,6.853830358412743,-98.20665179206372
1589995745.037678,-2.65,-2.1613447152725582,8.778103368051827,0.4866666666666667,-0.21333333333333332,-0.6322222222222222,3.207758420129568,7.020258420129568,-99.08943815097176
1589995745.047678,-2.65,-2.213887934428577,8.815634238877555,0.4866666666666667,-0.21333333333333332,-0.6322222222222222,3.3015855971938866,7.114085597193887,-99.79314197895415
1589995745.057678,-2.6055701198026777,-2.2588597603946443,8.89177195207893,0.4890292694385718,-0.2082143606608723,-0.6322222222222222,3.2721494009866103,7.266612050739957,-101.26897110641296
1589995745.067678,-2.5555313262815296,-2.363406021155411,8.90106265256306,0.5133333333333333,-0.15555555555555556,-0.6322222222222222,3.527929210740439,7.395606183889341,-103.07118592351506
1589995745.077678,-2.5359384512937595,-2.418123097412481,8.853753805175037,0.5133333333333333,-0.15555555555555556,-0.6322222222222222,3.6376923397070016,7.300769358828006,-104.54288551179604
1589995745.087678,-2.50612410540459,-2.4731264909923496,8.79,0.5133333333333333,-0.15555555555555556,-0.6322222222222222,3.7019540568702185,7.557816227480874,-106.40002981984699
1589995745.097678,-2.4404756938873735,-2.56394593293759,8.798367559762553,0.5133333333333333,-0.15555555555555556,-0.6322222222222222,3.732567583828012,7.784864832343976,-108.49533731750361
1589995745.107678,-2.3872269569245024,-2.605546086150996,8.825546086150997,0.5170307241006639,-0.1501635273531985,-0.6403872935000772,3.644171201945345,7.900997278832793,-110.3014619036591
1589995745.117678,-2.3671674766689526,-2.6527463549897137,8.85291869167238,0.54,-0.11666666666666667,-0.6911111111111111,3.3927032708190463,8.106758177047617,-112.96082359342854
1589995745.127678,-2.3382041011538233,-2.7319659831410297,8.794272134871765,0.54,-0.11666666666666667,-0.6911111111111111,3.5245747892628683,8.424149578525737,-115.94022015304597
1589995745.137678,-2.30059155855802,-2.73823474024033,8.74412207807736,0.54,-0.11666666666666667,-0.6911111111111111,3.602934253004125,8.580868506008251,-117.74248781909488
1589995745.147678,-2.289379227952585,-2.7781376838577545,8.80248308818966,0.54,-0.11666666666666667,-0.6911111111111111,3.5625,8.57025965059269,-121.54959213833551
1589995745.157678,-2.2828715943647984,-2.7586147830943957,8.828513622540806,0.54,-0.11666666666666667,-0.6911111111111111,3.5625,8.651605070440016,-123.37986408490039
1589995745.1676779,-2.2099820734986557,-2.7850089632506725,8.848752240812667,0.5448623560070378,-0.06707063539488098,-0.6852762839026657,3.9454105355542275,8.796903010158351,-126.26615719300867
1589995745.1776779,-2.1224305617576134,-2.7813811735286236,8.806905867643119,0.5455555555555556,-0.06,-0.6844444444444444,3.7306616727694917,9.351176654461016,-128.28626529427524
1589995745.1876779,-2.1484809147655084,-2.9175954261724577,8.79848091476551,0.5455555555555556,-0.06,-0.6844444444444444,3.125,9.263454261724576,-130.386879937027
1589995745.1976779,-2.1407578854333535,-2.956210572833232,8.790757885433353,0.5455555555555556,-0.06,-0.6844444444444444,3.125,9.64960572833232,-131.40052753687235
1589995745.2076778,-2.127709043636096,-3.029083617454438,8.848625426181657,0.5463192076768569,-0.05862542618165763,-0.6852590067071658,3.37786369545488,9.93606815227256,-132.3936140204567
1589995745.2176778,-2.0277244022237815,-2.9945511955524373,8.789431100555944,0.5788888888888889,0.0,-0.72,3.510666864576024,9.871444378474658,-133.1875
1589995745.2276778,-1.9866246985045828,-3.073375301495417,8.771561746261456,0.5788888888888889,0.0,-0.72,3.58202182826821,9.8125,-133.1875
1589995745.2376778,-1.9586076913313872,-3.1013923086686126,8.724303845665693,0.5788888888888889,0.0,-0.72,3.169302893768245,9.800633011803528,-133.09256409442824
1589995745.2476778,-1.9040580683389294,-3.161883863322141,8.711883863322141,0.5788888888888889,0.0,-0.72,3.6868951214694845,9.972822437290144,-132.47705658700374
1589995745.2576778,-1.877430952456975,-3.2082873016379834,8.761712698362016,0.5786034391618862,0.0015699734985152784,-0.72,3.9241195440467447,10.834858632140234,-131.57950644975892
1589995745.2676778,-1.8065567839647656,-3.196886432070469,8.8,0.5722222222222222,0.03666666666666667,-0.72,3.4905678396476563,10.021520100220215,-130.12559547885488
1589995745.2776778,-1.757870790259838,-3.2780861398267747,8.773720045562984,0.5722222222222222,0.03666666666666667,-0.72,3.036557845644652,10.199461626082659,-128.55846219561994
1589995745.2876778,-1.7080794517272981,-3.312880822409053,8.67960274136351,0.5722222222222222,0.03666666666666667,-0.72,2.6694948599434194,9.98199485994342,-126.89445202613858
1589995745.2976778,-1.691367095668805,-3.337949356496792,8.763164521655975,0.5722222222222222,0.03666666666666667,-0.72,2.512816521895047,9.825316521895047,-125.43212087102044
1589995745.3076777,-1.6714432790992755,-3.3585567209007245,8.776185573633574,0.5722222222222222,0.03666666666666667,-0.72,2.3840204943704726,9.889819670419685,-123.7661065916063
1589995745.3176777,-1.618717240857694,-3.4250436788564085,8.759358620428847,0.5821606642379625,0.042018135444373016,-0.7391123884918084,2.3125,9.808491377680294,-121.39340515448323
1589995745.3276777,-1.5620092456872252,-3.4272055474123353,8.75,0.5866666666666667,0.04444444444444445,-0.7477777777777778,1.8376155710903146,9.607534671327095,-118.94543917014319
1589995745.3376777,-1.5346577760345166,-3.4353422239654834,8.696302216120808,0.5866666666666667,0.04444444444444445,-0.7477777777777778,1.5916111002157285,9.418666650323592,-116.31338865463816
1589995745.3476777,-1.509504937985639,-3.480990124028722,8.700495062014362,0.5866666666666667,0.04444444444444445,-0.7477777777777778,1.5198019541367476,9.759282412769274,-113.85148402788015
1589995745.3576777,-1.4637176676896098,-3.5272117492327926,8.71,0.5866666666666667,0.04444444444444445,-0.7477777777777778,1.2732354230600613,9.427279701885139,-110.56228079789565
1589995745.3676777,-1.4675551399706948,-3.5073345800879157,8.687334580087915,0.5942218066373616,0.05787580439234639,-0.7544934577517288,1.2027803751831572,9.280560750366314,-108.14039725842524
1589995745.3776777,-1.4482475053099828,-3.56,8.806856289824871,0.5966666666666667,0.06222222222222223,-0.7566666666666667,0.7313123672504308,8.445234540936962,-104.56057888831002
1589995745.3876777,-1.4314387047649582,-3.56,8.680790285737185,0.5966666666666667,0.06222222222222223,-0.7566666666666667,1.151532380876047,7.919959523904941,-102.14431380996272
1589995745.3976777,-1.4,-3.6344972544234286,8.69706711409396,0.5966666666666667,0.06222222222222223,-0.7566666666666667,1.5384075655887737,7.5384075655887735,-98.28718349603416
1589995745.4076777,-1.4,-3.6942086638194023,8.79089932885906,0.5966666666666667,0.06222222222222223,-0.7566666666666667,1.2185250152532032,7.218525015253203,-95.4615543014033
1589995745.4176776,-1.3398326028861571,-3.677095029396045,8.79419005879209,0.5733333333333334,0.0033333333333333327,-0.7333333333333333,1.6351242650988775,6.481843933725281,-91.0621619454837
1589995745.4276776,-1.280999465118056,-3.6629983953541685,8.75250401161458,0.5733333333333334,0.0033333333333333327,-0.7333333333333333,2.0468833575303735,6.362506686024299,-87.56884694735234
1589995745.4376776,-1.2982450306099313,-3.7208774846950345,8.617019877560274,0.5733333333333334,0.0033333333333333327,-0.7333333333333333,1.7225786032801753,6.0975786032801755,-83.75755328395435
1589995745.4476776,-1.28239475474265,-3.7288026226286752,8.6804209810294,0.5733333333333334,0.0033333333333333327,-0.7333333333333333,1.4749180428539037,5.849918042853904,-80.43890177424231
1589995745.4576776,-1.2686954313109184,-3.7808705591008667,8.69565228434454,0.5733333333333334,0.0033333333333333327,-0.7333333333333333,1.5081535543067595,5.6711928913864815,-77.35864526780328
1589995745.4676776,-1.2490678984527566,-3.8363981523208652,8.743728406188973,0.5423590456161435,0.04706173952230735,-0.6829241984210438,1.8016397213459516,5.39168591332432,-73.05192842121076
1589995745.4776776,-1.2214479731688128,-3.8685520268311873,8.767631982112542,0.5166666666666667,0.08333333333333333,-0.6411111111111111,1.8840498323050805,5.018099664610161,-68.03299552813549
1589995745.4876776,-1.1693516597510372,-3.8474813278008297,8.686832987551867,0.5166666666666667,0.08333333333333333,-0.6411111111111111,1.7616895746887966,4.468516597510374,-62.36502852697095
1589995745.4976776,-1.152963134173119,-3.861110597480643,8.705184329134404,0.5166666666666667,0.08333333333333333,-0.6411111111111111,1.618058765745984,4.199078354327979,-58.24544955506761
1589995745.5076776,-1.1221379865020806,-4.0278847431548765,9.797331188586217,0.5166666666666667,0.08333333333333333,-0.6411111111111111,1.4464082770920026,3.5445413854600134,-52.28937694513411
1589995745.5176775,-0.8920853858784894,-3.491580459770115,8.954096880131363,0.5095443349753696,0.1600962415617588,-0.6157872650976098,4.286432676518883,1.1407276272577995,-48.55439244663383
1589995745.5276775,-0.4509058600842122,-2.531915247035191,7.153701085486924,0.5066666666666667,0.19111111111111112,-0.6055555555555555,14.351868215706725,-5.734632730714258,-42.76148501178198
1589995745.5376775,-0.9549769185838375,-3.5557343658734197,9.264590846569819,0.5066666666666667,0.19111111111111112,-0.6055555555555555,-0.17267490060859636,-1.1637838448928832,-38.60761121474196
1589995745.5476775,-0.9652073460920498,-3.4234194309422605,9.017593605727185,0.5066666666666667,0.19111111111111112,-0.6055555555555555,-9.76427728853546,10.79550504382843,-29.35039989627611
1589995745.5576775,-0.9225554719437044,-3.5428446785576275,7.661264007809799,0.5066666666666667,0.19111111111111112,-0.6055555555555555,3.457803697451645,7.863188696129675,-24.125545313103785
1589995745.5676775,-1.065033401957901,-3.84866686273686,9.166450779379018,0.5066666666666667,0.2311111111111111,-0.5755555555555556,-2.812917524473762,-1.1747930759211798,-21.44989837611865
1589995745.5776775,-0.9542038027332145,-3.543821548821549,7.927961477520301,0.5066666666666667,0.2311111111111111,-0.5755555555555556,-1.015925183204595,1.2400475341651813,-16.84156206674589
1589995745.5876775,-1.0122525579721322,-3.8622525579721323,8.805221862306546,0.5066666666666667,0.2311111111111111,-0.5755555555555556,3.337031038442422,1.7497868356556463,-12.024744202786776
1589995745.5976775,-1.033818191166641,-3.883818191166641,8.567999897166949,0.5066666666666667,0.2311111111111111,-0.5755555555555556,-0.6166683805508422,-0.04734926388674654,-9.868180883335905
1589995745.6076775,-1.0817003484320558,-4.040121254355401,8.875303135888501,0.5066666666666667,0.2311111111111111,-0.5755555555555556,0.6998954703832752,-0.09337108013937279,-5.496968641114982
1589995745.6176775,-1.0573022146507667,-3.9637321976149913,8.80285996592845,0.5193824720802575,0.2747081582434223,-0.5882713609691463,0.6765971039182282,-0.2043611584327087,-1.735672913117547
1589995745.6276774,-1.128841461868168,-4.142469502143093,8.973201197088438,0.5222222222222223,0.28444444444444444,-0.5911111111111111,0.9927591366760506,-0.6503430216338228,3.0478280580283545
1589995745.6376774,-1.1024124298252551,-4.005583616667984,8.687101130702933,0.5222222222222223,0.28444444444444444,-0.5911111111111111,0.875,-1.0767266940776468,7.1785028069898
1589995745.6476774,-1.0360836562030522,-3.879558946785799,8.574342215545188,0.5222222222222223,0.28444444444444444,-0.5911111111111111,0.875,-1.2010931446192772,9.831653751877916
1589995745.6576774,-1.1091955504917246,-3.982608539218038,8.659717258335332,0.5222222222222223,0.28444444444444444,-0.5911111111111111,0.9226901685056368,-1.2976901685056368,13.927170784360758
1589995745.6676774,-1.1618007093009952,-4.132701063951493,8.911350531975746,0.5155555555555555,0.3033333333333333,-0.5755555555555556,0.25,-1.875,23.625
1589995745.6776774,-1.193790184189452,-4.180685276284178,8.935342638142089,0.5155555555555555,0.3033333333333333,-0.5755555555555556,0.25,-1.875,23.625
1589995745.6876774,-1.1500871234494978,-4.040261370348494,8.470818960425282,0.5155555555555555,0.3033333333333333,-0.5755555555555556,-0.6234753396337861,-2.2493465741287655,28.366723272297698
1589995745.6976774,-1.229525323966393,-4.199050647932786,8.768219964873973,0.5155555555555555,0.3033333333333333,-0.5755555555555556,-0.625,-3.119808230882423,38.874827929937815
1589995745.7076774,-1.278679289342077,-4.118867851096538,8.786226429780692,0.5155555555555555,0.3033333333333333,-0.5755555555555556,-0.929245558387982,-3.6320759306466366,43.095522631302416
1589995745.7176774,-1.3197454109399502,-4.169405958859883,8.81974541093995,0.5419959208355113,0.29451987824001474,-0.604199284608841,-0.8760607877502076,-4.059848030624481,49.39188612674108
1589995745.7276773,-1.2992063544872328,-4.107619063461699,8.716031772436164,0.5422222222222223,0.29444444444444445,-0.6044444444444445,-1.22156075854612,-4.279100474091325,52.64318701655161
1589995745.7376773,-1.3362809754560139,-4.098512390182405,8.79958673127684,0.5422222222222223,0.29444444444444445,-0.6044444444444445,-1.2592975613599653,-4.722107315920104,58.45919266832132
1589995745.7476773,-1.267603813655054,-4.172396186344946,8.81,0.5422222222222223,0.29444444444444445,-0.6044444444444445,-1.193440479418011,-4.806559520581989,63.16758308481316
1589995745.7576773,-1.2839254390599573,-4.116198829173447,8.63454678022698,0.5422222222222223,0.29444444444444445,-0.6044444444444445,-1.5862573176659551,-5.211257317665956,66.56583521778641
1589995745.7676773,-1.3228581581886487,-4.1,8.734575896030053,0.5604767545492492,0.28641245022055256,-0.6226989767714715,-1.9339361864148645,-5.394645395471621,69.53042567773377
1589995745.7776773,-1.4621460153883648,-4.07382585384535,8.766376423075585,0.57,0.2822222222222222,-0.6322222222222222,-2.28061788462208,-5.4920294711555195,73.74115038470912
1589995745.7876773,-1.5468496158068057,-4.031800219538969,8.674050493962678,0.57,0.2822222222222222,-0.6322222222222222,-2.3125,-5.619374313940725,77.05248353457739
1589995745.7976773,-1.5656472078744763,-4.014352792125524,8.583940356690382,0.57,0.2822222222222222,-0.6322222222222222,-2.459192573823214,-6.113975246077381,79.19229850891726
1589995745.8076773,-1.6352314213803152,-4.026307855345079,8.763848191813485,0.57,0.2822222222222222,-0.6322222222222222,-2.4490379520466288,-6.3519240959067425,81.83944396608823
1589995745.8176773,-1.6623211183386528,-3.9615474122257686,8.750773706112884,0.6755555555555556,0.2344444444444445,-0.6266666666666667,-2.697171326411054,-6.461678316027635,85.89579713950951
1589995745.8276772,-1.687740091309442,-3.9784933942062946,8.759246697103148,0.6755555555555556,0.2344444444444445,-0.6266666666666667,-2.803083713789342,-6.726459284473354,88.86134398610157
1589995745.8376772,-1.7137199342044007,-3.9918599671022004,8.682910213835697,0.6755555555555556,0.2344444444444445,-0.6266666666666667,-2.738375205611247,-7.0464991775550105,91.57111821482884
1589995745.8476772,-1.7947216294133064,-3.9882324310157626,8.665302706952712,0.6755555555555556,0.2344444444444445,-0.6266666666666667,-2.944915571530196,-7.4706419184544535,95.93447667452918
1589995745.8576772,-1.7955880822974404,-3.9300365925846203,8.69,0.6755555555555556,0.2344444444444445,-0.6266666666666667,-3.0903031892948754,-7.625,100.31067037076899
1589995745.8676772,-1.8103740240114181,-3.9187851565779535,8.761962891444883,0.9466157799979478,0.15368608848963144,-0.6522534725137362,-3.287384035765259,-7.625,105.46087650071362
1589995745.8776772,-1.8237214685040772,-3.8672146850407723,8.764885874016308,1.0522222222222222,0.12222222222222222,-0.6622222222222223,-3.453481643699035,-8.09588986219421,108.9242268454225
1589995745.8876772,-1.9065706644723308,-4.020455461839128,8.672086401974902,1.0522222222222222,0.12222222222222222,-0.6622222222222223,-3.7705333264760337,-8.320893334704794,112.41426661180827
1589995745.8976772,-1.9341014984140872,-4.05,8.695253746035219,1.0522222222222222,0.12222222222222222,-0.6622222222222223,-3.8125,-8.356567182544023,113.85167956360057
1589995745.9076772,-1.9682709242037693,-4.007593613694346,8.731203193152828,1.0522222222222222,0.12222222222222222,-0.6622222222222223,-3.9450199572051683,-8.640039914410337,114.35667331906839
1589995745.9176772,-2.0093519909842223,-3.953310011269722,8.762013993238167,1.3204668064946992,-0.17863568536605723,-0.7902295162367476,-3.7706875704357627,-8.428962598610068,113.5953377394816
1589995745.9276772,-2.0281530715541582,-3.8340100697959403,8.761846928445841,1.4177777777777778,-0.2877777777777778,-0.8366666666666667,-3.228889725078587,-8.26154330278651,111.27423211146039
1589995745.9376771,-2.1180776874889933,-3.67788346876651,8.627883468766509,1.4177777777777778,-0.2877777777777778,-0.8366666666666667,-3.1800485546806208,-8.139902890638758,107.56463527384336
1589995745.9476771,-2.1396336000414307,-3.6310991998757087,8.802672000828608,1.4177777777777778,-0.2877777777777778,-0.8366666666666667,-3.0670799994821203,-7.944369999223181,103.57260998472255
1589995745.9576771,-2.083184667454389,-3.5569517152985,8.672019906674945,1.4177777777777778,-0.2877777777777778,-0.8366666666666667,-2.555220245128472,-7.480948220615625,100.49527742174514
1589995745.967677,-2.22,-3.67,8.94,0.7777777777777778,-0.05111111111111112,-0.6911111111111111,-3.5,-7.625,95.25
1589995745.977677,-2.218764796706125,-3.6694510207582773,8.937392348601819,0.7777777777777778,-0.05111111111111112,-0.6911111111111111,-3.4802710585006005,-7.6138488591525135,95.20453765654486
1589995745.987677,-2.13,-3.6230290654893302,8.638465047829285,0.7777777777777778,-0.05111111111111112,-0.6911111111111111,-2.4981834069168505,-6.768931659308315,89.584809602649
1589995745.997677,-2.1631393405556323,-3.6266278681111266,8.709301626000276,0.7777777777777778,-0.05111111111111112,-0.6911111111111111,-2.9774692298617804,-6.75,86.20132198541121
1589995746.007677,-2.1621190046880634,-3.5823173458348356,8.746158672917417,0.7777777777777778,-0.05111111111111112,-0.6911111111111111,-2.5662188965019834,-6.265723043635052,83.06289217454021
1589995746.017677,-2.173886553124777,-3.5440283617188055,8.795688021093138,0.6955018725702115,0.011922848523717888,-0.6871300189236482,-2.4487591748022517,-5.750886303712678,79.06276277346255
1589995746.027677,-2.1795667425302234,-3.48261708391623,8.735667425302237,0.64,0.054444444444444434,-0.6844444444444444,-2.0055253377320277,-5.364168563255591,74.3808541958115
1589995746.037677,-2.1765971163177595,-3.4234028836822405,8.64659711631776,0.64,0.054444444444444434,-0.6844444444444444,-1.8910517468459727,-5.042536046028005,66.7196988077083
1589995746.047677,-2.195796331809018,-3.4252654439363392,8.750043434790447,0.64,0.054444444444444434,-0.6844444444444444,-2.092090975397879,-4.6709097539787905,59.0899192358755
1589995746.057677,-2.2007932590607813,-3.3747595543646876,8.803173036243125,0.64,0.054444444444444434,-0.6844444444444444,-1.5446208221689466,-3.828349756733888,49.78650313778029
1589995746.067677,-2.2270997075034322,-3.3047000417852237,8.850099289651192,0.6276334308321893,0.053855560198358216,-0.6879777499209618,-1.1693731718964522,-2.9225020892611973,38.25817174721929
1589995746.077677,-2.204943550118051,-3.2606739643700364,8.804156685984116,0.6166666666666667,0.05333333333333334,-0.6911111111111111,-0.5393217428632754,-1.9992943764756386,24.544902339557844
1589995746.087677,-2.202444249962132,-3.2997769998485285,8.701556625208273,0.6166666666666667,0.05333333333333334,-0.6911111111111111,-0.27361171886833735,-1.1902875018933976,15.52232736422236
1589995746.097677,-2.21,-3.33,8.739342927966257,0.6166666666666667,0.05333333333333334,-0.6911111111111111,0.06556846350216433,-0.6321751637130489,3.908938085019794
1589995746.107677,-2.2221755745448757,-3.342175574544876,8.776087787272438,0.6166666666666667,0.05333333333333334,-0.6911111111111111,0.4538406931691524,-0.06786728411443133,-4.897543920174088
1589995746.117677,-2.214453155625245,-3.311132889063112,8.896601332810661,0.6002561087155364,0.014466222396445842,-0.7204773727078706,0.7707516660133281,1.02734221873775,-15.926499411995296
1589995746.127677,-2.171206084984381,-3.1758594719500195,8.759306773931277,0.5955555555555555,0.0033333333333333327,-0.7288888888888889,1.2974239376952372,1.8319087252342847,-24.934412309041893
1589995746.137677,-2.16,-3.132245441103992,8.686736323311976,0.5955555555555555,0.0033333333333333327,-0.7288888888888889,1.2921020206998521,2.2423299655002467,-33.383477082306555
1589995746.147677,-2.214773106439773,-3.1925978359311693,8.734773106439773,0.5955555555555555,0.0033333333333333327,-0.7288888888888889,1.543427355927356,2.8015455932122597,-41.60759271175938
1589995746.157677,-2.23,-3.244896407493398,8.784896407493399,0.5955555555555555,0.0033333333333333327,-0.7288888888888889,1.7704016978891586,3.228303395778317,-47.62799966325789
1589995746.167677,-2.23,-3.254567388620806,8.804855796206937,0.5589745508048729,-0.0006677140612725845,-0.6803047419543885,2.003605094826619,3.662558915946583,-54.15983756031871
1589995746.177677,-6.164446460980035,-7.469529945553538,6.3007323049001815,0.5244444444444445,-0.004444444444444445,-0.6344444444444445,0.14101066243194205,7.982696234119782,-60.23185117967332
1589995746.187677,-7.512489212082467,-5.9768307495604915,-0.6285352405306064,0.5244444444444445,-0.004444444444444445,-0.6344444444444445,-29.026320521016462,87.70068523253956,-57.6109657183954
1589995746.197677,0.11535759690151659,0.8015474676994945,-0.0057256896194894935,0.5244444444444445,-0.004444444444444445,-0.6344444444444445,15.933142757886642,-33.632360006504456,-44.456359208231085
1589995746.207677,0.1964296573500176,-0.4376897438896036,0.6739814056835458,0.5244444444444445,-0.004444444444444445,-0.6344444444444445,25.091528037656413,-31.120669366156008,-37.39673356917319
1589995746.2176769,-0.04692884850959576,-0.49662872601061653,0.23127296855859536,0.5498502223129622,0.06946327299124361,-0.6329047003312009,24.607212127398938,3.7935636994691713,-28.547509825438954
1589995746.2276769,0.2380671935639217,-0.10276819353559391,0.20014333871561713,0.5611111111111111,0.10222222222222224,-0.6322222222222222,31.305795161610153,14.96107227840571,-17.850377822158013
1589995746.2376769,0.18160278177315797,-0.10335888729073682,0.11702264268450006,0.5611111111111111,0.10222222222222224,-0.6322222222222222,32.408874130695885,20.000011121161346,-11.085387350049675
1589995746.2476768,-1.1127524053099498,1.0851918158567773,-0.8451370113262696,0.5611111111111111,0.10222222222222224,-0.6322222222222222,24.022721044939715,17.158423151869442,-1.4575341005967601
1589995746.2576768,6.855729565914965,0.9769444692040288,8.567389250378822,0.5611111111111111,0.10222222222222224,-0.6322222222222222,-36.30963655406008,-70.48414520010697,16.126643417416883
1589995746.2676768,7.2953235091784645,-0.07509830189362388,8.224190231362469,0.5611111111111111,0.10222222222222224,-0.6247889737740927,-13.174331981606855,-64.75460733552988,25.836650041638002
1589995746.2776768,0.9076829873351615,0.9416320668494582,4.817467815641729,0.5611111111111111,0.10222222222222224,-0.6177777777777778,25.315047656352004,-12.919940592766679,32.89929821125473
1589995746.2876768,2.368082259149971,-0.8710480405860122,16.333788372935757,0.5611111111111111,0.10222222222222224,-0.6177777777777778,-54.467921714034276,-8.066867914272402,46.42376695397836
1589995746.2976768,0.7865929514022498,-0.9164981099617464,7.295714479730188,0.5611111111111111,0.10222222222222224,-0.6177777777777778,-42.878911643541045,18.65154824690464,51.32423351592386
1589995746.3076768,-0.6492668902731195,-2.8551736942980357,10.86487901293723,0.5611111111111111,0.10222222222222224,-0.6177777777777778,3.5879776593195913,1.841294321993292,49.8005285697173
1589995746.3176768,-1.1985379809273264,-2.778914830647813,10.265299572509043,0.542759691621908,0.08387080273301911,-0.63062377142022,18.15680286090102,-7.285194015126603,51.57784856954949
1589995746.3276768,-1.4767318757192176,-2.612938807283558,9.652805117443986,0.5277777777777778,0.06888888888888889,-0.6411111111111111,-13.956995024707236,3.877445339470656,57.747330433899684
1589995746.3376768,-1.2314680060435297,-2.1783919310710935,8.016829188615297,0.5277777777777778,0.06888888888888889,-0.6411111111111111,-12.826593062191188,-4.715428355588223,62.1669269876271
1589995746.3476768,-1.6140476465492348,-2.200552122437193,8.17028992203292,0.5277777777777778,0.06888888888888889,-0.6411111111111111,5.373447877562807,-2.3851790355183358,70.56258663008951
1589995746.3576767,-1.7904442491310775,-2.4090359953657465,8.87029323638688,0.5277777777777778,0.06888888888888889,-0.6411111111111111,-0.012412108984859671,-3.5323748551795773,75.05275458431545
1589995746.3676767,-1.90701203418969,-2.62366546405482,9.655777379597568,0.5277777777777778,0.05979636310806556,-0.6460070865315544,-7.105828833627933,-7.918328833627933,78.705430216228
1589995746.3776767,-1.7309133166118231,-2.2970004832363027,8.227654232919898,0.5277777777777778,0.054444444444444434,-0.6488888888888888,-2.7345177416756794,-5.807612985249787,84.28722357732931
1589995746.3876767,-1.6990943389072157,-2.172913206688659,7.485393205171956,0.5277777777777778,0.054444444444444434,-0.6488888888888888,-0.9025565919690595,-5.402556591969059,88.54232074470102
1589995746.3976767,-1.852215501531542,-2.296676747702687,8.175478267612734,0.5277777777777778,0.054444444444444434,-0.6488888888888888,-3.6178875382885503,-8.256734422860688,92.18000949943779
1589995746.4076767,-2.0997821005805624,-2.508973384603785,9.078537585764911,0.5277777777777778,0.054444444444444434,-0.6488888888888888,-2.942312259669758,-7.491252921661766,95.54942509236221
1589995746.4176767,-2.2795665424991536,-2.681479850998984,9.491757534710464,0.5315099522143206,0.05128645069044662,-0.6488888888888888,-2.27095326786319,-6.1635836437521165,98.39385794107687
1589995746.4276767,-2.0249479335494325,-2.3996876012965966,8.305156199351702,0.5422222222222223,0.042222222222222223,-0.6488888888888888,-4.001301661264182,-6.843424584683954,101.26855880267424
1589995746.4376767,-2.0933349133261103,-2.383938244853738,8.416669826652221,0.5422222222222223,0.042222222222222223,-0.6488888888888888,-3.227256568255688,-6.946971492416035,103.9394298483207
1589995746.4476767,-2.296797654405605,-2.5739966491508643,9.167056837509202,0.5422222222222223,0.042222222222222223,-0.6488888888888888,-3.683319371461935,-8.213315182900516,105.79332146574265
1589995746.4576766,-2.344157660991858,-2.630525536639526,9.356893412287196,0.5422222222222223,0.042222222222222223,-0.6488888888888888,-3.9147992227979276,-8.600656920799407,106.15987231680236
1589995746.4676766,-2.266516911551582,-2.3991199750284276,8.936498405832646,0.539178118164094,0.026131957914972786,-0.6488888888888888,-3.0760768990657956,-8.130384495328979,107.25819240373681
1589995746.4776766,-2.283505278924488,-2.3735052789244877,8.936567420450809,0.5344444444444445,0.0011111111111111113,-0.6488888888888888,-3.568493588572681,-7.8503223979834145,107.49561840134439
1589995746.4876766,-15.307262428574274,-15.28092659326657,8.572305532880721,0.5344444444444445,0.0011111111111111113,-0.6488888888888888,-9.26125764031298,9.80371488442471,108.23730886774045
1589995746.4976766,-9.132807411243455,-8.336275389838313,9.163553714252835,0.5344444444444445,0.0011111111111111113,-0.6488888888888888,-0.1651634156165489,-13.796597186259277,105.9519499108119
1589995746.5076766,0.2093235349538346,1.5181912777673094,8.758040952201494,0.5344444444444445,0.0011111111111111113,-0.6488888888888888,9.232308481460544,-24.751219563260264,105.93890930217951
1589995746.5176766,-1.1532900156454549,0.6381078578498676,8.393085347552603,0.5471010142937727,-0.036067562821290595,-0.6583813162758851,0.2639172706663686,-4.189591382228041,105.42567411156168
1589995746.5276766,-1.45,0.52,8.54,0.5522222222222222,-0.05111111111111112,-0.6622222222222223,-3.625,0.4375,104.6875
1589995746.5376766,-1.7314857731427835,-0.7172455259430925,10.160916698854127,0.5522222222222222,-0.05111111111111112,-0.6622222222222223,-14.06572679284151,-6.1014226857216425,102.49728659714175
1589995746.5476766,-1.9149423498902851,-1.0865772990225413,9.130948733293437,0.5522222222222222,-0.05111111111111112,-0.6622222222222223,-3.5774760622381807,-7.486699581089168,101.17205515659286
1589995746.5576766,-2.0946067381270033,-1.3702639125300946,9.398690865038107,0.5522222222222222,-0.05111111111111112,-0.6622222222222223,-2.084694300041404,-5.266429360077288,98.1250162932634
1589995746.5676765,-2.4866022109799513,-1.7205827243769907,8.401040284804198,0.5498643849020465,-0.0552720004996565,-0.6613900443445132,-3.9216366872774966,-8.265776653550684,94.7273749297358
1589995746.5776765,-10.11726103478515,-6.949132876769533,9.029177976364473,0.5333333333333333,-0.08444444444444445,-0.6555555555555556,-3.790810174552136,-4.807362352277947,91.47402988892136
1589995746.5876765,-8.439952954091034,-5.044194926882817,8.572962324067904,0.5333333333333333,-0.08444444444444445,-0.6555555555555556,1.1924300192104127,-6.477194985690203,103.21740845650214
1589995746.5976765,-1.1621557516199221,0.07464696458886261,7.889330272816393,0.5333333333333333,-0.08444444444444445,-0.6555555555555556,-2.7397813404107785,-11.326904454486765,115.7242112593549
1589995746.6076765,-1.446573454429573,-0.5551971797323135,8.676180688336519,0.5333333333333333,-0.08444444444444445,-0.6555555555555556,-8.148527127151052,-8.34129023263225,113.40080515057362
1589995746.6176765,-2.114261265842591,-1.2582987795337193,9.149308989203567,0.5351526452128862,-0.10127307933030824,-0.6582845233748849,-6.932831569785636,-7.816119592004381,109.07827413550305
1589995746.6276765,-3.9452539155196957,-2.324266729947793,8.966941939566524,0.5377777777777778,-0.12555555555555556,-0.6622222222222223,-2.339137399145705,-7.09937114380636,104.93476111374783
1589995746.6376765,-4.507478630556055,-2.3135929908223862,9.064160293323736,0.5377777777777778,-0.12555555555555556,-0.6622222222222223,-1.7777746535900665,-6.184066830124168,108.39419172890048
1589995746.6476765,-2.9627402509579985,-1.387971297618153,8.873515666090615,0.5377777777777778,-0.12555555555555556,-0.6622222222222223,-3.7949085205500035,-8.44725843414231,116.47457547524232
1589995746.6576765,-2.443148889917675,-1.2205533302469758,8.813829633058916,0.5377777777777778,-0.12555555555555556,-0.6622222222222223,-5.674736066101729,-9.483777752058131,118.70797689257462
1589995746.6676764,-3.016766417290108,-1.5114713216957605,9.09239913037918,0.5069707497637672,-0.15564614105761237,-0.6622222222222223,-4.355905109022316,-8.643803152375472,116.17250543513012
1589995746.6776764,-3.34,-1.65,9.27,0.49,-0.17222222222222222,-0.6622222222222223,-3.3125,-8.0,115.0625
1589995746.6876764,-3.619458362214081,-1.65,8.979996039211803,0.49,-0.17222222222222222,-0.6622222222222223,-3.345454995544113,-8.692054906426378,116.80911476383801
1589995746.6976764,-3.511386836803224,-1.4844862323707186,8.708965748824715,0.49,-0.17222222222222222,-0.6622222222222223,-3.8577484889187375,-9.036643720617864,119.71979936198791
1589995746.7076764,-3.3639059454191034,-1.3721393762183236,8.755348440545808,0.49,-0.17222222222222222,-0.6622222222222223,-4.2038762995451595,-8.8125,120.4665722465887
1589995746.7176764,-3.5853399122807015,-1.4062061403508772,8.840515350877192,0.49,-0.17222222222222222,-0.6622222222222223,-4.132903874269006,-8.8125,119.93427905701755
1589995746.7276764,-4.08584694409888,-1.5230051366427224,8.89830611180224,0.4688888888888889,-0.2255555555555556,-0.6766666666666666,-3.5860651009270037,-8.426913198763994,119.35041409165697
1589995746.7376764,-4.041187236687617,-1.4081359209890185,8.92661026313972,0.4688888888888889,-0.2255555555555556,-0.6766666666666666,-3.52224342150701,-8.646185855376752,120.9523231922094
1589995746.7476764,-3.6706775391709003,-1.2239732314391838,8.863634461853733,0.4688888888888889,-0.2255555555555556,-0.6766666666666666,-4.4375,-8.854401923323229,124.26565768688896
1589995746.7576764,-3.766840396544727,-1.1405409009217926,8.825270450460897,0.4688888888888889,-0.2255555555555556,-0.6766666666666666,-4.380235810771639,-8.678883558467158,125.41655675691345
1589995746.7676764,-4.2635404032448605,-1.213540403244861,8.856459596755139,0.4531537633561734,-0.23224298390695966,-0.6743063978367594,-4.2057449594392375,-8.55202016224305,126.93323841261716
1589995746.7776763,-6.217456335344554,-0.07763734518894894,10.315125436646554,0.4244444444444445,-0.24444444444444444,-0.67,-4.351659256906955,-9.3736503651953,129.97395998729755
1589995746.7876763,-5.541326805096744,1.2275448324681453,7.129867626238792,0.4244444444444445,-0.24444444444444444,-0.67,0.9765366918357712,6.738725519112787,81.61694637800849
1589995746.7976763,-4.47608448030375,0.5505030849549122,7.868756525866161,0.4244444444444445,-0.24444444444444444,-0.67,2.8509284527764596,-5.160714285714285,2.443477100142381
1589995746.8076763,-4.05574002259611,-0.047242358545299123,10.343601942044032,0.4244444444444445,-0.24444444444444444,-0.67,-2.4813000015267637,-15.508146241106598,-14.808327162661456
1589995746.8176763,-2.060002038071169,-0.7067060693759426,9.628782456283373,0.421983541443045,-0.24767437963378125,-0.6709997418443185,-8.41124200057066,-7.159896873598826,7.431090266172094
1589995746.8276763,-4.79964757231545,-0.27490796215468866,8.80013609130588,0.3888888888888889,-0.2911111111111111,-0.6844444444444444,1.7055144766448884,4.877551711985252,10.440351614389893
1589995746.8376763,-3.7560818276840378,-0.7805455178935842,9.235281967049922,0.3888888888888889,-0.2911111111111111,-0.6844444444444444,0.345823378627246,-0.9075861082076555,2.1924991289632176
1589995746.8476763,-4.062503575563577,-0.8576031237939568,8.962595972666803,0.3888888888888889,-0.2911111111111111,-0.6844444444444444,-0.5071568026515926,-0.807587856705033,0.03678431973484075
1589995746.8576763,-4.2229433561982885,-0.8067375716003111,8.604326002404356,0.3888888888888889,-0.2911111111111111,-0.6844444444444444,-0.1657803549961106,0.6651156212431936,0.08355491125097235
1589995746.8676763,-4.15769012092497,-0.8186017961954599,8.77042514673644,0.3888888888888889,-0.2911111111111111,-0.6844444444444444,-0.01747754755674985,0.4055857082243123,0.12063061311081254
1589995746.8776762,-3.915819491695017,-0.7922073243946367,9.0184280568341,0.3888888888888889,-0.31222222222222223,-0.6933333333333334,0.040342955773464084,-0.015259155493295977,0.0625
1589995746.8876762,-3.9828822022206163,-0.7708067801064319,9.006109322646344,0.3888888888888889,-0.31222222222222223,-0.6933333333333334,0.15309851520925039,-0.19254237566519938,-0.03314089087444978
1589995746.8976762,-3.962996333158722,-0.8148821372446307,8.933064431639602,0.3888888888888889,-0.31222222222222223,-0.6933333333333334,0.18308014667365113,-0.31544656888423256,-0.0029465688842325727
1589995746.9076762,-3.9893535117183077,-0.8361723968751179,8.901077480469487,0.3888888888888889,-0.31222222222222223,-0.6933333333333334,0.22338377929576933,-0.13696125976525644,0.09973062988262822
1589995746.9176762,-3.9187342000722283,-0.8391842221419686,9.02293948878456,0.39143303951598163,-0.30829035307126074,-0.6887076049204375,0.026019722322539227,0.0025493058063480595,0.08851972232253923
1589995746.9276762,-3.99,-0.766225127505208,8.923557215717262,0.4011111111111111,-0.2933333333333333,-0.6711111111111111,0.1194418504417786,0.2444418504417786,0.17082555132533583
1589995746.9376762,-3.987052348945553,-0.8241046978911056,8.91873288523774,0.4011111111111111,-0.2933333333333333,-0.6711111111111111,0.02565436181941036,0.13223154272911555,0.0
1589995746.9476762,-3.9776138858875605,-0.8115907427416263,8.842270398382768,0.4011111111111111,-0.2933333333333333,-0.6711111111111111,-0.05752892893241783,0.0,0.0
1589995746.9576762,-3.9530746392732024,-0.83,9.07540288581438,0.4011111111111111,-0.2933333333333333,-0.6711111111111111,-0.0192164954575144,0.09608247728757201,0.0192164954575144
1589995746.9676762,-3.9712644571872873,-0.8277471085625425,8.999723977062882,0.4011111111111111,-0.29633718858327657,-0.6761175365276832,-0.07658057148410924,0.3125,0.0625
1589995746.9776762,-4.030044914839685,-0.811982034064126,8.881892204384755,0.4011111111111111,-0.30666666666666664,-0.6933333333333334,-0.09994385645039357,0.16216313870236135,0.11261228709921287
1589995746.9876761,-3.991104296136179,-0.8040526884625777,8.907264523101865,0.4011111111111111,-0.30666666666666664,-0.6933333333333334,-0.03717069710888949,-0.21447581734666307,0.11151209132666846
1589995746.9976761,-3.9229740684064685,-0.8141217585508086,9.033512965796767,0.4011111111111111,-0.30666666666666664,-0.6933333333333334,0.0,-0.41173900905744654,-0.025760990942553456
1589995747.0076761,-3.958576700423962,-0.8161922334746539,9.015711649788019,0.4011111111111111,-0.30666666666666664,-0.6933333333333334,0.011899270391706693,-0.30360437764975984,-0.026802188824879926
1589995747.017676,-3.9231304139611534,-0.8043768046537177,9.033434793019422,0.4011111111111111,-0.30666666666666664,-0.6933333333333334,0.048822485457132,-0.08206508725720801,0.083967456371396
1589995747.027676,-4.028435210497539,-0.8185544013121924,8.914336796063422,0.3888888888888889,-0.32,-0.7066666666666667,0.009034991798797156,0.02710497539639147,0.22289502460360852
1589995747.037676,-3.9732224740546345,-0.8144074913515448,8.900332577836096,0.3888888888888889,-0.32,-0.7066666666666667,0.0625,0.15995317905284503,0.0625
1589995747.047676,-3.9824036704781065,-0.8086055057171597,8.868990823804733,0.3888888888888889,-0.32,-0.7066666666666667,0.03876147024408269,0.125,0.015022940488165382
1589995747.057676,-3.9597686790066935,-0.7951156604966534,8.940925283973227,0.3888888888888889,-0.32,-0.7066666666666667,-0.031972878104083544,0.10901356094795822,-0.030527121895916456
1589995747.067676,-3.9358379752514114,-0.81,9.041026580432915,0.3898618847641241,-0.31708101237429437,-0.7035855130617552,-0.09763449100900969,0.10810918165165052,0.04425632733933979
1589995747.077676,-3.9671983999401847,-0.81,8.9391052001944,0.39508862221225305,-0.30140080002990766,-0.687034177809347,0.04936749971961568,0.3531124995326928,-0.05374499981307712
1589995747.087676,-3.9791044970106575,-0.8276119378736677,8.940746198336367,0.3955555555555556,-0.3,-0.6855555555555556,-0.014925388289576291,0.01772383513127112,0.09514922342084742
1589995747.097676,-4.033618403951131,-0.8207976995061086,8.743133285677152,0.3955555555555556,-0.3,-0.6855555555555556,-0.057514378086820896,-0.1100431342604627,0.009971243826358209
1589995747.107676,-3.9402453024313644,-0.824877348784318,8.996339596758181,0.3955555555555556,-0.3,-0.6855555555555556,0.01067219003267089,-0.38413904983664554,0.0
1589995747.117676,-3.9856701142578657,-0.8021649428710673,8.935773180989512,0.3955555555555556,-0.3,-0.6855555555555556,0.057989702351943104,-0.14755148824028447,0.0
1589995747.127676,-3.948499596231494,-0.824714401076716,9.029215612382234,0.4011111111111111,-0.30666666666666664,-0.6933333333333334,0.0,-0.07187752355316285,-0.045982503364737554
1589995747.137676,-3.9867683948381254,-0.8133079012904687,8.886463210323749,0.4011111111111111,-0.30666666666666664,-0.6933333333333334,0.0,0.25,0.0
1589995747.147676,-3.9692620084886787,-0.82,8.909898472411793,0.4011111111111111,-0.30666666666666664,-0.6933333333333334,0.028943776527120768,0.20658433520931885,0.0
1589995747.157676,-3.99891758791392,-0.8202164824172159,8.814546130761537,0.4011111111111111,-0.30666666666666664,-0.6933333333333334,0.12229396978480006,0.0625,0.0013530151075999692
1589995747.167676,-3.95295719844358,-0.8280285343709468,9.015071335927367,0.39924917135033866,-0.30666666666666664,-0.6933333333333334,0.00616083009079118,0.06866083009079119,0.05633916990920882
1589995747.177676,-3.9779699714954986,-0.8120300285045015,8.961879885981995,0.38222222222222224,-0.30666666666666664,-0.6933333333333334,0.037124643693731835,0.16306303445940223,0.012687678153134083
1589995747.187676,-3.9757203089125444,-0.8228601544562721,8.901398455437278,0.38222222222222224,-0.30666666666666664,-0.6933333333333334,-0.008872103944896681,0.20524420788979336,0.0625
1589995747.197676,-3.985536965990712,-0.8210739319814232,8.838926068018576,0.38222222222222224,-0.30666666666666664,-0.6933333333333334,0.125,-0.09039396255805232,0.07644698127902616
1589995747.207676,-3.97,-0.7958339810352868,8.89625291465879,0.38222222222222224,-0.30666666666666664,-0.6933333333333334,0.08853761852945749,-0.2239623814705425,0.07030642779418622
1589995747.217676,-3.9721921472343653,-0.8078078527656347,8.966576441703097,0.38368365371179913,-0.3043527334748366,-0.6917501158862918,0.0,-0.2850981595704334,-0.0625
1589995747.227676,-3.988936862486776,-0.7910631375132244,9.016810587460327,0.39484679721340604,-0.2866777562639591,-0.6796567104262176,0.0,-0.07578921891530432,-0.0625
1589995747.237676,-3.957169976291763,-0.8276100079027457,8.96459015015217,0.3955555555555556,-0.2855555555555556,-0.6788888888888889,-0.07743745060783885,0.0597498024313554,0.09512509878432229
1589995747.247676,-3.9783273081902712,-0.8205575639365762,8.830593714794949,0.3955555555555556,-0.2855555555555556,-0.6788888888888889,-0.12151522539639836,0.23606090158559345,0.006969549207203274
1589995747.257676,-3.970445860867663,-0.8058216556529347,8.94,0.3955555555555556,-0.2855555555555556,-0.6788888888888889,-0.0625,0.21082802174626236,0.1380573260845792
1589995747.2676759,-4.003208198590867,-0.7927167205636532,8.94,0.3955555555555556,-0.2855555555555556,-0.6788888888888889,-0.0625,0.08796925528424804,0.179010248238584
1589995747.2776759,-3.957721860736137,-0.808713023210644,8.989408371370303,0.4011111111111111,-0.3,-0.6788888888888889,0.0625,0.2178255802660969,-0.03836918519957269
1589995747.2876759,-4.006601728658833,-0.8005663785568613,8.85906205690978,0.4011111111111111,-0.3,-0.6788888888888889,0.0625,0.01415946392153053,0.11438040205885208
1589995747.2976758,-3.9823741182194112,-0.82,8.882575529068353,0.4011111111111111,-0.3,-0.6788888888888889,0.030935295548528342,0.09406470445147166,0.10953235222573583
1589995747.3076758,-4.016382875212844,-0.82,8.862170274872293,0.4011111111111111,-0.3,-0.6788888888888889,0.11595718803210898,0.009042811967891015,0.06702140598394551
1589995747.3176758,-3.9703723492723495,-0.8003723492723493,8.922606444906444,0.4004077847077847,-0.3,-0.6791371217371217,0.0578456340956341,0.05086408523908524,0.12034563409563409
1589995747.3276758,-3.9790923076923077,-0.8090923076923078,8.983646153846154,0.38393675213675216,-0.3,-0.6849504273504273,-0.05115384615384615,-0.22163461538461537,0.011346153846153853
1589995747.3376758,-3.9622032961190854,-0.8211868155236576,8.973560446570973,0.38222222222222224,-0.3,-0.6855555555555556,-0.07627060074428496,0.048729399255715046,-0.15995879851143008
1589995747.3476758,-3.972921093404161,-0.7943816401062417,8.875618359893759,0.38222222222222224,-0.3,-0.6855555555555556,-0.09761474933598938,0.05477050132802124,-0.08075683377600708
1589995747.3576758,-3.99,-0.8179003032600455,8.866797573919635,0.38222222222222224,-0.3,-0.6855555555555556,0.04937689537528431,0.32250758150113723,-0.13500758150113723
1589995747.3676758,-3.99,-0.81,8.93033472266752,0.3823337964447295,-0.29987912792561716,-0.6856206405186848,0.0,0.12395399166399487,0.0625
1589995747.3776758,-3.9874547051210945,-0.81,8.985271769273433,0.3955555555555556,-0.2855555555555556,-0.6933333333333334,0.0318161859863191,-0.01590809299315955,0.07840809299315955
1589995747.3876758,-3.982245276457633,-0.812245276457633,8.989585023762606,0.3955555555555556,-0.2855555555555556,-0.6933333333333334,0.11096702213979368,-0.02040106641938101,0.09693404427958734
1589995747.3976758,-3.9865969467484073,-0.8165969467484072,8.861910686380574,0.3955555555555556,-0.2855555555555556,-0.6933333333333334,0.05186545858877269,0.09309637576631807,0.021269082822454623
1589995747.4076757,-3.970172707571672,-0.800172707571672,8.919827292428328,0.3955555555555556,-0.2855555555555556,-0.6933333333333334,0.0,-0.06411913348442488,0.12553971116147497
1589995747.4176757,-3.9840498602127417,-0.8140498602127413,8.905950139787258,0.3955555555555556,-0.2855555555555556,-0.6933333333333334,0.0,-0.1942174394944499,0.16890581316481662
1589995747.4276757,-3.9712651992024086,-0.82,8.956204402392775,0.40804542275394995,-0.2990862450204828,-0.679802643868406,0.1170925049849474,-0.1914537475075263,0.0704074950150526
1589995747.4376757,-3.97,-0.82,8.94212544326241,0.4088888888888889,-0.3,-0.6788888888888889,0.18085798980496454,-0.13164201019503546,0.006642010195035457
1589995747.4476757,-3.9619884785870747,-0.8240345642387761,8.877953914348298,0.4088888888888889,-0.3,-0.6788888888888889,-0.037644017661567115,-0.07528803532313423,-0.025216026492350684
1589995747.4576757,-3.9692226495800207,-0.802332051259939,8.906890598320082,0.4088888888888889,-0.3,-0.6788888888888889,0.05278311975025442,0.10556623950050883,0.1104246796253816
1589995747.4676757,-3.979677135840765,-0.8096771358407652,8.977739950885356,0.4088888888888889,-0.3,-0.6788888888888889,0.0020179009952177793,0.1854820990047822,0.06451790099521779
1589995747.4776757,-3.98,-0.8186181410025625,8.98,0.39739803421880554,-0.3057454273350417,-0.6846343162239306,-0.053863381266015795,0.07977323746796841,0.008636618733984205
1589995747.4876757,-3.9852552898904317,-0.8094894202191368,8.955765869671295,0.3955555555555556,-0.30666666666666664,-0.6855555555555556,0.0,0.01482721909240119,0.09534556181519763
1589995747.4976757,-3.9719622768958978,-0.8360754462082045,8.91,0.3955555555555556,-0.30666666666666664,-0.6855555555555556,0.036792691798082665,0.05023576940063911,0.01226423059936089
1589995747.5076756,-3.9764649952620337,-0.8182324976310168,8.9206050142139,0.3955555555555556,-0.30666666666666664,-0.6855555555555556,0.15435933058156528,-0.022093779612289807,0.0735468898061449
1589995747.5176756,-3.9629921462184603,-0.8114960731092302,8.96102356134462,0.3955555555555556,-0.30666666666666664,-0.6855555555555556,0.028051370798066272,-0.1062990861346225,0.11564954306731125
1589995747.5276756,-3.9788764362645552,-0.7922471274708892,8.95,0.4088888888888889,-0.2933333333333333,-0.6855555555555556,-0.055477726653471456,-0.10393317996041436,0.055477726653471456
1589995747.5376756,-3.97,-0.81,8.935271159913546,0.4088888888888889,-0.2933333333333333,-0.6855555555555556,0.0230138126350831,0.00496546841229225,0.0
1589995747.5476756,-3.968306034322302,-0.8133879313553959,8.880163794066187,0.4088888888888889,-0.2933333333333333,-0.6855555555555556,0.10382542902877565,-0.1864762870863269,0.01058728548561218
1589995747.5576756,-3.9604991996426313,-0.8290016007147377,8.927004802144213,0.4088888888888889,-0.2933333333333333,-0.6855555555555556,0.006239995532889092,0.1062800134013327,0.059380002233555454
1589995747.5676756,-3.98447311827957,-0.8116451612903226,8.90552688172043,0.4088888888888889,-0.2933333333333333,-0.6855555555555556,-0.11471774193548388,0.2779569892473118,0.0625
1589995747.5776756,-3.980710403140571,-0.8192895968594293,8.960728521817908,0.39174258056939626,-0.30190648749307963,-0.6812689784756824,-0.10712667975237808,0.33481333987618905,0.10268666012381096
1589995747.5876756,-3.999716267611721,-0.829432535223442,8.96716267611721,0.38222222222222224,-0.30666666666666664,-0.6788888888888889,-0.0625,-0.12145334514651224,0.11790669029302446
1589995747.5976756,-3.9906526061025156,-0.8113052122050307,8.876526061025153,0.38222222222222224,-0.30666666666666664,-0.6788888888888889,-0.0625,-0.008157576281441786,-0.10868484743711643
1589995747.6076756,-3.9827550070731887,-0.81,8.891734978780434,0.38222222222222224,-0.30666666666666664,-0.6788888888888889,-0.017218794207430575,0.045281205792569425,-0.03443758841486115
1589995747.6176755,-3.9721859795595225,-0.8178140204404779,8.946884122642869,0.38222222222222224,-0.30666666666666664,-0.6788888888888889,0.09767525550597381,0.013662372247013096,0.0
1589995747.6276755,-3.9775146026120627,-0.8124853973879372,8.967514602612063,0.40727089759576474,-0.30666666666666664,-0.6838986239635974,0.031067467349215713,0.0,0.04696626632539214
1589995747.6376755,-3.97,-0.82,8.974427089515038,0.4155555555555556,-0.30666666666666664,-0.6855555555555556,0.0,0.0,0.0
1589995747.6476755,-3.9686165960604103,-0.8213834039395898,8.88691701969795,0.4155555555555556,-0.30666666666666664,-0.6855555555555556,-0.01729254924487207,0.008646274622436036,-0.008646274622436036
1589995747.6576755,-3.9623359672917404,-0.8264960490623894,8.933503950937611,0.4155555555555556,-0.30666666666666664,-0.6855555555555556,-0.11040020442662264,0.09169959114675473,-0.06979989778668869
1589995747.6676755,-3.9788249400479616,-0.8017625899280576,8.958237410071943,0.4155555555555556,-0.30666666666666664,-0.6855555555555556,-0.007344124700239818,0.29781175059952036,-0.12132793764988009
1589995747.6776755,-3.9707848416943765,-0.82,8.93,0.3744444444444445,-0.3,-0.7,-0.05759473941014891,0.125,0.11028421823044672
1589995747.6876755,-3.978364536648836,-0.82,8.93,0.3744444444444445,-0.3,-0.7,-0.010221645944773747,0.125,-0.031835062165678774
1589995747.6976755,-3.9866739626293115,-0.8216630186853443,8.859978112112065,0.3744444444444445,-0.3,-0.7,-0.010393866783402069,-0.0625,-0.010393866783402069
1589995747.7076755,-3.9723013895735355,-0.8284657402843096,8.913835649289226,0.3744444444444445,-0.3,-0.7,-0.05291087677693548,-0.05291087677693548,-0.05770543838846774
1589995747.7176754,-3.9890654018838516,-0.8172897320774324,8.94177566980642,0.3744444444444445,-0.3,-0.7,0.016939174516047373,0.016939174516047373,-0.022780412741976314
1589995747.7276754,-3.982124034808187,-0.8159586550639376,8.971917310127877,0.394968700775785,-0.29602756329070823,-0.6913930537965346,0.0625,-0.011983188299219683,-0.03724159414960984
1589995747.7376754,-3.979627237774841,-0.8296272377748407,8.98,0.4088888888888889,-0.2933333333333333,-0.6855555555555556,0.002329763907244986,0.05784047218551003,-0.12267023609275501
1589995747.7476754,-3.9611682513244038,-0.8111682513244037,8.895257130959818,0.4088888888888889,-0.2933333333333333,-0.6855555555555556,-0.05884921461123834,-0.05519842922247668,-0.06615078538876165
1589995747.7576754,-3.967179440477925,-0.8243588809558502,8.9187177619117,0.4088888888888889,-0.2933333333333333,-0.6855555555555556,0.02724300597406383,0.16185751493515954,-0.15224300597406382
1589995747.7676754,-3.97,-0.8213848909150113,8.973075545424944,0.4088888888888889,-0.2933333333333333,-0.6855555555555556,-0.045188863562357545,0.03462227287528491,0.02787772712471509
1589995747.7776754,-3.9832268819091072,-0.8067731180908931,8.966773118090893,0.40374510147979176,-0.29774229396970225,-0.6811465949191866,-0.0625,0.12400201789787682,-0.10283602386383575
1589995747.7876754,-3.9982066615925484,-0.8164133231850965,8.927173353629806,0.4011111111111111,-0.3,-0.6788888888888889,-0.0625,0.1875,0.01766653981370736
1589995747.7976754,-3.9848069815195073,-0.82,8.882017453798767,0.4011111111111111,-0.3,-0.6788888888888889,-0.01502181724845996,0.09254363449691992,-0.03245636550308008
1589995747.8076754,-3.9790546628859484,-0.8081093257718968,8.913781348456206,0.4011111111111111,-0.3,-0.6788888888888889,0.125,-0.11318328607435413,0.0625
1589995747.8176754,-3.9724473850031505,-0.7948947700063013,8.940210459987398,0.4011111111111111,-0.3,-0.6788888888888889,0.125,-0.03059231253938248,0.0625
1589995747.8276753,-3.9506090907496096,-0.81,8.959695454625196,0.38222222222222224,-0.30666666666666664,-0.6933333333333334,0.001903408592530218,-0.12309659140746979,0.0
1589995747.8376753,-3.9653251583250007,-0.81,8.9523374208375,0.38222222222222224,-0.30666666666666664,-0.6933333333333334,0.04789111976562638,-0.07710888023437362,0.0
1589995747.8476753,-3.96,-0.82,8.858116062520784,0.38222222222222224,-0.30666666666666664,-0.6933333333333334,-0.04800703121288422,0.11775351560644211,0.09601406242576845
1589995747.8576753,-3.9633002217140065,-0.8191749445714983,8.92495033257101,0.38222222222222224,-0.30666666666666664,-0.6933333333333334,0.057343403571865015,0.06765659642813499,-0.11468680714373003
1589995747.8676753,-3.992589514847855,-0.8118526212880363,8.968884272271783,0.38222222222222224,-0.30666666666666664,-0.6933333333333334,0.011578883050226078,0.11342111694977391,-0.023157766100452157
1589995747.8776753,-3.993439083636973,-0.8231218327260543,8.960317250910919,0.38222222222222224,-0.30229272242464855,-0.6977072775753514,0.0,0.125,0.04100572726891988
1589995747.8876753,-3.9815201860774216,-0.8045605582322646,8.95847981392258,0.38222222222222224,-0.3,-0.7,0.05299883701611563,0.07200116298388437,0.11549883701611563
1589995747.8976753,-3.9874001901140685,-0.8074001901140685,8.900798479087454,0.38222222222222224,-0.3,-0.7,0.01624881178707225,0.10875118821292776,-0.060004752851711
1589995747.9076753,-3.979171974522293,-0.8262420382165605,8.907070063694269,0.38222222222222224,-0.3,-0.7,-0.033837579617834394,0.0911624203821656,-0.125
1589995747.9176753,-3.97,-0.828032758914861,8.947950861627708,0.38222222222222224,-0.3,-0.7,-0.0625,-0.012295256782119096,-0.012807114826821356
1589995747.9276752,-3.97,-0.8299374238382241,8.989812271514673,0.388847171447705,-0.3066249492254827,-0.6712918866895746,-0.00039110101109904316,-0.0625,-0.3101533939334058
1589995747.9376752,-3.9618543446876586,-0.813708689375317,8.941126068125952,0.3888888888888889,-0.30666666666666664,-0.6711111111111111,-0.0509103457021343,-0.0625,-0.10885861719146281
1589995747.9476752,-3.978305869074492,-0.819152934537246,8.884235327313771,0.3888888888888889,-0.30666666666666664,-0.6711111111111111,-0.1769116817155756,-0.1197058408577878,-0.0625
1589995747.9576752,-3.989254479775655,-0.8292544797756547,8.89850895955131,0.3888888888888889,-0.30666666666666664,-0.6711111111111111,-0.0718190028043158,-0.0671595014021579,-0.0625
1589995747.9676752,-3.973742773355677,-0.83,8.981286133221618,0.3888888888888889,-0.30666666666666664,-0.6711111111111111,0.03910766652702137,0.08991149979053206,-0.0625
1589995747.9776752,-3.97,-0.8197771873777545,8.979777187377755,0.3888888888888889,-0.31222222222222223,-0.6933333333333334,0.12082226333289868,0.12221484222193246,0.0
1589995747.9876752,-3.97,-0.8129407354283479,8.972940735428349,0.3888888888888889,-0.31222222222222223,-0.6933333333333334,-0.007361210718477007,0.036759192854348685,0.0
1589995747.9976752,-3.978399873480003,-0.81,8.869201518239967,0.3888888888888889,-0.31222222222222223,-0.6933333333333334,-0.010000790749982426,0.2099968370000703,-0.052499209250017574
1589995748.0076752,-3.98,-0.81,8.91097769804705,0.3888888888888889,-0.31222222222222223,-0.6933333333333334,-0.09527765319851592,0.05944469360296817,-0.014861173400742042
1589995748.0176752,-3.97267915860735,-0.81,8.95196252417795,0.3888888888888889,-0.31222222222222223,-0.6933333333333334,-0.07924474129593811,-0.18302103481624757,-0.04575525870406189
1589995748.0276752,-3.982478318002628,-0.8224783180026282,8.953760840998687,0.3965145276682727,-0.3087560227770477,-0.7016522120017521,-0.0625,-0.13301576872536136,-0.17948423127463864
1589995748.0376751,-3.9817131191194743,-0.8134262382389491,8.966573761761051,0.4011111111111111,-0.30666666666666664,-0.7066666666666667,0.09287901650985267,-0.0625,-0.09462098349014733
1589995748.0476751,-3.987107460171569,-0.81,8.884710477941177,0.4011111111111111,-0.30666666666666664,-0.7066666666666667,0.08057837392769608,-0.0625,-0.0625
1589995748.0576751,-3.9609315088276706,-0.819689497057443,8.927515976459544,0.4011111111111111,-0.30666666666666664,-0.7066666666666667,0.12305935660901902,-0.12305935660901902,-0.0625
1589995748.067675,-3.9754508358562592,-0.82,8.93,0.4011111111111111,-0.30666666666666664,-0.7066666666666667,-0.019851586152428602,0.06813544820323814,0.03406772410161907
1589995748.077675,-3.9800163392259535,-0.8199836607740462,9.009901964644277,0.3955555555555556,-0.3,-0.6944444444444444,0.06239787983778889,-0.12459151935115556,0.06209151935115556
1589995748.087675,-3.9882731603606443,-0.8117268396393559,8.960361037836135,0.3955555555555556,-0.3,-0.6944444444444444,0.010792747745974253,0.08182900901610299,-0.144329009016103
1589995748.097675,-3.9807446986607142,-0.8192553013392857,8.857446986607142,0.3955555555555556,-0.3,-0.6944444444444444,-0.057845633370535714,0.125,-0.013963099888392866
1589995748.107675,-3.98,-0.8288865256250707,8.86777305125014,0.3955555555555556,-0.3,-0.6944444444444444,-0.0069592148433080675,0.013918429686616135,-0.05554078515669193
1589995748.117675,-3.9660905829090978,-0.8160905829090978,8.939547085454512,0.3955555555555556,-0.3,-0.6944444444444444,-0.043466928409069565,0.043466928409069565,-0.0625
1589995748.127675,-3.96,-0.8186724411041083,8.987344882208218,0.38399230075007773,-0.28747314062739904,-0.6944444444444444,0.045905513801354866,0.0625,-0.11670275690067744
1589995748.137675,-3.9680525479394007,-0.8280525479394003,8.9980525479394,0.38222222222222224,-0.2855555555555556,-0.6944444444444444,0.012171575378747745,0.012171575378747745,-0.125
1589995748.147675,-3.977914743481308,-0.8220852565186921,8.889193591261689,0.38222222222222224,-0.2855555555555556,-0.6944444444444444,-0.04946714675817404,0.09893429351634808,0.1223357337908702
1589995748.157675,-3.973568229206889,-0.82,8.90502239555178,0.38222222222222224,-0.2855555555555556,-0.6944444444444444,0.058095702370839455,0.08480143254305353,0.10710286508610704
1589995748.167675,-3.97,-0.813420366267493,8.956318534930029,0.38222222222222224,-0.2855555555555556,-0.6944444444444444,0.04275457834366324,-0.10199084331267352,0.0625
1589995748.177675,-3.9833583312751197,-0.8166791656375598,8.97667916563756,0.40003333058904833,-0.29075046216254646,-0.6885074083221691,-0.04174478523474864,-0.020520859061005453,0.10424478523474864
1589995748.187675,-3.973057436121424,-0.811528718060712,8.946114872242848,0.4088888888888889,-0.2933333333333333,-0.6855555555555556,0.04339102424110068,0.11544551212055035,0.01910897575889932
1589995748.197675,-3.9770141255775204,-0.81,8.883886995379838,0.4088888888888889,-0.2933333333333333,-0.6855555555555556,0.018661715140498372,0.16883828485950164,-0.08767656971900326
1589995748.207675,-3.9718787427472155,-0.8018787427472153,8.884363771758355,0.4088888888888889,-0.2933333333333333,-0.6855555555555556,-0.05075785782990474,0.08598428434019052,0.07803143131961895
1589995748.217675,-3.9765888227950357,-0.8131776455900712,8.942710582360286,0.4088888888888889,-0.2933333333333333,-0.6855555555555556,0.019860284937945227,0.0625,0.08381985753102739
1589995748.227675,-3.971775908194875,-0.82,9.002896367220501,0.38695797740855475,-0.2933333333333333,-0.6974347992740699,0.0625,0.011099426217966772,0.11390057378203322
1589995748.237675,-3.9786602825893067,-0.8026794348213867,8.984019152232081,0.38222222222222224,-0.2933333333333333,-0.7,0.008373233816833303,-0.1082535323663334,0.125
1589995748.247675,-3.9883600581408762,-0.8250801744226288,8.904759476732114,0.38222222222222224,-0.2933333333333333,-0.7,0.0,-0.020499273239046684,0.020499273239046684
1589995748.257675,-3.9563714251236877,-0.83,8.923628574876313,0.38222222222222224,-0.2933333333333333,-0.7,0.0,-0.05254464824423796,0.0
1589995748.267675,-3.9647979790931043,-0.8250673403022986,8.9349326596977,0.38222222222222224,-0.2933333333333333,-0.7,0.0,-0.03167087688936651,0.030829123110633485
1589995748.277675,-3.9755538898532428,-0.82,8.948892220293514,0.3851862956533937,-0.2916042904984833,-0.6967889204495643,0.013894094208616063,0.05557637683446425,0.07639409420861606
1589995748.287675,-3.9756593406593406,-0.8043406593406593,8.96434065934066,0.3955555555555556,-0.2855555555555556,-0.6855555555555556,0.1603708791208791,0.20106456043956045,0.02712912087912088
1589995748.297675,-3.9870800189956075,-0.8212400569868218,8.896279829039534,0.3955555555555556,-0.2855555555555556,-0.6855555555555556,0.01049952510981833,0.14324988127745458,0.04425011872254542
1589995748.307675,-3.99,-0.8204005932098657,8.889198813580268,0.3955555555555556,-0.2855555555555556,-0.6855555555555556,-0.0625,0.09500185378083015,0.03250185378083014
1589995748.3176749,-3.985700464796006,-0.8142995352039938,8.918599070407987,0.3955555555555556,-0.2855555555555556,-0.6855555555555556,-0.03562790497503873,0.08937209502496127,0.0
1589995748.3276749,-3.969736602720896,-0.82,8.965921890476864,0.3847219695387235,-0.2929680091460196,-0.6821344231291875,0.032073116497200266,0.09292688350279973,0.032073116497200266
1589995748.3376749,-3.9733268663955528,-0.8000097004066709,8.980009700406672,0.3744444444444445,-0.3,-0.6788888888888889,-0.020792914972204604,0.020853542513897698,0.0625
1589995748.3476748,-3.9738117651471114,-0.8147529394115551,8.901929416618223,0.3744444444444445,-0.3,-0.6788888888888889,0.05352940349166464,0.0,-0.09220587132221952
1589995748.3576748,-3.97,-0.8217559115179252,8.87648817696415,0.3744444444444445,-0.3,-0.6788888888888889,-0.02957665903890161,-0.051525553012967205,0.01860221205186882
1589995748.3676748,-3.9834334694464935,-0.8065665305535069,8.933733877785974,0.3744444444444445,-0.3,-0.6788888888888889,-0.10447959202029106,0.0214591840405821,0.10447959202029106
1589995748.3776748,-3.9825177652149195,-0.8,8.96748223478508,0.3943970705379921,-0.3,-0.6838770454122758,-0.125,-0.031027934813504715,0.125
1589995748.3876748,-3.9643721679125936,-0.8,8.977813916043704,0.4011111111111111,-0.3,-0.6855555555555556,-0.125,-0.11133697527314548,0.07616302472685452
1589995748.3976748,-3.9768291354309877,-0.8,8.895854322845063,0.4011111111111111,-0.3,-0.6855555555555556,-0.01981790355632798,-0.07240895177816399,0.0625
