time,acc_x,acc_y,acc_z,mag_x,mag_y,mag_z,gyr_x,gyr_y,gyr_z
1589995784.2549849,-3.83,-0.8,8.97,0.3033333333333333,-0.3566666666666667,-0.5933333333333334,-0.25,0.375,1.9375
1589995784.2649848,-3.9321572969023313,-0.8557221619467263,8.830694595133185,0.3033333333333333,-0.3566666666666667,-0.5933333333333334,-0.8304391869450657,0.781307430861546,0.7185777074153621
1589995784.2749848,-3.941790864909716,-0.92,8.860945513453713,0.3033333333333333,-0.3566666666666667,-0.5933333333333334,-0.9256810818285985,-0.017728377257102218,-0.017102364771425186
1589995784.2849848,-3.914519078041721,-0.92,8.886346052027815,0.29947638825158146,-0.35565168111883727,-0.5959722957576898,-0.44831412586918923,-0.5625,-0.0168256503476757
1589995784.2949848,-3.8974647383686283,-0.8976057848941158,8.862535261631372,0.2822222222222222,-0.3511111111111111,-0.6077777777777778,0.2024638444117764,-0.3058996185784099,0.16417269259803727
1589995784.3049848,-3.9070337918830984,-0.851101375649295,8.844067583766197,0.2822222222222222,-0.3511111111111111,-0.6077777777777778,0.4375,0.21769400365317654,0.06938359780809407
1589995784.3149848,-3.9119475077702313,-0.8379650051801543,8.861860020720616,0.2822222222222222,-0.3511111111111111,-0.6077777777777778,0.4375,0.5121719235639461,-0.012718717624035918
1589995784.3249848,-3.927771762881511,-0.8522282371184887,8.932282371184888,0.2822222222222222,-0.3511111111111111,-0.6077777777777778,0.3121616620850074,0.680705927962219,0.09035296398110947
1589995784.3349848,-3.921858884894622,-0.8581411151053782,8.991411151053782,0.2822222222222222,-0.3511111111111111,-0.6077777777777778,-0.020437724677521696,0.828527877634454,0.16426393881722703
1589995784.3449848,-3.9549305079239017,-0.8933796613840655,9.016620338615935,0.2822222222222222,-0.3511111111111111,-0.6077777777777778,-0.8547457673008194,0.7482626980975416,0.20862288365040974
1589995784.3549848,-3.926056311610362,-0.902112623220724,8.948732050934705,0.2822222222222222,-0.3511111111111111,-0.6077777777777778,-1.1364441573057125,0.0017597378238126127,0.361796104870475
1589995784.3649848,-3.9232099165317056,-0.8932099165317056,8.87641983306341,0.2822222222222222,-0.3511111111111111,-0.6077777777777778,-1.2901239566463187,-0.22762395664631868,0.557871869938956
1589995784.3749847,-3.916600937596906,-0.8973201875193813,8.895359624961237,0.2822222222222222,-0.3511111111111111,-0.6077777777777778,-1.3080046879845315,-0.39624414001933567,0.7790023439922658
1589995784.3849847,-3.8815780998389693,-0.8896054750402577,8.908816425120774,0.282003041689032,-0.3511111111111111,-0.6072079083914832,-1.1028079710144927,-0.6151368760064412,0.6653079710144928
1589995784.3949847,-3.9180867824346084,-0.8804783043913479,8.881434913174044,0.27693239132852665,-0.3511111111111111,-0.5940242174541692,-0.5894046220133177,-0.38695760978369675,0.15190462201331767
1589995784.4049847,-3.91,-0.8825689618112775,8.861620692125815,0.2766666666666667,-0.3511111111111111,-0.5933333333333334,-0.06966598301927349,-0.5625,-0.026185337106828115
1589995784.4149847,-3.91,-0.9276463423371786,8.831569105108548,0.2766666666666667,-0.3511111111111111,-0.5933333333333334,0.3529344594110482,-0.5625,-0.1200965465357885
1589995784.4249847,-3.90305728843453,-0.8853715256230199,8.92462847437698,0.2766666666666667,-0.3511111111111111,-0.5933333333333334,0.8125,-0.44214407028774866,0.09607203514387432
1589995784.4349847,-3.8825084103602574,-0.871672273573505,8.938327726426495,0.2766666666666667,-0.3511111111111111,-0.5933333333333334,0.8125,-0.27090341966881143,0.010451709834405715
1589995784.4449847,-3.912014575846893,-0.864029151693786,9.035970848306214,0.2766666666666667,-0.34444444444444444,-0.6077777777777778,0.12454450478459239,0.23786439617232608,0.08768219808616304
1589995784.4549847,-3.9208520963425513,-0.8791479036574487,9.00721855486173,0.2766666666666667,-0.34444444444444444,-0.6077777777777778,-0.09837198929527208,0.3948951828724353,0.16619759143621765
1589995784.4649847,-3.933483518126856,-0.8769670362537119,8.876967036253712,0.2766666666666667,-0.34444444444444444,-0.6077777777777778,0.23104397658569933,-0.17135994146424832,-0.08427198829284967
1589995784.4749846,-3.924514232673267,-0.8922122524752475,8.878938737623763,0.2766666666666667,-0.34444444444444444,-0.6077777777777778,0.38163288985148514,-0.4164797339108911,-0.11117342202970297
1589995784.4849846,-3.8669312234091398,-0.8984656117045698,8.840511462765143,0.2766666666666667,-0.34478541962120673,-0.6066980230513639,0.625,-0.5656966422821462,-0.09126978053931621
1589995784.4949846,-3.807166860841424,-0.8756662783171522,8.855666278317152,0.2766666666666667,-0.3511111111111111,-0.5866666666666667,0.5364644012944983,-0.5895857605177993,-0.9437281553398058
1589995784.5049846,-3.8191512791244207,-0.8804243604377896,8.847656841021509,0.2766666666666667,-0.3511111111111111,-0.5866666666666667,0.2925507509120616,-0.400253754560308,-2.2287819781105216
1589995784.5149846,-3.87930208632405,-0.8682723227103072,8.827574409034359,0.2766666666666667,-0.3511111111111111,-0.5866666666666667,0.2155319887070533,-0.08409596612115991,-3.5429780959900468
1589995784.5249846,-3.9366679361694024,-0.89,8.913335872338806,0.2766666666666667,-0.3511111111111111,-0.5866666666666667,0.15278306737251018,0.21528306737251018,-4.340283067372511
1589995784.5349846,-3.96,-0.8908131462333826,8.961626292466766,0.2766666666666667,-0.3516532086000328,-0.5875249876907928,0.2525410819793205,0.3048767540620384,-4.422253508124077
1589995784.5449846,-3.9414906568242865,-0.91,8.987660437882857,0.2766666666666667,-0.3644444444444445,-0.6077777777777778,0.2739388683839301,0.1635611316160699,-3.9275360393437553
1589995784.5549846,-3.903662968801118,-0.9081685155994409,8.945348124795528,0.2766666666666667,-0.3644444444444445,-0.6077777777777778,0.16460644499301075,0.27289355500698925,-3.5448725574755375
1589995784.5649846,-3.923003672122985,-0.896996327877015,8.889011016368956,0.2766666666666667,-0.3644444444444445,-0.6077777777777778,-0.012591803074625,0.450091803074625,-3.1499540984626875
1589995784.5749846,-3.943277606154219,-0.8883402992307227,8.91,0.2766666666666667,-0.3644444444444445,-0.6077777777777778,-0.16675374038403296,0.625,-3.021007480768066
1589995784.5849845,-4.01,-0.8801884835373263,8.91,0.27677137974295907,-0.3641931330613428,-0.6079453186998456,-0.06132197789171087,0.6214659336751326,-2.7983637347005303
1589995784.5949845,-3.9946318980296667,-0.8965863294158571,8.91,0.2822222222222222,-0.3511111111111111,-0.6166666666666667,-0.013721519616368923,0.35517088230178645,-1.8017911272889906
1589995784.6049845,-3.9233116780225004,-0.9144372260075002,8.873841969048751,0.2822222222222222,-0.3511111111111111,-0.6166666666666667,0.007034674906248345,0.045116331273437914,-0.6316286378281308
1589995784.6149845,-3.88,-0.8945874550776185,8.785412544922382,0.2822222222222222,-0.3511111111111111,-0.6166666666666667,0.2551568115297692,0.05074260864732688,0.03382840576488459
1589995784.6249845,-3.8816645437077657,-0.8794451520974115,8.804438783220709,0.2822222222222222,-0.3511111111111111,-0.6166666666666667,0.4062898054793929,0.2083067963470714,0.125
1589995784.6349845,-3.908830285627928,-0.8703899047906907,8.876880761674476,0.2822222222222222,-0.3511111111111111,-0.6166666666666667,-0.10306785552365116,0.5478785703491008,0.125
1589995784.6449845,-3.9338474729671793,-0.85,8.94615252703282,0.2966666666666667,-0.34444444444444444,-0.5955555555555555,-0.9278598818653837,0.7548200590673082,0.10095329395512789
1589995784.6549845,-3.9276144564060096,-0.867767064947356,8.947309239323317,0.2966666666666667,-0.34444444444444444,-0.5955555555555555,-1.2509538033834142,0.625,0.17163654915414644
1589995784.6649845,-3.9488813364998774,-0.9222373270002457,8.914474654000491,0.2966666666666667,-0.34444444444444444,-0.5955555555555555,-1.4794498812546064,0.6389832937515355,0.11800835312423225
1589995784.6749845,-3.9452360722037736,-0.9347639277962265,8.94825464259874,0.2966666666666667,-0.34444444444444444,-0.5955555555555555,-1.7252321299371092,0.6518236461792479,0.10613393503144537
1589995784.6849844,-3.968579670890303,-0.9114203291096971,8.940473443036565,0.2966666666666667,-0.34444444444444444,-0.5955555555555555,-1.336172151828284,0.21413117080681965,0.30066392408585796
1589995784.6949844,-3.9627565035473897,-0.9403420047298526,8.95551300709478,0.2822222222222222,-0.34444444444444444,-0.5933333333333334,-0.7844562943423685,-0.028043705657631438,1.4117217345824995
1589995784.7049844,-3.9260916959822256,-0.9119869005739678,8.892117894834291,0.2822222222222222,-0.34444444444444444,-0.5933333333333334,-0.3758187141270135,-0.27524561423810406,2.4739356716348824
1589995784.7149844,-3.8670964479086094,-0.9141928958172191,8.818548223954306,0.2822222222222222,-0.34444444444444444,-0.5933333333333334,0.14314720057119057,-0.11592639971440472,3.0887055988576186
1589995784.7249844,-3.850459332421015,-0.8809186648420301,8.810229666210509,0.2822222222222222,-0.34444444444444444,-0.5933333333333334,0.24712917236865592,-0.06393541381567204,2.880741655262688
1589995784.7349844,-3.895929792950337,-0.8734386010070947,8.869052590936148,0.2822222222222222,-0.34444444444444444,-0.5933333333333334,0.08596502517736773,0.18355246223394844,2.0958338695924965
1589995784.7449844,-3.9691650067723687,-0.87,8.91638833559079,0.299521020901389,-0.35445953841659367,-0.5933333333333334,-0.25606774360608714,0.1588593538363477,0.9192967691817385
1589995784.7549844,-3.9722116045218914,-0.8622116045218912,8.958941977390545,0.3033333333333333,-0.3566666666666667,-0.5933333333333334,-0.50720988695272,-0.16706483042908005,0.84735494347636
1589995784.7649844,-3.9578743315508023,-0.9,8.854959893048129,0.3033333333333333,-0.3566666666666667,-0.5933333333333334,-0.7411430481283422,-0.5,1.7401403743315509
1589995784.7749844,-3.934181290954282,-0.9,8.91024365444001,0.3033333333333333,-0.3566666666666667,-0.5933333333333334,-0.642422045642841,-0.5,3.023513406643067
1589995784.7849844,-3.93,-0.9181122676384993,8.938112267638498,0.3033333333333333,-0.3566666666666667,-0.5933333333333334,-0.625,-0.5566008363703102,4.099012545554652
1589995784.7949843,-3.9053177838812116,-0.895317783881212,8.956454810745859,0.2978483964180471,-0.34661094898864186,-0.5988182702486196,-0.3164722985151489,-0.30539358209595746,4.393185134323234
1589995784.8049843,-3.8693706293706294,-0.9210489510489511,8.95874125874126,0.2966666666666667,-0.34444444444444444,-0.6,-0.36713286713286714,-0.24606643356643357,4.424388111888112
1589995784.8149843,-3.842043825739478,-0.9665936237675368,8.904087651478957,0.2966666666666667,-0.34444444444444444,-0.6,-0.02554782174347392,-0.07527391087173696,3.85507970290579
1589995784.8249843,-3.8779470272272643,-0.9520529727727357,8.91,0.2966666666666667,-0.34444444444444444,-0.6,0.4412252268938692,0.10389076680866827,2.259933552509724
1589995784.8349843,-3.924558992406001,-0.9054410075939989,8.91,0.2966666666666667,-0.34444444444444444,-0.6,0.8296582700500092,0.3466614187812558,0.8518637710687165
1589995784.8449843,-3.9372309402004175,-0.88,8.918615470100208,0.3033333333333333,-0.3511111111111111,-0.6,1.126926816884137,0.2326933762526106,-0.3298066237473894
1589995784.8549843,-3.921158054070625,-0.88,8.910579027035313,0.3033333333333333,-0.3511111111111111,-0.6,0.7753324327949263,0.13223783794140753,-0.43026216205859247
1589995784.8649843,-3.932775342403525,-0.8672246575964749,8.819867808390306,0.3033333333333333,-0.3511111111111111,-0.6,0.591134417516524,-0.26651969246144414,-0.3125
1589995784.8749843,-3.8983680961121308,-0.9032638077757383,8.918159519439346,0.3033333333333333,-0.3511111111111111,-0.6,0.45789879859836474,-0.6351993992991823,-0.33289879859836474
1589995784.8849843,-3.886703654263307,-0.9265926914733856,8.976481728683464,0.3033333333333333,-0.3511111111111111,-0.6,0.6037043217086601,-0.7081021608543301,-0.47870432170866006
1589995784.8949842,-3.827883467590467,-0.9548904378312951,9.032335656746943,0.29836985405623495,-0.35524734384202644,-0.5950365207229017,1.4320218915647565,-1.1687935640051754,-1.1208914186735672
1589995784.9049842,-3.708865047995483,-0.9416118269082695,8.966447307633079,0.2966666666666667,-0.3566666666666667,-0.5933333333333334,2.7792977773214926,-1.8296673682049176,-2.978928186438068
1589995784.9149842,-3.6877430336444252,-0.906681557009532,8.845575409346042,0.2966666666666667,-0.3566666666666667,-0.5933333333333334,3.618086577103192,-1.1120107359925604,-6.06801745325318
1589995784.9249842,-3.7364993855657778,-0.8857859776146667,8.817714636819556,0.2966666666666667,-0.3566666666666667,-0.5933333333333334,3.5745541200305557,0.15043051911388616,-8.07051047859444
1589995784.9349842,-3.8058310103613318,-0.8321448482617156,8.84190343449219,0.2966666666666667,-0.3566666666666667,-0.5933333333333334,2.964310603271446,1.1480385131226003,-10.5691155393678
1589995784.9449842,-4.106876021575679,-0.861981856815953,8.912972785223928,0.28655992335912245,-0.3481148069448985,-0.5832265900257891,1.9378779830009807,1.7498110084995098,-11.762197613599216
1589995784.9549842,-4.337341095890411,-0.922279060665362,8.915821722113503,0.2822222222222222,-0.34444444444444444,-0.5788888888888889,0.9517441291585127,1.2246612035225048,-10.475436643835616
1589995784.9649842,-4.279884931506849,-0.9715272015655577,8.825533463796479,0.2822222222222222,-0.34444444444444444,-0.5788888888888889,1.2595450097847358,-0.6734442270058709,-7.243527397260275
1589995784.9749842,-4.177017445132246,-1.0794418580856397,8.771244180692689,0.2822222222222222,-0.34444444444444444,-0.5788888888888889,1.2643532255589094,-3.0590116130352483,-2.0061774185296977
1589995784.9849842,-4.098339898705684,-1.1366618918504117,8.899989256663426,0.2822222222222222,-0.34444444444444444,-0.5788888888888889,0.5938059548779864,-3.416636824065074,0.22898015040671194
1589995784.9949841,-3.91376724686903,-0.9737672468690299,8.981248673317767,0.2822222222222222,-0.3566666666666667,-0.6077777777777778,-0.6015873752918701,-2.570503210571004,2.32023787412439
1589995785.0049841,-3.8173158565060494,-0.8773158565060497,8.988668011037996,0.2822222222222222,-0.3566666666666667,-0.6077777777777778,-0.46247479303757166,-1.5039734132880491,2.7375756208872852
1589995785.0149841,-3.6540943843923017,-0.5940943843923016,8.91,0.2822222222222222,-0.3566666666666667,-0.6077777777777778,-0.09563669918270498,0.21308990245188505,2.1916853414184025
1589995785.0249841,-3.7,-0.64,8.91,0.2822222222222222,-0.3566666666666667,-0.6077777777777778,0.0,0.5,1.1875
1589995785.034984,-3.7828961190545667,-0.7136854391596148,8.91,0.2822222222222222,-0.3566666666666667,-0.6077777777777778,0.3454004960606945,0.2697330026262037,-0.5395024803034725
1589995785.044984,-3.813786999940202,-0.7755029998604717,8.925857999960135,0.2822222222222222,-0.3566666666666667,-0.5910387778198578,0.17677500049831568,0.20044375012457893,-1.7281812473838427
1589995785.054984,-3.9545096495622514,-0.7867644743433765,8.86210811326606,0.2822222222222222,-0.3566666666666667,-0.5866666666666667,-0.1531853097640688,0.32046327441017197,-1.9365830530308452
1589995785.064984,-3.986173119994844,-0.8438268800051562,8.806123008008251,0.2822222222222222,-0.3566666666666667,-0.5866666666666667,-0.4180524000580074,0.8797836000064453,-1.3274771998517587
1589995785.074984,-3.95238136671984,-0.8776186332801599,8.860189813248256,0.2822222222222222,-0.3566666666666667,-0.5866666666666667,-0.7982096244017982,0.9220232916001998,-0.35596429319540457
1589995785.084984,-3.9315720537866294,-0.9152838386401116,8.964279462133707,0.2822222222222222,-0.3566666666666667,-0.5866666666666667,-1.516921302169225,0.8321506723328682,0.8427946213370544
1589995785.094984,-3.9649036483400337,-0.9339614593360134,9.007922918672026,0.2822222222222222,-0.3566666666666667,-0.5959743062240089,-1.494111318724874,1.205166043825378,1.65444340637563
1589995785.104984,-3.9885684092335127,-0.94,9.002863181532975,0.2822222222222222,-0.3566666666666667,-0.6,-1.3303948845810905,1.7498679039661833,2.7943409233512764
1589995785.114984,-3.982634114812856,-0.9473658851871437,8.933707033315706,0.2822222222222222,-0.3566666666666667,-0.6,-0.8981689582231623,1.6743896527410542,4.134456342910864
1589995785.124984,-3.6451253532498993,-0.8857501009285426,8.927166733952362,0.2822222222222222,-0.3566666666666667,-0.6,-0.39713489099717403,1.0674492834073477,6.704685607589826
1589995785.134984,-3.4673290270488497,-0.8349511505853855,8.893300767056925,0.2822222222222222,-0.3566666666666667,-0.6,-0.6617127573677837,0.3795468308437626,7.657165926524021
1589995785.144984,-3.2851438970576394,-0.7730710386033852,8.824523376225985,0.2888888888888889,-0.34444444444444444,-0.5955555555555555,-1.1735048636722336,-0.25907711014123974,4.571296281384375
1589995785.154984,-3.1230270722947835,-0.8338648478894561,8.892072053210507,0.2888888888888889,-0.34444444444444444,-0.5955555555555555,-2.2711708646707356,-0.30129503325656676,1.9960029713494278
1589995785.164984,-2.71851150202977,-0.6511245892132225,8.791367195051228,0.2888888888888889,-0.34444444444444444,-0.5955555555555555,-3.875,0.28969227237579737,-3.446044969070172
1589995785.174984,-2.442071494550157,-0.658073896175873,8.96,0.2888888888888889,-0.34444444444444444,-0.5955555555555555,-3.8990762978015887,3.6046335211527802,-4.301370543136892
1589995785.184984,-2.2173630149639756,-0.642576759652688,8.96,0.2888888888888889,-0.34444444444444444,-0.5955555555555555,-4.092790504341401,3.9436333825974508,-2.7032283391834473
1589995785.194984,-2.040573101378717,-1.0802954693303675,8.982014773466519,0.28399671700744034,-0.3534134262271001,-0.5939248315950727,-1.9235226533481629,1.3398815394623633,-0.23602265334816286
1589995785.204984,-2.114488647985273,-1.0092518920024545,8.657381622008591,0.2822222222222222,-0.3566666666666667,-0.5933333333333334,2.470229724892616,-0.040837850276130086,2.479581074861935
1589995785.214984,-2.2388317564788154,-0.9870560811737282,8.61257004433475,0.2822222222222222,-0.3566666666666667,-0.5933333333333334,3.0671734311440195,1.934871909136615,3.537967343114402
1589995785.224984,-2.326084804352717,-0.960507067029393,8.834197876823007,0.2822222222222222,-0.3566666666666667,-0.5933333333333334,0.7205941009224979,0.13045495919327457,3.293484986397758
1589995785.234984,-2.4290355703737037,-0.969086297531142,9.074416330871975,0.2822222222222222,-0.3566666666666667,-0.5933333333333334,-0.8343914275194828,-0.8347084722534721,2.9717638425821757
1589995785.244984,-2.453871779686112,-0.963064110156944,9.044512881255551,0.2822222222222222,-0.35281339453163557,-0.6095170763004639,-0.13301376961800415,-0.504006884809002,2.8508013769618006
1589995785.254984,-2.4308033347681297,-0.97,8.940803334768129,0.2822222222222222,-0.3511111111111111,-0.6166666666666667,1.0491110871978433,0.49581596474932604,2.800784701298113
1589995785.264984,-2.4878156362565416,-0.97,8.997815636256542,0.2822222222222222,-0.3511111111111111,-0.6166666666666667,0.09890606239097433,0.1988768944971795,1.9693553045921026
1589995785.274984,-2.5149151704826225,-0.9783050568275408,8.925254488552133,0.2822222222222222,-0.3511111111111111,-0.6166666666666667,-0.716099077581947,-0.27965944654916813,0.9512745017295339
1589995785.2849839,-2.5044283800637444,-0.9644283800637442,8.808784470414338,0.2822222222222222,-0.3511111111111111,-0.6166666666666667,0.14688755831678124,0.35491968451198663,0.020080315488013367
1589995785.2949839,-2.4930118785308397,-0.95,8.72552177730654,0.2888888888888889,-0.3711111111111111,-0.6077777777777778,0.5936262653037557,0.8436262653037557,-1.666033324497606
1589995785.3049839,-2.5347040307483306,-0.95,8.801957389705274,0.2888888888888889,-0.3711111111111111,-0.6077777777777778,0.15933301303822006,0.40933301303822006,-3.099201056973874
1589995785.3149838,-2.599483825283244,-0.95,8.780516174716755,0.2888888888888889,-0.3711111111111111,-0.6077777777777778,-0.12370956320810972,0.002580873583780563,-5.78991735614192
1589995785.3249838,-2.5834959993662365,-0.9417479996831181,8.86252000316882,0.2888888888888889,-0.3711111111111111,-0.6077777777777778,0.3907500198051176,0.5673250217856294,-7.7207750732789355
1589995785.3349838,-2.6163244488318527,-0.94,9.0035031260283,0.2888888888888889,-0.3711111111111111,-0.6077777777777778,0.5908111220796315,0.8237166831194472,-10.032033563672261
1589995785.3449838,-2.6239913156929098,-0.9520173686141803,9.03798263138582,0.3009062575030692,-0.36243190044531426,-0.6031043566500409,0.625,0.8374457230806865,-12.477496738288417
1589995785.3549838,-2.62,-0.9679192634560906,8.998322946175637,0.3088888888888889,-0.3566666666666667,-0.6,0.7239907932011331,1.3074539660056659,-16.347246813031163
1589995785.3649838,-2.62,-0.9521025208416037,8.927358822945614,0.3088888888888889,-0.3566666666666667,-0.6,0.6940703776300119,1.4375,-19.858981118499404
1589995785.3749838,-2.6113625326430565,-0.9586374673569432,8.911362532643057,0.3088888888888889,-0.3566666666666667,-0.6,0.6335158290191047,1.707420854904476,-23.26459774591103
1589995785.3849838,-2.647043326129464,-0.96,8.880365339096429,0.3088888888888889,-0.3566666666666667,-0.6,0.5786958423381702,1.75,-26.43564114438613
1589995785.3949838,-2.689835337963747,-0.9500548873454175,8.840164662036253,0.3088888888888889,-0.35114160408078754,-0.6088401001374066,0.7489708622734204,2.6201973572759614,-30.855789429103844
1589995785.4049838,-2.6652989516001893,-0.95,8.823532634400125,0.3088888888888889,-0.3511111111111111,-0.6088888888888889,0.8529210349992118,2.727921034999212,-33.75678897997793
1589995785.4149837,-2.66,-0.9876677516989321,8.801166124150535,0.3088888888888889,-0.3511111111111111,-0.6088888888888889,0.8161441379704186,2.573432413911256,-37.78863999771572
1589995785.4249837,-2.66,-1.0048812143363295,8.859524857345319,0.3088888888888889,-0.3511111111111111,-0.6088888888888889,0.9055075896020587,2.655507589602059,-40.79022768806176
1589995785.4349837,-2.653947362776431,-1.0281579116707062,8.92842109778855,0.3088888888888889,-0.3511111111111111,-0.6088888888888889,1.2779608438257437,2.914473895883829,-43.717107097659856
1589995785.4449837,-2.693028441909776,-1.0744227535278206,9.01163413029173,0.32705645325079413,-0.3511111111111111,-0.6012393881049288,1.9302844190977555,3.223856657161658,-47.85063427652263
1589995785.4549837,-2.7315946040005965,-1.0863189208001194,8.969448633599045,0.33,-0.3511111111111111,-0.6,1.9605067449992541,3.6449325500074576,-50.484629025041016
1589995785.4649837,-2.7040836985610675,-1.1129581507194664,8.855820114028623,0.33,-0.3511111111111111,-0.6,2.1288179226622193,4.018488441996665,-54.189303513943294
1589995785.4749837,-2.696248433147632,-1.1387452994428968,8.854993732590529,0.33,-0.3511111111111111,-0.6,2.0703418784818943,4.101552707172702,-57.20255701601671
1589995785.4849837,-2.6892269089564462,-1.176932727608885,8.875386545521778,0.33,-0.3511111111111111,-0.6,1.831670452444468,4.2259977285333195,-60.38045911359975
1589995785.4949837,-2.676469383339344,-1.2070612333213127,8.862346916696719,0.3319614537003646,-0.34875736667067353,-0.6058843611010939,1.8419644789037144,4.533163541291021,-64.32066624594302
1589995785.5049837,-2.6704191849981966,-1.2191616300036061,8.832095924990984,0.3353226750010017,-0.344723901109909,-0.6159680250030052,2.1066606563288857,4.911300937612694,-68.40455012621709
1589995785.5149837,-2.688208405242782,-1.3201462288353003,8.748062176407482,0.33555555555555555,-0.34444444444444444,-0.6166666666666667,2.125,5.222006331918466,-71.58946458556835
1589995785.5249836,-2.71656117113977,-1.3211462762867434,8.810829789706053,0.33555555555555555,-0.34444444444444444,-0.6166666666666667,2.7890292784942488,5.471343092831416,-77.13189845474614
1589995785.5349836,-2.7333757386291766,-1.3735029545167061,8.86012721588753,0.33555555555555555,-0.34444444444444444,-0.6166666666666667,3.042196732864707,5.75079509929706,-79.7770616111603
1589995785.5449836,-2.74,-1.4,8.905543376361145,0.36299103386937814,-0.32363132296499286,-0.622342972524699,2.9653538977428426,5.821784632580948,-83.25112226869547
1589995785.5549836,-2.785044540777439,-1.490089081554878,8.91,0.36777777777777776,-0.32,-0.6233333333333333,2.9375,5.925111351943597,-86.27756109470275
1589995785.5649836,-2.7816922468006506,-1.5498465191960948,8.851845727604555,0.36777777777777776,-0.32,-0.6233333333333333,2.989423457495932,6.19711728747966,-88.89905558731695
1589995785.5749836,-2.78,-1.566438132120164,8.85931439636049,0.36777777777777776,-0.32,-0.6233333333333333,2.9597616742489756,6.370714977253074,-91.22596298454712
1589995785.5849836,-2.7721815554611133,-1.6012737781555462,8.877818444538887,0.36777777777777776,-0.32,-0.6233333333333333,2.864202082447939,6.486365278368041,-93.22730556736082
1589995785.5949836,-2.76,-1.6626799120660334,8.884928035173587,0.38299367225701786,-0.31126494946562144,-0.6323501596914015,2.7341501099174583,6.6100496702476255,-95.33644593305405
1589995785.6049836,-2.7508612860141195,-1.7045693569929403,8.847153215035299,0.42777777777777776,-0.2855555555555556,-0.6588888888888889,2.801733924823507,6.864233924823507,-98.03348836099981
1589995785.6149836,-2.7451105045680277,-1.7253315137040828,8.758673945183668,0.42777777777777776,-0.2855555555555556,-0.6588888888888889,3.0333219606505173,7.063881307100345,-100.24154156715569
1589995785.6249835,-2.7449768254297675,-1.7952549202725607,8.755254920272561,0.42777777777777776,-0.2855555555555556,-0.6588888888888889,3.1877896821279097,7.156394841063955,-102.19184523191865
1589995785.6349835,-2.7352274622104615,-1.85,8.824317613368615,0.42777777777777776,-0.2855555555555556,-0.6588888888888889,3.4587985282923115,7.276985083553848,-103.8707090296154
1589995785.6449835,-2.73,-1.9169707456875575,8.899529551722273,0.43852616906096603,-0.2673659703070832,-0.6588888888888889,3.640992537716974,7.468014924566052,-105.89669401935868
1589995785.6549835,-2.7625310496794873,-1.980663812099359,8.903734475160256,0.44222222222222224,-0.2611111111111111,-0.6588888888888889,3.625,7.550829765124199,-107.37992506760817
1589995785.6649835,-2.711079788142833,-2.0292801412381114,8.847626478349184,0.44222222222222224,-0.2611111111111111,-0.6588888888888889,3.706833627579399,7.767084068948497,-108.64792034474249
1589995785.6749835,-2.665012619888945,-2.094962140333165,8.834987380111055,0.44222222222222224,-0.2611111111111111,-0.6588888888888889,3.4689866229177184,7.781328874305906,-110.35838907117618
1589995785.6849835,-2.6397685212734303,-2.11674382624219,8.84674382624219,0.44222222222222224,-0.2611111111111111,-0.6588888888888889,3.375,7.9185956560547455,-111.71942502231478
1589995785.6949835,-2.5651801066492546,-2.221859832408314,8.840740015235607,0.464857740535181,-0.2178978488772808,-0.685639955986022,3.317125095222549,8.115749809554902,-113.75012242899119
1589995785.7049835,-2.533470513928595,-2.2742158101190078,8.79578418988099,0.4666666666666667,-0.21444444444444444,-0.6877777777777778,3.53357905059504,8.18026976264876,-115.58836264211156
1589995785.7149835,-2.4742359755303918,-2.2640674215801115,8.702370818690616,0.4666666666666667,-0.21444444444444444,-0.6877777777777778,3.6620786151243006,8.536025152935052,-117.4057578419888
1589995785.7249835,-2.45204572098476,-2.283862837045721,8.70386283704572,0.4666666666666667,-0.21444444444444444,-0.6877777777777778,3.786928487690504,8.87357121922626,-119.65192702227432
1589995785.7349834,-2.4434840337765698,-2.387739493351451,8.80773949335145,0.4666666666666667,-0.21444444444444444,-0.6877777777777778,3.6088760555178103,8.652426477724935,-121.6318171891682
1589995785.7449834,-2.4239376561942163,-2.493541146019279,8.849291770796144,0.48510861696219604,-0.18231975683287716,-0.6913471875123963,3.9350218114066404,8.834632162620492,-123.50832292038558
1589995785.7549834,-2.4009545629737485,-2.5309545629737484,8.821909125947498,0.5011111111111111,-0.15444444444444444,-0.6944444444444444,4.369033981414073,9.464203888484434,-126.52925731232067
1589995785.7649834,-2.3646696172408426,-2.618325956897894,8.767004425861263,0.5011111111111111,-0.15444444444444444,-0.6944444444444444,4.098981384694082,9.5,-128.68213030714142
1589995785.7749834,-2.351696875070713,-2.6964249994342997,8.8264249994343,0.5011111111111111,-0.15444444444444444,-0.6944444444444444,4.0625,9.759472654040232,-130.54623045504945
1589995785.7849834,-2.329055031924597,-2.7379266241005373,8.798110063849194,0.5011111111111111,-0.15444444444444444,-0.6944444444444444,3.8443232492145536,10.074312100942535,-131.7913423532989
1589995785.7949834,-2.32,-2.775819136244333,8.825183488427582,0.5133034810042684,-0.11786733476497255,-0.6994648320475092,3.75,10.147157599618229,-133.11537520878073
1589995785.8049834,-2.236935013954059,-2.839838991627565,8.708789523721899,0.52,-0.09777777777777777,-0.7022222222222222,3.9057468488361393,10.176915616278713,-134.55948109301684
1589995785.8149834,-2.2043840843802256,-2.8421920421901126,8.672192042190114,0.52,-0.09777777777777777,-0.7022222222222222,3.498302373193843,10.041100791064615,-135.7259947262359
1589995785.8249834,-2.1839256030812892,-2.8962603892154877,8.718223190756133,0.52,-0.09777777777777777,-0.7022222222222222,3.676394942225826,10.401859922967768,-136.15069747111292
1589995785.8349833,-2.1863585652925757,-2.91,8.698207173537122,0.52,-0.09777777777777777,-0.7022222222222222,3.9487051653929828,10.539741033078597,-136.3067230992358
1589995785.8449833,-2.101011906736095,-3.006403767702564,8.761572418825246,0.5257677467856234,-0.06811508002314277,-0.7384766305889983,3.830760173791914,10.701543895724852,-136.23595610427515
1589995785.8549833,-2.0820201326927474,-3.082070464424617,8.79,0.5277777777777778,-0.057777777777777775,-0.7511111111111111,3.75,10.862688743994509,-135.92455959734613
1589995785.8649833,-2.064101599247413,-3.12942380056444,8.692880997177799,0.5277777777777778,-0.057777777777777775,-0.7511111111111111,3.7095337488240827,10.897033748824082,-135.5072024929445
1589995785.8749833,-2.014813944642098,-3.175186055357902,8.731483743930545,0.5277777777777778,-0.057777777777777775,-0.7511111111111111,3.3356394464209798,10.918982569197377,-134.93517430802623
1589995785.8849833,-1.9638733768277077,-3.2020422077240975,8.745915584551804,0.5277777777777778,-0.057777777777777775,-0.7511111111111111,3.1498681008621956,10.824604302586586,-133.9597301181061
1589995785.8949833,-1.9105652884091855,-3.261510745283925,8.73,0.5514890732259339,-0.05287199251264204,-0.7682813595390863,2.9410330525574095,10.841983473721296,-132.05774789418058
1589995785.9049833,-1.8485546031538311,-3.2726506575934042,8.74469868481319,0.56,-0.05111111111111112,-0.7744444444444445,2.6453330497938885,10.829066609958778,-130.13856490872212
1589995785.9149833,-1.7764485540300654,-3.2900817922387255,8.629509246567647,0.56,-0.05111111111111112,-0.7744444444444445,2.2278034626879086,10.8125,-128.24437678358763
1589995785.9249833,-1.743580252734817,-3.3641974726518296,8.666296208977744,0.56,-0.05111111111111112,-0.7744444444444445,1.9421297387778198,10.652006318370427,-125.95756318370427
1589995785.9349833,-1.7282886155731605,-3.411711384426839,8.649731693438964,0.56,-0.05111111111111112,-0.7744444444444445,2.2043826870048586,10.416107694664507,-123.30579233597409
1589995785.9449832,-1.6625281039220583,-3.463103922058456,8.714943792155882,0.5671839870097427,-0.02317338385100064,-0.7800319898964666,1.9436008930801898,9.81860089308019,-120.13180349113165
1589995785.9549832,-1.6331686619499137,-3.5073253522003442,8.678023943398967,0.57,-0.012222222222222223,-0.7822222222222223,1.792695862813038,9.326128960308733,-117.19751099653506
1589995785.9649832,-1.63,-3.5557334494481756,8.648933362362044,0.57,-0.012222222222222223,-0.7822222222222223,1.840416757381387,8.90833242618613,-114.6799951014051
1589995785.9749832,-1.6263301731244848,-3.5889905193734544,8.66,0.57,-0.012222222222222223,-0.7822222222222223,1.9896820898598515,8.447817910140149,-111.5739334295136
1589995785.9849832,-1.5998682417083145,-3.57,8.696237164925034,0.57,-0.012222222222222223,-0.7822222222222223,2.137170604270786,7.99835302135393,-107.97794752385279
1589995785.9949832,-1.5680789483799056,-3.5728815774301417,8.75,0.5674385978398739,-0.01851900253253215,-0.7792339197020751,2.0685032863127955,7.588980282123227,-105.4222863896683
1589995786.0049832,-1.530794087601893,-3.580794087601893,8.757682364959242,0.5433333333333333,-0.07777777777777778,-0.7511111111111111,2.173014780995268,7.1059556570141975,-100.1895196176538
1589995786.0149832,-1.4772950309421802,-3.577245962869384,8.692803105203412,0.5433333333333333,-0.07777777777777778,-0.7511111111111111,2.1648563660331757,6.789856366033176,-95.75757763008532
1589995786.0249832,-1.45,-3.6284774684467127,8.636954936893424,0.5433333333333333,-0.07777777777777778,-0.7511111111111111,1.9855105481386979,6.456531644416093,-90.66587973299312
1589995786.0349832,-1.419186798787978,-3.614322332323315,8.665135533535336,0.5433333333333333,-0.07777777777777778,-0.7511111111111111,2.1300825075751373,6.119917492424863,-86.53021865531079
1589995786.0449831,-1.40329879565069,-3.647628114486323,8.687731727534253,0.5093475222260146,-0.03640374686452018,-0.7072743402625405,2.3125,5.854382527183188,-81.9781224096738
1589995786.0549831,-1.402979809976247,-3.7256733966745843,8.698653206650832,0.4666666666666667,0.015555555555555557,-0.6522222222222223,2.2415825415676958,5.501788895486936,-76.18192547505939
1589995786.0649831,-1.3513030467258889,-3.762247461061759,8.612606093451777,0.4666666666666667,0.015555555555555557,-0.6522222222222223,2.227809326327199,5.070644042036806,-70.55151658851528
1589995786.0749831,-1.33,-3.7926741965148905,8.67773067037657,0.4666666666666667,0.015555555555555557,-0.6522222222222223,1.7351107665825651,4.581038223018699,-65.67737832771346
1589995786.084983,-1.33,-3.815466169523289,8.688446101589037,0.4666666666666667,0.015555555555555557,-0.6522222222222223,1.695269492054816,4.117230507945184,-61.16647796041073
1589995786.094983,-1.3060693076224412,-3.83,8.699826730943897,0.4892678761343612,0.07538228649945271,-0.6043608374671045,1.6757580521204498,3.6506497589603857,-55.64594686648501
1589995786.104983,-1.1633218289518774,-3.4052555441327654,8.903936456650513,0.5044444444444445,0.11555555555555555,-0.5722222222222222,0.4288242889313165,4.291738569050766,-49.63566144074019
1589995786.114983,-1.1162813751032599,-3.2424693397725104,8.917501429751542,0.5044444444444445,0.11555555555555555,-0.5722222222222222,-0.003904016013217257,4.542578795196035,-48.050787951960345
1589995786.124983,-1.0540922666327763,-2.9492921141259454,8.206768761517443,0.5044444444444445,0.11555555555555555,-0.5722222222222222,-1.1144238101289954,4.209422856961301,-44.719228569613016
1589995786.134983,-1.045609711237815,-3.416829133713445,8.203739194408682,0.5044444444444445,0.11555555555555555,-0.5722222222222222,5.450719606400589,-1.1798843571822695,-38.691569339709396
1589995786.144983,-1.0938296923762818,-3.561489077128845,8.843829692376282,0.5035082974191312,0.12032139495715063,-0.5749455590231337,-2.3954859563085154,4.689104993312528,-34.15027307177887
1589995786.154983,-1.089240516416959,-3.649240516416959,8.56852327064074,0.4922222222222222,0.17777777777777778,-0.6077777777777778,1.4069971310168952,0.9629921102964616,-27.832279048453938
1589995786.164983,-1.05,-3.6255949666069394,8.242025166965304,0.4922222222222222,0.17777777777777778,-0.6077777777777778,0.6828041008307542,1.5625,-23.578160632839225
1589995786.174983,-1.0689343315596256,-3.7119504599265767,8.351769582972404,0.4922222222222222,0.17777777777777778,-0.6077777777777778,0.3095262034401683,1.3494887699542135,-20.14908556078043
1589995786.184983,-1.1218872117788685,-3.873774423557737,8.737548847115473,0.4922222222222222,0.17777777777777778,-0.6077777777777778,1.1705983578726424,0.7948073895731086,-16.34824597956601
1589995786.194983,-1.1557906765969184,-3.924744059581511,8.759510974504472,0.49736695082598853,0.2002275025942126,-0.5956175101688755,1.3289248138077787,0.3848834574614809,-12.704353351459984
1589995786.204983,-1.15,-3.875886519506802,8.645862908968258,0.5044444444444445,0.2311111111111111,-0.5788888888888889,1.319887662556684,0.04787224075253904,-9.250442697597721
1589995786.214983,-1.144923893999124,-3.854923893999124,8.623553985983355,0.5044444444444445,0.2311111111111111,-0.5788888888888889,1.2509513250109505,-0.37690265002190104,-5.912765549715287
1589995786.224983,-1.14,-3.845790835700824,8.567882478692582,0.5044444444444445,0.2311111111111111,-0.5788888888888889,1.1546563387809063,-0.6052291074793958,-2.8655997721583075
1589995786.234983,-1.1216371453138434,-3.7435950128976785,8.468506448839207,0.5044444444444445,0.2311111111111111,-0.5788888888888889,0.8227321582115219,-0.6065401977644024,0.6456739036973347
1589995786.244983,-1.1465423982691187,-3.77893567446118,8.671647665806773,0.5085815465128105,0.23576535093802298,-0.5825088531987093,0.6002330032454024,-0.6120339935091953,3.891949945909961
1589995786.254983,-1.1563153939534077,-3.849525406092838,8.773628533441238,0.5133333333333333,0.2411111111111111,-0.5866666666666667,0.3907884848835193,-0.8125,7.0914612116307305
1589995786.264983,-1.107987898075836,-3.7812405519147423,8.427866878834195,0.5133333333333333,0.2411111111111111,-0.5866666666666667,0.18343418270136722,-0.9622730889219238,9.89457271623291
1589995786.274983,-1.1226200748796575,-3.945080049919772,8.64048029951863,0.5133333333333333,0.2411111111111111,-0.5866666666666667,0.06149937600285256,-1.375,13.01774157603851
1589995786.284983,-1.1220641103364657,-3.9678241891482267,8.660320551682329,0.5133333333333333,0.2411111111111111,-0.5866666666666667,0.23029990148529858,-1.5326007881176114,16.606605221279175
1589995786.294983,-1.1665625947256744,-4.0441073052440135,8.882812973628372,0.5133333333333333,0.2411111111111111,-0.5866666666666667,0.19056911185207637,-1.850447105183389,18.71233707183995
1589995786.304983,-1.1039196250325494,-3.8492797500216995,8.469438937592223,0.5288888888888889,0.2488888888888889,-0.6311111111111111,-0.278999218817811,-1.9719957034979603,23.037480470445274
1589995786.314983,-1.1476064577727627,-3.8784043051818418,8.593218297022828,0.5288888888888889,0.2488888888888889,-0.6311111111111111,-0.3700134536932558,-2.472573995312907,25.312836342331394
1589995786.324983,-1.147726587525909,-3.9031797625777274,8.688632937629546,0.5288888888888889,0.2488888888888889,-0.6311111111111111,-0.37003162097230075,-2.5575316209723007,29.522056658658375
1589995786.3349829,-1.082393128146052,-3.766723598206907,8.597008589817435,0.5288888888888889,0.2488888888888889,-0.6311111111111111,-0.4020654378803436,-2.7854345621196566,31.830128847261527
1589995786.3449829,-1.0340959236366483,-3.712509193333855,8.697158673030279,0.5380442757913222,0.24636326491580385,-0.6311111111111111,-0.32956634848603394,-2.9644834128784914,33.83671563257961
1589995786.3549829,-1.1254816764665665,-3.8754816764665665,8.706445029399699,0.5611111111111111,0.24,-0.6311111111111111,-0.7902814337481198,-2.8978403186106934,35.10278143374812
1589995786.3649828,-1.1571554391811472,-3.8534896453225422,8.672668412282789,0.5611111111111111,0.24,-0.6311111111111111,-1.2723607474410854,-3.0223607474410854,35.67430373720543
1589995786.3749828,-1.2027244740892764,-3.779817342226783,8.538904053360698,0.5611111111111111,0.24,-0.6311111111111111,-1.2102360184710108,-3.082952796305798,35.81364161108261
1589995786.3849828,-1.2612799232711542,-3.8043600383644227,8.668720076728846,0.5611111111111111,0.24,-0.6311111111111111,-1.0817507193329288,-3.0432492806670712,35.578499040889426
1589995786.3949828,-1.25,-3.8353284460306742,8.730656892061349,0.6084846860944093,0.24281427178118603,-0.6278277940330607,-1.161116202051381,-2.9638837979486192,35.30558101025691
1589995786.4049828,-1.25,-3.8396646418628197,8.698882139542732,0.6733333333333333,0.2466666666666667,-0.6233333333333333,-0.9986026744284148,-2.905202005821311,34.840606017463934
1589995786.4149828,-1.2596081842494742,-3.81,8.590391815750525,0.6733333333333333,0.2466666666666667,-0.6233333333333333,-0.9650767273388207,-2.9626278788980343,34.32229539376314
1589995786.4249828,-1.2795804302719231,-3.81,8.541678278912308,0.6733333333333333,0.2466666666666667,-0.6233333333333333,-0.9726834662007208,-2.9753057770012012,33.88286693240144
1589995786.4349828,-1.3046518069751998,-3.8334428911603196,8.620144817196637,0.6733333333333333,0.2466666666666667,-0.6233333333333333,-1.0398328284709961,-2.8125,33.595926206405004
1589995786.4449828,-1.3386231027165374,-3.88779696434646,8.898709442275607,0.6733333333333333,0.2466666666666667,-0.6233333333333333,-1.4220099055610451,-2.8125,33.38360560802164
1589995786.4549828,-1.29,-3.86840084430596,8.683795356317217,1.1888888888888889,0.24444444444444444,-0.8033333333333333,-1.006263192280631,-2.625,33.917510553824506
1589995786.4649827,-1.2936965979462256,-3.9058761856235793,8.608910206161323,1.1888888888888889,0.24444444444444444,-0.8033333333333333,-1.25681121149173,-2.6481037371639102,34.47836726895038
1589995786.4749827,-1.3110019690576653,-3.9591683075480546,8.624839568682606,1.1888888888888889,0.24444444444444444,-0.8033333333333333,-1.4093811533052039,-2.664579231129864,35.35940576652602
1589995786.4849827,-1.358195218002813,-3.998496015002344,8.774284857008906,1.1888888888888889,0.24444444444444444,-0.8033333333333333,-1.5568600562587904,-2.5662599624941396,36.09680028129395
1589995786.4949827,-1.3878448700033457,-3.880171819953158,8.719396169969887,1.1884099711118548,0.13046201351029235,-0.8332656943979742,-1.2769391249581767,-2.6740304375209116,37.63092168710268
1589995786.5049827,-1.3755768740979708,-3.9829229985567536,8.77938449783513,1.1866666666666668,-0.28444444444444444,-0.9422222222222222,-1.3197109262246371,-2.6637023516427543,38.6233179811529
1589995786.5149827,-1.3266808282929836,-3.8734891112228187,8.653404141464918,1.1866666666666668,-0.28444444444444444,-0.9422222222222222,-0.7914896463377061,-3.124734469506559,39.04255176831147
1589995786.5249827,-1.3224285454875613,-3.8,8.621888868712547,1.1866666666666668,-0.28444444444444444,-0.9422222222222222,-0.8716270201561649,-3.2449405302342473,38.57609179226439
1589995786.5349827,-1.3870990231828746,-3.7627859126721708,8.715763598919265,1.1866666666666668,-0.28444444444444444,-0.9422222222222222,-0.821565552553517,-3.0625,36.18630141515673
1589995786.5449827,-1.3409728021667984,-3.6778377158334274,8.756486852499718,1.1042835646841966,-0.2318446626289985,-0.9032078145180503,-0.9510142760410789,-2.9939199864575103,34.23311420832863
1589995786.5549827,-1.39199680314767,-3.67198081888602,8.609992007869176,0.6611111111111111,0.05111111111111112,-0.6933333333333334,-0.7625299704905939,-2.549970029509406,30.924520472150498
1589995786.5649827,-1.4202115506663846,-3.640211550666385,8.603456737888724,0.6611111111111111,0.05111111111111112,-0.6933333333333334,-0.8331129680558493,-2.374669452083774,28.224428813200763
1589995786.5749826,-1.5060929962641907,-3.7108605056037143,8.671325486924667,0.6611111111111111,0.05111111111111112,-0.6933333333333334,-0.8261624533023829,-2.173837546697617,25.523550560371405
1589995786.5849826,-1.5131205809287216,-3.69,8.709189484316562,0.6611111111111111,0.05111111111111112,-0.6933333333333334,-0.9447189538915126,-1.9754306461740057,23.21023347710955
1589995786.5949826,-1.4360396628967071,-3.6983762022619757,8.64908894388922,0.6390848014592493,0.07903178531769654,-0.6911617253394878,-0.4724008427582318,-1.75,20.269929352423322
1589995786.6049826,-1.425106843745166,-3.6781552604247234,8.687232890637084,0.5822222222222222,0.1511111111111111,-0.6855555555555556,-0.24866445318542413,-1.4623174154199723,16.911769661679887
1589995786.6149826,-1.5156863942980783,-3.6279551991854397,8.679551991854398,0.5822222222222222,0.1511111111111111,-0.6855555555555556,-0.384279941453481,-1.2862399770904926,14.09436012472954
1589995786.6249826,-1.5789553647475887,-3.627373218848553,8.707403604889391,0.5822222222222222,0.1511111111111111,-0.6855555555555556,-0.6712725305586889,-1.3093304712138303,11.723884118689718
1589995786.6349826,-1.556580164641317,-3.639610740885927,8.701733045864367,0.5822222222222222,0.1511111111111111,-0.6855555555555556,-0.1217561740493924,-0.936689043512348,10.403672579380634
1589995786.6449826,-1.5967422902140356,-3.6197731293578936,8.84570506816526,0.5789537200849512,0.15616243259598447,-0.6932811060618325,-0.47457461754605057,-1.0290721372324556,8.786365646789468
1589995786.6549826,-1.67,-3.465865422629873,8.720546967660315,0.57,0.17,-0.7144444444444444,-0.2940581264331462,-0.886042638570412,7.275841108563296
1589995786.6649826,-1.6377713832109544,-3.5741000198452073,8.869428458027386,0.57,0.17,-0.7144444444444444,-0.33544602103591986,-0.7999106965667792,6.649732089700337
1589995786.6749825,-1.5267890454455249,-3.622654792617583,8.591972613613812,0.57,0.17,-0.7144444444444444,0.661660919825362,-0.7565582208771582,6.519674662631474
1589995786.6849825,-1.5385738153983641,-3.6587799428826764,8.772250694538885,0.57,0.17,-0.7144444444444444,-0.2946726924795524,-0.8877785440910768,5.480884395702601
1589995786.6949825,-1.4815340081207624,-3.552848872224273,8.63372544829328,0.57,0.17,-0.7144444444444444,0.4183248984904707,-0.3275661511860587,5.073457200862588
1589995786.7049825,-1.3787153999578394,-3.6998167636900225,8.752844054549287,0.5455555555555556,0.11555555555555555,-0.7233333333333334,0.04415204559827467,-0.40194931813390844,3.2700657948077643
1589995786.7149825,-1.3039009875302017,-3.795035106779743,8.759645364769982,0.5455555555555556,0.11555555555555555,-0.7233333333333334,0.29920117887431286,-0.316932940375229,2.122344695065592
1589995786.7249825,-1.27283791956456,-3.69717890081645,8.57429052010886,0.5455555555555556,0.11555555555555555,-0.7233333333333334,0.7501051273813124,0.2320527479588751,-3.8111333440429394
1589995786.7349825,-3.154588491549257,-4.219483029584493,6.8106757837271505,0.5455555555555556,0.11555555555555555,-0.7233333333333334,-0.19682959276517142,1.2412390746918858,-8.787294245774628
1589995786.7449825,-15.456496204748928,-7.527664947450369,-5.546112787076684,0.5344179533757191,0.12642797673111025,-0.6938982418580512,-26.097502676138575,36.295871448034255,-93.27636300603348
1589995786.7549825,-6.933487711661979,-2.5704421678433036,-1.1690944317638943,0.4988888888888889,0.16111111111111112,-0.6,-74.09900007962206,61.22945916715325,-408.2487641992675
1589995786.7649825,-0.41520135214579657,-2.8547986478542033,0.001145404663923183,0.4988888888888889,0.16111111111111112,-0.6,-32.76933605232216,-90.58537869880462,-577.095596340388
1589995786.7749825,-0.17443208008380864,-2.752176929344663,0.015349784658363397,0.4988888888888889,0.16111111111111112,-0.6,-45.50223780700733,-41.899767198230705,-563.52399604237
1589995786.7849824,-0.4182231852654388,-3.675869702978393,2.988221345489483,0.4988888888888889,0.16111111111111112,-0.6,-46.809118134058345,-21.400884625605592,-544.8515492446697
1589995786.7949824,-1.268709757569304,-5.239270933162958,7.172973769211657,0.48524560552459606,0.2125113879719353,-0.6047592848945208,-27.331292372129344,13.199244400667308,-514.8556907322613
1589995786.8049824,-0.6805625684358407,-2.2808406503729106,1.8851765386442987,0.4511111111111111,0.3411111111111111,-0.6166666666666667,42.203730915439124,113.98438629836994,-463.185213209925
1589995786.8149824,-0.046333884145781656,-2.021392178463233,9.708964472597081,0.4511111111111111,0.3411111111111111,-0.6166666666666667,88.41301323097403,167.42000596713487,-430.3700584664463
1589995786.8249824,1.161130518555751,-0.719412331406551,13.286405713328307,0.4511111111111111,0.3411111111111111,-0.6166666666666667,130.19940363994303,153.6528807489319,-396.84129439976545
1589995786.8349824,0.864481911365692,-0.017012059089538734,-3.421353783539343,0.4511111111111111,0.3411111111111111,-0.6166666666666667,147.13185578082604,47.69237074163401,-358.731496834489
1589995786.8449824,-0.06491528489599019,-0.6366101899306602,-1.1516014470907452,0.4511111111111111,0.3411111111111111,-0.6166666666666667,76.67627750979801,3.0402095266807336,-325.5387398251432
1589995786.8549824,0.7657407846774367,-0.383891680866208,5.519616073161788,0.2888888888888889,0.5066666666666667,-0.6088888888888889,-5.1166851799926665,14.335582792312836,-281.27134514591376
1589995786.8649824,-1.0164499708819537,-1.5237700321376961,21.586472833940853,0.2888888888888889,0.5066666666666667,-0.6088888888888889,-64.42880772383151,43.906831686905505,-253.96175964670104
1589995786.8749824,-0.4652789677768934,-2.324648559865892,8.95887075198537,0.2888888888888889,0.5066666666666667,-0.6088888888888889,-50.20723093790744,29.44778984709687,-207.4128130450243
1589995786.8849823,0.8344092994903229,-1.5434151751697514,8.873645291836699,0.2888888888888889,0.5066666666666667,-0.6088888888888889,20.236938466227542,12.535862598845181,-178.4272789423777
1589995786.8949823,0.9852232395836441,-1.3863449551134839,6.066176146022846,0.27033910942765965,0.5198833845327925,-0.6049470607533777,38.54388365295714,22.85525216976349,-150.11376905067254
1589995786.9049823,0.8456209180178123,-2.089182233386618,8.550030372231102,0.2,0.57,-0.59,-0.5112240237497137,-0.5906813770267183,-128.86403859328612
1589995786.9149823,1.3162494976478096,-2.8777709746814497,12.298090116072906,0.2,0.57,-0.59,-11.26354873407248,11.078501394766082,-109.15621232358573
1589995786.9249823,1.106173481085212,-2.539075277034773,9.479480320978219,0.2,0.57,-0.59,3.778897592663355,11.293150554069545,-94.57796618265189
1589995786.9349823,0.8188112740280671,-2.1088281772082236,7.8721380557411855,0.2,0.57,-0.59,6.993204331931286,-3.705528420928495,-83.3534509021581
1589995786.9449823,0.4783658064516129,-1.7055074193548387,6.440604838709677,0.18528383512544805,0.5737413978494623,-0.5962356630824373,-1.1823568548387098,10.913292338709677,-67.90569556451612
1589995786.9549823,0.68,-2.07,7.41,0.13444444444444445,0.5866666666666667,-0.6177777777777778,-6.5625,7.375,-57.0
1589995786.9649823,21.01681552076242,-20.317356024506466,3.0008863172226006,0.13444444444444445,0.5866666666666667,-0.6177777777777778,3.8958645336963933,3.5015316541865213,-45.600936010891765
1589995786.9749823,-1.3212361460679118,-0.5950366494458427,6.842898617918488,0.13444444444444445,0.5866666666666667,-0.6177777777777778,-19.674349803505983,-17.77328398904932,9.789109760674704
1589995786.9849823,-1.1867011448081946,-0.018743723639284997,10.530203856196023,0.13444444444444445,0.5866666666666667,-0.6177777777777778,-2.167183420365535,7.226118447479413,58.20845049206668
1589995786.9949822,-0.3894917743830787,-0.7705640423031728,2.7236486486486484,0.1254990860425643,0.5898472385428907,-0.6203619924272098,38.93316686251469,13.233769095182138,72.46103848413631
1589995787.0049822,0.2702408384887527,-2.1542370925326826,10.37031727112776,0.08444444444444445,0.6044444444444445,-0.6322222222222222,-1.8947395803772444,-8.16032408195698,76.2451957640426
1589995787.0149822,1.3379850853291266,-2.1724437114584827,12.07723504947655,0.08444444444444445,0.6044444444444445,-0.6322222222222222,-32.896538433959556,-21.142585687652375,79.32382045030833
1589995787.0249822,0.29577492014312545,-2.4886093250894534,7.615388865278368,0.08444444444444445,0.6044444444444445,-0.6322222222222222,-5.6147419903212095,-4.637282707045227,87.74055341156793
1589995787.0349822,0.6637817199731297,-2.7186135749832063,6.724122396940077,0.08444444444444445,0.6044444444444445,-0.6322222222222222,9.227719760635015,-4.673220871091126,91.37030798020372
1589995787.0449822,8.720989287964713,-12.136826296996428,9.502539382482672,0.08444444444444445,0.6044444444444445,-0.6322222222222222,-7.38459619827767,-10.439337849191347,100.05760344465449
1589995787.0549822,2.959872078364918,-6.152464403066812,9.933965157370476,0.12349877497411027,0.5955684602331568,-0.6437610016968962,-14.007128427948501,-10.388661420984107,114.3306187873277
1589995787.0649822,-0.5168868404682463,-2.4759152858677824,7.969152858677826,0.13333333333333333,0.5933333333333334,-0.6466666666666666,7.639634465305661,-5.570516173726178,134.72182322004184
1589995787.0749822,0.36245776440638744,-2.714859214687958,9.644934300187714,0.13333333333333333,0.5933333333333334,-0.6466666666666666,-4.900559926971638,-10.29420594512587,142.1694405873126
1589995787.0849822,0.6219200146762063,-3.482993212254632,9.26785947532563,0.13333333333333333,0.5933333333333334,-0.6466666666666666,-11.059761970280682,-13.75795725554944,147.4960488901119
1589995787.0949821,1.2442158458568346,-5.246262633909982,7.705183404625809,0.13361450749307055,0.593293165596228,-0.6466666666666666,-1.4804292690313057,-11.136749063103304,152.2887226975054
1589995787.1049821,0.45,-3.36,9.79,0.17222222222222222,0.5877777777777777,-0.6466666666666666,-7.375,-12.75,166.1875
1589995787.1149821,0.32952949198772585,-3.3118117967950904,9.356306171155813,0.17222222222222222,0.5877777777777777,-0.6466666666666666,-5.5512103648141835,-12.78346403000341,172.1775613706103
1589995787.124982,0.06952560436703926,-3.4517819079802443,8.277448661294516,0.17222222222222222,0.5877777777777777,-0.6466666666666666,-2.366478749675071,-13.388541395892904,189.55007960748634
1589995787.134982,0.30557984790874526,-4.386273764258555,8.699768694550063,0.17222222222222222,0.5877777777777777,-0.6466666666666666,-8.950570342205323,-15.341571609632446,194.4637397021546
1589995787.144982,0.11969988090512107,-3.749228265184597,8.849099642715363,0.1723818093599753,0.5877372855189449,-0.6466523752811962,-7.619238785232235,-15.56276796347757,203.71054485907106
1589995787.154982,0.003145295752282673,-3.449516474791584,8.499435887256848,0.23435924749680212,0.5720116668872127,-0.6411021569405849,-5.381807016673283,-15.666834557364034,212.66027193330686
1589995787.164982,0.014307001428863032,-3.8188375178607883,8.498614002857726,0.2466666666666667,0.5688888888888889,-0.64,-6.974478209838743,-16.169942207593387,218.99389862727088
1589995787.174982,-0.1803633835336097,-4.004493362019205,8.643575589022406,0.2466666666666667,0.5688888888888889,-0.64,-7.372131959385003,-16.607791756310018,224.75908458834024
1589995787.184982,-0.25846952282898744,-3.8783268547895697,8.70444876347362,0.2466666666666667,0.5688888888888889,-0.64,-6.487246023574896,-16.939796818859918,234.1570202025508
1589995787.194982,-0.3985720385506893,-3.9234045992436255,8.209752043430523,0.25675518143494236,0.5628128515852683,-0.6406878532796552,-8.138413825179944,-18.188506465780165,237.0341759942662
1589995787.204982,-1.2575619433722212,-1.6312949345524335,7.42231298384836,0.34444444444444444,0.51,-0.6466666666666666,-18.165550266318764,-19.80322062407004,157.1537883035387
1589995787.214982,-3.34219005163967,-1.6737445381118419,12.155702873284195,0.34444444444444444,0.51,-0.6466666666666666,-21.694945270777243,-7.847320916273116,-35.95982753674361
1589995787.224982,-4.022570244956772,-3.3723741766158915,10.376348806093043,0.34444444444444444,0.51,-0.6466666666666666,21.56190336815562,20.4524045389049,-91.99069350813092
1589995787.234982,-1.9574999471581664,-1.4653509754602525,4.979897909577054,0.34444444444444444,0.51,-0.6466666666666666,41.95988512185327,20.374816374627464,-44.97505337025216
1589995787.244982,-0.5503934636334509,-4.167061839154117,11.506262095482217,0.348191961265976,0.5063396347324576,-0.646143757342732,-2.6655759371996153,-3.7978252162768342,-4.40310397308555
1589995787.254982,-0.7751917594686065,-4.492323301829825,9.12819334634667,0.3922222222222223,0.4633333333333333,-0.64,-23.81176712213344,-8.574484966787907,14.748197208218063
1589995787.264982,-0.7280707494839135,-3.767837773315171,8.804236402701905,0.3922222222222223,0.4633333333333333,-0.64,-12.473274094566696,-5.629421842744597,27.66966166495808
1589995787.274982,-0.6719735294117647,-2.4822985294117648,7.605752205882353,0.3922222222222223,0.4633333333333333,-0.64,9.640491727941175,-0.8161856617647061,57.28278952205882
1589995787.284982,1.1425085198397675,-10.21407676824043,8.893198278095543,0.3922222222222223,0.4633333333333333,-0.64,-2.6874227733822256,-5.277644637981545,66.24947809753473
1589995787.294982,-1.9845090538914765,-1.5861643582071139,10.19847302341364,0.3922222222222223,0.4633333333333333,-0.64,-10.367962797297714,-5.002120800814387,16.891548030354443
1589995787.304982,-1.616080553386143,-2.7571942429989957,6.85342095280598,0.38599023144532457,0.468526658980748,-0.6524639815537953,13.053390326899475,5.574909349548143,-19.118821823050318
1589995787.314982,0.20395983283027627,-6.441225911307175,8.857693289993035,0.3855555555555555,0.4688888888888889,-0.6533333333333333,-0.9401700719758532,-1.6167503482702577,6.781583758996982
1589995787.324982,-0.23426514975621088,-4.4610982122126766,8.744079405618761,0.3855555555555555,0.4688888888888889,-0.6533333333333333,-9.866975272811702,-2.5297190619921057,7.8974344091014625
1589995787.334982,-0.18481745627440993,-4.332247693439746,8.246843267108167,0.3855555555555555,0.4688888888888889,-0.6533333333333333,3.7550553291447333,0.9639405388577574,-1.7720113771438275
1589995787.344982,0.005109526235354045,-4.720015282730515,8.8641059602649,0.3855555555555555,0.4688888888888889,-0.6533333333333333,0.8863665308201734,0.024197656647987786,-0.28820682628629646
1589995787.354982,-0.12089374813179739,-4.66585155549424,8.607318755604608,0.37777777777777777,0.4477777777777778,-0.6677777777777778,0.2240722218390012,-0.09095703708813317,0.048271481455933414
1589995787.364982,-0.0929106050838894,-4.568918933045281,8.669438646619161,0.37777777777777777,0.4477777777777778,-0.6677777777777778,-0.41813923201561054,-0.15111743645138248,-0.009095640887154382
1589995787.3749819,-0.10752565465093994,-4.663916755231109,8.515980626165131,0.37777777777777777,0.4477777777777778,-0.6677777777777778,-0.0070909629423140386,0.03157068313674932,-0.05476767078418733
1589995787.3849819,-0.1103623811905953,-4.581449524762381,8.697100950475237,0.37777777777777777,0.4477777777777778,-0.6677777777777778,0.015854177088544273,-0.006794647323661831,0.0625
1589995787.3949819,-0.11875517758879439,-4.615020710355178,8.629958579289644,0.37777777777777777,0.4477777777777778,-0.6677777777777778,0.3830390195097549,-0.16415957978989495,0.0625
1589995787.4049819,-0.11772611569945245,-4.556063691468126,8.760904462797809,0.3922222222222223,0.4622222222222222,-0.6677777777777778,-0.06723725895947406,-0.24052548208105187,0.0625
1589995787.4149818,-0.09468346548977237,-4.61751075869394,8.66873386195909,0.3922222222222223,0.4622222222222222,-0.6677777777777778,-0.11524278022964089,-0.14451443954071821,0.0625
1589995787.4249818,-0.10068436111563424,-4.631368722231269,8.593840749959291,0.3922222222222223,0.4622222222222222,-0.6677777777777778,-0.5736729163274326,-0.06677725697271394,-0.1164454860545721
1589995787.4349818,-0.10962013904193296,-4.647720834251598,8.516837497245206,0.3922222222222223,0.4622222222222222,-0.6677777777777778,0.12974826197583797,-0.12737413098791897,0.0
1589995787.4449818,-0.10121691743633923,-4.597301504618035,8.668095486145893,0.3922222222222223,0.4622222222222222,-0.6677777777777778,0.2347885320457596,-0.1798942660228798,0.0
1589995787.4549818,-0.10997025794974427,-4.59,8.699970257949744,0.3855753835890593,0.4544675771501988,-0.6677777777777778,0.06305766344229488,0.061756448743606834,-0.12462822437180342
1589995787.4649818,-0.09916657031195801,-4.5908334296880415,8.675831695303286,0.3855555555555555,0.4544444444444444,-0.6677777777777778,0.03124638669842518,0.05729106444973753,-0.11458212889947506
1589995787.4749818,-0.09055876218654509,-4.60223504874618,8.523911335305815,0.3855555555555555,0.4544444444444444,-0.6677777777777778,-0.28805415433865256,0.0034922636659067757,0.0
1589995787.4849818,-0.09944748037849337,-4.635579843027947,8.59497267659356,0.3855555555555555,0.4544444444444444,-0.6677777777777778,0.12154675236558352,0.04523376182791755,0.006906495268832979
1589995787.4949818,-0.09175603315484486,-4.574048265238758,8.664195701606396,0.3855555555555555,0.4544444444444444,-0.6677777777777778,0.07347520721778039,-0.1951239639110981,0.10304958556443923
1589995787.5049818,-0.10053422501966956,-4.61,8.748130212431157,0.37777777777777777,0.4544444444444444,-0.6466666666666666,-0.013355625491738788,-0.18416109362706531,0.1216610936270653
1589995787.5149817,-0.11703422501966955,-4.61,8.690380212431156,0.37777777777777777,0.4544444444444444,-0.6466666666666666,-0.4258556254917388,-0.0810360936270653,0.018536093627065306
1589995787.5249817,-0.09041858298888047,-4.591674331955522,8.598744251033358,0.37777777777777777,0.4544444444444444,-0.6466666666666666,-0.23691928159748502,0.057267712638994,-0.054651568958491006
1589995787.5349817,-0.09855795540548408,-4.624231821621936,8.574326133783549,0.37777777777777777,0.4544444444444444,-0.6466666666666666,0.01743610642137744,-0.04447444256855097,0.09796166385282645
1589995787.5449817,-0.09272052309639317,-4.600882092385572,8.650074245939676,0.37777777777777777,0.4544444444444444,-0.6466666666666666,0.4264738451803417,-0.0625,0.07950326935245729
1589995787.5549817,-0.11997729383837341,-4.599992431279458,8.68,0.3977626403366934,0.4544444444444444,-0.6611001785147723,0.3751419135101661,0.06240539099322255,4.730450338872455e-05
1589995787.5649817,-0.12,-4.614794776777837,8.672602611611081,0.3977777777777778,0.4544444444444444,-0.6611111111111111,0.09759793541556383,0.15496735486147872,0.0
1589995787.5749817,-0.1196462713302536,-4.6198231356651265,8.541238050344111,0.3977777777777778,0.4544444444444444,-0.6611111111111111,-0.43418379372112753,0.06028919581408504,0.0625
1589995787.5849817,-0.10382916941642312,-4.611914584708212,8.596597907042518,0.3977777777777778,0.4544444444444444,-0.6611111111111111,-0.28589846327896673,-0.03856769114735552,0.0625
1589995787.5949817,-0.10747870888815697,-4.632436126664471,8.602521291111843,0.3977777777777778,0.4544444444444444,-0.6611111111111111,0.07719351385686724,-0.015758069449018967,0.0625
1589995787.6049817,-0.09153127310365222,-4.584593819310957,8.720046724826261,0.37315280858264743,0.44828820214566184,-0.6672673534098937,0.24521477155108679,-0.2308590862043472,0.1202147715510868
1589995787.6149817,-0.1,-4.619900830009701,8.689776867521827,0.3711111111111111,0.4477777777777778,-0.6677777777777778,-0.12561981243936618,-0.18734504689015846,0.12453514067047537
1589995787.6249816,-0.1,-4.589759620566994,8.621959146275735,0.3711111111111111,0.4477777777777778,-0.6677777777777778,-0.31400237145628973,-0.14024940713592757,-0.016751778592217298
1589995787.6349816,-0.10945872936468234,-4.646211105552776,8.590541270635317,0.3711111111111111,0.4477777777777778,-0.6677777777777778,-0.25676588294147074,-0.3023511755877939,-0.003382941470735361
1589995787.6449816,-0.09440684520932031,-4.6110171130233,8.628982886976699,0.3711111111111111,0.4477777777777778,-0.6677777777777778,0.04237165232524415,-0.06885695639562989,0.09745721744174805
1589995787.6549816,-0.10816927377624458,-4.6,8.667253910664368,0.390289788986036,0.4427307572843765,-0.6677777777777778,0.5224528638553501,0.0,0.1817789805507643
1589995787.6649816,-0.11,-4.592244682124756,8.708776589376223,0.3922222222222223,0.44222222222222224,-0.6677777777777778,0.4170877898391667,-0.09694147344055552,0.09055852655944448
1589995787.6749816,-0.0925750780584729,-4.6161373829122905,8.606738007380073,0.3922222222222223,0.44222222222222224,-0.6677777777777778,-0.06062304853817768,-0.07054711893272779,0.0625
1589995787.6849816,-0.09,-4.62,8.604049841311573,0.3922222222222223,0.44222222222222224,-0.6677777777777778,-0.25671726229600556,-0.10640575409866852,-0.06921726229600556
1589995787.6949816,-0.09462816511809348,-4.615371834881906,8.61,0.3922222222222223,0.44222222222222224,-0.6677777777777778,-0.19679587204766297,-0.15392603198808427,-0.03822190403574721
1589995787.7049816,-0.10429831359090741,-4.61,8.627193254363629,0.3922222222222223,0.447475716611109,-0.6677777777777778,0.04495783977268533,-0.13377108011365735,0.008771080113657334
1589995787.7149816,-0.10445681285570807,-4.587827251422833,8.65,0.3922222222222223,0.4544444444444444,-0.6677777777777778,0.1528550803481754,-0.027855080348175423,0.006789839303649153
1589995787.7249815,-0.10756819181698196,-4.600272767267928,8.604590849098107,0.3922222222222223,0.4544444444444444,-0.6677777777777778,-0.01690359656841181,0.04730119885613726,0.0625
1589995787.7349815,-0.11,-4.598489935620569,8.578489935620569,0.3922222222222223,0.4544444444444444,-0.6677777777777778,-0.3142826583000571,0.026531048814277564,0.13443790237144487
1589995787.7449815,-0.11,-4.613164796736121,8.604747195104183,0.3922222222222223,0.4544444444444444,-0.6677777777777778,-0.28283003059886347,0.0,0.0065250254990529
1589995787.7549815,-0.10140679787354372,-4.604220393620631,8.647186404252913,0.39699622340358687,0.4487156430268069,-0.6677777777777778,0.19724507974211064,0.0,0.14353756645175886
1589995787.7649815,-0.09074156628014726,-4.6,8.705550602319118,0.3977777777777778,0.4477777777777778,-0.6677777777777778,0.36573042149815926,-0.17359563224723884,0.07176957850184076
1589995787.7749815,-0.10358044905851,-4.6,8.621727081119685,0.3977777777777778,0.4477777777777778,-0.6677777777777778,0.24768329007646886,-0.14506109669215628,0.020061096692156277
1589995787.7849815,-0.09387271542708225,-4.616127284572918,8.620318211432295,0.3977777777777778,0.4477777777777778,-0.6677777777777778,-0.06448882145183965,-0.125,-0.050397764290367936
1589995787.7949815,-0.08293026879626023,-4.62,8.65120919361122,0.3977777777777778,0.4477777777777778,-0.6677777777777778,-0.34592910011686795,-0.125,-0.01831417997662641
1589995787.8049815,-0.08904411270257548,-4.62,8.678088225405151,0.39275327072079147,0.45380718624616134,-0.6677777777777778,-0.04182006926232268,0.0445771131732903,-0.05652570439109676
1589995787.8149815,-0.09,-4.58257836053022,8.633222950662775,0.3922222222222223,0.4544444444444444,-0.6677777777777778,0.0,-0.0544426233430636,-0.0625
1589995787.8249815,-0.09934299792901521,-4.59868599585803,8.583285010354924,0.3922222222222223,0.4544444444444444,-0.6677777777777778,0.11678747411269015,0.11268121116903518,0.05428747411269015
1589995787.8349814,-0.11796437659033078,-4.608982188295165,8.588982188295166,0.3922222222222223,0.4544444444444444,-0.6677777777777778,-0.1556933842239186,-0.04341603053435114,-0.04977735368956744
1589995787.8449814,-0.10127596192251365,-4.603758653974171,8.63993076820663,0.3922222222222223,0.4544444444444444,-0.6677777777777778,-0.07047476201571029,-0.1405168253228598,0.05452523798428971
1589995787.8549814,-0.09,-4.62305553074289,8.675763882685722,0.38389661389840046,0.4544444444444444,-0.6639351893206292,0.07204853357153491,-0.07942719964269764,0.052951466428465085
1589995787.8649814,-0.09,-4.6351215390843645,8.675121539084364,0.37777777777777777,0.4544444444444444,-0.6611111111111111,0.18598076144544384,0.06098076144544383,0.030490380722721915
1589995787.8749814,-0.09468302285735117,-4.615950931427946,8.632535817141191,0.37777777777777777,0.4544444444444444,-0.6611111111111111,0.3378066785753345,0.06646221428311035,0.09176889285844483
1589995787.8849814,-0.1,-4.6,8.63930405791007,0.37777777777777777,0.4544444444444444,-0.6611111111111111,0.18070803171837924,-0.05135839365632415,0.125
1589995787.8949814,-0.10671866253685114,-4.6,8.656718662536852,0.37777777777777777,0.4544444444444444,-0.6611111111111111,-0.08495820427659811,-0.020508359144680376,0.08300835914468038
1589995787.9049814,-0.11727270012839269,-4.607272700128393,8.66,0.38828278907434505,0.46010098898874985,-0.6716161224076783,-0.1420456241975456,-0.04545437580245439,0.1534087516049088
1589995787.9149814,-0.10377719541139241,-4.626222804588608,8.676222804588607,0.3922222222222223,0.4622222222222222,-0.6755555555555556,-0.023607471321202528,-0.0625,-0.015285057357594944
1589995787.9249814,-0.1059975173523087,-4.618004965295383,8.620024826476913,0.3922222222222223,0.4622222222222222,-0.6755555555555556,0.0374844834519293,0.012468966903858597,0.04995345035578788
1589995787.9349813,-0.10273787740164685,-4.595475754803294,8.62357273559012,0.3922222222222223,0.4622222222222222,-0.6755555555555556,0.15327653247941447,0.01711173376029277,0.03422346752058554
1589995787.9449813,-0.09353042992741485,-4.596469570072585,8.65293914014517,0.3922222222222223,0.4622222222222222,-0.6755555555555556,0.06619556113902848,-0.04043481295365718,0.08086962590731436
1589995787.9549813,-0.09,-4.61539863936459,8.66,0.4076208615868122,0.45623386246932607,-0.6644343160144628,0.0,-0.014379251985656358,0.17312074801434363
1589995787.9649813,-0.11561871606982009,-4.62,8.66,0.4122222222222222,0.4544444444444444,-0.6611111111111111,0.053372325145458525,0.0,0.02738302456362443
1589995787.9749813,-0.09584841426267693,-4.611949471420893,8.579494714208924,0.4122222222222222,0.4544444444444444,-0.6611111111111111,0.3140790180971152,0.0,0.05031580361942304
1589995787.9849813,-0.09843415376807917,-4.5931316924638415,8.610604922608474,0.4122222222222222,0.4544444444444444,-0.6611111111111111,0.1641461557980208,0.0,-0.0429269221009896
1589995787.9949813,-0.09347678617017396,-4.609569641489478,8.665662496808782,0.4122222222222222,0.4544444444444444,-0.6611111111111111,0.04345982712717458,0.0,-0.10327008643641271
1589995788.0049813,-0.10497479871702559,-4.624991599572342,8.685008400427657,0.4050121339510617,0.45832679966737694,-0.6611111111111111,-0.09359249198140995,-0.12478998930854662,-0.03140750801859005
1589995788.0149813,-0.11350869996239701,-4.636491300037603,8.673508699962397,0.3977777777777778,0.4622222222222222,-0.6611111111111111,-0.1875,-0.20942937476498136,0.10307062523501863
1589995788.0249813,-0.11,-4.626960959848532,8.617843839394126,0.3977777777777778,0.4622222222222222,-0.6611111111111111,-0.10600599905332263,-0.14675299952666132,0.0027589985799839345
1589995788.0349813,-0.10227557475698196,-4.604551149513964,8.644070976701126,0.3977777777777778,0.4622222222222222,-0.6611111111111111,0.13061063107545132,0.01983297330658848,-0.0625
1589995788.0449812,-0.10656543786678822,-4.613130875733576,8.66,0.3977777777777778,0.4622222222222222,-0.6611111111111111,0.06439803999772092,0.021466013332573648,-0.10353398666742636
1589995788.0549812,-0.11,-4.607525575559002,8.668316282960665,0.40054987209799947,0.4562160178617419,-0.6638832054313328,0.0,0.07796515275623485,-0.04703484724376515
1589995788.0649812,-0.1006362558363596,-4.602484992218187,8.661272511672719,0.4044444444444445,0.4477777777777778,-0.6677777777777778,0.0,0.10946879863632995,0.12102340102275254
1589995788.0749812,-0.08882730499131616,-4.63,8.597931737521709,0.4044444444444445,0.4477777777777778,-0.6677777777777778,0.027585328097863022,-0.0625,0.1396586876085479
1589995788.0849812,-0.1,-4.616286824574389,8.601997409326426,0.4044444444444445,0.4477777777777778,-0.6677777777777778,0.09106911547002221,-0.0625,0.0
1589995788.0949812,-0.11299752192146398,-4.604332507307155,8.64,0.4044444444444445,0.4477777777777778,-0.6677777777777778,0.125,-0.0625,-0.02707817066971661
1589995788.1049812,-0.12233201419770716,-4.61,8.650223981069724,0.4044444444444445,0.4449377830361878,-0.6660737809328239,0.061100118314226265,-0.0625,-0.014575088735669699
1589995788.1149812,-0.09537195086225417,-4.614628049137746,8.670743901724508,0.4044444444444445,0.43666666666666665,-0.6611111111111111,-0.125,-0.03357469288908853,-0.019626535554557345
1589995788.1249812,-0.09,-4.62,8.582554675249648,0.4044444444444445,0.43666666666666665,-0.6611111111111111,-0.1994666584137988,-0.07446665841379879,-0.0758000123793018
1589995788.1349812,-0.09,-4.625630363961187,8.597564367534241,0.4044444444444445,0.43666666666666665,-0.6611111111111111,-0.10924090097032962,-0.1953795495148352,0.035189774757417594
1589995788.1449811,-0.09449853092988168,-4.612005876280473,8.658997061859763,0.4044444444444445,0.43666666666666665,-0.6611111111111111,0.08434745493528151,-0.1656525450647185,0.03438418168823949
1589995788.1549811,-0.1,-4.5945512034587335,8.679102406917467,0.3988818624393252,0.44172355939859326,-0.6611111111111111,0.10216493514873846,-0.09094502161708717,0.0
1589995788.1649811,-0.1,-4.6051219512195125,8.684878048780487,0.3922222222222223,0.4477777777777778,-0.6611111111111111,-0.06402439024390243,-0.02896341463414634,-0.03201219512195121
1589995788.174981,-0.09428693275013669,-4.61,8.600017058501914,0.3922222222222223,0.4477777777777778,-0.6611111111111111,-0.0892933296883543,-0.008913340623291424,0.008913340623291424
1589995788.184981,-0.09,-4.616330867975857,8.59697781178271,0.3922222222222223,0.4477777777777778,-0.6611111111111111,0.13533962424551557,0.016635849698206237,0.0625
1589995788.194981,-0.10110834418818482,-4.614445827905908,8.668879204658646,0.3922222222222223,0.4477777777777778,-0.6611111111111111,0.11114569764768983,-0.006927151176155083,0.09721357558807754
1589995788.204981,-0.10416822313535053,-4.598336446270701,8.69416822313535,0.39546209825813866,0.45166562902087737,-0.6695347888044937,-0.036448605404059274,-0.0625,0.08855139459594072
1589995788.214981,-0.10667126168224299,-4.616685046728972,8.663314953271028,0.3977777777777778,0.4544444444444444,-0.6755555555555556,-0.14589077102803738,-0.02080461448598131,0.02080461448598131
1589995788.224981,-0.09661468569771563,-4.6255382285659055,8.609844057093147,0.3977777777777778,0.4544444444444444,-0.6755555555555556,-0.21538607146309244,-0.11154428585236975,0.027886071463092438
1589995788.234981,-0.0864454289852603,-4.61677728550737,8.56322271449263,0.3977777777777778,0.4544444444444444,-0.6755555555555556,-0.2097160688421232,-0.1291482065263696,0.0625
1589995788.244981,-0.10403490282384303,-4.601930194352314,8.61034902823843,0.3977777777777778,0.4544444444444444,-0.6755555555555556,-0.07456371470196213,0.09978185735098107,0.037281857350981065
1589995788.254981,-0.10735563124258543,-4.591322184378707,8.671322184378708,0.3970432309007182,0.4528284413149133,-0.6745271899276721,0.008263652366920516,0.09555460946768207,0.016527304733841033
1589995788.264981,-0.09,-4.607790312146207,8.683895156073103,0.3922222222222223,0.44222222222222224,-0.6677777777777778,0.0625,0.2151210981724082,0.0763105490862041
1589995788.274981,-0.09,-4.607764583333333,8.641058333333334,0.3922222222222223,0.44222222222222224,-0.6677777777777778,-0.013971354166666672,0.03700954861111111,0.0
1589995788.284981,-0.09,-4.599007310364795,8.597021931094384,0.3922222222222223,0.44222222222222224,-0.6677777777777778,-0.04055646533005211,0.028147844889982628,0.0
1589995788.294981,-0.09,-4.606691075514874,8.643235697940504,0.3922222222222223,0.44222222222222224,-0.6677777777777778,0.0831807780320366,0.0831807780320366,0.0
1589995788.304981,-0.09,-4.596318661692332,8.67,0.39958489883755804,0.44426741017092664,-0.6653235522393325,0.125,0.10199163557707572,0.023008364422924275
1589995788.314981,-0.09727416741674168,-4.59363708370837,8.655451665166517,0.4122222222222222,0.4477777777777778,-0.6611111111111111,0.056804680468046806,0.017036453645364533,0.0625
1589995788.324981,-0.11,-4.619801333958839,8.595347665572032,0.4122222222222222,0.4477777777777778,-0.6611111111111111,-0.031560415689314045,0.030318752932057838,0.0006208313786280964
1589995788.334981,-0.09872531653873909,-4.623087974808109,8.571274683461262,0.4122222222222222,0.4477777777777778,-0.6611111111111111,-0.14093354326576135,0.125,-0.09773338581644034
1589995788.344981,-0.09,-4.621127384328504,8.602254768657007,0.4122222222222222,0.4477777777777778,-0.6611111111111111,-0.1456807719202828,0.055453847946855206,-0.0902269239734276
1589995788.354981,-0.09,-4.624188190198047,8.666494478415624,0.4038273858416233,0.4516523176457465,-0.6611111111111111,0.046471433786620414,-0.03632381126220681,0.08279524504882724
1589995788.364981,-0.10936450482234084,-4.61354516505922,8.687090330118439,0.3977777777777778,0.4544444444444444,-0.6611111111111111,0.125,0.018185436759753495,0.14715728162012326
1589995788.374981,-0.11518097735052071,-4.614819022649479,8.626990750855727,0.3977777777777778,0.4544444444444444,-0.6611111111111111,0.185237783118491,0.0625,0.0948811084407545
1589995788.384981,-0.10171407507525956,-4.61585703753763,8.603143699698961,0.3977777777777778,0.4544444444444444,-0.6611111111111111,0.12053242305093076,0.08839351538981385,0.03660648461018615
1589995788.394981,-0.093511712873415,-4.60297657425317,8.653511712873415,0.3977777777777778,0.4544444444444444,-0.6611111111111111,-0.018603589082312487,0.0811035890823125,0.04389641091768751
1589995788.404981,-0.09995041601424581,-4.590099167971508,8.659950416014246,0.3977777777777778,0.4544444444444444,-0.6611111111111111,0.061880200178072525,0.0006197998219274747,0.12438020017807253
1589995788.414981,-0.10500478163850813,-4.614995218361492,8.680009563277016,0.3922222222222223,0.4477777777777778,-0.6611111111111111,0.062380459037296776,-0.031279885240675806,0.031279885240675806
1589995788.4249809,-0.08798431652111924,-4.604496079130279,8.623952949563357,0.3922222222222223,0.4477777777777778,-0.6611111111111111,-0.0625,-0.0625,0.09689950543575121
1589995788.4349809,-0.09011554816047329,-4.608046219264189,8.594138657792568,0.3922222222222223,0.4477777777777778,-0.6611111111111111,-0.0876444352005916,0.03807774080236642,0.0998555647994084
1589995788.4449809,-0.11443054107287684,-4.62,8.632784729463562,0.3922222222222223,0.4477777777777778,-0.6611111111111111,-0.10759544085274012,0.10047720426370062,0.07990455914725988
1589995788.4549809,-0.09653645939241125,-4.62,8.657317703037943,0.3922222222222223,0.4477777777777778,-0.6684230301715762,-0.04085287120257025,-0.125,0.0817057424051405
1589995788.4649808,-0.09729207754995721,-4.62,8.675415844900085,0.3922222222222223,0.4477777777777778,-0.6822222222222222,0.0,-0.07942451531276747,0.0
1589995788.4749808,-0.10537975624256837,-4.615379756242569,8.613038049940547,0.3922222222222223,0.4477777777777778,-0.6822222222222222,-0.028876523483947678,0.028876523483947678,0.0
1589995788.4849808,-0.09173329089751751,-4.6141333545512415,8.586533418204965,0.3922222222222223,0.4477777777777778,-0.6822222222222222,-0.0366665340547422,0.0883334659452578,0.0
1589995788.4949808,-0.09404224819320287,-4.6153192506022656,8.633403746988671,0.3922222222222223,0.4477777777777778,-0.6822222222222222,-0.02925468373583929,0.09574531626416072,0.0
1589995788.5049808,-0.10554208754208755,-4.61,8.668915824915825,0.3922222222222223,0.4477777777777778,-0.6693438084549196,-0.034638047138047134,0.006776094276094276,-0.027861952861952862
