time,acc_x,acc_y,acc_z,mag_x,mag_y,mag_z,gyr_x,gyr_y,gyr_z
1589995793.7257829,-4.07,-0.87,8.97,0.29444444444444445,-0.3377777777777778,-0.5788888888888889,-0.25,-0.5,-1.75
1589995793.7357829,-4.011676734849933,-0.9054490537182183,8.951676734849933,0.31555555555555553,-0.31777777777777777,-0.5866666666666667,-0.29827829286943225,-0.7196855285796215,-0.6354795928120818
1589995793.7457829,-3.92785194931099,-0.9510740253445051,8.859259746554947,0.31555555555555553,-0.31777777777777777,-0.5866666666666667,-0.417362024790527,-0.7587987327747386,-0.10486202479052698
1589995793.7557828,-3.91,-0.9570357804390485,8.784821097804757,0.31555555555555553,-0.31777777777777777,-0.5866666666666667,-0.23147362774405342,-0.2569208832321602,0.0810263722559466
1589995793.7657828,-3.9116436280137776,-0.9483563719862227,8.828218140068886,0.31555555555555553,-0.31777777777777777,-0.5866666666666667,-0.2029090126291619,-0.11472732491389208,0.125
1589995793.7757828,-3.9287585251715527,-0.9304138249428158,8.92289677459971,0.31527967226034503,-0.31878934986021634,-0.5866666666666667,-0.38017281178519713,0.0,0.11724078232220426
1589995793.7857828,-3.9023532621241053,-0.9392155792919648,8.984509055043754,0.309411836027579,-0.3403047493803585,-0.5866666666666667,-0.49019474114956035,0.0,-0.04779211172434056
1589995793.7957828,-3.8727398838141025,-0.9313699419070514,8.942190755208333,0.3088888888888889,-0.3422222222222222,-0.5866666666666667,-0.39468931540464747,0.09931358924278846,-0.21062136919070512
1589995793.8057828,-3.90709083521674,-0.9437979633814977,8.843292871835242,0.3088888888888889,-0.3422222222222222,-0.5866666666666667,-0.10126272886563904,-0.08623727113436096,-0.8212118134030829
1589995793.8157828,-3.978104353078869,-0.96,8.907582587684525,0.3088888888888889,-0.3422222222222222,-0.5866666666666667,-0.011847793257069505,-0.2704345527994866,-1.0420654472005135
1589995793.8257828,-3.9701866953599882,-0.96,8.939253218560047,0.3088888888888889,-0.3422222222222222,-0.5866666666666667,-0.06133315400007551,-0.6168320780005285,-0.6956679219994715
1589995793.8357828,-3.958407992686431,-0.9405223978059292,8.927885594880502,0.3022222222222222,-0.3422222222222222,-0.5866666666666667,-0.2269900091419616,-1.1217350137129425,-0.1907649862870576
1589995793.8457828,-3.8943305465178537,-0.9243305465178535,8.862677813928586,0.3022222222222222,-0.3422222222222222,-0.5866666666666667,-0.29896704213170794,-1.1417363370536633,-0.10309887360487624
1589995793.8557827,-3.9112861481579295,-0.94,8.80257229631586,0.3022222222222222,-0.3422222222222222,-0.5866666666666667,-0.28215370394823713,-0.7017694440776443,-0.23392314802588143
1589995793.8657827,-3.92498652896273,-0.937506735518635,8.82498652896273,0.3022222222222222,-0.3422222222222222,-0.5866666666666667,-0.5934974180511899,-0.35941709699146834,-0.125
1589995793.8757827,-3.938439284110591,-0.9307803579447046,8.83843928411059,0.3022222222222222,-0.3422222222222222,-0.5866666666666667,-0.8457365770735775,-0.31737723715440375,-0.125
1589995793.8857827,-3.9259912453637185,-0.9720043773181408,8.974008754636282,0.3022222222222222,-0.3244444444444444,-0.6088888888888889,-1.10008207471514,-0.7125547164767602,-0.11247264176161995
1589995793.8957827,-3.9119761419454004,-0.9790119290272997,8.9880238580546,0.3022222222222222,-0.3244444444444444,-0.6088888888888889,-1.2314736692618706,-0.800149112841247,-0.0686754435793765
1589995793.9057827,-3.8968642934944056,-0.98,8.905423804337063,0.3022222222222222,-0.3244444444444444,-0.6088888888888889,-0.5015920511931875,-0.7070981656599663,-0.125
1589995793.9157827,-3.9119629057187018,-0.9759814528593508,8.904064914992272,0.3022222222222222,-0.3244444444444444,-0.6088888888888889,0.28825347758887176,-0.48715224111282845,-0.11244204018547141
1589995793.9257827,-3.8807210294035492,-0.9603605147017746,8.95873819854379,0.3022222222222222,-0.3244444444444444,-0.6088888888888889,0.9228540902404052,-0.1942596506582745,-0.06362660844304575
1589995793.9357827,-3.9199181665408314,-0.9400409167295842,8.96,0.3088752499790275,-0.32998863424178215,-0.5955828333752784,1.311732811320295,0.18673281132029518,-0.1248721352200492
1589995793.9457827,-3.888877275792313,-0.9430175320296695,8.905684423465948,0.3088888888888889,-0.33,-0.5955555555555555,1.1557021240728254,0.28771915037086987,-0.24407872555630478
1589995793.9557827,-3.8353750820533015,-0.95,8.78231245897335,0.3088888888888889,-0.33,-0.5955555555555555,0.8218770513325456,0.302735657082841,-0.4906229486674544
1589995793.9657826,-3.8267671784276707,-0.9477442738574431,8.801278630712783,0.3088888888888889,-0.33,-0.5955555555555555,0.3811068464360774,0.006106846436077368,-1.0441794606917678
1589995793.9757826,-3.849178213942222,-0.940273928685926,8.83863035657037,0.3088888888888889,-0.33,-0.5955555555555555,0.19434821714814945,-0.18065178285185055,-1.6044553485555517
1589995793.9857826,-3.937524911603986,-0.9471134683381549,8.907319189971071,0.3088888888888889,-0.33,-0.5866666666666667,0.09858164577306333,-0.24162246865959497,-2.0625
1589995793.9957826,-4.017527309968139,-0.94,8.93004369594902,0.3088888888888889,-0.33,-0.5866666666666667,0.21868172507965408,-0.4841360377787893,-1.9689548247610378
1589995794.0057826,-3.98,-0.9377990031183244,8.872200996881675,0.3088888888888889,-0.33,-0.5866666666666667,0.395037383062833,-0.8400124610209443,-1.5636939254057505
1589995794.0157826,-3.9633756713601396,-0.9281528523733489,8.889235738133257,0.3088888888888889,-0.33,-0.5866666666666667,0.7105893453331398,-0.9375,-0.9980086006677311
1589995794.0257826,-3.894881151110466,-0.9205423501233851,8.927288249383075,0.3088888888888889,-0.33,-0.5866666666666667,0.8057206234576861,-0.9375,-0.47478657098272603
1589995794.0357826,-3.9,-0.95,8.97,0.31555555555555553,-0.33,-0.5933333333333334,0.25,-0.517585394775849,-0.22314634869396224
1589995794.0457826,-3.9,-0.95,8.97,0.31555555555555553,-0.33,-0.5933333333333334,0.25,0.0005023222108765379,-0.09362441944728087
1589995794.0557826,-3.8934536798254316,-0.9473814719301725,8.847381471930172,0.31555555555555553,-0.33,-0.5933333333333334,0.021585498908946642,0.20386580043642136,-0.2202316008728427
1589995794.0657825,-3.8556338028169015,-0.9322535211267606,8.832253521126761,0.31555555555555553,-0.33,-0.5933333333333334,-0.2147887323943662,0.2984154929577465,-0.409330985915493
1589995794.0757825,-3.8674898329168506,-0.9212550835415748,8.821255083541574,0.31555555555555553,-0.33,-0.5933333333333334,-0.6872458229212602,0.4218114557303151,-0.7107786393257877
1589995794.0857825,-3.9162272441933457,-0.9384908976773383,8.903209039548022,0.31555555555555553,-0.3371909046522983,-0.5871697007742206,-1.0967043314500942,0.5530681104833647,-0.9811362209667295
1589995794.0957825,-3.911499723853994,-0.9434001104584023,8.924899834312397,0.31555555555555553,-0.3377777777777778,-0.5866666666666667,-1.2168718933574334,0.3537493096349852,-1.196873274087463
1589995794.1057825,-3.876401566500979,-0.9574393733996084,8.903840939900588,0.31555555555555553,-0.3377777777777778,-0.5866666666666667,-0.8220176231360145,0.2660039162524477,-0.9775097906311192
1589995794.1157825,-3.838538003063126,-0.97,8.941461996936873,0.31555555555555553,-0.3377777777777778,-0.5866666666666667,-0.042762672300850665,0.35818740427730517,-0.9206874042773052
1589995794.1257825,-3.8307984426032884,-0.97,8.94920155739671,0.31555555555555553,-0.3377777777777778,-0.5866666666666667,0.3925876035650361,0.6000486686472423,-1.1625486686472422
1589995794.1357825,-3.7878951869994557,-0.95,8.933685560998367,0.3088888888888889,-0.3377777777777778,-0.6,0.7236898374931965,0.875,-1.8322058937874193
1589995794.1457825,-3.7809703602593476,-0.9496765465802174,8.906442012382392,0.3088888888888889,-0.3377777777777778,-0.6,0.6128704967581534,0.8709568322527178,-2.3972374226100523
1589995794.1557825,-3.809391209983722,-0.9381736299511665,8.801826370048834,0.3088888888888889,-0.3377777777777778,-0.6,0.2081456863809007,0.7423901247965274,-3.0586950623982636
1589995794.1657825,-3.7990826227948262,-0.9090826227948265,8.834586886025868,0.3088888888888889,-0.3377777777777778,-0.6,-0.5005696828556762,0.6077991774029974,-2.977065569870663
1589995794.1757824,-3.793831148505678,-0.903831148505678,8.86084425747161,0.3088888888888889,-0.3377777777777778,-0.6,-0.8616085402346342,0.5093340344814634,-2.8457787126419514
1589995794.1857824,-3.802907532428127,-0.8913949783812486,8.892907532428127,0.3088888888888889,-0.3377777777777778,-0.5980877729736107,-1.2056720776757945,0.32993722976560724,-2.5079837669726164
1589995794.1957824,-3.842229929192213,-0.88,8.898885035403893,0.3088888888888889,-0.3377777777777778,-0.5955555555555555,-1.3819685287256662,0.013828678185834303,-1.3538776552920049
1589995794.2057824,-3.9223960282604544,-0.841002482337216,8.81980446820699,0.3088888888888889,-0.3377777777777778,-0.5955555555555555,-1.4862468970784801,-0.6124689707848004,0.43367863280504104
1589995794.2157824,-3.886892937105638,-0.821035687631454,8.976214125788724,0.3088888888888889,-0.3377777777777778,-0.5955555555555555,-1.5366078092136508,-1.1185269523034127,3.120975812470317
1589995794.2257824,-3.8655500712395683,-0.8281499762534771,9.018899857520863,0.3088888888888889,-0.3377777777777778,-0.5955555555555555,-1.3587505936630708,-1.0740626484157676,4.810619360200827
1589995794.2357824,-3.8322297780959196,-0.8091723335719399,8.98140211166786,0.3135172592062356,-0.33237801240754,-0.579356259444842,-0.6616354241231209,-0.7153722261989979,6.89885692555476
1589995794.2457824,-3.740312752961955,-0.9509382588858635,8.986246964456546,0.31555555555555553,-0.33,-0.5722222222222222,-0.43163588196335273,-0.6210905879755685,8.638682942085511
1589995794.2557824,-3.7480291044226948,-0.9740873132680845,8.893650746927662,0.31555555555555553,-0.33,-0.5722222222222222,-0.286954292074472,-0.5246361947163147,8.976273318492899
1589995794.2657824,-3.756101225176322,-0.969443032168046,8.910556967831955,0.31555555555555553,-0.33,-0.5722222222222222,-0.0799052447485617,-0.552056853150863,8.961708461553163
1589995794.2757823,-3.6999837535121083,-0.9614262505017297,8.91857374949827,0.31555555555555553,-0.33,-0.5722222222222222,-0.33042967182094457,-0.40174219690743324,8.410554721993922
1589995794.2857823,-3.6485578619239782,-0.9571157238479568,8.917020757315806,0.3022222222222222,-0.3422222222222222,-0.6,-0.08894654809946113,-0.4014465480994611,6.828152562646498
1589995794.2957823,-3.64859569425242,-0.9371347685825268,8.82280861149516,0.3022222222222222,-0.3422222222222222,-0.6,0.14290769635920733,-0.19645384817960365,5.142023010073079
1589995794.3057823,-3.7112221041445275,-0.9235069075451647,8.728416578108396,0.3022222222222222,-0.3422222222222222,-0.6,0.25,-0.2368490967056323,3.20403825717322
1589995794.3157823,-3.8674636895729457,-0.97,8.842714068935617,0.3022222222222222,-0.3422222222222222,-0.6,0.26272219813570347,-0.058259267288098854,0.7593892261001518
1589995794.3257823,-3.9583871667027966,-0.97,8.87577715152829,0.3022222222222222,-0.3422222222222222,-0.6,0.41770539778885757,-0.006598200737047477,-1.4103755690440063
1589995794.3357823,-4.020984849993032,-0.9845670999980092,8.930984849993031,0.2965572388896631,-0.3422222222222222,-0.6064742666657819,0.34645562501244254,-0.045522187493778746,-3.280776562282256
1589995794.3457823,-4.150212126105034,-0.9816124409639527,8.956775118072095,0.29444444444444445,-0.3422222222222222,-0.6088888888888889,0.11828149598353045,-0.09476673192588705,-5.88304429217293
1589995794.3557823,-4.31105598837444,-1.0070088402696484,8.905982319460703,0.29444444444444445,-0.3422222222222222,-0.6088888888888889,0.012463165543131635,0.38141575505590763,-6.994136761797118
1589995794.3657823,-4.319519183880469,-1.0609616322390623,8.960480816119532,0.29444444444444445,-0.3422222222222222,-0.6088888888888889,0.19050510074706928,0.4465153022412078,-7.032448992529307
1589995794.3757823,-4.311337897672967,-1.077324204654066,8.968662102327034,0.29444444444444445,-0.3422222222222222,-0.6088888888888889,0.24163813954395616,0.5999144186318685,-6.521118604560439
1589995794.3857822,-4.205689276117581,-1.0098705317156584,8.94771516977445,0.29444444444444445,-0.3377777777777778,-0.5955555555555555,0.8512946828434167,0.7626618353554271,-5.209586963602312
1589995794.3957822,-4.103014542532575,-0.9686902267248578,8.853451133624288,0.29444444444444445,-0.3377777777777778,-0.5955555555555555,1.2554573886464258,0.7933991397375096,-4.285213056767871
1589995794.4057822,-3.997279774378043,-0.948864957695883,8.754324788479416,0.29444444444444445,-0.3377777777777778,-0.5955555555555555,1.3380626762671541,0.5042806330649608,-3.8721866186642298
1589995794.4157822,-3.8842254370102474,-0.9235563592525619,8.734665461121157,0.29444444444444445,-0.3377777777777778,-0.5955555555555555,0.9125226039783002,0.11806811332127787,-3.533340867992767
1589995794.4257822,-3.940760917469868,-0.92,8.80368482572288,0.29444444444444445,-0.3377777777777778,-0.5955555555555555,0.37024426581332515,-0.07017672025600244,-3.6326767202560024
1589995794.4357822,-4.0007964501851685,-0.9507964501851685,8.913982250925843,0.3088888888888889,-0.3244444444444444,-0.6088888888888889,-0.2898225092584229,-0.7074112546292115,-3.3827440497696686
1589995794.4457822,-4.007037666100509,-0.9605924667798981,8.957630132880409,0.3088888888888889,-0.3244444444444444,-0.6088888888888889,-0.7425941652512739,-0.9300941652512739,-2.709267908882006
1589995794.4557822,-3.9093111511993053,-0.98,8.88413309280417,0.3088888888888889,-0.3244444444444444,-0.6088888888888889,-0.48277877998262847,-0.6659734749782855,-1.2931992049174852
1589995794.4657822,-3.9000252298721687,-0.98,8.940201838977348,0.3088888888888889,-0.3244444444444444,-0.6088888888888889,-0.24984231329894596,-0.3743692531957838,-0.18686925319578382
1589995794.4757822,-3.9078638708230544,-0.98,9.002910966584436,0.3088888888888889,-0.3244444444444444,-0.6088888888888889,-0.20085080735590938,-0.17840322942363757,0.009096770576362434
1589995794.4857821,-3.902735172972072,-0.972735172972072,9.02,0.3088888888888889,-0.3244444444444444,-0.5927448288268269,-0.005879324301802352,-0.0795948310754506,0.1533103378490988
1589995794.4957821,-3.880183770931146,-0.9699081145344268,8.948805488947547,0.3088888888888889,-0.3244444444444444,-0.5866666666666667,0.38016855743849115,0.19266855743849115,0.0005742841598323493
1589995794.5057821,-3.897087069538759,-0.9614564652306203,8.838934047998066,0.3088888888888889,-0.3244444444444444,-0.5866666666666667,0.8555738307776009,0.6680738307776009,0.05339709230862232
1589995794.515782,-3.898990213523132,-0.9530026690391459,8.790500444839857,0.3088888888888889,-0.3244444444444444,-0.5866666666666667,1.5,0.9781055382562278,0.20939446174377224
1589995794.525782,-3.741115521489187,-0.9960594032302217,8.797676567205038,0.3088888888888889,-0.3244444444444444,-0.5866666666666667,1.5,0.6641501847796332,0.5233498152203668
1589995794.535782,-3.6827741261591767,-1.01,8.850581116885763,0.3040716396616733,-0.32845881880045746,-0.5866666666666667,1.13870630795883,-0.11492567257719355,1.2572639610720473
1589995794.545782,-3.711016834908764,-0.9897457912728089,8.909618686909214,0.3022222222222222,-0.33,-0.5866666666666667,0.5609111954550561,-0.5609111954550561,2.1210279886376404
1589995794.555782,-3.764866716952063,-0.9762833207619842,8.889424981142977,0.3022222222222222,-0.33,-0.5866666666666667,0.4767707547624015,-0.4767707547624015,1.9106768869060038
1589995794.565782,-3.870025044722719,-0.8810832836414232,8.942241701451003,0.3022222222222222,-0.33,-0.5866666666666667,0.326354104551779,-1.0488024249652157,0.4231763068972372
1589995794.575782,-3.9105812427754696,-0.8455350057796245,8.95,0.3022222222222222,-0.33,-0.5866666666666667,0.2360468930613265,-1.277906213877347,-1.126155924896123
1589995794.585782,-3.9830082021724675,-0.845145200620705,8.965145200620706,0.30727062242912384,-0.33,-0.5933978669425355,-0.09647251163821768,-0.7597262247838616,-4.035136333407227
1589995794.595782,-4.0072159563101035,-0.8932957378606198,8.962784043689897,0.3088888888888889,-0.33,-0.5955555555555555,-0.5031980885670189,-0.24680191143298108,-6.356189896711386
1589995794.605782,-3.950047320308299,-0.969952679691701,8.820110414052698,0.3088888888888889,-0.33,-0.5955555555555555,-0.6874507080121885,-9.858397562285959e-05,-7.811859204158451
1589995794.615782,-3.972106734166535,-0.97,8.842106734166535,0.3088888888888889,-0.33,-0.5955555555555555,-0.5032772152788764,0.460556961802809,-7.351943038197191
1589995794.625782,-3.9933801245008804,-0.97,8.890140373502641,0.3088888888888889,-0.33,-0.5955555555555555,-0.061183998412737806,0.625,-6.476680885890727
1589995794.635782,-3.9867142093893007,-0.9567142093893005,8.91664289530535,0.3088888888888889,-0.3381190942620941,-0.5985079534690443,0.3741085739506144,0.3758914260493856,-5.419192373806593
1589995794.645782,-3.9368903873294654,-0.95,8.902756154931787,0.3088888888888889,-0.3422222222222222,-0.6,0.6077740316763368,-0.5583052375725263,-4.36196879410381
1589995794.655782,-3.891206705064959,-0.9693966474675207,8.870905028798719,0.3088888888888889,-0.3422222222222222,-0.6,0.5643854766639977,-1.1118016633520158,-3.765083813311982
1589995794.665782,-3.8709418088338396,-0.97,8.92717457349848,0.3088888888888889,-0.3422222222222222,-0.6,0.08604522084599209,-0.946329457817247,-3.273545220845992
1589995794.675782,-3.892970008437524,-0.9853133389583493,8.952970008437525,0.3088888888888889,-0.3422222222222222,-0.6,0.25391673697936645,-0.7939374472654752,-3.25
1589995794.685782,-3.8885262587470257,-0.989705251749405,8.96882100699762,0.2888888888888889,-0.3422222222222222,-0.5955555555555555,0.7573687062648728,-1.0588156468675636,-3.3088156468675636
1589995794.695782,-3.8383817096558706,-0.9798381709655871,8.927248906414981,0.2888888888888889,-0.3422222222222222,-0.5955555555555555,0.996965705604758,-0.9304199797444351,-3.1875
1589995794.705782,-3.748000948132825,-0.9708000948132824,8.773601611825802,0.2888888888888889,-0.3422222222222222,-0.5955555555555555,0.8275017777490465,-0.5350041480811084,-3.1875
1589995794.715782,-3.747593000854039,-0.9624069991459612,8.828337007686349,0.2888888888888889,-0.3422222222222222,-0.5955555555555555,0.5277624679735446,0.11693131939065315,-3.7569750640529107
1589995794.725782,-3.7974692812121984,-0.9694938562424397,8.873734640606099,0.2888888888888889,-0.3422222222222222,-0.5955555555555555,0.20015359393900808,0.6091830075762399,-4.53086601515248
1589995794.735782,-3.869208509419096,-0.98,8.906402836473033,0.29066745457584225,-0.3365308120239715,-0.5855955877086169,-0.08250886397822506,0.8974822720435499,-5.607686143542726
1589995794.745782,-3.9702796070623756,-0.9850233005885313,8.914976699411469,0.29444444444444445,-0.3244444444444444,-0.5644444444444444,-0.030813113965038177,0.7811043713216794,-6.688373772069924
1589995794.755782,-4.053535085209857,-0.9978450284032858,8.870774857983571,0.29444444444444445,-0.3244444444444444,-0.5644444444444444,0.11153142752053619,0.25968572479463814,-6.188560014712493
1589995794.7657819,-4.066251918027756,-1.0,8.89125959013878,0.29444444444444445,-0.3244444444444444,-0.5644444444444444,0.3203724383673748,-0.10944692604084974,-4.593318443754901
1589995794.7757819,-3.92911824496019,-0.9943647297984076,8.926905810604778,0.29444444444444445,-0.3244444444444444,-0.5644444444444444,0.5079408775199051,-0.6022043875995257,-2.3411824496018974
1589995794.7857819,-3.847021181079868,-0.99,8.956212708647922,0.31305903585502004,-0.3244444444444444,-0.5836595065456838,0.5962764763498347,-0.9763294290495041,-0.540693996653471
1589995794.7957819,-3.8768403071287687,-0.9763193857424627,8.963159692871232,0.3288888888888889,-0.3244444444444444,-0.6,0.6677519195548042,-0.7632365631163708,0.10525191955480417
1589995794.8057818,-3.8728701481241217,-0.9771298518758784,8.874441777489459,0.3288888888888889,-0.3244444444444444,-0.6,0.5538152773272786,-0.40219212887879774,-0.05324629689696184
1589995794.8157818,-3.887747926210227,-0.9888739631051133,8.875495852420453,0.3288888888888889,-0.3244444444444444,-0.6,0.3336131917791259,0.13119815525566425,0.041386808220874094
1589995794.8257818,-3.903899270655684,-0.9830503646721579,8.893899270655684,0.3288888888888889,-0.3244444444444444,-0.6,0.05188867520592183,0.23093522079901302,0.0625
1589995794.8357818,-3.876260530997214,-0.9884348672506965,8.916869734501393,0.2998354572476011,-0.3460002163073354,-0.5887535103324048,-0.22065376095055886,-0.013589601584264754,-0.09565376095055886
1589995794.8457818,-3.861417257574362,-0.9814172575743623,8.92,0.29444444444444445,-0.35,-0.5866666666666667,-0.3036421401602358,-0.22342642048070727,-0.125
1589995794.8557818,-3.8874721084953943,-0.98,8.837583674513818,0.29444444444444445,-0.35,-0.5866666666666667,-0.4269671187308086,0.15063491555783004,-0.125
1589995794.8657818,-3.88169567272571,-0.9716956727257101,8.89643461819432,0.29444444444444445,-0.35,-0.5866666666666667,-0.4375,0.44701022732155904,-0.0730979545356882
1589995794.8757818,-3.89884185480301,-0.9794209274015051,8.942973245905268,0.29444444444444445,-0.35,-0.5866666666666667,-0.5552615925188136,0.5883211943891102,0.08470199064851705
1589995794.8857818,-3.9229391704338172,-0.9929391704338171,8.98,0.2965671786466457,-0.34885698927573777,-0.587972964637252,-0.6048358315488936,0.6875,0.28673963042271394
1589995794.8957818,-3.932767275559332,-1.0244654488813367,8.943836377796659,0.3088888888888889,-0.3422222222222222,-0.5955555555555555,0.41745433305012747,0.5066818889832909,1.1328633885584822
1589995794.9057817,-3.871649283079704,-1.0049925498913017,8.821634382862308,0.3088888888888889,-0.3422222222222222,-0.5955555555555555,0.7291977087862429,-0.031389689538093235,2.9379656317936442
1589995794.9157817,-3.8484034528859326,-0.9826051793288989,8.823193094228134,0.3088888888888889,-0.3422222222222222,-0.5955555555555555,0.5325647416112367,-0.7048273557033687,4.2646978724808955
1589995794.9257817,-3.858902711689503,-0.9558229662328728,8.882531101301382,0.3088888888888889,-0.3422222222222222,-0.5955555555555555,0.2568580519406065,-1.2726774350742418,5.472567792237574
1589995794.9357817,-3.8706642081053215,-0.9446678959473391,8.944003687842018,0.3145940950467479,-0.3339237405380636,-0.5976301759765952,0.037476950987389956,-1.4375,5.64990780394956
1589995794.9457817,-3.840491282649556,-0.95,8.955122820662389,0.3211111111111111,-0.3244444444444444,-0.6,-0.0929823708600687,-1.3155705165597251,4.426975986778145
1589995794.9557817,-3.8250999102368963,-0.960199820473793,8.883701166920345,0.3211111111111111,-0.3244444444444444,-0.6,0.0024977559224134693,-0.9325044881551731,2.5106435136400886
1589995794.9657817,-3.853538789637451,-0.9758846974093627,8.867077579274902,0.3211111111111111,-0.3244444444444444,-0.6,-0.05889679404258294,-0.43004448834038383,0.5805160297870853
1589995794.9757817,-3.87,-0.9630220955096223,8.916977904490377,0.3211111111111111,-0.3244444444444444,-0.6,-0.32898253741981465,0.06833570919458304,-0.48694761225944405
1589995794.9857817,-3.910388829215897,-0.9634629430719656,8.95019441460795,0.31288375701157656,-0.31995679675378924,-0.5910247046186896,-0.3112849087003222,0.4387150912996778,-0.8125
1589995794.9957817,-3.9061937063571235,-0.9759515734107191,8.936193706357123,0.3088888888888889,-0.31777777777777777,-0.5866666666666667,-0.21280266618300536,0.46280266618300536,-0.5893159970980322
1589995795.0057817,-3.89,-0.973356806716999,8.880140840301994,0.3088888888888889,-0.31777777777777777,-0.5866666666666667,-0.22901995801875613,0.35446008396248774,-0.47901995801875613
1589995795.0157816,-3.8836052710392335,-0.9827894579215334,8.872789457921535,0.3088888888888889,-0.31777777777777777,-0.5866666666666667,-0.17006588799041628,-0.007236448038334842,-0.46003294399520817
1589995795.0257816,-3.8764474388720327,-0.9793423166160985,8.901315366767804,0.3088888888888889,-0.31777777777777777,-0.5866666666666667,-0.013982464751026241,-0.276314028199179,-0.5041105211493843
1589995795.0357816,-3.870209262894878,-0.9606277886846332,8.938744422630734,0.3088888888888889,-0.31777777777777777,-0.5866666666666667,0.1809605345350705,-0.4322684276280564,-0.6210763207210424
1589995795.0457816,-3.8759610394494377,-0.9621168816516866,8.945961039449438,0.31555555555555553,-0.33,-0.5811111111111111,-0.24878248279493062,-0.2632305103230416,-0.6754870068820278
1589995795.0557816,-3.8567402161759223,-0.965506522549385,8.856960864703689,0.31555555555555553,-0.33,-0.5811111111111111,-0.4234578829668282,0.24862094670145357,-0.7703736489004845
1589995795.0657816,-3.855081313997127,-0.9801626279942547,8.860487883982765,0.31555555555555553,-0.33,-0.5811111111111111,-0.5010164249640922,0.4385164249640921,-0.9077746374461382
1589995795.0757816,-3.856660933417127,-0.986660933417127,8.896678133165747,0.31555555555555553,-0.33,-0.5811111111111111,-0.6251074984288691,0.5417383322859127,-1.0208691661429563
1589995795.0857816,-3.841589037397057,-0.9842054813014716,8.926821925205886,0.3099482471535934,-0.3332709299011446,-0.5890547980138907,-0.7237157418658026,0.7301370325367895,-1.1939212906709868
1589995795.0957816,-3.83,-0.9860753982651143,8.961773805204658,0.3022222222222222,-0.3377777777777778,-0.6,-0.6629712391569643,0.875,-1.6202876084303572
1589995795.1057816,-3.83,-0.9891390496911302,8.93430475154435,0.3022222222222222,-0.3377777777777778,-0.6,-0.5678809394304363,0.8464404697152181,-2.2855953028478186
1589995795.1157815,-3.813815804697443,-1.0,8.896184195302558,0.3022222222222222,-0.3377777777777778,-0.6,-0.43256585290601257,0.8125,-2.8273024412819625
1589995795.1257815,-3.7521174639907433,-0.9820440489965288,8.886058731995371,0.3022222222222222,-0.3377777777777778,-0.6,-0.2253670749710729,0.7376835374855364,-3.0374082312572317
1589995795.1357815,-3.636716076086265,-0.97,8.890820980978434,0.31147599154597055,-0.3377777777777778,-0.5969154102254172,-1.0359179178064764,1.1646474807557732,-1.8045657325529614
1589995795.1457815,-3.594562094142189,-0.964562094142189,8.921751623431243,0.31555555555555553,-0.3377777777777778,-0.5955555555555555,-1.4375,1.375,-1.25
1589995795.1557815,-3.548402020272877,-0.9444007576023289,8.919201010136439,0.31555555555555553,-0.3377777777777778,-0.5955555555555555,-1.8924779032654064,1.5374921083090736,-0.4700378801164463
1589995795.1657815,-3.2977895527369823,-0.8180000417222965,8.852842122830442,0.31555555555555553,-0.3377777777777778,-0.5955555555555555,-2.3493420915387184,1.5032895423064085,1.907894119242323
1589995795.1757815,-2.939855886550946,-0.8117565265435793,8.922509323633685,0.31555555555555553,-0.3377777777777778,-0.5955555555555555,-1.7663508909249965,2.3360249090657947,2.485885054560523
1589995795.1857815,-2.669036258391285,-0.8048619206495959,8.92816456968284,0.3178746320787162,-0.3345310706453529,-0.597410816774084,-0.5613493387466335,1.997698677493267,0.8417363428066085
1589995795.1957815,-2.4068331169086687,-0.7254948254830205,8.840791720772833,0.3211111111111111,-0.33,-0.6,-0.2611335733679613,1.1423188919057177,-2.5996119112265372
1589995795.2057815,-2.0827437731196055,-1.106328483353884,8.930904069050555,0.3211111111111111,-0.33,-0.6,1.323652897657213,2.4545006165228114,-8.346205302096177
1589995795.2157815,-2.0646870704001157,-1.1208344789330247,8.629742662132504,0.3211111111111111,-0.33,-0.6,3.568019981670405,2.625,-12.791638026674384
1589995795.2257814,-2.1690883266034944,-1.048182740498752,8.640905586104742,0.3211111111111111,-0.33,-0.6,2.1136928555485666,2.74431472312968,-16.238566036970152
1589995795.2357814,-2.2655244954041502,-1.0527622477020753,8.907272813417986,0.3067793255209156,-0.33,-0.6,0.2886797593101488,0.9156460248270635,-20.280595565242113
1589995795.2457814,-2.362709153741059,-1.0668924294784217,8.990677288435265,0.3022222222222222,-0.33,-0.6,0.5794322108816202,1.4755974744836455,-23.235806527766616
1589995795.2557814,-2.4063432281559214,-1.0573135436881573,8.892165121349338,0.3022222222222222,-0.33,-0.6,1.3278872876686072,2.277516231821558,-26.01117809482738
1589995795.2657814,-2.453137617221786,-1.0561625167459694,8.873137617221786,0.3022222222222222,-0.33,-0.6,1.1628112440522935,2.4760157296623087,-29.257896590751606
1589995795.2757814,-2.489767845435965,-1.0697678454359647,8.924419613589912,0.3022222222222222,-0.33,-0.6,0.9055245169873896,2.4084264490378313,-32.0901768153947
1589995795.2857814,-2.505192573373319,-1.0851925733733194,8.924037133133403,0.31203041637182555,-0.33,-0.6,1.034860750749739,2.637035835832463,-35.24767917916231
1589995795.2957814,-2.5290892004207404,-1.0756830996844446,8.885683099684444,0.3211111111111111,-0.33,-0.6,1.2443075026296277,2.9375,-38.33082440984257
1589995795.3057814,-2.558855206032447,-1.0909932211135653,8.821296366821539,0.3211111111111111,-0.33,-0.6,1.3196549622972047,3.0481900754055906,-41.36310838601569
1589995795.3157814,-2.5749234735267077,-1.1250765264732923,8.774770420580122,0.3211111111111111,-0.33,-0.6,1.3730868381676913,3.1567282904580773,-44.477042058012294
1589995795.3257813,-2.5899578556979095,-1.126638570465273,8.816554281861091,0.3211111111111111,-0.33,-0.6,1.4792544672960215,3.2079821308159135,-46.912803438975054
1589995795.3357813,-2.6130634167385676,-1.152253666954271,8.885317083692838,0.33098212060205157,-0.3242135461604832,-0.5959154443485764,1.4566463546160484,3.413292709232097,-49.53500053925798
1589995795.3457813,-2.597984520541781,-1.1844030958916438,8.946418575349863,0.3533333333333333,-0.3111111111111111,-0.5866666666666667,1.582558047968321,3.665116095936642,-52.44079332223372
1589995795.3557813,-2.5142647552682393,-1.220964024850978,8.905686340357652,0.3533333333333333,-0.3111111111111111,-0.5866666666666667,1.6875,3.7975899378725546,-55.384496211485185
1589995795.3657813,-2.4675342358147208,-1.2649315283705584,8.916095938833756,0.3533333333333333,-0.3111111111111111,-0.5866666666666667,1.6485444869210024,3.7889555130789976,-57.71489847084391
1589995795.3757813,-2.4845216865111146,-1.2849043373022229,8.96961734920889,0.3533333333333333,-0.3111111111111111,-0.5866666666666667,1.80891264883336,3.9964126488333602,-59.604671676722376
1589995795.3857813,-2.5464441315655675,-1.3212378270562009,8.948349563925065,0.35044094193924064,-0.3082187197170185,-0.5912944928972149,1.934921193632915,4.44781522546834,-61.79383970824045
1589995795.3957813,-2.608139722261719,-1.35,8.881860277738282,0.3477777777777778,-0.3055555555555556,-0.5955555555555555,1.699126735864259,4.7314683160339355,-64.21948611308594
1589995795.4057813,-2.6525881388962707,-1.3825881388962706,8.785270838869696,0.3477777777777778,-0.3055555555555556,-0.5955555555555555,1.747205520861015,4.831470347240677,-65.99382003498981
1589995795.4157813,-2.6908054596674997,-1.4156040947506248,8.74,0.3477777777777778,-0.3055555555555556,-0.5955555555555555,1.9100255921914058,4.907508530730468,-67.60025592191406
1589995795.4257812,-2.7066256152954367,-1.4434975388182527,8.777118231750196,0.3477777777777778,-0.3055555555555556,-0.5955555555555555,2.02108990440352,4.874230286789441,-69.09051732329856
1589995795.4357812,-2.708269941994005,-1.47551329466267,8.86653988398801,0.35666030806763477,-0.3034114965200728,-0.5949429672597033,2.0625,4.818916183283373,-70.73241328298361
1589995795.4457812,-2.749296026194374,-1.49,8.91,0.38,-0.2977777777777777,-0.5933333333333334,2.134860098228903,5.024120032742967,-72.50652068760232
1589995795.4557812,-2.7780608870967742,-1.5055129032258066,8.898365322580645,0.38,-0.2977777777777777,-0.5933333333333334,2.2621194556451614,5.098858366935484,-73.56700856854839
1589995795.4657812,-2.7738531884643063,-1.5815595653929193,8.86155956539292,0.38,-0.2977777777777777,-0.5933333333333334,2.26433514419617,5.29816485580383,-75.08256613013639
1589995795.4757812,-2.7781510854762477,-1.605546743571257,8.881848914523752,0.38,-0.2977777777777777,-0.5933333333333334,2.2337228630938077,5.340332852679644,-76.04361431546904
1589995795.4857812,-2.7726316032082603,-1.645789619249562,8.895263206416521,0.38555560677299405,-0.28900576708357656,-0.5971345379674872,2.421052479948373,5.220395040103254,-77.39145040103254
1589995795.4957812,-2.742272708166954,-1.7067676852591316,8.872272708166953,0.4011111111111111,-0.2644444444444444,-0.6077777777777778,2.375,5.364899016434786,-78.75789163969569
1589995795.5057812,-2.69,-1.7359499883644671,8.772400093084263,0.4011111111111111,-0.2644444444444444,-0.6077777777777778,2.30062514544416,5.54906228183376,-80.00718626372463
1589995795.5157812,-2.684340854369896,-1.779614019410728,8.762636582520416,0.4011111111111111,-0.2644444444444444,-0.6077777777777778,2.28536966018815,5.66036966018815,-81.144893203763
1589995795.5257812,-2.6671199087078654,-1.8271734550561798,8.792880091292135,0.4011111111111111,-0.2644444444444444,-0.6077777777777778,2.4466676176264044,5.6875,-81.9558352352528
1589995795.5357811,-2.6424046354418156,-1.8613930468372768,8.82898841139546,0.40575272278555713,-0.25178550351413703,-0.611153495359193,2.696206542732979,5.734971028488653,-82.73973925639787
1589995795.5457811,-2.6492676608725123,-1.912112768120854,8.879267660872513,0.4133333333333333,-0.2311111111111111,-0.6166666666666667,2.7723590398489324,5.8125,-84.03961440226601
1589995795.5557811,-2.6375464407480114,-1.93,8.800185762992045,0.4133333333333333,-0.2311111111111111,-0.6166666666666667,2.8903347453249304,5.67216525467507,-84.93633898129973
1589995795.565781,-2.6157648742588426,-1.9596458801881005,8.814702514823145,0.4133333333333333,-0.2311111111111111,-0.6166666666666667,2.7088351052954405,5.800725822940094,-85.82498210999796
1589995795.575781,-2.6078494438621465,-2.0086022245514132,8.91709666317288,0.4133333333333333,-0.2311111111111111,-0.6166666666666667,2.446909758615835,6.125,-86.57190975861583
1589995795.585781,-2.601287955821848,-2.0348481767126074,8.877727734931089,0.4133333333333333,-0.2311111111111111,-0.6166666666666667,2.85700276113449,6.125,-86.9820027611345
1589995795.595781,-2.6065099614795177,-2.093490038520482,8.855235057780723,0.4666666666666667,-0.1988888888888889,-0.6166666666666667,3.02684266661144,6.43456177774096,-87.9870019260241
1589995795.605781,-2.5860143125023916,-2.1131885499980863,8.868042937507177,0.4666666666666667,-0.1988888888888889,-0.6166666666666667,2.5625,6.12998210937201,-88.90217796869618
1589995795.615781,-2.536819119058623,-2.162723523765509,8.742723523765509,0.4666666666666667,-0.1988888888888889,-0.6166666666666667,2.6420220235344307,6.286902529418039,-90.15618556471968
1589995795.625781,-2.528992514211741,-2.1940299431530366,8.767985028423482,0.4666666666666667,-0.1988888888888889,-0.6166666666666667,2.8125,6.481109641470141,-90.7194517926493
1589995795.635781,-2.5286385747951483,-2.2559157243854453,8.77159643698787,0.47242571653009896,-0.19336979943643295,-0.6243453998179097,2.8125,6.379988865587097,-91.7649665967613
1589995795.645781,-2.5623380954341473,-2.3616904771707357,8.845323809131706,0.4933333333333334,-0.17333333333333334,-0.6522222222222223,2.8855654823170984,6.654226192926839,-92.73380954341471
1589995795.655781,-2.57,-2.415339809016649,8.791650477458377,0.4933333333333334,-0.17333333333333334,-0.6522222222222223,3.1489684515885146,6.773968451588515,-93.90746367700476
1589995795.665781,-2.562662114628595,-2.4436689426857026,8.737337885371405,0.4933333333333334,-0.17333333333333334,-0.6522222222222223,3.1760345541071797,6.789569108214359,-94.71155079660666
1589995795.675781,-2.5055819578157146,-2.4913946256655097,8.78744145870306,0.4933333333333334,-0.17333333333333334,-0.6522222222222223,3.1468018233788264,6.665698176621174,-95.76743282081887
1589995795.685781,-2.46,-2.550778506109897,8.820389253054948,0.49385233740659823,-0.1722953251868037,-0.652503349428574,3.1862835842032857,6.6274328315934286,-96.52311190013758
1589995795.695781,-2.444569810498802,-2.605430189501198,8.836142452624701,0.52,-0.12,-0.6666666666666666,3.0526709867131343,6.8705483554781095,-98.21791276410369
1589995795.705781,-2.3980720136155727,-2.6482733219870225,8.793453356025955,0.52,-0.12,-0.6666666666666666,2.9603416524837782,7.1081833049675565,-99.54217470215934
1589995795.715781,-2.342772074411071,-2.697227925588929,8.738613962794465,0.52,-0.12,-0.6666666666666666,2.973081366267299,7.241337267465402,-101.04796584331753
1589995795.725781,-2.323672372733009,-2.7420342363980543,8.75,0.52,-0.12,-0.6666666666666666,3.0522616479065316,7.3125,-102.41949892120743
1589995795.735781,-2.315190305124824,-2.7824682824791958,8.754936564958392,0.5249365649583921,-0.11094963090961453,-0.6718774852338583,3.2191464690100497,7.34335353098995,-103.63566913737438
1589995795.745781,-2.2572368012904027,-2.8027631987095973,8.77364662820274,0.54,-0.08333333333333333,-0.6877777777777778,3.1705828525342765,7.471687139400707,-105.07460140207209
1589995795.755781,-2.197420843619191,-2.861719437587206,8.781402812063968,0.54,-0.08333333333333333,-0.6877777777777778,3.4018662123000967,7.646492969840077,-106.37358457658044
1589995795.765781,-2.1646909102684497,-2.88530908973155,8.70592726919465,0.54,-0.08333333333333333,-0.6877777777777778,3.6377272837667176,7.924772716233282,-108.03590901363297
1589995795.775781,-2.151108772384314,-2.8988912276156857,8.746673682847058,0.54,-0.08333333333333333,-0.6877777777777778,3.5103947411029437,8.052105258897056,-108.92723681227939
1589995795.785781,-2.111897702991453,-2.986379540598291,8.81362045940171,0.5327590811965812,-0.06201285018993352,-0.6930073302469136,3.2672442574786325,8.028011485042734,-110.3340344551282
1589995795.795781,-2.0749961652240603,-3.0000153391037583,8.789976991344362,0.52,-0.024444444444444446,-0.7022222222222222,3.156226032650378,8.218773967349621,-111.21906157554508
1589995795.805781,-2.0548949559110725,-3.046433827155623,8.744894955911073,0.52,-0.024444444444444446,-0.7022222222222222,2.983390211666305,8.391609788333694,-111.8610163138895
1589995795.8157809,-2.0268105935064136,-3.0995682194807586,8.70405296753207,0.52,-0.024444444444444446,-0.7022222222222222,2.8696027435094824,8.525331047075431,-112.34966895292457
1589995795.8257809,-1.9911146456059525,-3.1055573228029765,8.684442677197024,0.52,-0.024444444444444446,-0.7022222222222222,3.0347332675186016,8.447900098722098,-112.6527667324814
1589995795.8357809,-1.9209083154195243,-3.084772921145119,8.719545842290238,0.5268942194318385,-0.01357279072500692,-0.707525467939021,2.800423107107517,8.55326159279353,-112.8274153785785
1589995795.8457808,-1.8463260366055414,-3.113673963394459,8.773929435940303,0.5488888888888889,0.021111111111111112,-0.7244444444444444,2.5838655678038416,8.231827839019209,-112.74680659317696
1589995795.8557808,-1.8169714661023135,-3.1521141355907467,8.794257461869664,0.5488888888888889,0.021111111111111112,-0.7244444444444444,2.6817850105816246,8.465892505290812,-112.42428665255784
1589995795.8657808,-1.7864942542581128,-3.215498084752704,8.686015321978367,0.5488888888888889,0.021111111111111112,-0.7244444444444444,2.690493326748416,8.681273940591197,-111.71863029704402
1589995795.8757808,-1.7624561576549032,-3.217543842345097,8.737543842345097,0.5488888888888889,0.021111111111111112,-0.7244444444444444,2.43037253664214,8.679276478014716,-110.99780788274515
1589995795.8857808,-1.7288106696935301,-3.2323543700340522,8.747645629965948,0.5546440156387943,0.023988674486063816,-0.734646714592004,2.6102851872871735,8.665503688989784,-110.00712968217934
1589995795.8957808,-1.6627680455535085,-3.2593763188745606,8.737231954446491,0.5733333333333334,0.03333333333333333,-0.7677777777777778,2.441398007033998,8.930798861162284,-108.46649430581142
1589995795.9057808,-1.6610286306230853,-3.323457054065372,8.67617178373851,0.5733333333333334,0.03333333333333333,-0.7677777777777778,1.872680236274272,8.75,-106.77750517951996
1589995795.9157808,-1.6172459841300562,-3.3108853192267165,8.61727867019332,0.5733333333333334,0.03333333333333333,-0.7677777777777778,1.4715166225834893,8.45430402339634,-105.19836220243855
1589995795.9257808,-1.5626490122980674,-3.283841110682607,8.659139135278743,0.5733333333333334,0.03333333333333333,-0.7677777777777778,1.1800493850966276,8.053394288040451,-103.54552855979775
1589995795.9357808,-1.5654618151550284,-3.3590763696899435,8.726385445465086,0.5745939402347143,0.030055755389742724,-0.76298747155253,0.8975909658432177,8.389181827640536,-101.37022689437855
1589995795.9457808,-1.5226602907749711,-3.39,8.68,0.5788888888888889,0.01888888888888889,-0.7466666666666667,1.1447817043358923,8.4375,-98.54041579105373
1589995795.9557807,-1.4622796780338785,-3.3861398390169395,8.652978873118574,0.5788888888888889,0.01888888888888889,-0.7466666666666667,1.0504369969279352,8.41337399385587,-96.32997987711741
1589995795.9657807,-1.433486021247018,-3.371743010623509,8.552201074364563,0.5788888888888889,0.01888888888888889,-0.7466666666666667,1.0054469081984656,8.323393816396932,-94.53037632793863
1589995795.9757807,-1.3763736897382566,-3.4177289482897093,8.672710517102907,0.5788888888888889,0.01888888888888889,-0.7466666666666667,0.16208890216025867,8.028618536213678,-91.21062521880599
1589995795.9857807,-1.328869210856806,-3.41,8.756784734859163,0.5801453212702156,0.021150467175276876,-0.750687250286912,-0.4564885178255632,6.97769081426045,-89.04989812133172
1589995795.9957807,-1.32,-3.4204123084407687,8.786200437849672,0.59,0.03888888888888889,-0.7822222222222223,0.44937363171977623,6.35898351982486,-86.03516480175139
1589995796.0057807,-1.32,-3.4799276331792752,8.650165409875942,0.59,0.03888888888888889,-0.7822222222222223,0.8744830941376794,6.624676933836049,-83.3782306616395
1589995796.0157807,-1.2253953593661573,-3.396186078098472,8.649348953027731,0.59,0.03888888888888889,-0.7822222222222223,0.8531975099037917,5.302616015846067,-79.68575410299944
1589995796.0257807,-1.2378825972890248,-3.4611740271097506,8.763417140358548,0.59,0.03888888888888889,-0.7822222222222223,0.9558441735898557,5.069837669435942,-76.46553891560997
1589995796.0357807,-1.2274730156005236,-3.538736507800262,8.60389841419712,0.5787689582245493,0.033413756023356674,-0.7676218679141363,2.0611507800261797,5.538809521254909,-72.87027773009163
1589995796.0457807,-1.2095917825495337,-3.531632869801865,8.703673957054196,0.5011111111111111,-0.004444444444444445,-0.6666666666666666,1.144126895887956,5.311216023364641,-69.67727796953304
1589995796.0557806,-1.2058910946992796,-3.5994554734963975,8.78705445265036,0.5011111111111111,-0.004444444444444445,-0.6666666666666666,0.4195547349639768,3.978187038417237,-65.2113230345326
1589995796.0657806,-1.2172796788862636,-3.67,8.744635825521428,0.5011111111111111,-0.004444444444444445,-0.6666666666666666,1.431036125295328,4.392002006960851,-60.96886352666209
1589995796.0757806,-1.2047872820351881,-3.6752127179648117,8.673457230841654,0.5011111111111111,-0.004444444444444445,-0.6666666666666666,1.9404948708392995,4.242023076319557,-56.89761538159779
1589995796.0857806,-1.1873728315656018,-3.686059247348403,8.74,0.49804608127097993,0.010296889548567088,-0.6608285145902264,1.1035495067874703,3.6464504932125297,-53.59135641176289
1589995796.0957806,-1.1628242851222543,-3.6564121425611273,8.743587857438873,0.4777777777777778,0.10777777777777778,-0.6222222222222222,1.3077276730211356,3.3077276730211356,-48.58250880646498
1589995796.1057806,-1.104764356565939,-3.6075915842805677,8.973350989455676,0.4777777777777778,0.10777777777777778,-0.6222222222222222,1.3111912125150105,2.922447401753549,-44.735928221282755
1589995796.1157806,-0.9943716997581878,-3.504098468523301,9.518414732443947,0.4777777777777778,0.10777777777777778,-0.6222222222222222,1.613046133473705,2.275615428270632,-41.80362327482687
1589995796.1257806,-0.8911030791383648,-3.2522061582767297,7.164963856122642,0.4777777777777778,0.10777777777777778,-0.6222222222222222,10.449795827091181,0.004792518144662861,-36.43165661862028
1589995796.1357806,-0.9521084170872544,-3.3742168341745087,7.4394878768926445,0.4777777777777778,0.10777777777777778,-0.6222222222222222,1.4515084796299806,5.800299623289166,-33.34326138495775
1589995796.1457806,-1.0709921872488184,-3.5489904510818895,9.125927080988973,0.4777777777777778,0.17555555555555555,-0.5844444444444444,-12.123535109153458,1.1062879786515771,-30.43701170305115
1589995796.1557806,-0.9868238829072864,-3.45,8.252483667569598,0.4777777777777778,0.17555555555555555,-0.5844444444444444,3.8565292731783933,1.8374624411008171,-23.925896576449432
1589995796.1657805,-0.9883726951471257,-3.4667453902942515,8.152801686435044,0.4777777777777778,0.17555555555555555,-0.5844444444444444,3.6917259280640984,1.869136183128652,-20.31537122563941
1589995796.1757805,-1.0177229628074596,-3.525445925614919,8.688444071236136,0.4777777777777778,0.17555555555555555,-0.5844444444444444,-2.8662245022917325,-0.5614328574927399,-18.572699083307093
1589995796.1857805,-1.0728213055035936,-3.701410652751797,8.606676971546717,0.4815395184492359,0.18276555850918358,-0.5860118363908853,0.4455326375898395,0.12421605789110957,-13.480605739883824
1589995796.1957805,-1.0893391749532344,-3.709669587476617,8.821409274392044,0.5035633443820902,0.2249778915471541,-0.5951884305295745,0.8584793738308556,0.4855444521019986,-10.073795165895442
1589995796.2057805,-1.0679690767029824,-3.6704708191188877,8.701250871207952,0.5044444444444445,0.22666666666666666,-0.5955555555555555,0.6035224313121309,-0.04980672939363927,-5.487263168996002
1589995796.2157805,-1.0906970273832186,-3.8072118904671255,8.755817835700688,0.5044444444444445,0.22666666666666666,-0.5955555555555555,1.0537871577097673,-0.22670779030604774,-2.4304711524381313
1589995796.2257805,-1.0942232628029285,-3.7613348942043925,8.717330211591214,0.5044444444444445,0.22666666666666666,-0.5955555555555555,0.9916569112225464,-0.840261518704244,2.0109290094875334
1589995796.2357805,-1.0804382681169657,-3.7395617318830343,8.752987710128549,0.5056131594230197,0.22729972061339485,-0.5938998760025741,1.1222608242689645,-1.0707175271931064,4.675307246786269
1589995796.2457805,-1.0957605579232856,-3.741521115846571,8.602880278961642,0.5311111111111111,0.2411111111111111,-0.5577777777777778,0.9184860519178613,-1.25,9.616108097636575
1589995796.2557805,-1.11391714458195,-3.77,8.6126114297213,0.5311111111111111,0.2411111111111111,-0.5577777777777778,0.5461785642418754,-1.2826428715162492,12.929928815776234
1589995796.2657804,-1.14187031028189,-3.77,8.64496248225512,0.5311111111111111,0.2411111111111111,-0.5577777777777778,0.32060560738186983,-1.5467577570472522,17.454950187588725
1589995796.2757804,-1.1592217593543928,-3.7755330556126356,8.7358209261923,0.5311111111111111,0.2411111111111111,-0.5577777777777778,-0.17597280080700903,-1.8422175935439278,21.903985541088343
1589995796.2857804,-1.1983981244512525,-3.7990388746707513,8.845514748463506,0.5311111111111111,0.2411111111111111,-0.5577777777777778,-0.12700234443593433,-2.2339812445125253,25.478828856176793
1589995796.2957804,-1.1946411509082566,-3.7127846905449537,8.70742584145321,0.5255555555555556,0.26666666666666666,-0.6,-0.6758971227293584,-2.800897122729358,30.964115090825665
1589995796.3057804,-1.2416829243663536,-3.7433658487327075,8.76148783197011,0.5255555555555556,0.26666666666666666,-0.6,-0.5940548318691306,-2.7716462183176813,36.341462183176816
1589995796.3157804,-1.2495730475763016,-3.758719142728905,8.670213476211849,0.5255555555555556,0.26666666666666666,-0.6,-0.7513342263240574,-3.2008422632405744,40.612075011220824
1589995796.3257804,-1.2328913292902803,-3.718793640386822,8.69590231109654,0.5255555555555556,0.26666666666666666,-0.6,-0.8576770201606294,-3.8576770201606294,46.39151368628094
1589995796.3357804,-1.2497794499720944,-3.829448624930236,8.789963241662015,0.5256290722315241,0.2666135712895783,-0.6000285898184322,-1.1252297396124016,-4.125918958449606,50.206338648216935
1589995796.3457804,-1.2013473566713495,-3.7083683916783743,8.781891226111892,0.5417731033317723,0.2549539932727323,-0.6063068241351954,-1.1756798368006773,-4.327719347202709,54.34324661765555
1589995796.3557804,-1.2175880817746847,-3.66,8.568220421922575,0.5455555555555556,0.25222222222222224,-0.6077777777777778,-0.8060637777294476,-4.797425511091779,60.15881905176163
1589995796.3657804,-1.3088081774684646,-3.66,8.667042192257503,0.5455555555555556,0.25222222222222224,-0.6077777777777778,-2.231377772944759,-5.367551109177904,62.81940517616355
1589995796.3757803,-1.3064706119568505,-3.6255080149208587,8.649465268676279,0.5455555555555556,0.25222222222222224,-0.6077777777777778,-1.5778745337231577,-5.012366417985684,67.85862360116947
1589995796.3857803,-1.3994987397923178,-3.600136707329368,8.75940760157274,0.5455555555555556,0.25222222222222224,-0.6077777777777778,-2.3707278959572538,-5.435221544510536,70.23718368787176
1589995796.3957803,-1.4834018434987253,-3.585102765248088,8.690411060992352,0.6111111111111112,0.2255555555555556,-0.6088888888888889,-2.4162384781329673,-5.781892282800549,73.38399195920769
1589995796.4057803,-1.4998533045695235,-3.609779956854285,8.78911982741714,0.6111111111111112,0.2255555555555556,-0.6088888888888889,-2.3134168464404787,-5.936124730339282,75.54324622474995
1589995796.4157803,-1.4913979999548523,-3.6158060001354433,8.608602000045147,0.6111111111111112,0.2255555555555556,-0.6088888888888889,-2.5537625002821733,-5.95363749746044,78.86429998419828
1589995796.4257803,-1.5074055163701443,-3.5893267712390777,8.61548426150121,0.6111111111111112,0.2255555555555556,-0.6088888888888889,-2.5210383987788187,-6.454330719023055,82.12325310559007
1589995796.4357803,-1.5883566691230657,-3.5819675755342666,8.784745762711864,0.6111111111111112,0.2255555555555556,-0.6088888888888889,-2.751013264554164,-6.638310611643331,84.83695652173913
1589995796.4457803,-1.600627973648896,-3.4862797364889593,8.717535683786751,0.8527011237173492,0.16203404362029467,-0.6557490206444092,-2.9882254940832014,-7.038950988166403,88.95985955227522
1589995796.4557803,-1.6016630495442428,-3.4688913003038384,8.716673900911516,0.8688888888888889,0.15777777777777774,-0.6588888888888889,-2.8871264029267687,-6.885394059651516,92.83661716376264
1589995796.4657803,-1.6536789235443665,-3.4342140509704224,8.612642152911267,0.8688888888888889,0.15777777777777774,-0.6588888888888889,-3.266408817511006,-7.210493272152291,95.54577726793576
1589995796.4757802,-1.7512845207704804,-3.4351380830819216,8.710276166163842,0.8688888888888889,0.15777777777777774,-0.6588888888888889,-3.3142260385240196,-7.5625,99.61929972151312
1589995796.4857802,-1.7593960315618473,-3.4675841262473894,8.775168252494778,0.8688888888888889,0.15777777777777774,-0.6588888888888889,-3.719801578092365,-7.5625,101.9513590740311
1589995796.4957802,-1.7677255268761567,-3.439097892495373,8.741372365619217,1.3993750677183183,-0.10145656851103724,-0.9103977083015472,-3.5568618280960815,-7.659069085951959,104.10466626201516
1589995796.5057802,-1.8387283289461742,-3.3605086684215304,8.764913315784696,1.5555555555555556,-0.17777777777777778,-0.9844444444444445,-3.682731233548153,-7.9375,106.46929177634564
1589995796.5157802,-1.8006571661976944,-3.3757371335209223,8.612628664790778,1.5555555555555556,-0.17777777777777778,-0.9844444444444445,-3.539964373241354,-7.9375,107.42107084505764
1589995796.5257802,-1.8396240107347264,-3.3386466577210614,8.669248021469452,1.5555555555555556,-0.17777777777777778,-0.9844444444444445,-3.034774899361941,-8.195958389243366,108.82471691267081
1589995796.5357802,-1.8365211387496454,-3.3367394306251774,8.703478861250355,1.5555555555555556,-0.17777777777777778,-0.9844444444444445,-3.527200179703017,-8.25,109.44159297266623
1589995796.5457802,-1.8483954432076246,-3.3216045567923755,8.74679088641525,0.86879234247091,-0.12156947908781422,-0.7248643014035219,-2.720270559547299,-8.192514239976173,110.31482912028592
1589995796.5557802,-1.8586797556719024,-3.354719022687609,8.82811780104712,0.8088888888888889,-0.11666666666666667,-0.7022222222222222,-3.3302301483420593,-8.567239310645725,109.99526068935428
1589995796.5657802,-1.7922046642471392,-3.3892651119176205,8.634776772535469,0.8088888888888889,-0.11666666666666667,-0.7022222222222222,-2.9375,-8.182906949485126,109.09793551495997
1589995796.5757802,-1.8359051522044907,-3.3746982825985032,8.729461163109729,0.8088888888888889,-0.11666666666666667,-0.7022222222222222,-2.9375,-8.091864266240645,107.32260319169256
1589995796.5857801,-1.85,-3.3269482742947183,8.751389654858944,0.8088888888888889,-0.11666666666666667,-0.7022222222222222,-3.4218319141844185,-8.0625,103.52112057210388
1589995796.5957801,-1.8244788041574216,-3.212985869438281,8.747915216629686,0.6111111111111112,0.01888888888888889,-0.6733333333333333,-2.856338316010744,-7.222007474016116,96.87008495854256
1589995796.6057801,-1.8415639327559858,-3.23,8.829378502292409,0.6111111111111112,0.01888888888888889,-0.6733333333333333,-2.7148497198166073,-6.962907539480387,90.76184411614875
1589995796.61578,-1.7774635761589404,-3.23,8.672688741721855,0.6111111111111112,0.01888888888888889,-0.6733333333333333,-2.4477649006622517,-6.2061672185430465,85.15306291390729
1589995796.62578,-1.7897418467099317,-3.218451080259591,8.701548919740409,0.6111111111111112,0.01888888888888889,-0.6733333333333333,-2.4822519613078122,-5.120159625811222,73.5043295099811
1589995796.63578,-1.781127906021523,-3.1667674361291382,8.753232563870862,0.6111111111111112,0.01888888888888889,-0.6733333333333333,-1.8900435389797092,-4.9586482379035575,63.221437813193134
1589995796.64578,-1.78,-3.046431331006979,8.767571244599534,0.6111111111111112,0.025618884088475312,-0.700253314131679,-1.7178594425058158,-4.085734982552343,52.45826452932868
1589995796.65578,-1.8707630091010796,-3.052289027303238,8.73,0.6111111111111112,0.027777777777777776,-0.7088888888888889,-1.1202311931182536,-2.9284678967738036,35.60873862365071
1589995796.66578,-1.8771039821002025,-3.0713119463006078,8.73,0.6111111111111112,0.027777777777777776,-0.7088888888888889,-1.0806001118737338,-2.334001678106008,27.682522374746775
1589995796.67578,-1.9055937850992137,-3.0458749532010483,8.678812429801573,0.6111111111111112,0.027777777777777776,-0.7088888888888889,-0.3693349868962935,-1.5292961437663797,13.665024803444403
1589995796.68578,-1.9163304417322966,-3.0020173496062204,8.783947951181338,0.6111111111111112,0.027777777777777776,-0.7088888888888889,0.10608734744168236,-0.8835863484240497,4.594992007858939
1589995796.69578,-1.898777367074211,-2.923406312197896,8.786332101222632,0.5773121031181879,0.0010529807601175195,-0.7340416390231573,0.2682861814046062,0.27756255331248225,-7.097135342621552
1589995796.70578,-1.9388169022242816,-2.890236619555144,8.808816902224283,0.5633333333333334,-0.01,-0.7444444444444445,0.9822535333642262,0.8080633833410565,-19.46271142261353
1589995796.71578,-2.0165958451369215,-2.9556232294617564,8.698267233238903,0.5633333333333334,-0.01,-0.7444444444444445,1.0746576959395657,1.786473087818697,-28.8890462700661
1589995796.72578,-1.965254432903158,-2.8896128423040603,8.82295352009233,0.5633333333333334,-0.01,-0.7444444444444445,1.258019882488721,2.336559647466163,-34.75663623963907
1589995796.73578,-4.01495505786863,-4.6424936119044045,6.830494814369457,0.5633333333333334,-0.01,-0.7444444444444445,1.8664042537201264,2.776952126860063,-43.202241470013526
1589995796.74578,-12.592696709585123,-10.22155698617072,-4.7782784930853595,0.5091101043819213,-0.005404811105812537,-0.6387550998781328,-39.47089592274678,152.31697067238912,-38.94460836909871
1589995796.75578,-3.2000772953839487,0.2511767680416095,-0.6304861662934335,0.4977777777777778,-0.004444444444444445,-0.6166666666666667,11.559167991042404,-85.80871649931373,0.7370512172217005
1589995796.76578,-0.6793056551405111,-0.9678855094252342,0.33858771828379786,0.4977777777777778,-0.004444444444444445,-0.6166666666666667,19.866001214293973,26.768267896380248,6.736317508962646
1589995796.77578,-0.0058901162550163404,-0.03259918911091804,-0.1847761780646229,0.4977777777777778,-0.004444444444444445,-0.6166666666666667,22.433494683711885,13.40564622895205,16.653643570807994
1589995796.78578,0.3238095238095238,-0.09333333333333334,0.17095238095238097,0.4977777777777778,-0.004444444444444445,-0.6166666666666667,28.18154761904762,18.50297619047619,24.625
1589995796.79578,-0.11860752359930493,-0.15215188089982623,0.05430376179965247,0.5555555555555556,0.08444444444444445,-0.6444444444444445,30.569224627811955,28.700550063401117,35.90386805522942
1589995796.80578,-0.45115579418733565,0.2384305371388822,-0.2987368215116405,0.5555555555555556,0.08444444444444445,-0.6444444444444445,30.336016129382866,32.480312425276615,45.22952986761733
1589995796.81578,-3.2319776971067107,4.587453644327543,-4.4380586048735955,0.5555555555555556,0.08444444444444445,-0.6444444444444445,27.25887713844749,32.93618486837815,53.66317006499576
1589995796.82578,6.57935571237841,3.4513507533854666,8.751489605187867,0.5555555555555556,0.08444444444444445,-0.6444444444444445,-73.45622735075338,-104.8605259393477,73.77889090215525
1589995796.83578,3.189740166005052,1.7408219054492962,3.7262838325514256,0.5555555555555556,0.08444444444444445,-0.6444444444444445,-38.3598204619271,-151.26204438830746,81.2426526975821
1589995796.84578,-0.47619219998633977,0.7414794071443208,-1.4963731985520115,0.558943681746086,0.042431679681867514,-0.6308919396823228,70.79904463492932,-48.95313673929377,78.86969383921863
1589995796.85578,0.5785228692826794,0.850852286928268,-0.5801562109472631,0.5611111111111111,0.015555555555555557,-0.6222222222222222,63.45630779805049,-0.8379858160459897,84.01398478505374
1589995796.8657799,0.6042081764180611,1.6014349497224054,13.710369996505804,0.5611111111111111,0.015555555555555557,-0.6222222222222222,-43.662361202779834,0.06086209574096202,87.9067146795046
1589995796.8757799,0.7932347170392029,-1.3381702766129344,17.30746931866272,0.5611111111111111,0.015555555555555557,-0.6222222222222222,-104.90184617012272,1.0079179971530796,84.45518504982111
1589995796.8857799,1.1603732379325074,-0.6589723942759504,5.7504122170012835,0.5611111111111111,0.015555555555555557,-0.6222222222222222,-101.4652208591414,-7.411506167236224,75.33228321230243
1589995796.8957798,-1.861263428926574,-3.668219834857498,16.045843913699724,0.5100658991585033,-0.034624483313109786,-0.6386605108171298,-32.49657062949481,-8.193182322649383,65.90810618840452
1589995796.9057798,-0.5903519546989002,-0.29389937928781446,-0.8990038113906131,0.4955555555555556,-0.048888888888888885,-0.6433333333333333,53.20651475552652,6.856370467167593,72.40089976042688
1589995796.9157798,-1.4216299684199063,-1.1982567788304475,6.125752150713274,0.4955555555555556,-0.048888888888888885,-0.6433333333333333,44.58543095938147,24.498190950669716,76.79708156375912
1589995796.9257798,-2.1765755392963153,-2.627798007297752,11.586598226608437,0.4955555555555556,-0.048888888888888885,-0.6433333333333333,-26.693289991114135,-19.907602376495944,61.68954067646002
1589995796.9357798,-1.9704011873026677,-2.286817348231335,9.691380144820677,0.4955555555555556,-0.048888888888888885,-0.6433333333333333,-32.541504783241635,-17.528667545800012,62.68076352258333
1589995796.9457798,-1.6316390772444807,-1.5173823982437193,6.319631216472213,0.5022222222222222,-0.06333333333333334,-0.6288888888888889,18.646164553936583,2.5580130304693447,75.87178332418604
1589995796.9557798,-2.0623339765947275,-2.007483490607793,8.487957261476904,0.5022222222222222,-0.06333333333333334,-0.6288888888888889,16.279199051041907,2.5116019421772924,78.42439318024893
1589995796.9657798,-2.083510921032534,-2.178049488315259,10.019819459294334,0.5022222222222222,-0.06333333333333334,-0.6288888888888889,-13.562626011913853,-6.809588361081412,76.96033488620742
1589995796.9757798,-2.048920478428675,-2.040142152929038,8.754660094004358,0.5022222222222222,-0.06333333333333334,-0.6288888888888889,-12.419035882150636,-14.763133383010432,78.7203465932974
1589995796.9857798,-2.030628608578549,-1.9625144343141958,8.239429128678236,0.5022222222222222,-0.06333333333333334,-0.6288888888888889,-6.507877923625838,-8.73753250623036,82.76427178304414
1589995796.9957798,-2.078815094663633,-1.975547589404542,8.35447044176362,0.5018591660823233,-0.07023139999141373,-0.6296150011686868,-0.4195466449147813,-1.602222234147598,87.56687631477268
1589995797.0057797,-2.2837178449692246,-2.083560165771598,9.029477181882832,0.5011111111111111,-0.08444444444444445,-0.6311111111111111,-3.9486515731136125,-7.511462701390421,89.8939834228402
1589995797.0157797,-2.271770763296649,-2.0411805088644326,8.789148943699352,0.5011111111111111,-0.08444444444444445,-0.6311111111111111,-3.7575927138256837,-8.676432729395945,92.25163001167769
1589995797.0257797,-2.311253386853989,-2.0675022579026594,8.931262418464627,0.5011111111111111,-0.08444444444444445,-0.6311111111111111,-2.913998996487707,-7.011581159056698,93.77355745107877
1589995797.0357797,-2.195890288547462,-1.9593012596927157,8.63119829350552,0.5011111111111111,-0.08444444444444445,-0.6311111111111111,-2.4786814303421636,-6.375727854486755,95.27568569657836
1589995797.0457797,-2.242475349711569,-1.9168713024567352,8.866158793932803,0.49298789140972005,-0.0956919794156013,-0.626737069733439,-2.3672029064302698,-7.562253497115686,96.46076802926703
1589995797.0557797,-2.2377935845967962,-1.9512784035545854,8.835359940756907,0.4866666666666667,-0.10444444444444444,-0.6233333333333333,-2.3125,-8.4375,97.0625
1589995797.0657797,-2.251852715072458,-1.9470368212318854,8.754815893840572,0.4866666666666667,-0.10444444444444444,-0.6233333333333333,-2.3125,-7.586791393342481,97.3460695355525
1589995797.0757797,-2.5387151875232083,-2.0003668770887484,8.522660972892686,0.4866666666666667,-0.10444444444444444,-0.6233333333333333,-3.7677729298180465,-6.154818046787969,95.39793910137394
1589995797.0857797,-22.59479758220302,-22.263068981991147,10.21143883846042,0.4866666666666667,-0.10444444444444444,-0.6233333333333333,-6.97839249735164,29.740709968219676,135.02259933946783
1589995797.0957797,0.8839531273019867,0.036649554052063146,-1.0998326136968914,0.4933333333333334,-0.11888888888888888,-0.6444444444444445,9.791378387107741,-24.0137276317728,249.56043529505095
1589995797.1057796,0.45139915456884144,-0.05366391278232981,3.4871408334183296,0.4933333333333334,-0.11888888888888888,-0.6444444444444445,2.4831175840614694,-32.80740729722685,244.45059440836818
1589995797.1157796,0.018845181835696168,-0.14397737961672277,8.074114280533552,0.4933333333333334,-0.11888888888888888,-0.6444444444444445,-4.8251432189848025,-41.6010869626809,239.34075352168543
1589995797.1257796,-0.907421348889571,-0.029809640773718143,8.20372080646812,0.4933333333333334,-0.11888888888888888,-0.6444444444444445,-1.7067892232115445,-1.4229364957527366,233.44119588578445
1589995797.1357796,-1.5728423141505115,-0.8224214405652353,8.919158252829448,0.4933333333333334,-0.11888888888888888,-0.6444444444444445,-12.45468385415531,3.9866936890769136,223.23201337854636
1589995797.1457796,-1.693120793482111,-0.740858424843547,9.468503955602786,0.4815675470014826,-0.15542475170884665,-0.6487792078298632,-12.21972783091274,-17.436769394261425,212.39408430747432
1589995797.1557796,-1.6001438583548506,-0.6231943932128367,8.797078568793804,0.4722222222222222,-0.18444444444444444,-0.6522222222222223,-11.014570269273332,-18.277688122464035,199.12751291036517
1589995797.1657796,-1.8437371710192054,-1.074702266029875,8.805544152017072,0.4722222222222222,-0.18444444444444444,-0.6522222222222223,-6.287602568336551,-10.33354714967991,188.02476882430648
1589995797.1757796,-1.8476515009673595,-0.8468557698308681,9.01757598452225,0.4722222222222222,-0.18444444444444444,-0.6522222222222223,-4.741239156212944,-12.377843568620108,180.41429117518567
1589995797.1857796,-2.0152523051131603,-0.77762615255658,9.4320871751886,0.4722222222222222,-0.18444444444444444,-0.6522222222222223,-6.190653813914501,-11.767889773679798,168.86985331098072
1589995797.1957796,-1.889502172914532,-0.7147510864572659,8.99288061336254,0.42989272829342784,-0.23257249918540246,-0.6557013587095204,-6.70625905381055,-11.193156423347348,157.25923599088435
1589995797.2057796,-5.59733200079952,1.6957857285628624,11.802045172896262,0.3911111111111111,-0.2766666666666667,-0.6588888888888889,-2.1070757545472714,7.7758744753148115,105.51573805716569
1589995797.2157795,-2.6508462468107954,0.21051913522223709,9.054615818450383,0.3911111111111111,-0.2766666666666667,-0.6588888888888889,7.528894185578085,8.383667919967772,-73.46346347522493
1589995797.2257795,-11.976833001229492,-0.9137418917200153,11.317073387883156,0.3911111111111111,-0.2766666666666667,-0.6588888888888889,-0.5867135498367748,-19.935947237885276,-102.89627761054818
1589995797.2357795,-13.928017798191474,-2.2638581886034164,10.247911583177839,0.3911111111111111,-0.2766666666666667,-0.6588888888888889,8.313827687670447,-4.390026194918903,-38.9774741639156
1589995797.2457795,-0.5471076923076925,-0.33747762237762213,5.7450947552447555,0.3968120435120435,-0.3118224164724165,-0.6911941724941725,-1.5954960664335687,-0.5233610139860136,43.027143793706294
1589995797.2557795,-2.1316595415583577,-0.00556617757631743,9.725586586178006,0.3977777777777778,-0.31777777777777777,-0.6966666666666667,-16.200442007347096,-1.047440600227717,32.935707533996435
1589995797.2657795,-2.0301176785953627,-0.8931062860206407,9.685545637314034,0.3977777777777778,-0.31777777777777777,-0.6966666666666667,2.806994705803511,-1.869137850154135,-15.232614595898674
1589995797.2757795,-8.175483231074411,-1.2705152927065555,8.60755962540942,0.3977777777777778,-0.31777777777777777,-0.6966666666666667,6.427169350002306,3.672094847072935,-16.324350117636204
1589995797.2857795,-5.787613818960899,-1.0382846813069095,8.323691751472952,0.3977777777777778,-0.31777777777777777,-0.6966666666666667,2.338720206213176,1.7131762185324053,4.081531199785751
1589995797.2957795,-4.45522006554071,-1.0712538442147719,8.753219057222083,0.39193221858107163,-0.307548049183542,-0.700320141164608,-2.664822283841694,0.13008570708343836,3.5629474413914792
1589995797.3057795,-4.111917354443883,-0.847457189377351,8.962230082533265,0.3888888888888889,-0.3022222222222222,-0.7022222222222222,-1.3268801583291228,0.18630165347257316,-0.49085537027679527
1589995797.3157794,-3.9688129111939765,-0.844136759850842,8.678165213880245,0.3888888888888889,-0.3022222222222222,-0.7022222222222222,-0.1506291119397668,0.4559354440301166,-0.05508069496235424
1589995797.3257794,-4.066194309151499,-0.833451422712125,8.885485772878749,0.3888888888888889,-0.3022222222222222,-0.7022222222222222,-0.22842860804921813,-0.7721193283773393,0.0
1589995797.3357794,-3.925023509497837,-0.8440887718638329,8.786156667293588,0.3888888888888889,-0.3022222222222222,-0.7022222222222222,-0.11791776377656574,-0.40917105510626295,-0.04402741207447809
1589995797.3457794,-3.852030385900942,-0.8021823154056518,9.112541476754787,0.3729496606907728,-0.3075352982882609,-0.6791988926027213,0.03712017623822546,-0.6357907930720146,0.0869302643573382
1589995797.3557794,-3.9273992776325506,-0.7829637020334045,8.935584379302776,0.3688888888888889,-0.3088888888888889,-0.6733333333333333,0.018523137708778163,-0.0903470656316725,-0.006930586873665517
1589995797.3657794,-3.9936398348492843,-0.7968199174246423,8.862049793561605,0.3688888888888889,-0.3088888888888889,-0.6733333333333333,0.0,-0.3381224195200696,-0.0625
1589995797.3757794,-4.0,-0.8,8.87,0.3688888888888889,-0.3088888888888889,-0.6733333333333333,0.0,-0.4375,-0.0625
1589995797.3857794,-3.941501243142981,-0.8132499309365011,8.839747030269544,0.3688888888888889,-0.3088888888888889,-0.6733333333333333,-0.08437586329373692,-0.10156034176565767,-0.0625
1589995797.3957794,-3.843590408295528,-0.82,9.07102397926118,0.3767523583207316,-0.3046295096133074,-0.675299200691294,-0.0368600129617628,-0.09133992222942319,-0.0625
1589995797.4057794,-3.9093621353989896,-0.8293621353989897,8.972129609295454,0.3955555555555556,-0.29444444444444445,-0.68,-0.125,0.34972998063447064,-0.033243326878156884
1589995797.4157794,-3.968990634755463,-0.8216285119667014,8.768922996878251,0.3955555555555556,-0.29444444444444445,-0.68,-0.08672606659729448,0.40309573361082207,-0.03827393340270551
1589995797.4257793,-3.9945256762719343,-0.8154743237280657,8.69758917964905,0.3955555555555556,-0.29444444444444445,-0.68,-0.09671452330041069,0.0552111970946611,-0.0625
1589995797.4357793,-3.9815498022294142,-0.8073247033441208,8.791125494426465,0.3955555555555556,-0.29444444444444445,-0.68,-0.07218626393383676,-0.3389068680330816,-0.0625
1589995797.4457793,-3.935335564027317,-0.8131096239817888,8.935548119908944,0.3846426775641553,-0.29893798244090336,-0.6928386799898827,0.10832636241463481,-0.4833263624146348,-0.0625
1589995797.4557793,-3.9166287954454653,-0.8233712045545345,8.973598431881742,0.37666666666666665,-0.3022222222222222,-0.7022222222222222,0.146070028465841,-0.396780113863364,-0.0625
1589995797.4657793,-3.9055774447909535,-0.8344225552090464,8.913943611977384,0.37666666666666665,-0.3022222222222222,-0.7022222222222222,-0.0552819401130803,-0.26742951497172995,-0.0625
1589995797.4757793,-3.9272244583745737,-0.8195816562190696,8.85916331243814,0.37666666666666665,-0.3022222222222222,-0.7022222222222222,-0.125,-0.07984713515891345,0.022576432420543274
1589995797.4857793,-3.950409398902955,-0.8152046994514776,8.892046994514775,0.37666666666666665,-0.3022222222222222,-0.7022222222222222,-0.125,-0.16264685785867483,0.0625
1589995797.4957793,-3.927437441020468,-0.8254270931632554,8.972562558979531,0.38028472877550357,-0.29136803589571153,-0.682925890975092,-0.05716133545930818,-0.04114534183723273,0.02858066772965409
1589995797.5057793,-3.922946233905138,-0.818526883047431,8.942634415237155,0.38333333333333336,-0.2822222222222222,-0.6666666666666666,-0.07170698095355629,0.1875,-0.035853490476778146
1589995797.5157793,-3.93394462680177,-0.828166119594691,8.827335521621235,0.38333333333333336,-0.2822222222222222,-0.6666666666666666,-0.049307835022120744,0.4145764949336378,0.013192164977879256
1589995797.5257792,-3.9620581362211458,-0.8346569772964757,8.774656977296475,0.38333333333333336,-0.2822222222222222,-0.6666666666666666,-0.06678778379405338,0.32874275672081316,-0.004287783794053382
1589995797.5357792,-3.9816102327148464,-0.8174153490722691,8.790974418212885,0.38333333333333336,-0.2822222222222222,-0.6666666666666666,-0.09878197723389406,-0.05852615936274155,-0.036281977233894064
1589995797.5457792,-3.9805374881740776,-0.8158062322611164,8.888493673131505,0.37982083727530747,-0.29627220645432567,-0.6777895708504152,0.0033593010879848645,-0.4771482527199622,-0.06585930108798486
1589995797.5557792,-3.960244493969586,-0.83,8.954250786575773,0.37666666666666665,-0.3088888888888889,-0.6877777777777778,0.035932583901415835,-0.4921629195070792,-0.07186516780283167
1589995797.5657792,-3.922679820277398,-0.8273201797226021,8.951960539167807,0.37666666666666665,-0.3088888888888889,-0.6877777777777778,0.03349775346747411,-0.3125,-0.03349775346747411
1589995797.5757792,-3.9219561186114626,-0.82,8.934021940694269,0.37666666666666665,-0.3088888888888889,-0.6877777777777778,0.024451482643281744,-0.21195148264328173,-0.09986287066082043
1589995797.5857792,-3.919660538858088,-0.817584865285478,8.935169730570955,0.37666666666666665,-0.3088888888888889,-0.6877777777777778,-0.06462163213695166,-0.047405408034237914,-0.07759459196576209
1589995797.5957792,-3.95,-0.8063015173568879,8.901507586784438,0.37666666666666665,-0.3113545439842969,-0.6799698699756523,0.07876896696109903,-0.046231033038900964,-0.07876896696109903
1589995797.6057792,-3.926773251460237,-0.8116133742698817,8.962906994159052,0.37666666666666665,-0.31555555555555553,-0.6666666666666666,-0.07258358918676053,-0.05241641081323947,-0.04838905945784035
1589995797.6157792,-3.9278061941015596,-0.83,8.927270061842462,0.37666666666666665,-0.31555555555555553,-0.6666666666666666,-0.10873709562175081,0.18064435656737377,-0.04623709562175081
1589995797.6257792,-3.9566232169208067,-0.8366232169208067,8.85973930152484,0.37666666666666665,-0.31555555555555553,-0.6666666666666666,-0.14529021151008362,0.37418531726512544,0.04139510575504181
1589995797.6357791,-3.982498405103668,-0.84,8.83050350877193,0.37666666666666665,-0.31555555555555553,-0.6666666666666666,-0.15937699362041466,0.2968849681020734,0.0625
1589995797.6457791,-3.985686626176986,-0.8308824848163698,8.830783434557535,0.37869278115191785,-0.3115033265850532,-0.670718895637169,-0.10600517670077039,-0.08394305629152571,0.04350517670077039
1589995797.6557791,-3.949529166912097,-0.81,8.926059374447783,0.38333333333333336,-0.3022222222222222,-0.68,0.029042969900453547,-0.5014713533996976,0.0
1589995797.665779,-3.928698097870265,-0.8203254755324337,8.890325475532434,0.38333333333333336,-0.3022222222222222,-0.68,0.06046577792228905,-0.4375,0.0
1589995797.675779,-3.9219906389617756,-0.8236018722076448,8.84881497766116,0.38333333333333336,-0.3022222222222222,-0.68,-0.039988298702219705,-0.19757020778668183,-0.07997659740443941
1589995797.685779,-3.9364563042382104,-0.82,8.862524349141477,0.38333333333333336,-0.3022222222222222,-0.68,-0.0625,-0.08464809851118602,-0.05855570446644197
1589995797.695779,-3.9308907672301694,-0.82,8.92931079323797,0.38333333333333336,-0.3022222222222222,-0.68,-0.0625,-0.11943270481144344,0.045798114434330295
1589995797.705779,-3.9576476089785295,-0.8147047820429408,8.919409564085882,0.3888888888888889,-0.3088888888888889,-0.68,-0.11029755611581002,-0.08089266834743006,-0.0625
1589995797.715779,-3.951735070140281,-0.8282649298597194,8.92397394789579,0.3888888888888889,-0.3088888888888889,-0.68,-0.07334418837675351,0.07334418837675351,-0.05165581162324649
1589995797.725779,-3.952735511566897,-0.8236322442165513,8.821793465299308,0.3888888888888889,-0.3088888888888889,-0.68,-0.07959694729310757,0.10229847364655378,0.02270152635344622
1589995797.735779,-3.941457268778743,-0.825628193663771,8.862914537557485,0.3888888888888889,-0.3088888888888889,-0.68,0.009107929867143589,0.05339207013285641,0.05339207013285641
1589995797.745779,-3.9661098446694587,-0.8040274611673647,8.871945077665272,0.3866514104625752,-0.3088888888888889,-0.6831324697968393,0.03732836770397073,-0.05034326459205853,-0.025171632296029266
1589995797.755779,-3.9574830387804676,-0.8154194935365888,8.89793645475612,0.38333333333333336,-0.3088888888888889,-0.6877777777777778,0.06774366920735964,-0.3282310076220789,-0.13024366920735964
1589995797.765779,-3.9343990628929735,-0.8156009371070265,8.872812182391346,0.38333333333333336,-0.3088888888888889,-0.6877777777777778,0.04251757075674838,-0.5,-0.10501757075674838
1589995797.775779,-3.928893120779017,-0.8174045861473221,8.855534396104916,0.38333333333333336,-0.3088888888888889,-0.6877777777777778,-0.08563933171038166,-0.430582004868855,0.0
1589995797.785779,-3.9293794303028036,-0.8251551424242991,8.940310284848598,0.38333333333333336,-0.3088888888888889,-0.6877777777777778,-0.09471964015186937,-0.1610982007593469,-0.06056071969626125
1589995797.795779,-3.945339793239784,-0.82,8.939320413520432,0.3859223370890092,-0.3088888888888889,-0.6919201837868592,-0.09162629225135302,0.029126292251353013,-0.06674741549729397
1589995797.805779,-3.951822655524605,-0.8259113277623027,8.92635468895079,0.3888888888888889,-0.3088888888888889,-0.6966666666666667,-0.16194579851439184,0.02555420148560817,0.0
1589995797.815779,-3.954405454503645,-0.8244054545036448,8.859649090532804,0.3888888888888889,-0.3088888888888889,-0.6966666666666667,-0.0826022719433394,0.0,-0.0699318187044404
1589995797.825779,-3.959697808044265,-0.82,8.844244520110662,0.3888888888888889,-0.3088888888888889,-0.6966666666666667,-0.0909169504149819,0.06061130027665461,-0.09469434986167269
1589995797.835779,-3.9661709660010795,-0.8161709660010793,8.885316135995682,0.3888888888888889,-0.3088888888888889,-0.6966666666666667,-0.1875,0.07713707501349162,-0.01463707501349163
1589995797.845779,-3.96,-0.8128726905125503,8.9042546189749,0.385377822706883,-0.3088888888888889,-0.6941131639888442,-0.15159136859312156,0.0,-0.009317262813756916
1589995797.855779,-3.9582436825624763,-0.8217563174375236,8.893512634875048,0.37666666666666665,-0.3088888888888889,-0.6877777777777778,-0.029569048046430922,-0.03293095195356908,-0.15456904804643093
1589995797.865779,-3.949552851488052,-0.8297764257440258,8.907987831696232,0.37666666666666665,-0.3088888888888889,-0.6877777777777778,0.1208079827004838,-0.1916920172995162,0.0013973390998387332
1589995797.875779,-3.9341074406843495,-0.82,8.848752084790446,0.37666666666666665,-0.3088888888888889,-0.6877777777777778,-0.0625,-0.32365699144563403,0.011156991445634049
1589995797.885779,-3.9359865403489094,-0.8240134596510905,8.914080757906543,0.37666666666666665,-0.3088888888888889,-0.6877777777777778,-0.0374158771806838,-0.1998317543613676,-0.0875841228193162
1589995797.895779,-3.940688697091511,-0.819311302908489,8.93931130290849,0.3885429967683455,-0.3065136228685531,-0.685006634087386,-0.04453623788129581,0.030876832584535358,-0.1472681189406479
1589995797.905779,-3.96,-0.8080537582874031,8.915973120856298,0.41,-0.3022222222222222,-0.68,-0.07466401070373033,0.18666002675932583,-0.08682802140746067
1589995797.9157789,-3.9575845662778795,-0.8175845662778792,8.883430229056673,0.41,-0.3022222222222222,-0.68,-0.015096460763254571,0.015096460763254571,0.017210617710236284
1589995797.9257789,-3.944865742834821,-0.81,8.81197993338542,0.41,-0.3022222222222222,-0.68,-0.04110726181175213,0.030410892717628195,-0.11430363090587606
1589995797.9357789,-3.9451812752841455,-0.81,8.878393758428048,0.41,-0.3022222222222222,-0.68,0.036269504912348295,-0.07253900982469659,-0.1411914852629551
1589995797.9457788,-3.9727701483407247,-0.8136149258296376,8.908074629148189,0.4047784404683013,-0.3046321727753139,-0.6852215595316987,-0.06777985930570424,-0.022593286435234745,-0.18222014069429576
1589995797.9557788,-3.965378076176861,-0.825378076176861,8.929243847646278,0.3955555555555556,-0.3088888888888889,-0.6944444444444444,-0.08666107168385583,-0.028887023894618606,-0.0625
1589995797.9657788,-3.9647161697883186,-0.8141485093649562,8.856594037459825,0.3955555555555556,-0.3088888888888889,-0.6944444444444444,0.03302393882300787,-0.264191510584063,-0.029476061176992127
1589995797.9757788,-3.9455381385584327,-0.8144618614415675,8.843385584324704,0.3955555555555556,-0.3088888888888889,-0.6944444444444444,0.0625,-0.5,-0.030128878003265684
1589995797.9857788,-3.926194964916339,-0.83,8.905220140334645,0.3955555555555556,-0.3088888888888889,-0.6944444444444444,0.03871853072711852,-0.33352971508982965,-0.03871853072711852
1589995797.9957788,-3.922028757629047,-0.8279712423709527,8.938115030516188,0.3917234578117996,-0.30595846120248726,-0.6901615116720113,-0.025359470363090927,-0.049820264818454536,0.0
1589995798.0057788,-3.9315616494751047,-0.82,8.962972577362029,0.37666666666666665,-0.29444444444444445,-0.6733333333333333,-0.12011984539029802,0.009760309219403976,-0.004880154609701988
1589995798.0157788,-3.9487741475674256,-0.8206129262162871,8.87570951648599,0.37666666666666665,-0.29444444444444445,-0.6733333333333333,-0.05866921114820511,0.1288307888517949,-0.05100763344461533
1589995798.0257788,-3.942090618895612,-0.83,8.822090618895611,0.37666666666666665,-0.29444444444444445,-0.6733333333333333,-0.05037757873171661,0.11193363190242508,0.07462242126828339
1589995798.0357788,-3.9532007007510925,-0.8232007007510924,8.863797547371176,0.37666666666666665,-0.29444444444444445,-0.6733333333333333,-0.06125656954149131,0.0,-0.04249562030567246
