time,acc_x,acc_y,acc_z,mag_x,mag_y,mag_z,gyr_x,gyr_y,gyr_z
1589995865.7176585,-3.85,-0.89,9.12,0.3244444444444444,-0.32666666666666666,-0.6266666666666667,-0.1875,-0.625,0.0
1589995865.7276585,-3.815744651673066,-0.8470213933077345,8.8527660449808,0.3244444444444444,-0.32666666666666666,-0.6266666666666667,-0.10771221886999452,-0.40957556226001096,-0.15159592704333516
1589995865.7376585,-3.8305927506860122,-0.8405927506860125,8.850592750686012,0.3244444444444444,-0.32666666666666666,-0.6266666666666667,-0.3530117294689456,0.21343284251304773,-0.125
1589995865.7476585,-3.8573163368736503,-0.84653673262527,8.856536732625269,0.329446941763499,-0.32435782175017996,-0.6220489768336932,-0.5,0.6899362632761887,-0.08170915781587414
1589995865.7576585,-3.880326951863232,-0.84,8.85,0.3388888888888889,-0.32,-0.6133333333333333,-0.40931517371779724,0.5404455211533916,-0.09068482628220279
1589995865.7676585,-3.859708218077987,-0.8554376728830195,8.81912465423396,0.3388888888888889,-0.32,-0.6133333333333333,-0.15169090746854644,-0.3610745516195235,-0.12317636298741858
1589995865.7776585,-3.839176669236134,-0.8645883346180671,8.849528319201262,0.3388888888888889,-0.32,-0.6133333333333333,0.03382290863708109,-1.1066145431854055,-0.19779163454832435
1589995865.7876585,-3.8042171354513292,-0.86,8.977348593646013,0.3388888888888889,-0.32,-0.6133333333333333,0.09472858068583839,-1.2822285806858384,-0.3447285806858384
1589995865.7976584,-3.78,-0.8497348947481859,9.05,0.3291940672621756,-0.3171485818744961,-0.6059196462070232,0.06084309217616207,-1.0879508226165673,-0.47123536173575686
1589995865.8076584,-3.7939150677546616,-0.860872601631993,9.084787669386655,0.32,-0.3144444444444445,-0.5988888888888889,-0.30439210713323045,-0.3097003724668578,-1.1277996275331423
1589995865.8176584,-3.842550196944951,-0.8770916994908252,8.986532808146796,0.32,-0.3144444444444445,-0.5988888888888889,-0.5261462436353156,0.29208497454126237,-1.7295849745412624
1589995865.8276584,-3.879732351514617,-0.8931549010097447,8.94,0.32,-0.3144444444444445,-0.5988888888888889,-0.3158456060672869,0.6430453282772609,-2.24498159089907
1589995865.8376584,-3.8987902179337883,-0.895604891033106,8.931209782066212,0.32,-0.3144444444444445,-0.5988888888888889,-0.07762227582764931,0.5302445516552986,-2.355091706870737
1589995865.8476584,-3.91,-0.89,8.913764074661831,0.32138576118625994,-0.3144444444444445,-0.6006210903717139,0.19891086677246278,0.035640066500415624,-2.0161527998186353
1589995865.8576584,-3.8495216923425466,-0.8698405641141821,8.873120752152243,0.3244444444444444,-0.3144444444444445,-0.6044444444444445,0.8779894228590848,-1.0254835466696874,-0.7020223295197101
1589995865.8676584,-3.82,-0.8474413121264142,8.816044592442449,0.3244444444444444,-0.3144444444444445,-0.6044444444444445,1.2194835984198225,-1.5479753976297337,-0.11627050197522182
1589995865.8776584,-3.8135914174113115,-0.852817165177377,8.834860078120819,0.3244444444444444,-0.3144444444444445,-0.6044444444444445,1.2724463588206967,-1.7275536411793033,-0.08010728235860666
1589995865.8876584,-3.814896385955876,-0.8502072280882479,8.918756631470512,0.3244444444444444,-0.3144444444444445,-0.6044444444444445,1.1581927633273241,-1.505180702206198,-0.125
1589995865.8976583,-3.8263754729288975,-0.84,9.005501891715591,0.320548322099007,-0.3144444444444445,-0.5998399362180185,0.9628832354859752,-1.1105365296803653,-0.14492335290280495
1589995865.9076583,-3.8436010733859414,-0.8472021467718828,9.06,0.31222222222222223,-0.3144444444444445,-0.59,0.6599731653514657,-0.7899932913378664,-0.14248658267573283
1589995865.9176583,-3.852743605540871,-0.8517691833773874,9.021589522427808,0.31222222222222223,-0.3144444444444445,-0.59,0.534295069260886,-0.818590138521772,-0.028204930739114016
1589995865.9276583,-3.8513663460774183,-0.83,8.91568317303871,0.31222222222222223,-0.3144444444444445,-0.59,0.625,-1.0,0.17042067403227087
1589995865.9376583,-3.8166782814159026,-0.8333217185840972,8.9,0.31222222222222223,-0.3144444444444445,-0.59,0.5834785176987842,-0.8754355530963526,0.8116288938072949
1589995865.9476583,-3.8104058681900432,-0.8395941318099568,8.9,0.31222222222222223,-0.3144444444444445,-0.59,0.5050733523755402,-0.6402200571266208,1.2820598857467584
1589995865.9576583,-3.7968204432383534,-0.85,8.903179556761646,0.3055555555555556,-0.32,-0.62,0.0625,0.0,1.6903833107191315
1589995865.9676583,-3.8030864060417593,-0.854362135347253,8.875102917221975,0.3055555555555556,-0.32,-0.62,0.007973308159336584,0.027263345920331708,1.4534466163186732
1589995865.9776583,-3.815506853923135,-0.86,8.870438314691784,0.3055555555555556,-0.32,-0.62,0.04982865192162139,0.14674648894121606,1.0316783701959464
1589995865.9876583,-3.814906948221618,-0.86,8.942081266997281,0.3055555555555556,-0.32,-0.62,0.17216578680744415,0.21933157361488828,0.6261631472297766
1589995865.9976583,-3.823873278979404,-0.8569366394897019,9.022253442041192,0.3099804096259861,-0.3220422403401987,-0.6135329055893708,0.1632920063787256,0.1632920063787256,0.2843319744850976
1589995866.0076582,-3.8146322359051688,-0.8546322359051688,9.040735528189662,0.32,-0.32666666666666666,-0.5988888888888889,0.25,0.25,-0.0625
1589995866.0176582,-3.836995487785903,-0.8486696748093978,8.97901353664229,0.32,-0.32666666666666666,-0.5988888888888889,0.3208145324412634,0.3208145324412634,0.04372179866189513
1589995866.0276582,-3.85,-0.8340076219512195,8.94599237804878,0.32,-0.32666666666666666,-0.5988888888888889,0.3000952743902439,0.41245236280487807,0.08754763719512196
1589995866.0376582,-3.8403256907701353,-0.83,8.925814226925338,0.32,-0.32666666666666666,-0.5988888888888889,0.28023221634332746,0.1654100529100529,0.09273221634332746
1589995866.0476582,-3.83,-0.8337662163070512,8.9,0.31707072065007136,-0.3241558557952992,-0.595541141060399,0.3125,-0.1956165557572091,0.1485388519190697
1589995866.0576582,-3.83,-0.8456361271049652,8.905636127104966,0.31222222222222223,-0.32,-0.59,0.24204841118793513,-0.3125,0.36362897203016215
1589995866.0676582,-3.8240641191709845,-0.8440641191709845,8.85657707253886,0.31222222222222223,-0.32,-0.59,0.15040074481865284,-0.3125,0.6483970207253886
1589995866.0776582,-3.8147124966473416,-0.84,8.872875033526585,0.31222222222222223,-0.32,-0.59,0.025859312137654994,-0.3125,0.650859312137655
1589995866.0876582,-3.812945157958032,-0.84,8.925890315916064,0.31222222222222223,-0.32,-0.59,-0.0625,-0.2756855255245995,0.4704638138114988
1589995866.0976582,-3.8194119551642793,-0.84,8.938823910328558,0.31222222222222223,-0.32,-0.59,-0.0625,-0.19485056044650706,0.2683764011162676
1589995866.1076581,-3.813452765692977,-0.83,8.969641702921068,0.31222222222222223,-0.32,-0.5755555555555556,0.08407978558110628,-0.16815957116221256,0.24776064325668118
1589995866.1176581,-3.824697119711971,-0.83,8.921817281728172,0.31222222222222223,-0.32,-0.5755555555555556,0.06628600360036004,-0.19128600360036002,0.06628600360036004
1589995866.1276581,-3.826435111542192,-0.8371297769156159,8.893564888457808,0.31222222222222223,-0.32,-0.5755555555555556,-0.044561105722599414,-0.08043889427740059,-0.022280552861299707
1589995866.137658,-3.82,-0.8477824976611292,8.906652507016613,0.31222222222222223,-0.32,-0.5755555555555556,-0.1665781688538269,-0.0277187792358846,-0.0763593896179423
1589995866.147658,-3.82,-0.8422796234659914,8.934559246931983,0.31399526269577116,-0.31873354251889363,-0.5841674664270788,-0.35524293998733997,-0.13924764666244666,-0.09650470667510669
1589995866.157658,-3.82,-0.8483773599717392,8.95,0.32,-0.3144444444444445,-0.6133333333333333,-0.4391509989402206,-0.1976415001766299,-0.030424500529889705
1589995866.167658,-3.82,-0.844268899204244,8.903042108753315,0.32,-0.3144444444444445,-0.6133333333333333,-0.125,-0.1699581399204244,-0.1341387599469496
1589995866.177658,-3.82,-0.85,8.889687628442251,0.32,-0.3144444444444445,-0.6133333333333333,-0.012073571722153731,-0.03426839293053843,-0.0625
1589995866.187658,-3.82,-0.8588597976014694,8.967719595202938,0.32,-0.3144444444444445,-0.6133333333333333,0.18037373500918355,-0.11074747001836711,-0.0625
1589995866.197658,-3.823613983259478,-0.87,9.004455933037912,0.31477980195853167,-0.3144444444444445,-0.608113135291865,0.22741260462826193,-0.15965041851304776,-0.03991260462826194
1589995866.207658,-3.825984142290796,-0.8659841422907961,9.021968284581591,0.3055555555555556,-0.3144444444444445,-0.5988888888888889,0.2878964427300975,0.050198221365048756,-0.07529733204757312
1589995866.217658,-3.81690111343843,-0.8507033403152905,8.960417815014882,0.3055555555555556,-0.3144444444444445,-0.5988888888888889,0.34065979495094256,0.028159794950942563,-0.1681319589901885
1589995866.227658,-3.8228855140186915,-0.8214096573208722,8.871475856697819,0.3055555555555556,-0.3144444444444445,-0.5988888888888889,0.04446553738317757,-0.16065517912772587,-0.0713103582554517
1589995866.237658,-3.8366535438964147,-0.8133464561035851,8.901673228051793,0.3055555555555556,-0.3144444444444445,-0.5988888888888889,-0.0625,-0.1354576753237033,-0.010457675323703315
1589995866.247658,-3.8240966993488508,-0.8259033006511488,8.907951650325575,0.3055555555555556,-0.3144444444444445,-0.5988888888888889,-0.0625,-0.1746978145348402,-0.04969781453484021
1589995866.257658,-3.828683249260741,-0.8413167507392589,8.924732997042964,0.2977777777777777,-0.3411111111111111,-0.6044444444444445,-0.1875,0.05427030787963124,0.016459384240737517
1589995866.267658,-3.8224702319640724,-0.85,8.875178608215567,0.2977777777777777,-0.3411111111111111,-0.6044444444444445,-0.20293894977545218,-0.03087789955090437,0.07868315067364344
1589995866.277658,-3.8288101332862565,-0.852379733427487,8.839518933709948,0.2977777777777777,-0.3411111111111111,-0.6044444444444445,-0.22768999911730955,-0.13987333392179363,-0.04762666607820637
1589995866.287658,-3.82,-0.8678606622516556,8.91534834437086,0.2977777777777777,-0.3411111111111111,-0.6044444444444445,-0.0625,-0.25,0.05247185430463576
1589995866.297658,-3.821254594660096,-0.8325091893201922,9.013763783980288,0.2995899700645832,-0.33776552535085475,-0.6063960361379274,-0.04681756674879832,-0.21863513349759664,-0.10931756674879832
1589995866.307658,-3.829725532172719,-0.8494510643454376,9.039176596518155,0.3118257686939272,-0.3151763586505277,-0.6195730500464515,0.05906915215898534,-0.006861695682029323,-0.0034308478410146614
1589995866.317658,-3.809812466723196,-0.842453116680799,8.985656366468813,0.31222222222222223,-0.3144444444444445,-0.62,0.21933604149001204,0.1875,-0.0625
1589995866.327658,-3.835673892554194,-0.85,8.882884071630539,0.31222222222222223,-0.3144444444444445,-0.62,0.11598727615457116,0.1875,-0.0625
1589995866.337658,-3.816999791579825,-0.8430002084201751,8.906999791579825,0.31222222222222223,-0.3144444444444445,-0.62,-0.0031230460608586974,0.1437513026260942,0.024997394747811597
1589995866.347658,-3.83,-0.83,8.923380092021098,0.31428783401289295,-0.3144444444444445,-0.6173710395391464,-0.13556278756592974,0.05193721243407025,0.17693721243407026
1589995866.357658,-3.83,-0.8333669550970252,8.933266089805949,0.3244444444444444,-0.3144444444444445,-0.6044444444444445,-0.1875,-0.042086938712815526,0.10395653064359224
1589995866.367658,-3.83,-0.8412188650853364,8.912686809487981,0.3244444444444444,-0.3144444444444445,-0.6044444444444445,-0.17226418643329505,-0.14023581356670495,0.0929716271334099
1589995866.377658,-3.83,-0.8542665055144282,8.877066022057713,0.3244444444444444,-0.3144444444444445,-0.6044444444444445,-0.0625,-0.19666868106964797,0.49915961625623206
1589995866.3876579,-3.826927595300887,-0.856927595300887,8.915362023495565,0.3244444444444444,-0.3144444444444445,-0.6044444444444445,-0.04329747063054423,-0.028987353152721176,0.7692025293694558
1589995866.3976579,-3.8214101420035695,-0.847179715992861,8.958460852021416,0.32272093755119285,-0.3152278566686498,-0.600370700878577,0.02644016256692791,0.1875,0.8830071001784744
1589995866.4076579,-3.8295468301388995,-0.8309063397222006,9.007280980833398,0.3127760964969004,-0.31974823896605536,-0.5768647129320676,0.17900306510436872,0.1875,1.2898415069449833
1589995866.4176579,-3.795161191010248,-0.8448388089897524,8.984194044948762,0.31222222222222223,-0.32,-0.5755555555555556,0.014113834278928622,0.17338616572107138,1.0100840590227382
1589995866.4276578,-3.816025043146183,-0.8315062607865457,8.913012521573092,0.31222222222222223,-0.32,-0.5755555555555556,-0.14382825983182168,0.30308587008408916,0.4341010905886241
1589995866.4376578,-3.846828112951199,-0.8392070282377997,8.9284140564756,0.31222222222222223,-0.32,-0.5755555555555556,-0.2400878529724966,0.2549560735137517,0.09719251459626194
1589995866.4476578,-3.8379356463589387,-0.8420643536410612,8.976903469538408,0.3142865758632835,-0.31942656843303857,-0.5794548902108936,-0.19395110512831648,0.07339115897346823,0.16814668461505058
1589995866.4576578,-3.820243669920683,-0.86,8.950487339841366,0.3322222222222222,-0.3144444444444445,-0.6133333333333333,-0.2439082519829164,-0.3765229370042709,0.0030458740085417936
1589995866.4676578,-3.825783477252223,-0.86,8.91940172702668,0.3322222222222222,-0.3144444444444445,-0.6133333333333333,0.05270653434720969,-0.35844019847918546,0.04594019847918546
1589995866.4776578,-3.82,-0.8460538608198284,8.877892278360344,0.3322222222222222,-0.3144444444444445,-0.6133333333333333,0.09594554337464252,-0.07567326024785509,0.05371782650142992
1589995866.4876578,-3.81727438009594,-0.83,8.92635371942436,0.3322222222222222,-0.3144444444444445,-0.6133333333333333,0.0795351244003748,0.1590702488007496,0.1534297511992504
1589995866.4976578,-3.8114084723717885,-0.83,8.961549165769268,0.3322222222222222,-0.3144444444444445,-0.6133333333333333,0.11619704767632127,0.23239409535264255,0.08010590464735745
1589995866.5076578,-3.83,-0.8312673992673992,9.003663003663004,0.32,-0.32666666666666666,-0.5988888888888889,-0.015842490842490845,0.6012362637362637,0.125
1589995866.5176578,-3.83,-0.8405242099803653,8.956330530137445,0.32,-0.32666666666666666,-0.5988888888888889,-0.121723687622717,0.41784212573630203,0.118447375245434
1589995866.5276577,-3.83,-0.846942264573991,8.893057735426009,0.32,-0.32666666666666666,-0.5988888888888889,-0.024278307174887888,-0.013943385650224224,0.0
1589995866.5376577,-3.8277294067434915,-0.8388647033717456,8.901135296628254,0.32,-0.32666666666666666,-0.5988888888888889,0.03411758429364063,-0.17330879214682032,-0.014191207853179684
1589995866.5476577,-3.81,-0.83,8.914712220544745,0.3192669879152621,-0.3272949627392992,-0.5988888888888889,-0.19339027568092984,-0.08017082704278948,-0.11910972431907017
1589995866.5576577,-3.81,-0.83,8.958083883109632,0.3125202848496129,-0.3330778510812841,-0.5988888888888889,-0.24760485388703907,-0.2428145616611172,-0.06489514611296093
1589995866.5676577,-3.813079344579869,-0.8507619662603922,8.935777706029542,0.31222222222222223,-0.3333333333333333,-0.5988888888888889,-0.1875,0.3172622891274518,-0.0625
1589995866.5776577,-3.8477148525565874,-0.8542138605825593,8.882047524573903,0.31222222222222223,-0.3333333333333333,-0.5988888888888889,0.11071782847867256,0.7861633713590044,-0.08735148570655604
1589995866.5876577,-3.8993296108348465,-0.8335893823933742,8.926843570204172,0.31222222222222223,-0.3333333333333333,-0.5988888888888889,0.3848638431119635,0.8181739108297551,-0.06040503385889581
1589995866.5976577,-3.842381493864666,-0.9261300724699174,9.083450891872168,0.31222222222222223,-0.3333333333333333,-0.5988888888888889,-0.10453403710052445,-0.027149700446360336,0.11755783167291797
1589995866.6076577,-3.847924323684833,-0.8586810868365012,9.058302705260667,0.32190750672590723,-0.3227675684202224,-0.6032912909360184,0.6179053454531115,-0.6568242763624892,-0.12263511515103717
1589995866.6176577,-3.796588246684093,-0.8154509955787911,8.904078484525769,0.3244444444444444,-0.32,-0.6044444444444445,1.0823530835511666,-1.25,-0.1803921805918611
1589995866.6276577,-3.7841193907599897,-0.788471634455994,8.811062659671977,0.3244444444444444,-0.32,-0.6044444444444445,0.5382091386001522,-0.9323137079002282,-0.07205228465003803
1589995866.6376576,-3.82,-0.8124013626076204,8.892401362607622,0.3244444444444444,-0.32,-0.6044444444444445,0.0,-0.1099914837023729,0.0625
1589995866.6476576,-3.82,-0.83,8.915533570984728,0.3218313692572122,-0.3192314484743435,-0.6036758929187879,-0.017292409327272135,0.0259386139909082,0.0365613860090918
1589995866.6576576,-3.82,-0.8326255450244945,8.952625545024494,0.3055555555555556,-0.3144444444444445,-0.5988888888888889,-0.14140965640309086,0.25313862561236344,-0.09218068719381828
1589995866.6676576,-3.82,-0.8396865372636824,8.959686537263684,0.3055555555555556,-0.3144444444444445,-0.5988888888888889,-0.1855408578980152,0.4296634315920608,-0.003918284203969627
1589995866.6776576,-3.82,-0.8376470588235294,8.871176470588235,0.3055555555555556,-0.3144444444444445,-0.5988888888888889,-0.20220588235294118,1.0588235294117647,-0.018382352941176468
1589995866.6876576,-3.82,-0.8305430124828509,8.935112887654341,0.3055555555555556,-0.3144444444444445,-0.5988888888888889,-0.24660617198218188,1.2364246879287275,0.11481851594654563
1589995866.6976576,-3.83970665862303,-0.8491199758690898,8.960880024130912,0.3065333601454558,-0.31499853371205466,-0.5990518563205389,-0.36766646557574845,0.9944998491818113,0.12133323278787422
1589995866.7076576,-3.8317994495136114,-0.8253983485408339,8.984601651459167,0.33289072384351776,-0.32993437314095636,-0.6034447502702159,-0.16998623784028352,0.8462396783802126,0.02249311892014176
1589995866.7176576,-3.8215590721872967,-0.8046772165618903,8.979732061565143,0.3388888888888889,-0.3333333333333333,-0.6044444444444445,-0.5194884023412096,1.1639768046824193,0.10551159765879037
1589995866.7276576,-3.82908740281827,-0.8318251943634596,8.87182519436346,0.3388888888888889,-0.3333333333333333,-0.6044444444444445,-0.625,1.3921111971574345,0.0
1589995866.7376575,-3.8244630922322886,-0.8544630922322887,8.896694638348434,0.3388888888888889,-0.3333333333333333,-0.6044444444444445,-0.6947358161295114,1.6043414896777068,0.027894326451804546
1589995866.7476575,-3.840037819459831,-0.8699243610803377,8.920189097299156,0.3388342607802439,-0.33330812036011254,-0.6045032747152929,-0.938209114871834,1.7507091148718341,0.125
1589995866.7576575,-3.8536025705072894,-0.8463974294927108,8.962794858985422,0.3244444444444444,-0.32666666666666666,-0.62,-1.034935737317771,1.9375,0.05745180298832826
1589995866.7676575,-3.8660310091100207,-0.8430155045550105,8.922860459004905,0.3244444444444444,-0.32666666666666666,-0.62,-0.8184592895935529,1.9563469034688157,0.012887613875262785
1589995866.7776575,-3.875975973570928,-0.852012013214536,8.866036039643607,0.3244444444444444,-0.32666666666666666,-0.62,-0.7252252477725498,1.9622747522274502,0.1875
1589995866.7876575,-3.86,-0.8596649315786028,8.89134027368559,0.3244444444444444,-0.32666666666666666,-0.62,-0.875,1.8083116447325345,0.18959417763373274
1589995866.7976575,-3.86,-0.8527993845348,8.9188024618608,0.3244444444444444,-0.32666666666666666,-0.62,-0.875,1.7224923066849998,0.23250384665750018
1589995866.8076575,-3.86,-0.85,8.93905977606769,0.3445772801504229,-0.31559360702837863,-0.6059070150058151,-0.6485055983077428,1.857370801269193,0.4764944016922572
1589995866.8176575,-3.86,-0.8588625976540514,8.966587792962155,0.3466666666666667,-0.3144444444444445,-0.6044444444444445,-0.6803912353378211,1.9857824706756422,0.6661737060134634
1589995866.8276575,-3.843290506552177,-0.8567094934478229,8.866581013104353,0.3466666666666667,-0.3144444444444445,-0.6044444444444445,-0.9058484989266604,2.0102828329755535,0.6147171670244465
1589995866.8376575,-3.8567290378392234,-0.8432709621607766,8.893458075678447,0.3466666666666667,-0.3144444444444445,-0.6044444444444445,-1.0318347297427188,2.052278243247573,0.572721756752427
1589995866.8476574,-3.879748584230506,-0.8498742921152529,8.939497168461012,0.3466666666666667,-0.3144444444444445,-0.6044444444444445,-1.1859286514406622,2.185928651440662,0.31564269711867565
1589995866.8576574,-3.8619293513725146,-0.8409646756862574,8.949035324313742,0.3225724684966865,-0.3144444444444445,-0.5994248198256986,-1.243970776960891,1.9051461151955453,0.3689707769608909
1589995866.8676574,-3.891430331565862,-0.89,8.908569668434138,0.32,-0.3144444444444445,-0.5988888888888889,-1.0,1.910700534641702,0.14285989307165958
1589995866.8776574,-3.9176108268857583,-0.8876108268857582,8.887167519342727,0.32,-0.3144444444444445,-0.5988888888888889,-0.8805413442879104,1.5531090123238993,0.2173646639280224
1589995866.8876574,-3.9081372331313644,-0.8762744662627288,8.911862766868635,0.32,-0.3144444444444445,-0.5988888888888889,-0.4185039494971925,0.98529248485233,0.289215414142055
1589995866.8976574,-3.9014844716556163,-0.8629689433112331,8.918515528344383,0.32,-0.3144444444444445,-0.5988888888888889,-0.12744563493322336,0.48633537417124006,0.2060558956952067
1589995866.9076574,-3.862434511434511,-0.8675654885654885,8.938782744282744,0.3244444444444444,-0.3333333333333333,-0.59,-0.007607848232848232,0.13260784823284824,0.054892151767151766
1589995866.9176574,-3.879874428274428,-0.8501255717255717,8.930062785862786,0.3244444444444444,-0.3333333333333333,-0.59,-0.06210758835758836,0.18710758835758837,0.00039241164241164
1589995866.9276574,-3.872178895159911,-0.87,8.896536685479733,0.3244444444444444,-0.3333333333333333,-0.59,-0.07611809474944416,0.5216457157516675,0.14664571575166752
1589995866.9376574,-3.8837217319618533,-0.87,8.923721731961853,0.3244444444444444,-0.3333333333333333,-0.59,-0.11336958761920822,0.3982608247615836,0.011630412380791785
1589995866.9476573,-3.8994386674910535,-0.87,8.939438667491054,0.3244444444444444,-0.3333333333333333,-0.59,-0.06425416409045773,0.49649167181908455,0.06074583590954227
1589995866.9576573,-3.8818334942843666,-0.87,8.94,0.33150919666719064,-0.3212223295229112,-0.5980740025402814,-0.11927033036135379,0.27291867855458485,0.005729669638646212
1589995866.9676573,-3.893621024607857,-0.87,8.960431536911786,0.3322222222222222,-0.32,-0.5988888888888889,0.0026971056986616615,0.25,0.042565701899553894
1589995866.9776573,-3.882647459327743,-0.8786762703361284,8.865884755966459,0.3322222222222222,-0.32,-0.5988888888888889,0.4420868272056188,-0.3464935856088296,-0.1001800688024081
1589995866.9876573,-3.8865346404984193,-0.86,8.9,0.3322222222222222,-0.32,-0.5988888888888889,0.6574877453273213,-0.7283415031151191,-0.021658496884880914
1589995866.9976573,-3.870840053134764,-0.86,8.9,0.3322222222222222,-0.32,-0.5988888888888889,0.8046245018615876,-0.6302503320922749,-0.11974966790772511
1589995867.0076573,-3.869942014653661,-0.85,8.932485503663415,0.31222222222222223,-0.32666666666666666,-0.6044444444444445,0.6098280105182721,-0.3753624084146177,0.015896806310963282
1589995867.0176573,-3.8953692078812727,-0.8469128052541819,8.926107623643817,0.31222222222222223,-0.32666666666666666,-0.6044444444444445,0.36535251641931854,-0.24538490148408867,-0.125
1589995867.0276573,-3.8725401865089446,-0.8316934576726296,8.857620559526833,0.31222222222222223,-0.32666666666666666,-0.6044444444444445,0.3177920552269676,-0.5307476686381944,-0.125
1589995867.0376573,-3.878520362958663,-0.8329592740826739,8.868877822248022,0.31222222222222223,-0.32666666666666666,-0.6044444444444445,-0.04623865754177997,-0.47225680547493204,-0.08099546301671198
1589995867.0476573,-3.872113134337478,-0.8457737313250435,8.90732119397513,0.31222222222222223,-0.32666666666666666,-0.6044444444444445,-0.2464645519538053,-0.3521212688277168,-0.16108582078152212
1589995867.0576572,-3.8511518783221517,-0.8511518783221517,8.929424060838924,0.32,-0.32,-0.6044444444444445,-0.014398479026895741,-0.1695019012163803,-0.12140038024327607
1589995867.0676572,-3.8678519241106093,-0.867851924110609,8.921074037944695,0.32,-0.32,-0.6044444444444445,-0.22314905138261235,0.09143631422826543,-0.06921273715434692
1589995867.0776572,-3.8963509082028978,-0.8681754541014489,8.854596367188408,0.32,-0.32,-0.6044444444444445,-0.46030682373188825,0.5739034118659442,0.011403411865944135
1589995867.0876572,-3.88124193046945,-0.86,8.9224838609389,0.32,-0.32,-0.6044444444444445,-0.5314517382637479,0.617237934565937,0.05473793456593698
1589995867.0976572,-3.8889124193046944,-0.86,8.937824838609389,0.32,-0.32,-0.6044444444444445,-0.3396895173826375,0.5692973793456594,0.006797379345659368
1589995867.1076572,-3.89,-0.8525628099173553,8.95487438016529,0.329089898989899,-0.3249581267217631,-0.5829592286501378,-0.35898243801652896,0.5625,0.18592975206611573
1589995867.1176572,-3.895574448009058,-0.8555744480090582,8.937702207963767,0.3322222222222222,-0.32666666666666666,-0.5755555555555556,-0.3401596999433856,0.6321806001132289,0.3196806001132289
1589995867.1276572,-3.8865223570569585,-0.8802164644145621,8.852611785284793,0.3322222222222222,-0.32666666666666666,-0.5755555555555556,-0.22826473160599103,0.4347941948179731,0.375
1589995867.1376572,-3.8895976204246883,-0.8897988102123441,8.890402379575313,0.3322222222222222,-0.32666666666666666,-0.5755555555555556,-0.19001487234569941,0.4987425638271503,0.19378718086424854
1589995867.1476572,-3.87227009832273,-0.881135049161365,8.90772990167727,0.3322222222222222,-0.32666666666666666,-0.5755555555555556,-0.29831188548293813,0.44459405725853096,0.4645297137073453
1589995867.1576571,-3.888962039809759,-0.8310379601902412,8.944810199048792,0.32,-0.3144444444444445,-0.6133333333333333,-0.3125,0.625,0.07547450237801656
1589995867.1676571,-3.88,-0.839788481532614,8.897673296858756,0.32,-0.3144444444444445,-0.6133333333333333,-0.3191099521058104,0.6183900478941896,0.19014398084232415
1589995867.1776571,-3.88,-0.8326396345724463,8.81903598029691,0.32,-0.3144444444444445,-0.6133333333333333,-0.5425114196110514,0.3949885803889486,0.27950456784442057
1589995867.187657,-3.89,-0.8702434472530951,8.86097378901238,0.32,-0.3144444444444445,-0.6133333333333333,-0.5015215453318448,0.6265215453318448,0.3079353640044657
1589995867.197657,-3.89,-0.8772324329728559,8.888929731891423,0.32,-0.3144444444444445,-0.6133333333333333,-0.5452027060803493,0.6702027060803493,0.17689188175895224
1589995867.207657,-3.8804923815957366,-0.8990152368085267,8.976060947234107,0.3379588347636085,-0.32606486693854403,-0.5996001067493975,-0.6813452300532913,0.865767845079937,0.125
1589995867.217657,-3.8953855766135903,-0.9,8.987692788306795,0.3388888888888889,-0.32666666666666666,-0.5988888888888889,-0.5913401461650605,1.067319707669879,0.2692397807524093
1589995867.227657,-3.8808034694089537,-0.86,8.937231224680586,0.3388888888888889,-0.32666666666666666,-0.5988888888888889,-0.8699783161940376,1.4475433676119247,0.462608419029812
1589995867.237657,-3.888064817700218,-0.86,9.002583359301962,0.3388888888888889,-0.32666666666666666,-0.5988888888888889,-0.8245948893736367,1.5383102212527267,0.6895255531318167
1589995867.247657,-3.898606557377049,-0.8686065573770492,9.002786885245902,0.3388888888888889,-0.32666666666666666,-0.5988888888888889,-0.7049180327868853,1.2397540983606556,1.0189549180327868
1589995867.257657,-3.8766771832407874,-0.8078058219754333,8.922257277469292,0.33370604072017496,-0.3171647783573579,-0.6032079290294838,-0.3473755889281508,0.6530187826013798,1.9371056284704693
1589995867.267657,-3.872374496840261,-0.8184170021064926,8.85366800842597,0.3322222222222222,-0.3144444444444445,-0.6044444444444445,-0.389840605251632,0.21042505266231465,3.5463311051786346
1589995867.277657,-3.898617848874799,-0.8009214340834672,8.783685736333869,0.3322222222222222,-0.3144444444444445,-0.6044444444444445,-0.5538615554674954,-0.22696414791332098,4.749151406761633
1589995867.287657,-3.8073272699769314,-0.6223766214120939,8.833648980826684,0.3322222222222222,-0.3144444444444445,-0.6044444444444445,-0.47577690693189123,-0.8212523163029913,5.957655381386378
1589995867.297657,-3.41871648451386,-0.34479748893847145,9.008127292667247,0.3322222222222222,-0.3144444444444445,-0.6044444444444445,-1.2192924403433802,-0.4247106984835306,6.106358488068676
1589995867.307657,-2.49,0.22,9.17,0.3244444444444444,-0.32666666666666666,-0.59,-3.375,1.4375,4.625
1589995867.317657,-2.2208725494401786,0.2988353138003518,9.208058427351894,0.3244444444444444,-0.32666666666666666,-0.59,-3.4599518467676202,1.9472110806057228,2.2973193985672
1589995867.327657,-1.2885327122591574,-0.6636434469616768,9.495033876773238,0.3244444444444444,-0.32666666666666666,-0.59,-1.5397853588820665,3.0481658903239466,-11.404938598348506
1589995867.337657,-1.3923563509890589,-1.3677291500615898,8.476313310629665,0.3244444444444444,-0.32666666666666666,-0.59,8.352406528512427,5.2190919136294465,-22.875683827258893
1589995867.347657,-1.724861827921866,-1.2077729143529103,8.45195074149082,0.3244444444444444,-0.32666666666666666,-0.59,6.792937871562031,8.317595707846083,-26.386918566668843
1589995867.357657,-1.9,-1.11,8.74,0.32,-0.32,-0.62,-0.1875,0.3125,-30.25
1589995867.367657,-2.02155543825252,-1.0910069627730439,8.83116657868939,0.32,-0.32,-0.62,-0.49613685493803883,0.21753481386521883,-31.080945378679335
1589995867.377657,-2.233229166666667,-1.0136979166666666,8.708802083333333,0.32,-0.32,-0.62,1.149739583333333,2.253580729166667,-33.222981770833336
1589995867.387657,-2.3363790760869563,-0.981968410326087,8.762758152173914,0.32,-0.32,-0.62,2.350394870923913,3.5255923063858696,-35.18112049932065
1589995867.397657,-2.4067609657206046,-1.0111739771470696,9.02042434574272,0.32,-0.32,-0.62,0.9624291605234057,2.5396038748617764,-37.413454893107264
1589995867.407657,-2.4486105770293265,-1.0486105770293266,9.158679086830649,0.3287421207589609,-0.31046314099022443,-0.62,0.7860201330416142,2.294704026608323,-39.54684495789962
1589995867.417657,-2.4589786214454206,-1.0510213785545794,8.98353126915433,0.3322222222222222,-0.30666666666666664,-0.62,1.8061163840338788,3.3835114879548285,-41.95160339159345
1589995867.427657,-2.4356072735377703,-1.07439272646223,8.835512732405878,0.3322222222222222,-0.30666666666666664,-0.62,1.6600454596110625,3.578272720518583,-43.704454484667245
1589995867.4376569,-2.478177476878438,-1.08,8.742187027745874,0.3322222222222222,-0.30666666666666664,-0.62,1.504556307803905,3.986331076588285,-45.93165538294143
1589995867.4476569,-2.5020601454899905,-1.102060145489991,8.747353381829997,0.3322222222222222,-0.30666666666666664,-0.62,1.5,3.8621240906875576,-47.74642818462427
1589995867.4576569,-2.5904323596056096,-1.1102882397370732,8.800576479474147,0.3388888888888889,-0.3144444444444445,-0.5988888888888889,1.5,3.5634007491783533,-50.97443071631249
1589995867.4676569,-2.6161185620674874,-1.1274123747116582,8.834824749423316,0.3388888888888889,-0.3144444444444445,-0.5988888888888889,1.5,3.616913670973932,-53.16846050993121
1589995867.4776568,-2.6527507703628754,-1.1709384629535942,8.790873844455687,0.3388888888888889,-0.3144444444444445,-0.5988888888888889,1.7558653934599642,3.8296923147679713,-55.59809622637171
1589995867.4876568,-2.695458165256994,-1.1888645413142485,8.886374495770983,0.3388888888888889,-0.3144444444444445,-0.5988888888888889,1.7570966167859468,4.096613532856213,-58.44484547820429
1589995867.4976568,-2.715236576432906,-1.2052365764329058,8.945709729298718,0.3388888888888889,-0.3144444444444445,-0.5988888888888889,1.8452286027056612,4.283714337842769,-60.14668617301636
1589995867.5076568,-2.727721748444774,-1.2427825155522596,9.008226012441808,0.3449642263694915,-0.311659914765835,-0.5988888888888889,2.008695361100812,4.480217216660487,-62.026845672146
1589995867.5176568,-2.72,-1.329638153795023,9.031447384819907,0.3655555555555556,-0.3022222222222222,-0.5988888888888889,2.4005961530472355,4.715357691828341,-64.92691153254954
1589995867.5276568,-2.733873837114412,-1.374684592786029,8.879009303084707,0.3655555555555556,-0.3022222222222222,-0.5988888888888889,2.3457212950873183,4.942567222947609,-67.64245093438878
1589995867.5376568,-2.753358159742426,-1.376641840257574,8.776567361030295,0.3655555555555556,-0.3022222222222222,-0.5988888888888889,2.1665115016098375,5.208721245975406,-69.69006022343768
1589995867.5476568,-2.765961857180602,-1.37,8.75,0.3655555555555556,-0.3022222222222222,-0.5988888888888889,2.162261607378762,5.387023214757524,-71.71641786563544
1589995867.5576568,-2.7781647173489277,-1.3944941520467835,8.79082358674464,0.3973072341347196,-0.27409930690924844,-0.5916313623565085,1.9833820662768031,5.182352582846004,-74.20691398635478
1589995867.5676568,-2.7356242969628797,-1.4532508436445444,8.84437570303712,0.4044444444444445,-0.2677777777777778,-0.59,1.7710911136107987,5.0140607424071995,-76.33752812148481
1589995867.5776567,-2.742616730860193,-1.4915418271504832,8.81214980741942,0.4044444444444445,-0.2677777777777778,-0.59,2.1442728393810393,5.197136419690519,-77.5876093823907
1589995867.5876567,-2.75,-1.5667674484317604,8.81838372421588,0.4044444444444445,-0.2677777777777778,-0.59,2.7297965526985024,5.711646121785815,-79.20754008900819
1589995867.5976567,-2.782094453116077,-1.6156755624928618,8.881351124985724,0.4044444444444445,-0.2677777777777778,-0.59,2.8348819336049034,5.9953541991852894,-80.6680697262725
1589995867.6076567,-2.816370585320971,-1.6709264633024277,8.942741170641941,0.4153581679917585,-0.25231666941908293,-0.6090990162077995,2.8636580791280344,5.806709604359828,-82.63126813645694
1589995867.6176567,-2.7641520024271844,-1.6986159991909384,8.93138400080906,0.4177777777777778,-0.2488888888888889,-0.6133333333333333,2.8168250025283172,5.808174997471683,-84.33369993932038
1589995867.6276567,-2.700140084355975,-1.7224474683665094,8.840210126533963,0.4177777777777778,-0.2488888888888889,-0.6133333333333333,2.7657344409031053,5.952796677290684,-85.74693565471306
1589995867.6376567,-2.7397790186527264,-1.7812391588451943,8.792920280384935,0.4177777777777778,-0.2488888888888889,-0.6133333333333333,2.963496495188309,6.320244742782464,-87.57522721872401
1589995867.6476567,-2.75,-1.8141485684471401,8.761021717863432,0.4177777777777778,-0.2488888888888889,-0.6133333333333333,2.8792571577642994,6.344814289441075,-88.62751418509097
1589995867.6576567,-2.75,-1.8452487760446317,8.731749592014877,0.4216657600330605,-0.24713929687401168,-0.6133333333333333,2.7445325249535086,6.317967475046491,-89.64215435120877
1589995867.6676567,-2.74651960021778,-1.9104411993466592,8.76392159912888,0.4622222222222222,-0.2288888888888889,-0.6133333333333333,2.774509994555495,6.4402574959166214,-91.58180247141635
1589995867.6776567,-2.7365789794673714,-1.9368420410652571,8.7660528562716,0.4622222222222222,-0.2288888888888889,-0.6133333333333333,2.9161186216710715,6.455593108355357,-92.95065307989428
1589995867.6876566,-2.774565794026064,-2.0391315880521277,8.801703955714451,0.4622222222222222,-0.2288888888888889,-0.6133333333333333,2.875,6.11073189366855,-94.86595404220967
1589995867.6976566,-2.762635853239139,-2.1042051834510764,8.84368207338043,0.4622222222222222,-0.2288888888888889,-0.6133333333333333,3.0887823965692265,6.490064793138453,-95.87160366902152
1589995867.7076566,-2.7392117440239243,-2.141576511952151,8.876970639940188,0.48679547194550526,-0.20791172449096432,-0.6325124550685786,3.2886398997757076,6.721213299925236,-96.86176599850472
1589995867.7176566,-2.7517783759193266,-2.196297293198878,8.914518917279551,0.5077777777777778,-0.19,-0.6488888888888888,3.4203716164985973,6.976858082492987,-98.11807424747896
1589995867.7276566,-2.7305618968470684,-2.2394381031529313,8.831685690541205,0.5077777777777778,-0.19,-0.6488888888888888,3.511095257882329,7.172892886823494,-98.8901668051763
1589995867.7376566,-2.681627384960718,-2.2883726150392816,8.791279461279462,0.5077777777777778,-0.19,-0.6488888888888888,3.4738355780022445,7.382996632996633,-99.91498316498317
1589995867.7476566,-2.6535278010794383,-2.3,8.80549073297352,0.5077777777777778,-0.19,-0.6488888888888888,3.2315975134929804,7.300231675661987,-100.63362205409854
1589995867.7576566,-2.611982255914695,-2.3504319393535487,8.798792902365879,0.5189848754118997,-0.1638501055203821,-0.6563602873116369,3.167566540319893,7.432655260746418,-101.31519962095967
1589995867.7676566,-2.59,-2.4263800737151997,8.79,0.5277777777777778,-0.14333333333333334,-0.6622222222222223,2.7497739864160042,6.988348709984005,-102.19915129001599
1589995867.7776566,-2.59,-2.4559177540529853,8.678575721629102,0.5277777777777778,-0.14333333333333334,-0.6622222222222223,2.910700869909055,7.048457888493475,-102.98467279557137
1589995867.7876565,-2.5823097679438747,-2.506141392336751,8.680760928224501,0.5277777777777778,-0.14333333333333334,-0.6622222222222223,3.57676740420939,7.461447652455478,-103.65370345385861
1589995867.7976565,-2.560405246550764,-2.564088195260781,8.78307507888387,0.5277777777777778,-0.14333333333333334,-0.6622222222222223,3.5356823841489824,7.3787991864134135,-104.3942192430242
1589995867.8076565,-2.530410870960839,-2.622785505385548,8.873607247307227,0.5299086953420359,-0.1309029808751615,-0.6600913046579642,3.412386760824595,7.38727352164919,-105.29966028247378
1589995867.8176565,-2.4960813196177494,-2.6847967009556273,8.873918680382252,0.5344444444444445,-0.10444444444444444,-0.6555555555555556,4.0599587619453406,7.986483504778136,-106.63343401911254
1589995867.8276565,-2.483440765298791,-2.7196777041036273,8.781611479481864,0.5344444444444445,-0.10444444444444444,-0.6555555555555556,4.209004783117443,8.144490433765114,-107.75740433765114
1589995867.8376565,-2.4541318472482603,-2.7688022291276098,8.762335190939675,0.5344444444444445,-0.10444444444444444,-0.6555555555555556,4.147081011325406,8.106662022650813,-108.79378483011891
1589995867.8476565,-2.3843306706460674,-2.79,8.773814518960673,0.5344444444444445,-0.10444444444444444,-0.6555555555555556,3.738407435042135,8.0625,-110.05282215589888
1589995867.8576565,-2.328992879594586,-2.811007120405414,8.780503560202707,0.5484491913813871,-0.07818554393767685,-0.6666426468806352,3.6641181281672974,8.259441753800758,-111.21582526140227
1589995867.8676565,-2.2955029564067724,-2.887988174372911,8.688520694847405,0.5611111111111111,-0.054444444444444434,-0.6766666666666666,4.084319567373021,8.482803261228836,-112.74667174703441
1589995867.8776565,-2.2369715393969245,-2.9046971539396926,8.69242276848246,0.5611111111111111,-0.054444444444444434,-0.6766666666666666,3.8892149091077006,8.234857696984623,-113.82099854541536
1589995867.8876565,-2.1761390101892286,-2.927721979621543,8.882470887918487,0.5611111111111111,-0.054444444444444434,-0.6766666666666666,3.4517376273653566,8.057754124211549,-114.95728711790393
1589995867.8976564,-2.0798362462604314,-2.8547850732168163,8.619099354432374,0.5611111111111111,-0.054444444444444434,-0.6766666666666666,4.345988820658164,9.252302786962684,-115.68775586521808
1589995867.9076564,-2.047206541809549,-2.9565286204167767,8.852693220786072,0.557177232626982,-0.019695184501304253,-0.6851900700489463,4.552377341070957,8.789155236085465,-116.9189033236613
1589995867.9176564,-2.056600850056491,-3.0941502125141227,9.232253187711843,0.5544444444444444,0.004444444444444445,-0.6911111111111111,0.5007498520471296,5.384146177435842,-119.11338569968257
1589995867.9276564,-2.0466465160674514,-3.103293032134903,8.711390391345848,0.5544444444444444,0.004444444444444445,-0.6911111111111111,1.9673281896277444,7.197880209990455,-119.00340041361757
1589995867.9376564,-1.858964096527369,-2.984632688346086,8.754614111241906,0.5544444444444444,0.004444444444444445,-0.6911111111111111,4.8702924974249555,10.168786096600941,-117.76588940185403
1589995867.9476564,-1.7509424740597475,-2.9209424740597476,8.798638300096703,0.5544444444444444,0.004444444444444445,-0.6911111111111111,4.256540602702491,9.69109537126578,-117.50883569431014
1589995867.9576564,-1.83811921005386,-3.030825613405147,8.635940394973069,0.5626439789879646,0.049226517720593124,-0.7043565130660283,2.557339916217834,7.967818671454219,-117.01340365050868
1589995867.9676564,-1.8610757864777303,-3.136155266902837,8.798007387894753,0.5688888888888889,0.08333333333333333,-0.7144444444444444,2.125,7.5625,-116.5
1589995867.9776564,-1.7634788630218294,-3.1644201894963615,8.675327441799116,0.5688888888888889,0.08333333333333333,-0.7144444444444444,2.575630921761305,8.058194013937435,-114.427097759898
1589995867.9876564,-1.6945077531607173,-3.1629015506321436,8.656787594942852,0.5688888888888889,0.08333333333333333,-0.7144444444444444,3.01619185129462,8.959844936785654,-112.338406052076
1589995867.9976563,-1.6563410063711856,-3.2132327356648323,8.76280647770085,0.5688888888888889,0.08333333333333333,-0.7144444444444444,3.494671775450224,8.47368927155453,-110.77741902873937
1589995868.0076563,-1.64,-3.272687154061505,8.91074861624602,0.5814928633675027,0.09190403597879075,-0.7305775317770702,2.984308550424209,8.93006299019084,-109.18337278011668
1589995868.0176563,-1.4551090330122134,-3.1019025353702285,8.736060300697327,0.5966666666666667,0.10222222222222224,-0.75,2.5577436615744285,8.350376879358297,-106.76307993067032
1589995868.0276563,-1.4417301449407893,-3.1685684239403775,8.641081340587993,0.5966666666666667,0.10222222222222224,-0.75,2.237834918385076,8.938014379772302,-104.6258372959627
1589995868.0376563,-1.5080170385395537,-3.3220113590263693,8.713965922920892,0.5966666666666667,0.10222222222222224,-0.75,1.9121805273833672,9.376419878296145,-102.47610040567952
1589995868.0476563,-1.49,-3.3785847864543848,8.745427680903042,0.5966666666666667,0.10222222222222224,-0.75,1.7641910959481089,8.217923932271923,-100.31230519754023
1589995868.0576563,-1.4856353764695325,-3.47745849412187,8.709447635286727,0.6020012065372381,0.09300801699123516,-0.7553345398705714,1.078384411738311,8.052143161626134,-97.95200742618684
1589995868.0676563,-1.455390284757119,-3.4876951423785596,8.737676716917923,0.6088888888888889,0.0811111111111111,-0.7622222222222222,0.7452365996649917,7.658574120603015,-94.70712939698493
1589995868.0776563,-1.3959718700792656,-3.417102671541808,8.647915610237796,0.6088888888888889,0.0811111111111111,-0.7622222222222222,0.9001758120045904,7.71775667885452,-91.5415259948224
1589995868.0876563,-1.3651268638559662,-3.4141119530082373,8.535888046991763,0.6088888888888889,0.0811111111111111,-0.7622222222222222,0.8797573945987279,7.564085798199576,-88.72873075318897
1589995868.0976562,-1.3564389364320675,-3.474927444975529,8.59258765276625,0.6088888888888889,0.0811111111111111,-0.7622222222222222,0.3981635851054695,7.232920232405049,-85.79387110392398
1589995868.1076562,-1.3413100212266786,-3.5417249469333036,8.712205116746732,0.6190271974577639,0.09414607927109322,-0.7878093819436687,0.14656183666629424,6.614219081666853,-81.87062898000224
1589995868.1176562,-1.3407444369085684,-3.639838839905694,8.671488873817136,0.6322222222222222,0.1111111111111111,-0.8211111111111111,0.4328472693214482,6.068159981267965,-77.802570810322
1589995868.1276562,-1.3041208582550081,-3.6410125320421534,8.604795879616443,0.6322222222222222,0.1111111111111111,-0.8211111111111111,0.5388540776606855,5.422291844678629,-73.58526179625937
1589995868.1376562,-1.3126317167198134,-3.7209478368473654,8.65789515015944,0.6322222222222222,0.1111111111111111,-0.8211111111111111,0.828948229498834,4.964472478701633,-69.4355144329161
1589995868.1476562,-1.30804327753021,-3.7635324581476572,8.682554096912764,0.6322222222222222,0.1111111111111111,-0.8211111111111111,1.0747295154361878,4.709577863422859,-65.60459823758481
1589995868.1576562,-1.2837011516563148,-3.7688965450310556,8.685195393374741,0.5797318193581781,0.053021731941568895,-0.7798186608580631,0.8331897806677018,4.1919541763716355,-61.12859286037785
1589995868.1676562,-1.2544955892804883,-3.703486767841465,8.674495589280488,0.5488888888888889,0.01888888888888889,-0.7555555555555555,0.664850641749237,3.578844224256867,-57.07455892804883
1589995868.1776562,-1.24,-3.691904934782045,8.634476052174364,0.5488888888888889,0.01888888888888889,-0.7555555555555555,0.5678564945673313,3.414881168477556,-52.99284288048129
1589995868.1876562,-1.227894634399533,-3.776579510802569,8.662368779601634,0.5488888888888889,0.01888888888888889,-0.7555555555555555,0.7269756050087588,3.286182929994161,-49.00326834490365
1589995868.1976562,-1.2132022036670396,-3.803005509167599,8.68320220366704,0.5488888888888889,0.01888888888888889,-0.7555555555555555,0.832513772918998,3.1875,-46.036683846948435
1589995868.2076561,-1.2011672548850822,-3.7729181372127054,8.671167254885082,0.5488888888888889,0.01888888888888889,-0.7555555555555555,0.7572953430317638,3.1875,-43.66730330550056
1589995868.2176561,-1.1766310905987836,-3.8266310905987835,8.716631090598783,0.5044444444444445,0.12,-0.64,1.1041110790605995,2.6869997115453956,-37.80899798081777
1589995868.2276561,-1.1546662299377661,-3.8233311496888307,8.671335080248936,0.5044444444444445,0.12,-0.64,0.9458442515558467,2.225008188666885,-33.437663773337704
1589995868.237656,-1.1514902578558992,-3.8670194842882015,8.65425487107205,0.5044444444444445,0.12,-0.64,0.8125,2.098407055799685,-29.788737459580467
1589995868.247656,-1.1265947753242458,-3.8685516405187936,8.676086269610906,0.5044444444444445,0.12,-0.64,0.7622304074659221,1.8781781607083807,-26.707916926920674
1589995868.257656,-0.8155856366107839,-3.2819602401449934,8.262642727684641,0.5067543296581584,0.14818059960731006,-0.6219828953330313,1.0147931298142274,2.752269058676937,-22.52997918554599
1589995868.267656,-0.6761681122347016,-2.8169391262640393,8.059585914704824,0.51,0.18777777777777774,-0.5966666666666667,4.117593129221792,7.682179043926616,-17.76704454614493
1589995868.277656,-0.8379159385425413,-3.119305312847514,7.289264462247236,0.51,0.18777777777777774,-0.5966666666666667,4.879870866713569,-5.094588997571659,-16.663419422190955
1589995868.287656,-0.9659389057432786,-3.548870174704467,8.93581650800293,0.51,0.18777777777777774,-0.5966666666666667,-9.594750366147085,-5.113646171147609,-15.010114813264986
1589995868.297656,-1.07,-3.77,10.1,0.51,0.18777777777777774,-0.5966666666666667,-15.875,-0.5,-13.75
1589995868.307656,-0.9364241629148156,-3.4227028235785206,8.203223113390381,0.5137104399190329,0.22339800100049362,-0.590729962796214,-1.1399154715405952,2.463713885327529,-6.9459807984734185
1589995868.317656,-0.9480953478456273,-3.4700868893831314,7.991256438918146,0.5155555555555555,0.2411111111111111,-0.5877777777777777,3.1479935639628014,2.029488660589788,-2.0982122278944884
1589995868.327656,-1.0544306671122534,-3.7697591527708956,8.986941701142008,0.5155555555555555,0.2411111111111111,-0.5877777777777777,-0.9906253961303113,-0.5684765260380047,-0.10442499164525199
1589995868.337656,-1.1160991117344554,-3.9417725572697524,9.019860215053763,0.5155555555555555,0.2411111111111111,-0.5877777777777777,0.9281688288920056,-0.8258020687237027,3.1724111734455356
1589995868.347656,-1.0807081740396869,-3.815693913465623,8.64640208750531,0.5155555555555555,0.2411111111111111,-0.5877777777777777,0.8048260917935959,-0.8423043469466189,6.068639126565123
1589995868.357656,-1.1119496624259404,-3.823899324851881,8.807264042621597,0.5225506616247442,0.25260307108192104,-0.594273233413453,-0.019261240986542916,-1.2936320213107977,8.689661507371515
1589995868.367656,-1.1712389687258378,-3.9280974218145945,9.004292265443784,0.5311111111111111,0.26666666666666666,-0.6022222222222222,0.875,-1.6497970378862612,11.813051563708107
1589995868.377656,-1.1345239782082914,-3.778811716707791,8.66595558595754,0.5311111111111111,0.26666666666666666,-0.6022222222222222,0.43007322942369236,-1.880950272396355,14.846680856521633
1589995868.387656,-1.1261058931094672,-3.755046962014795,8.58,0.5311111111111111,0.26666666666666666,-0.6022222222222222,0.3788961848557892,-1.6941183193417007,17.18205573102818
1589995868.397656,-1.121679013140943,-3.8167160525637724,8.593432105127544,0.5311111111111111,0.26666666666666666,-0.6022222222222222,0.6861110216439061,-1.438425985570729,19.220833467534142
1589995868.407656,-1.150487122416534,-3.911461367249603,8.741948489666138,0.5413546723193782,0.27008118706942236,-0.611327609962904,-0.15396661367249603,-2.0304888712241653,21.617344992050874
1589995868.417656,-1.1006459829128394,-3.8472967389996393,8.622607797521159,0.5511111111111111,0.2733333333333333,-0.62,-0.22921638722875134,-1.866626890216999,23.396081936143755
1589995868.427656,-1.0921756130257498,-3.8443512260515,8.60652683907725,0.5511111111111111,0.2733333333333333,-0.62,-0.375,-1.8804390325643747,24.407617903889477
1589995868.437656,-1.1946586507695933,-4.014377420767236,8.881365396921627,0.5511111111111111,0.2733333333333333,-0.62,-0.34588343269004074,-2.1832331346199183,25.097641120204777
1589995868.447656,-1.1903602532838786,-3.831801266419394,8.776792557224534,0.5511111111111111,0.2733333333333333,-0.62,-0.39729810037090924,-2.424099366790303,25.77229810037091
1589995868.457656,-1.1671859223159307,-3.7410803396854115,8.717185922315931,0.5483165857660269,0.26814350054960556,-0.6144109493098316,-0.4004399276271632,-2.432631978288149,26.29192809408469
1589995868.467656,-1.1989540562325163,-3.897385140581291,8.73,0.5433333333333333,0.2588888888888889,-0.6044444444444445,-0.23692570290645298,-2.4309628514532267,26.99019427717984
1589995868.477656,-1.210822102425876,-3.9867115902964962,8.702466307277628,0.5433333333333333,0.2588888888888889,-0.6044444444444445,-0.4426381401617251,-2.4190953504043127,27.44562836927224
1589995868.4876559,-1.2143631989221442,-3.9510024059282074,8.623319603503031,0.5433333333333333,0.2588888888888889,-0.6044444444444445,-0.375,-2.27244249831585,27.974424983158503
1589995868.4976559,-1.2420579482417922,-3.816173844725377,8.591448706044805,0.5433333333333333,0.2588888888888889,-0.6044444444444445,-0.40072435302240317,-2.3639487060448063,28.490759588600813
1589995868.5076559,-1.25,-3.8435349105359604,8.754650894640394,0.5553127523718666,0.26104911199419817,-0.6060155157937602,-0.544186381699508,-2.518313618300492,29.059012549673646
1589995868.5176558,-1.242865592865593,-3.8528655928655926,8.582271058937726,0.6111111111111112,0.27111111111111114,-0.6133333333333333,-0.6868307701641035,-2.360805881639215,29.673305881639216
1589995868.5276558,-1.1439046408137317,-3.7701267217630856,8.492444161898709,0.6111111111111112,0.27111111111111114,-0.6133333333333333,-0.006148018648018672,-2.8353199830472557,30.727180016952744
1589995868.5376558,-1.1964086966317449,-3.8721362322105817,8.621362322105817,0.6111111111111112,0.27111111111111114,-0.6133333333333333,-1.082527176974203,-1.9484329822387443,31.734230079606473
1589995868.5476558,-1.2436577672637152,-3.8878859224212383,8.778859224212384,0.6111111111111112,0.27111111111111114,-0.6133333333333333,-1.23018052269911,-2.48982858323007,32.07875455296459
1589995868.5576558,-1.290206003531489,-3.9502060035314894,8.807834020011772,0.6569305473808122,0.2670790007193774,-0.6301948858805833,-1.188787522071807,-2.667525014714538,32.53930620953502
1589995868.5676558,-1.273405969602637,-3.9178019898675456,8.646316913874138,0.75,0.2588888888888889,-0.6644444444444444,-0.9618812183360801,-2.6706685283525604,33.21943096502472
1589995868.5776558,-1.3244302423730858,-3.9336075605932717,8.746392439406728,0.75,0.2588888888888889,-0.6644444444444444,-0.9549054925841071,-2.9600472537079465,33.720330775955624
1589995868.5876558,-1.3353462408140193,-3.9058078952327113,8.700923308837385,0.75,0.2588888888888889,-0.6644444444444444,-0.9665859949123798,-2.7252420152628605,34.27475798473714
1589995868.5976558,-1.3428979545626085,-3.904346931843913,8.66,0.75,0.2588888888888889,-0.6644444444444444,-1.181760180013586,-2.652168324024455,34.61020407200544
1589995868.6076558,-1.3891762822650568,-3.956941239244981,8.684470086040152,0.9151730807710265,0.2643266857867005,-0.7235804857081453,-1.3941172547188687,-2.904413726405656,34.89778980190756
1589995868.6176558,-1.4065095648726336,-3.925566954108435,8.673681732580038,1.29,0.2766666666666667,-0.8577777777777778,-1.3284239022697988,-2.6875,35.63678263455248
1589995868.6276557,-1.4108213496647155,-3.892788867785573,8.560821349664716,1.29,0.2766666666666667,-0.8577777777777778,-1.1803364471491142,-2.6752030117446415,36.16189096476607
1589995868.6376557,-1.5182230731986444,-4.018223073198644,8.67644614639729,1.29,0.2766666666666667,-0.8577777777777778,-1.636105792508473,-2.665288414983054,36.85975945244069
1589995868.6476557,-1.53,-4.03,8.674148137115134,1.29,0.2766666666666667,-0.8577777777777778,-1.481712928484797,-2.832696767878801,37.718345053939615
1589995868.6576557,-1.5402513000020235,-4.011547659996358,8.632301560002427,1.2558289999932555,0.1686863066453541,-0.8678012711130895,-1.2612434999898832,-2.9134423750075875,38.60408362503288
1589995868.6676557,-1.581902610441767,-3.9409513052208833,8.6857078313253,1.1233333333333333,-0.25,-0.9066666666666666,-1.0862826305220883,-3.0625,39.33323920682731
1589995868.6776557,-1.607588853814185,-3.931027865464538,8.698261304021983,1.1233333333333333,-0.25,-0.9066666666666666,-1.2176393273226898,-3.109930336338655,40.5518730270479
1589995868.6876557,-1.614810607405304,-3.902594696297348,8.624810607405305,1.1233333333333333,-0.25,-0.9066666666666666,-1.078716851858426,-3.2361505555752776,41.41216851858426
1589995868.6976557,-1.6011823617779612,-3.9091460720492504,8.610722554419864,1.1233333333333333,-0.25,-0.9066666666666666,-1.1258210845680285,-3.374589457715986,41.8778737959881
1589995868.7076557,-1.8015337242441118,-3.745007698103318,8.728075146591543,1.007888645024623,-0.15758443345235365,-0.8543277535733395,-1.3004696661971369,-3.4134393323942738,42.34614644413143
1589995868.7176557,-1.8246339870752741,-3.7295735290806333,8.696950980612911,0.6944444444444444,0.09333333333333334,-0.7122222222222222,-1.2440921168179055,-3.576981209610232,43.18350183513093
1589995868.7276556,-1.8050803623611924,-3.804919637638808,8.663440483148257,0.6944444444444444,0.09333333333333334,-0.7122222222222222,-1.3918806618936295,-3.594252264757452,44.85651056886811
1589995868.7376556,-1.81448830030398,-3.804015599594693,8.637716850861278,0.6944444444444444,0.09333333333333334,-0.7122222222222222,-1.6451784409831043,-3.6796265640832293,46.83168873860075
1589995868.7476556,-1.7833071400305274,-3.873149980213692,8.659057041098988,0.6944444444444444,0.09333333333333334,-0.7122222222222222,-1.4153570015263723,-3.686026626717169,48.559062129006726
1589995868.7576556,-1.8138208532722249,-3.8918480824964616,8.83286850441464,0.6797669489938817,0.11498865448990138,-0.7102973047860829,-1.5875850913257397,-4.08956915144571,49.54577660578284
1589995868.7676556,-1.915119777429112,-3.783952089028355,8.617215599372402,0.6266666666666667,0.19333333333333333,-0.7033333333333334,-1.302395548582243,-4.111901112854439,50.1264972178639
1589995868.7776556,-1.9490416188150042,-3.7703833524739983,8.678274913867007,0.6266666666666667,0.19333333333333333,-0.7033333333333334,-1.9808323763000826,-3.9422919059249795,50.55052023518755
1589995868.7876556,-1.997157346958085,-3.7285913520673666,8.59,0.6266666666666667,0.19333333333333333,-0.7033333333333334,-1.4910374680669884,-4.223112404200965,54.24920758822973
1589995868.7976556,-1.9421740484968066,-3.65978321823563,8.598696193987227,0.6266666666666667,0.19333333333333333,-0.7033333333333334,-1.6725573108676464,-4.611412196894959,57.76904629004621
1589995868.8076556,-1.9806231373611487,-3.7514572985339716,8.690623137361149,0.6238659936916959,0.18976884045609774,-0.7071524328446572,-2.0338567536650713,-4.485678376832536,61.48693518769379
1589995868.8176556,-2.0233227574944594,-3.7404565496325675,8.752377930712703,0.6144444444444445,0.17777777777777778,-0.72,-1.9851379330456083,-4.72332759827365,63.60137933045608
1589995868.8276556,-1.9618291130287169,-3.630926580845947,8.692755693874664,0.6144444444444445,0.17777777777777778,-0.72,-1.7899366954307538,-5.232927217428208,64.48856804357052
1589995868.8376555,-1.9593597268954,-3.671749146548125,8.657709556205024,0.6144444444444445,0.17777777777777778,-0.72,-1.5648101530073433,-5.0372525603556255,64.43518984699266
1589995868.8476555,-1.9595132898793957,-3.7700470317317825,8.74,0.6144444444444445,0.17777777777777778,-0.72,-1.861950402013973,-4.601942742281722,63.50696572147847
1589995868.8576555,-1.85,-3.6319394579373463,8.715818373812038,0.6113097891978568,0.16546306073761197,-0.7166414408072275,-1.5247162090813093,-4.6371216121084124,61.80777015135516
1589995868.8676555,-1.8558607373198504,-3.6498162672187275,8.62,0.5988888888888889,0.11666666666666667,-0.7033333333333334,-1.4299444123735967,-4.4375,58.10372292778087
1589995868.8776555,-1.8628124563218071,-3.77,8.607421798563161,0.5988888888888889,0.11666666666666667,-0.7033333333333334,-1.3940419450423505,-4.269041945042351,54.23290435523999
1589995868.8876555,-1.7842410896708287,-3.6956417707150964,8.610058569807038,0.5988888888888889,0.11666666666666667,-0.7033333333333334,-0.7143728717366629,-3.4821254256526672,47.712176503972756
1589995868.8976555,-2.6652995025243653,-4.728417324727682,7.877229486065134,0.5988888888888889,0.11666666666666667,-0.7033333333333334,-7.000484299003199,14.569563368039503,39.23250397610637
1589995868.9076555,-6.644505205925324,-9.599647698481682,4.347914485972666,0.5988888888888889,0.11666666666666667,-0.7033333333333334,-31.240285123814104,86.56177181772789,26.918685157102434
1589995868.9176555,-2.2503635709824557,-0.2238760716921854,1.5325576773851657,0.5344444444444445,0.12222222222222222,-0.6111111111111112,-25.75901002138653,0.18474269924484688,-138.36615794802884
1589995868.9276555,-1.5351635065632916,-0.6225992170108237,-0.2350545021877639,0.5344444444444445,0.12222222222222222,-0.6111111111111112,8.86259787364704,-65.41525533507331,-173.56116383280877
1589995868.9376554,-0.6211917408779257,-0.49926928835999684,-0.0033726850027582973,0.5344444444444445,0.12222222222222222,-0.6111111111111112,5.434548624793128,-8.905143234297423,-159.47649735991803
1589995868.9476554,0.020067775238395424,-0.11583576325951606,0.03629285207660178,0.5344444444444445,0.12222222222222222,-0.6111111111111112,8.409463905745135,-10.020736464654425,-151.66734474741904
1589995868.9576554,-0.1648961379544554,-0.15348961379544554,-0.08778635171594061,0.535413781609846,0.1367622797032453,-0.612274315709593,9.041988189347773,-5.227373922230817,-138.28497797294492
1589995868.9676554,-0.32316265117068843,-0.16931626511706885,-0.032393072090259045,0.5398100736436303,0.20270666021000908,-0.6175498661501341,6.964740203384714,-3.990916787728996,-130.22327745599307
1589995868.9776554,-0.4825827005787713,0.5961779854510698,0.417892529071311,0.54,0.20555555555555555,-0.6177777777777778,17.447277827926158,10.731412281633304,-117.11255951432769
1589995868.9876554,-0.8611899325651781,2.6228402272606592,0.19518239260871878,0.54,0.20555555555555555,-0.6177777777777778,63.613233198817674,60.28441764456008,-112.05518349882298
1589995868.9976554,-0.45805480067836785,-0.12746940193293976,0.15607220939498578,0.54,0.20555555555555555,-0.6177777777777778,38.75337396048303,31.695246572403505,-85.27624844200159
1589995869.0076554,0.30508579225652377,0.8423496503496503,6.35906191369606,0.5348912767449353,0.2146974813804082,-0.6183155381204162,-3.057786116322701,-7.853624424356132,-67.54560591847178
1589995869.0176554,3.61,-0.09,19.7,0.5188888888888888,0.2433333333333333,-0.62,-47.875,-32.0625,-57.3125
1589995869.0276554,2.5011944773374317,-0.6835370738958453,15.437621123176537,0.5188888888888888,0.2433333333333333,-0.62,-20.990542566324862,-19.955322050338868,-51.85000220452999
1589995869.0376554,0.04504274277443576,-1.6694373332127188,5.471862589895517,0.5188888888888888,0.2433333333333333,-0.62,32.99454690397576,8.284321430186802,-36.460047378895474
1589995869.0476553,-0.47761059247055954,-1.654128988956007,5.3571297821709685,0.5188888888888888,0.2433333333333333,-0.62,15.0533513332113,9.937080511318566,-26.99893602416255
1589995869.0576553,-1.0673339340885686,-2.96747219361483,11.427748712667354,0.5190518652019681,0.24512607277720558,-0.6209778578784758,-27.498384397528323,-2.944187693099897,-21.199898622554066
1589995869.0676553,-1.0795900081455336,-3.1949171870757533,11.727168069508553,0.52,0.25555555555555554,-0.6266666666666667,-20.861627749117567,-2.8898486288351886,-11.135487374423025
1589995869.0776553,-0.9498013702687227,-2.509106166209252,8.346855489959918,0.52,0.25555555555555554,-0.6266666666666667,17.31166949671254,4.290766234920134,1.1189939680533894
1589995869.0876553,-0.8763681304571135,-2.1945769131997945,6.47692218798151,0.52,0.25555555555555554,-0.6266666666666667,20.190593701849,9.715704449152541,8.78980081535696
1589995869.0976553,-1.0524382678506263,-3.1049470867291085,10.307491181121518,0.52,0.25555555555555554,-0.6266666666666667,-13.96988910513725,-7.032315614483234,11.263622379678061
1589995869.1076553,-1.1470036123567513,-3.092496263079223,9.7384485550573,0.5189756684936058,0.2579456624038089,-0.6232522283120191,-7.384509684853015,-3.688297988290982,17.52737294469357
1589995869.1176553,-0.8,-2.28,6.48,0.5133333333333333,0.27111111111111114,-0.6044444444444445,12.875,-0.25,23.875
1589995869.1276553,-1.074855186940495,-3.0129471651746536,9.25353870458136,0.5133333333333333,0.27111111111111114,-0.6044444444444445,2.047371423556257,0.7911181323503598,27.102466210286117
1589995869.1376553,-1.1571288326100875,-3.12382822318655,9.240294515188163,0.5133333333333333,0.27111111111111114,-0.6044444444444445,-7.076763356334922,-5.895244955063907,29.389033636859452
1589995869.1476552,-1.1039604295574657,-2.9422971168494105,8.008356811043614,0.5133333333333333,0.27111111111111114,-0.6044444444444445,0.47450325365330714,-0.9011150345112938,36.25136234977713
1589995869.1576552,-1.1761923948627548,-3.1271493326617983,8.82192394862755,0.513650633761437,0.2717457119673186,-0.6051848121100198,-3.2976580206497106,-3.5476265424326368,38.63085494837573
1589995869.1676552,-1.133886412235874,-2.931419122177522,8.237903664238338,0.52,0.28444444444444444,-0.62,-1.2734723279330216,-3.3691319180167447,43.320686546337576
1589995869.1776552,-1.2554999818781487,-3.1518437171541445,8.876374904860281,0.52,0.28444444444444444,-0.62,0.43671849516146555,-3.796679623790366,46.26601518611141
1589995869.1876552,-1.2407851472272367,-3.1509555697897866,8.714181369980007,0.52,0.28444444444444444,-0.62,-2.5663420291542924,-3.8804397406781965,50.3890749044042
1589995869.1976552,-1.110524854907898,-3.1998031794095385,8.33154176129195,0.52,0.28444444444444444,-0.62,-0.6327908150391117,-3.6260251072419885,53.23851879888973
1589995869.2076552,-1.6025058657907085,-4.5383497575473175,8.102153918348193,0.5217800719536994,0.2839499800128613,-0.6231645723621322,-2.0611899734084154,-3.7709408728296574,55.79875449710621
1589995869.2176552,-5.552520510483136,-19.33153144940748,4.106762382254634,0.54,0.2788888888888889,-0.6555555555555556,-3.780917654208447,-3.8618391066545126,53.34037906411425
1589995869.2276552,-2.512800980741424,-8.320348079381379,7.923439720027662,0.54,0.2788888888888889,-0.6555555555555556,-26.052624478719167,9.556974161235566,-65.27124808776378
1589995869.2376552,1.712682571775172,-1.2743687828548322,13.03486911982747,0.54,0.2788888888888889,-0.6555555555555556,7.756284539695377,-11.849497910769646,-142.10882531338456
1589995869.2476552,0.014643550853411583,-0.22353432243666574,3.781474149687978,0.54,0.2788888888888889,-0.6555555555555556,54.5836906434682,21.316358949456543,-125.2844670826962
1589995869.2576551,0.4597269689135507,-1.3695176240620468,5.463096664354625,0.5413874351051979,0.2793844014264596,-0.6555555555555556,25.225327495428463,4.643230972949114,-115.57849840784412
1589995869.2676551,-0.36,-2.59,10.09,0.5555555555555556,0.28444444444444444,-0.6555555555555556,-28.0,1.0,-101.0625
1589995869.2776551,-0.7113642129204392,-2.7993233608887724,9.918055810698508,0.5555555555555556,0.28444444444444444,-0.6555555555555556,-22.907087871232996,9.784105323010978,-89.24133698552247
1589995869.287655,-0.6675194208106537,-2.478135073719812,7.241195370712889,0.5555555555555556,0.28444444444444444,-0.6555555555555556,17.580844078634463,9.763224647254663,-71.27189134915183
1589995869.297655,-1.0445351966104215,-2.9127736564335094,8.485665204787036,0.5555555555555556,0.28444444444444444,-0.6555555555555556,1.3602328476919645,4.926585148294061,-64.21587657028172
1589995869.307655,-1.150538467256374,-4.091280606556158,9.071800936594068,0.5555555555555556,0.28444444444444444,-0.6555555555555556,-4.914225451572141,0.2889420575336361,-61.098133315988996
1589995869.317655,-4.339932245922209,-15.782884470610945,7.33080706495512,0.5366666666666666,0.3055555555555556,-0.6788888888888889,5.629683428240517,6.072055062252678,-55.40451211273043
1589995869.327655,-1.4981229611041407,-7.710850690087829,8.917686323713928,0.5366666666666666,0.3055555555555556,-0.6788888888888889,0.4176756587202002,3.5419542032622333,-83.33682559598495
1589995869.337655,0.10778507227767886,-1.7506239903905894,8.977442115727126,0.5366666666666666,0.3055555555555556,-0.6788888888888889,8.201351064490742,11.428624497784037,-125.59339793107733
1589995869.347655,-0.9765188627060516,-2.861463436220821,10.042771766788361,0.5366666666666666,0.3055555555555556,-0.6788888888888889,5.57982354242726,8.712444684146476,-121.38179140391637
1589995869.357655,-0.8276990263771209,-2.6678717518677444,8.657214610877567,0.5364110029307911,0.3060937949995039,-0.6787812410000992,-2.945937520419943,7.623486201563895,-112.49178573762279
1589995869.367655,-0.6541203633116246,-3.2616934939339157,8.44709307137723,0.5171244848124027,0.34669699103821644,-0.6706606017923568,5.847192121713752,7.509289712705017,-102.44249471804143
1589995869.377655,-0.4945044465381345,-6.881989107705035,8.539651400602063,0.5155555555555555,0.35,-0.67,1.2863550451547672,7.107740940322173,-99.7250083300779
1589995869.387655,-0.3460239558784227,-4.396507932651425,8.470241502466047,0.5155555555555555,0.35,-0.67,4.158882322213854,7.805719891153818,-114.64380056609733
1589995869.397655,-0.4688780812092161,-3.1556729238466787,8.312146568464513,0.5155555555555555,0.35,-0.67,5.877205393537552,9.77003223351586,-131.34675412431554
1589995869.407655,-0.5936189009989328,-3.309764524763388,9.18533230699253,0.5155555555555555,0.35,-0.67,3.9969209775896153,9.586589851472157,-132.0346630569794
1589995869.417655,-0.28595684141039357,-4.824662311351893,8.731866791104231,0.4888888888888889,0.3911111111111111,-0.6766666666666666,4.461948851608204,9.222502333204343,-125.258618629214
1589995869.427655,-0.06841441696113074,-5.448357314487632,8.658111095406362,0.4888888888888889,0.3911111111111111,-0.6766666666666666,3.818975265017668,8.90891519434629,-125.06818727915194
1589995869.437655,-0.10398445229681978,-4.849595053003534,8.438762544169611,0.4888888888888889,0.3911111111111111,-0.6766666666666666,4.374757067137809,9.31648851590106,-129.84791077738515
1589995869.447655,-0.21221858638743457,-4.026688481675393,8.81785994764398,0.4888888888888889,0.3911111111111111,-0.6766666666666666,5.044175392670157,10.338350785340314,-138.7592032068063
1589995869.457655,-0.05794571996669101,-4.640079023843108,8.731573339224717,0.4888888888888889,0.3911111111111111,-0.6766666666666666,4.567416685077239,10.14155358326394,-138.54905957378108
1589995869.467655,-10.17235842676633,-19.70506424630717,8.109484961736964,0.45956409800083053,0.4302108322951889,-0.6872561744873544,3.4710602420359495,10.166599928812955,-136.90856024203595
1589995869.477655,-4.0857081414457,-11.056829644356982,7.2631194335679945,0.4488888888888889,0.4444444444444444,-0.6911111111111111,-5.110858219553265,8.066221521170194,-74.29996221419731
1589995869.487655,2.09120562284338,-2.6594655056622125,5.576544545054538,0.4488888888888889,0.4444444444444444,-0.6911111111111111,11.373601815613348,-12.731509518075079,57.45466756212223
1589995869.497655,-0.045720339964336,-2.640038906000324,7.995156202959635,0.4488888888888889,0.4444444444444444,-0.6911111111111111,15.866002987425025,3.841808318473401,24.00449126930826
1589995869.507655,0.20398777792224682,-3.8101579768560656,10.195180080613705,0.4488888888888889,0.4444444444444444,-0.6911111111111111,-8.786759686646729,-1.6242889416200752,-6.847179332986606
1589995869.517655,0.22129139685476412,-4.617979648473636,9.523013876040704,0.41502209887963815,0.45508829273306606,-0.6543414533867817,-9.461921831637373,2.1668015726179464,-17.8377428307123
1589995869.527655,-1.9326003124839037,-7.81814999227375,8.685411465755541,0.41,0.4566666666666666,-0.6488888888888888,4.569000781209759,2.156311702693886,-27.592412392905587
1589995869.5376549,0.6959035420565565,-4.426299812853046,9.03107772607867,0.41,0.4566666666666666,-0.6488888888888888,-2.00225885514139,1.6612167985852377,-15.530100183713063
1589995869.5476549,-0.45189422385555644,-4.044505472557322,8.090744986817928,0.41,0.4566666666666666,-0.6488888888888888,2.402507589678038,-0.7988335863226013,6.9760201126468
1589995869.5576549,-0.08329711592234562,-4.538760685467764,8.78605316769194,0.41,0.4566666666666666,-0.6488888888888888,-0.7389450347527364,-0.6941184988415754,-1.348829342094751
1589995869.5676548,-0.1678468624064479,-4.5927006972430116,8.580802788972047,0.43,0.4688888888888889,-0.6766666666666666,-0.03877614661293417,-0.07937935776882236,0.045620642231177636
1589995869.5776548,-0.09035801570381155,-4.610716031407623,8.646419842961885,0.43,0.4688888888888889,-0.6766666666666666,-0.6673616166606001,-0.1897375981488222,-0.0625
1589995869.5876548,-0.09890202282743814,-4.6354898858628095,8.556587863035372,0.43,0.4688888888888889,-0.6766666666666666,-0.11813764267148831,-0.25,-0.055637642671488304
1589995869.5976548,-0.09106471903247754,-4.67574112387009,8.612484344409113,0.43,0.4688888888888889,-0.6766666666666666,-0.042536518141046115,-0.23890917674502563,0.0022181646509948764
1589995869.6076548,-0.10853635846096168,-4.605854566156153,8.653251503075577,0.43,0.4688888888888889,-0.6766666666666666,0.2850567211430317,-0.05691293269831571,0.038617413460336855
1589995869.6176548,-0.11393583921964345,-4.590320803901783,8.655743356878574,0.4252834305041671,0.4688888888888889,-0.6854260100160705,0.34839598049108644,0.10040100487722839,0.02459899512277161
1589995869.6276548,-0.12,-4.619492565927678,8.614925659276784,0.4222222222222222,0.4688888888888889,-0.6911111111111111,0.4619424445758806,0.17798561114397013,0.11548561114397014
1589995869.6376548,-0.12,-4.610938181966511,8.52938181966511,0.4222222222222222,0.4688888888888889,-0.6911111111111111,-0.1796363525116763,0.017590911872080922,-0.04490908812791908
1589995869.6476548,-0.10313781269755261,-4.601568906348776,8.612742030163462,0.4222222222222222,0.4688888888888889,-0.6911111111111111,0.06616601192088867,0.05269433532014811,-0.11519433532014811
1589995869.6576548,-0.1,-4.656360122402964,8.573639877597037,0.4222222222222222,0.4688888888888889,-0.6911111111111111,-0.17692922715873272,0.0625,-0.024356924280422423
1589995869.6676548,-0.11324601321673064,-4.643507973566539,8.632853072692019,0.4141274363675535,0.4644735511499787,-0.6719779809091669,-0.0016372521863005085,-0.1858627478136995,0.0
1589995869.6776547,-0.09005176980496027,-4.60005176980496,8.630069026406614,0.41,0.4622222222222222,-0.6622222222222223,-0.1869607311983305,-0.1253235612810017,-0.0623921462396661
1589995869.6876547,-0.09,-4.6,8.60736195656089,0.41,0.4622222222222222,-0.6622222222222223,-0.09317481900370997,-0.26648777149443503,0.03182518099629003
1589995869.6976547,-0.11002697184813351,-4.649865140759333,8.490350634025736,0.41,0.4622222222222222,-0.6622222222222223,-0.31098283354249,-0.18716285189833112,-0.06266857405083444
1589995869.7076547,-0.11788308453052126,-4.610584577347393,8.592480098896775,0.41,0.4622222222222222,-0.6622222222222223,0.13092350484182136,-0.08896144336848415,-0.11176927831575792
1589995869.7176547,-0.10200763358778626,-4.582007633587787,8.655984732824427,0.4040025445292621,0.4742171331636981,-0.6622222222222223,0.19377385496183205,-0.11872614503816795,-0.012547709923664122
1589995869.7276547,-0.11016938506736906,-4.550677540269476,8.736951068787357,0.4033333333333333,0.4755555555555556,-0.6622222222222223,0.4904720899604903,0.06355865667105663,0.12288268665788674
1589995869.7376547,-0.11866761219734576,-4.584670448789383,8.583982980447777,0.4033333333333333,0.4755555555555556,-0.6622222222222223,0.012446813899301024,0.116672576233411,0.016654847533178002
1589995869.7476547,-0.10193994791400705,-4.61709007812899,8.596120104171986,0.4033333333333333,0.4755555555555556,-0.6622222222222223,-0.17537532553745594,0.012124674462544047,-0.1693129883061839
1589995869.7576547,-0.10556075515708142,-4.62,8.627803775785408,0.4033333333333333,0.4755555555555556,-0.6622222222222223,-0.15274528026824113,0.06950943946351776,-0.08323584080472338
1589995869.7676547,-0.10508867900337622,-4.62,8.674556604983119,0.41042746366178995,0.47228134155780643,-0.6589480082244731,-0.06360848754220266,-0.05917453737339201,-0.03069575622889867
1589995869.7776546,-0.11919601201508276,-4.591205981977375,8.7,0.4177777777777778,0.4688888888888889,-0.6555555555555556,0.05998753754713364,-0.25,-0.0025124624528663625
1589995869.7876546,-0.1279943802562289,-4.621977521024915,8.580084296156567,0.4177777777777778,0.4688888888888889,-0.6555555555555556,-0.037429753202860974,-0.20003512339856952,0.04996487660143049
1589995869.7976546,-0.10606335637963546,-4.614042237586424,8.557978881206788,0.4177777777777778,0.4688888888888889,-0.6555555555555556,-0.21210402262727843,-0.03789597737272157,0.012631992457573848
1589995869.8076546,-0.11491761082389176,-4.624917610823892,8.612211637883622,0.4177777777777778,0.4688888888888889,-0.6555555555555556,-0.06352986470135297,0.04661753382466176,-0.09323506764932352
1589995869.8176546,-0.11416906488622847,-4.606676259544914,8.6708165457964,0.4203693044950096,0.4650015988130412,-0.6516682654797078,0.0728866889221442,0.17183003338321629,0.0207733778442884
1589995869.8276546,-0.11,-4.5983010266940445,8.675096919917864,0.4222222222222222,0.4622222222222222,-0.6488888888888888,0.3844070841889117,-0.009407084188911674,0.125
1589995869.8376546,-0.11,-4.586880888349094,8.63064266504728,0.4222222222222222,0.4622222222222222,-0.6488888888888888,0.35550555218183394,-0.10349722390908303,0.04300555218183395
1589995869.8476546,-0.09300034592766268,-4.622499135180843,8.584500518891494,0.4222222222222222,0.4622222222222222,-0.6488888888888888,0.10000432409578353,-0.07187608102394588,0.05312391897605412
1589995869.8576546,-0.11273352058805952,-4.599688639215921,8.640622721568159,0.4222222222222222,0.4622222222222222,-0.6488888888888888,-0.17430750612562002,-0.0625,0.01513849877487599
1589995869.8676546,-0.1282929138243074,-4.606585827648615,8.668292913824308,0.4185364827447523,0.46775083143842716,-0.671924760623076,0.009153557009606017,-0.0625,-0.0518307114019212
1589995869.8776546,-0.11285686931546195,-4.6014284346577305,8.687143130684538,0.4177777777777778,0.4688888888888889,-0.6766666666666666,-0.20536141694590715,-0.0625,-0.11607228338918142
1589995869.8876545,-0.10086511604286223,-4.627404651871413,8.562111624600071,0.4177777777777778,0.4688888888888889,-0.6766666666666666,-0.13581395053577777,-0.11959302473211111,-0.06790697526788889
1589995869.8976545,-0.1,-4.605020418746354,8.60828568959184,0.4177777777777778,0.4688888888888889,-0.6766666666666666,-0.2811223828352888,-0.020918411443140814,-0.0625
1589995869.9076545,-0.1,-4.6,8.608840229735021,0.4177777777777778,0.4688888888888889,-0.6766666666666666,-0.2427514358438846,0.0348742820780577,-0.0973742820780577
1589995869.9176545,-0.1,-4.604822559173999,8.638580473391993,0.4140268984202229,0.4688888888888889,-0.6563047501542257,-0.006654030975031644,0.09264099483749472,-0.06471801032501055
1589995869.9276545,-0.11592319235598567,-4.617961596177993,8.640192019110037,0.41,0.4688888888888889,-0.6344444444444445,0.1875,0.125,0.0
1589995869.9376545,-0.1128577500708416,-4.605715500141683,8.594288750354208,0.41,0.4688888888888889,-0.6344444444444445,0.27677812411448,0.08036093794275999,0.0
1589995869.9476545,-0.11,-4.583347896343288,8.62163025914178,0.41,0.4688888888888889,-0.6344444444444445,0.15638652821832544,-0.1456512957088994,0.0
1589995869.9576545,-0.10308007158087115,-4.607679713676515,8.643839856838259,0.41,0.4688888888888889,-0.6344444444444445,-0.09124776309777641,-0.10100089476088943,0.0
1589995869.9676545,-0.1,-4.614748578300484,8.655251421699518,0.41,0.4688888888888889,-0.6531161660427269,-0.12185722875603841,-0.029678614378019205,0.0
1589995869.9776545,-0.10723835403726709,-4.61,8.667238354037266,0.41,0.4688888888888889,-0.67,-0.1529794254658385,0.0,-0.09047942546583851
1589995869.9876544,-0.09861313629973519,-4.61,8.607372249648543,0.41,0.4688888888888889,-0.67,-0.22308394906332757,0.035583949063327555,-0.05383210187334489
1589995869.9976544,-0.09,-4.622789963511131,8.591974908777829,0.41,0.4688888888888889,-0.67,-0.13009409208314543,-0.05740590791685457,-0.07993727194456972
1589995870.0076544,-0.10580402688829914,-4.619463982074468,8.641608053776597,0.41,0.4688888888888889,-0.67,-0.0625,-0.09207494398271013,-0.125
1589995870.0176544,-0.11533351233170956,-4.61,8.67,0.4032595178124694,0.4688888888888889,-0.6632595178124694,0.08332773963407616,-0.0625,-0.125
1589995870.0276544,-0.10425497910007377,-4.615745020899927,8.652764937300221,0.3955555555555556,0.4688888888888889,-0.6555555555555556,0.3218127612490779,-0.02659361937546103,-0.05318723875092206
1589995870.0376544,-0.1,-4.612164792067486,8.5851535444724,0.3955555555555556,0.4688888888888889,-0.6555555555555556,0.27705990084356963,-0.19588019831286071,-0.09794009915643036
1589995870.0476544,-0.09371098991095854,-4.597421979821917,8.582578020178083,0.3955555555555556,0.4688888888888889,-0.6555555555555556,0.21069368694349092,-0.25,-0.007081060830472746
1589995870.0576544,-0.09734903091462438,-4.5936745154573115,8.612047092743873,0.3955555555555556,0.4688888888888889,-0.6555555555555556,0.09563711356719526,-0.15813711356719526,0.0625
1589995870.0676544,-0.11,-4.6,8.654953191489362,0.39748179669030737,0.4688888888888889,-0.6591328605200946,-0.047021276595744683,0.0,0.016063829787234044
1589995870.0776544,-0.11,-4.6,8.662876820772642,0.4033333333333333,0.4688888888888889,-0.67,-0.08903974034198861,-0.044519870170994305,0.05307948068397722
1589995870.0876544,-0.11,-4.615729056965055,8.59708377213978,0.4033333333333333,0.4688888888888889,-0.67,0.02245990904739109,-0.16080660603159405,0.07584669698420297
1589995870.0976543,-0.11,-4.612164163166513,8.61134334733395,0.4033333333333333,0.4688888888888889,-0.67,-0.13339592083718943,-0.08955203958140528,0.013526019790702642
1589995870.1076543,-0.11,-4.61677769059222,8.653888452961096,0.4033333333333333,0.4688888888888889,-0.67,-0.10277886759725778,-0.02013943379862889,0.04236056620137111
1589995870.1176543,-0.11524849547646566,-4.614751504523534,8.67,0.41091449346600595,0.47238788587319935,-0.6624188398673274,-0.0953030967279104,0.0328030967279104,-0.003106193455820805
1589995870.1276543,-0.10593706293706294,-4.61,8.66296853146853,0.4177777777777778,0.4755555555555556,-0.6555555555555556,0.0068400349650349634,0.0625,-0.0625
1589995870.1376543,-0.1,-4.625938109841093,8.580309450794536,0.4177777777777778,0.4755555555555556,-0.6555555555555556,0.21191977976024534,0.0625,-0.012693406746584888
1589995870.1476543,-0.10668337459991546,-4.616633250800169,8.600100247599492,0.4177777777777778,0.4755555555555556,-0.6555555555555556,0.25,-0.02104218249894317,-0.041771091249471586
1589995870.1576543,-0.1142964150147617,-4.5971107549557155,8.637185660059046,0.4177777777777778,0.4755555555555556,-0.6555555555555556,0.08888443694643611,-0.0625,-0.08935259384226064
1589995870.1676543,-0.11366284957544598,-4.599011451273662,8.66,0.4132009469155999,0.47344317208070424,-0.6534431720807042,-0.16460719015346265,-0.10210719015346265,-0.06558921476980603
1589995870.1776543,-0.1,-4.6122849788007265,8.646142489400363,0.4033333333333333,0.4688888888888889,-0.6488888888888888,-0.16339055875227135,-0.15863018625075712,0.004760372501514239
1589995870.1876543,-0.10554871289567681,-4.5966461386870305,8.591159009730262,0.4033333333333333,0.4688888888888889,-0.6488888888888888,-0.0625,-0.09032054440201995,-0.0625
1589995870.1976542,-0.1045710196030513,-4.61,8.570857960793898,0.4033333333333333,0.4688888888888889,-0.6488888888888888,0.03929338244278806,-0.0625,-0.028568872519070643
1589995870.2076542,-0.10841001280956447,-4.614205006404783,8.609435044833475,0.4033333333333333,0.4688888888888889,-0.6488888888888888,0.09871870997011102,-0.0625,0.026281290029888982
1589995870.2176542,-0.10100300525920361,-4.607335336839469,8.66266466316053,0.40755488772017695,0.4731104432757326,-0.6531104432757325,0.1416541447533183,-0.0625,0.022922927623340847
1589995870.2276542,-0.09726313766009083,-4.585473724679819,8.662736862339909,0.41,0.4755555555555556,-0.6555555555555556,0.09671077924886465,-0.10789461037556768,-0.1815784415022707
1589995870.2376542,-0.09236709303487559,-4.602898720895373,8.576038023383632,0.41,0.4755555555555556,-0.6555555555555556,0.11020566853202758,-0.125,-0.10688299440391727
1589995870.2476542,-0.11261895362608271,-4.61,8.60277755846086,0.41,0.4755555555555556,-0.6555555555555556,0.03075435989132201,-0.03075435989132201,0.03174564010867799
1589995870.2576542,-0.11398680273152766,-4.597973605463055,8.650065986342362,0.41,0.4755555555555556,-0.6555555555555556,0.037582482927952125,0.07516496585590425,-0.05024744878385637
1589995870.2676542,-0.11428632201604408,-4.585713677983956,8.678572644032087,0.40714245198930393,0.4726980075448595,-0.6555555555555556,0.008920974799448991,0.07142097479944899,-0.125
1589995870.2776542,-0.12,-4.607861604607772,8.656566074470675,0.4033333333333333,0.4688888888888889,-0.6555555555555556,-0.1321540115194289,0.03482700575971445,-0.09017299424028555
1589995870.2876542,-0.1105671505662385,-4.620567150566239,8.592268602264955,0.4033333333333333,0.4688888888888889,-0.6555555555555556,-0.24645530896100934,0.03302234551949533,-0.0625
1589995870.2976542,-0.10534637993898356,-4.607326810030508,8.558019569908476,0.4033333333333333,0.4688888888888889,-0.6555555555555556,-0.26237768807202916,0.0,-0.0625
1589995870.3076541,-0.1162079250106519,-4.6,8.614128674904133,0.4033333333333333,0.4688888888888889,-0.6555555555555556,-0.05389859394972306,-0.023700468683425648,-0.03879953131657435
1589995870.3176541,-0.11208092921522042,-4.597919070784779,8.67208092921522,0.40171483283260634,0.47189467553309616,-0.6585613421997628,0.0625,-0.0625,0.013005807595127653
1589995870.3276541,-0.1118883014775654,-4.598111698522435,8.675944150738783,0.3955555555555556,0.4833333333333333,-0.67,0.0625,-0.037150942117391894,0.037150942117391894
1589995870.337654,-0.10441912544690214,-4.605580874553098,8.625808745530978,0.3955555555555556,0.4833333333333333,-0.67,0.145358602129415,0.0,0.02761953404313833
1589995870.347654,-0.11,-4.6,8.589690494782424,0.3955555555555556,0.4833333333333333,-0.67,0.21923360190246327,-0.06153279619507348,-0.029799194292610215
1589995870.357654,-0.11,-4.603812042543458,8.629060212717292,0.3955555555555556,0.4833333333333333,-0.67,0.16367473410338518,-0.14882526589661482,-0.05352420231015553
1589995870.367654,-0.11425139793503529,-4.605748602064965,8.664251397935036,0.4050031065223007,0.4833333333333333,-0.6728342652900235,0.0718575258120589,-0.16092876290602945,0.0625
1589995870.377654,-0.11009431383269547,-4.604952843083653,8.679905686167304,0.4177777777777778,0.4833333333333333,-0.6766666666666666,-0.09286580781848004,-0.09404473072717331,0.0625
1589995870.387654,-0.09446341612502292,-4.615536583874977,8.618024409625297,0.4177777777777778,0.4833333333333333,-0.6766666666666666,-0.15289635078139327,-0.027896350781393263,-0.006707298437213474
1589995870.397654,-0.10692838435326255,-4.62,8.588213973922104,0.4177777777777778,0.4833333333333333,-0.6766666666666666,-0.16026746740263031,0.0,-0.0625
1589995870.407654,-0.11021549493605381,-4.610215494936054,8.62467675759592,0.4177777777777778,0.4833333333333333,-0.6766666666666666,-0.09577026502550455,0.03057657832483182,-0.03192342167516818
1589995870.417654,-0.1,-4.6,8.665272939264389,0.4200242612679457,0.4726625367550357,-0.6693655953236209,0.031591174080486166,-0.000682348160972332,-0.031591174080486166
1589995870.427654,-0.10549317922711011,-4.610986358454221,8.67352046231867,0.4222222222222222,0.4622222222222222,-0.6622222222222223,-0.006164740338876429,-0.028167629830561786,0.04049711050831467
1589995870.437654,-0.11547178498460475,-4.60905643003079,8.605282150153952,0.4222222222222222,0.4622222222222222,-0.6622222222222223,-0.0625,-0.0683973123075595,0.09080134384622025
1589995870.447654,-0.10949198075380914,-4.605254009623096,8.575762028869287,0.4222222222222222,0.4622222222222222,-0.6622222222222223,-0.029662439855653568,-0.09216243985565356,-0.03601268043303929
1589995870.457654,-0.105461556857587,-4.607269221571206,8.609115449001555,0.4222222222222222,0.4622222222222222,-0.6622222222222223,0.051202095539878034,-0.07956736517995934,-0.10793263482004066
1589995870.467654,-0.11799982063852685,-4.601000089680737,8.652999372234843,0.4222222222222222,0.4622222222222222,-0.6622222222222223,0.16874831848618918,-0.11874943949539639,-0.06875056050460361
1589995870.477654,-0.09,-4.582283100569556,8.692283100569556,0.4177777777777778,0.4688888888888889,-0.6622222222222223,0.033961242880549275,0.11073062144027464,0.04823062144027464
1589995870.487654,-0.09096536059057353,-4.591930721181147,8.688415672913116,0.4177777777777778,0.4688888888888889,-0.6622222222222223,-0.0625,0.06853350369108462,-0.018100511073253833
1589995870.497654,-0.1,-4.616112371422356,8.592224742844712,0.4177777777777778,0.4688888888888889,-0.6622222222222223,-0.10070232138972622,0.08679767861027378,-0.11109535722054756
1589995870.507654,-0.0944493267453702,-4.625550673254629,8.61665201976389,0.4177777777777778,0.4688888888888889,-0.6622222222222223,0.013766831365745108,0.0625,-0.0625
1589995870.517654,-0.10006711409395973,-4.623288590604027,8.643422818791947,0.4177777777777778,0.4666517524235645,-0.6648322147651007,0.08305369127516779,0.0625,-0.0834731543624161
1589995870.527654,-0.12,-4.61,8.663717570644668,0.4177777777777778,0.4622222222222222,-0.67,0.0,0.0625,-0.11191160550972414
1589995870.537654,-0.11468829142257808,-4.61,8.58688291422578,0.4177777777777778,0.4622222222222222,-0.67,0.03319817860888696,-0.003896357217773913,0.003896357217773913
1589995870.547654,-0.11,-4.616036038338659,8.558108115015974,0.4177777777777778,0.4622222222222222,-0.67,0.10022523961661342,-0.0625,-0.012950479233226828
1589995870.557654,-0.10476108369502746,-4.604283251085082,8.617150246744753,0.4177777777777778,0.4622222222222222,-0.67,0.125,-0.02975677309392155,-0.09524322690607845
1589995870.567654,-0.09490431370318765,-4.600191372593625,8.665095686296812,0.4138144662135904,0.47297978218215936,-0.6660366884358127,0.09315196064492279,0.0,0.0023921574203088214
1589995870.577654,-0.09456454236285672,-4.605435457637143,8.665435457637143,0.41,0.4833333333333333,-0.6622222222222223,0.0339716102321455,0.08558516930356351,0.067943220464291
1589995870.5876539,-0.1,-4.6,8.618225021662335,0.41,0.4833333333333333,-0.6622222222222223,-0.07832808438312337,0.0830625541558355,0.0
1589995870.5976539,-0.1051287854972231,-4.605128785497223,8.585643927486116,0.41,0.4833333333333333,-0.6622222222222223,-0.12339018128471131,-0.030445090642355656,-0.09616472807293304
1589995870.6076539,-0.11402921721143694,-4.61,8.630146086057184,0.41,0.4833333333333333,-0.6622222222222223,-0.0876826075714809,0.025182607571480897,-0.1371347848570382
1589995870.6176538,-0.11395193676561205,-4.6160480632343885,8.66,0.41,0.4769492665859238,-0.6602062011440929,-0.08719960478507532,0.0625,-0.04359980239253766
1589995870.6276538,-0.1,-4.621330711657998,8.665779525561334,0.41,0.4622222222222222,-0.6555555555555556,0.036122034758340735,0.09862203475834073,0.018061017379170367
1589995870.6376538,-0.1,-4.604784462688396,8.622586447739248,0.41,0.4622222222222222,-0.6555555555555556,0.06519421639504963,0.09779132459257443,0.032597108197524816
1589995870.6476538,-0.1,-4.606489388816203,8.581063667102782,0.41,0.4622222222222222,-0.6555555555555556,0.021941319898730733,-0.021941319898730733,-0.021941319898730733
