time,acc_x,acc_y,acc_z,mag_x,mag_y,mag_z,gyr_x,gyr_y,gyr_z
1589995918.015653,-3.89,-0.91,8.84,0.30666666666666664,-0.3211111111111111,-0.5722222222222222,0.0625,0.0,0.0
1589995918.025653,-3.8979519147354074,-0.9039759573677035,8.967831701573925,0.30489957450324284,-0.32420352239710276,-0.5814994560801972,0.1875,-0.16340159871111662,0.0625
1589995918.0356529,-3.8976200168444697,-0.9038100084222347,9.016189991577765,0.3022222222222222,-0.3288888888888889,-0.5955555555555555,0.1875,0.10118744736103313,0.13987489472206627
1589995918.0456529,-3.903020586818572,-0.8869794131814279,8.941876479088567,0.3022222222222222,-0.3288888888888889,-0.5955555555555555,0.024742664767848532,0.20637866761607573,-0.01594666904018932
1589995918.0556529,-3.91,-0.8747749162911826,8.920900334835268,0.3022222222222222,-0.3288888888888889,-0.5955555555555555,0.0028135463602166066,0.2173432268198917,-0.125
1589995918.0656528,-3.91,-0.8741496343934455,8.948299268786892,0.3022222222222222,-0.3288888888888889,-0.5955555555555555,-0.04124085983613779,0.16156478504096555,-0.125
1589995918.0756528,-3.903738549851403,-0.8831307250742988,8.953738549851403,0.3060486639796985,-0.3288888888888889,-0.5997298556546206,-0.16793296828563287,0.06629890485689859,-0.125
1589995918.0856528,-3.8965570754339653,-0.8965570754339653,8.94,0.3144444444444445,-0.3288888888888889,-0.6088888888888889,-0.1454908607311415,-0.10348172146228302,-0.125
1589995918.0956528,-3.9014508230172766,-0.9057254115086383,8.880155761120935,0.3144444444444445,-0.3288888888888889,-0.6088888888888889,-0.10735146578696776,-0.16078382192898927,-0.07156764385797851
1589995918.1056528,-3.8931945785226088,-0.8936108429547824,8.815972892613045,0.3144444444444445,-0.3288888888888889,-0.6088888888888889,0.0,-0.10503388423369503,-0.019966115766304977
1589995918.1156528,-3.8957447813686548,-0.88,8.87553131178807,0.3144444444444445,-0.3288888888888889,-0.6088888888888889,0.02659511644590646,-0.11569023289181292,-0.22207069867543874
1589995918.1256528,-3.8949304616050653,-0.8873956924075979,8.939582769630391,0.3160879316461329,-0.32998454702334784,-0.6034105982165943,0.04709230748417122,-0.14127692245251366,-0.3604615374208561
1589995918.1356528,-3.91,-0.9068146072493899,9.03,0.3211111111111111,-0.3333333333333333,-0.5866666666666667,0.0,-0.019908704691313388,-0.08518259061737322
1589995918.1456528,-3.914614571506871,-0.9,8.983854284931292,0.3211111111111111,-0.3333333333333333,-0.5866666666666667,0.0,-0.033658928082057706,-0.028841071917942294
1589995918.1556528,-3.9102675920171257,-0.9,8.934866203991437,0.3211111111111111,-0.3333333333333333,-0.5866666666666667,-0.09124132483944479,-0.12165509978592638,-0.0625
1589995918.1656528,-3.9089813838267395,-0.9,8.937006205391086,0.3211111111111111,-0.3333333333333333,-0.5866666666666667,-0.1875,-0.2312887836942925,-0.08121121630570749
1589995918.1756527,-3.923631949733435,-0.9031840251332826,8.91726389946687,0.31651196369636964,-0.3319182110518744,-0.5866666666666667,-0.12779952875095202,-0.12779952875095202,-0.105099842916984
1589995918.1856527,-3.904806994262519,-0.9048069942625191,8.89519300573748,0.30666666666666664,-0.3288888888888889,-0.5866666666666667,0.06491257171851215,-0.06491257171851215,-0.12741257171851217
1589995918.1956527,-3.905054766941923,-0.8949452330580768,8.859561864464615,0.30666666666666664,-0.3288888888888889,-0.5866666666666667,0.125,-0.15659229338701972,-0.12431541322596056
1589995918.2056527,-3.9049751822553125,-0.9000496354893749,8.865223359702187,0.30666666666666664,-0.3288888888888889,-0.5866666666666667,0.09359488909570343,-0.0618795563828137,0.0003102218085931502
1589995918.2156527,-3.9,-0.9048955009292703,8.935522495353649,0.30666666666666664,-0.3288888888888889,-0.5866666666666667,0.09440311919206087,0.09440311919206087,0.0625
1589995918.2256527,-3.9026812758145937,-0.9,8.97340637907297,0.30338955178216304,-0.3288888888888889,-0.5851770689918924,0.09148405231757686,0.09148405231757686,0.09601594768242314
1589995918.2356527,-3.9069913899138995,-0.9015043050430505,9.002478474784748,0.29444444444444445,-0.3288888888888889,-0.5811111111111111,0.00940190651906519,0.0,0.14989237392373925
1589995918.2456527,-3.8973673430421276,-0.91,8.934214299352554,0.29444444444444445,-0.3288888888888889,-0.5811111111111111,0.0625,0.04604589401329607,0.02959178802659214
1589995918.2556527,-3.91,-0.9078337688677406,8.894332462264519,0.29444444444444445,-0.3288888888888889,-0.5811111111111111,0.035422110846756893,0.0979221108467569,0.1604221108467569
1589995918.2656527,-3.9063158604415977,-0.8926317208831958,8.91,0.29444444444444445,-0.3288888888888889,-0.5811111111111111,-0.016448255519973032,0.04605174448002697,0.0625
1589995918.2756526,-3.9,-0.8832562543243145,8.91,0.29770069876875893,-0.3288888888888889,-0.5834628503453383,0.05232420523651724,0.10464841047303448,0.0625
1589995918.2856526,-3.9036500019258176,-0.8963499980741825,8.906349998074182,0.3144444444444445,-0.3288888888888889,-0.5955555555555555,0.0,0.04562502407271887,0.08531251203635944
1589995918.2956526,-3.9068719486678756,-0.8931280513321245,8.871847538010881,0.3144444444444445,-0.3288888888888889,-0.5955555555555555,0.019550320825777654,0.18365096247733298,0.125
1589995918.3056526,-3.9,-0.9041493133303479,8.863941073294521,0.3144444444444445,-0.3288888888888889,-0.5955555555555555,0.0625,0.26063358337065234,0.09906679168532617
1589995918.3156526,-3.9025369593866057,-0.9074630406133941,8.945073918773211,0.3144444444444445,-0.3288888888888889,-0.5955555555555555,0.11006798849886187,0.1875,0.07835599616628729
1589995918.3256526,-3.91,-0.8975585707824514,8.972207146087744,0.3144444444444445,-0.3288888888888889,-0.598810794512287,0.25,0.17224106739032113,0.14025893260967887
1589995918.3356526,-3.91,-0.8837955646189141,9.01,0.3144444444444445,-0.3288888888888889,-0.6088888888888889,0.25,0.14438886056589345,0.09055569717053276
1589995918.3456526,-3.91,-0.8756838905775076,8.930425531914892,0.3144444444444445,-0.3288888888888889,-0.6088888888888889,0.178951367781155,0.04540273556231003,-0.1605243161094225
1589995918.3556526,-3.91,-0.8972042078627993,8.904408415725598,0.3144444444444445,-0.3288888888888889,-0.6088888888888889,0.053315800571669555,-0.13418419942833043,-0.07997370085750433
1589995918.3656526,-3.9056864312841855,-0.9013728625683706,8.93,0.3144444444444445,-0.3288888888888889,-0.6088888888888889,0.0,-0.07966078210463193,-0.026959804473842018
1589995918.3756526,-3.9040030069535803,-0.89,8.942009020860741,0.30955188039006876,-0.33066800309048006,-0.6035515462841153,-0.02501879345987596,0.012462413080248078,-0.0625
1589995918.3856525,-3.9050049013012473,-0.9049852960962578,8.94001960520499,0.3022222222222222,-0.3333333333333333,-0.5955555555555555,-0.0625,-0.0625,-0.0625
1589995918.3956525,-3.915147147528493,-0.9099019016476714,8.87455855741452,0.3022222222222222,-0.3333333333333333,-0.5955555555555555,0.06372622940410808,0.0006131147020540378,-0.0625
1589995918.4056525,-3.9194095421841717,-0.8841143132762571,8.856476144539572,0.3022222222222222,-0.3333333333333333,-0.5955555555555555,0.1544048193255356,0.02940481932553559,0.03678554202339322
1589995918.4156525,-3.9129317872623153,-0.8670682127376846,8.909317872623154,0.3022222222222222,-0.3333333333333333,-0.5955555555555555,0.125,0.054971011168412055,0.05170531844211726
1589995918.4256525,-3.9195668680988387,-0.8604331319011611,8.97566868098839,0.3022222222222222,-0.3333333333333333,-0.5955555555555555,0.125,0.1793787768532287,-0.11417170247097161
1589995918.4356525,-3.9119696033609292,-0.8773232011203097,8.965353597759382,0.3144444444444445,-0.3411111111111111,-0.6,0.1373100210058075,-0.1830800280077433,-0.029040014003871656
1589995918.4456525,-3.8924806653453032,-0.88488399207182,8.945270685165754,0.3144444444444445,-0.3411111111111111,-0.6,0.0,-0.015504158408145818,0.04699584159185418
1589995918.4556525,-3.9077098937095864,-0.9261450531452068,8.855419787419173,0.3144444444444445,-0.3411111111111111,-0.6,0.024093417842458158,-0.03840658215754184,0.0
1589995918.4656525,-3.916868062163019,-0.9168680621630194,8.886263875673961,0.3144444444444445,-0.3411111111111111,-0.6,0.0625,0.0,0.0
1589995918.4756525,-3.9043275888100424,-0.8913448223799151,8.932982766430127,0.31179980683830744,-0.338466473504974,-0.6,0.021928854905851648,0.027047430062765568,0.0
1589995918.4856524,-3.9177954116907605,-0.86,8.971181646763043,0.3022222222222222,-0.3288888888888889,-0.6,-0.1801147077309868,0.06988529226901319,0.0
1589995918.4956524,-3.9044684738805038,-0.8765945783584892,8.901279317163524,0.3022222222222222,-0.3288888888888889,-0.6,-0.23671184701259043,-0.2287161147405572,0.0
1589995918.5056524,-3.8950570396815625,-0.89,8.899657761910623,0.3022222222222222,-0.3288888888888889,-0.6,-0.1558935019902335,-0.2816064980097665,0.030893501990233493
1589995918.5156524,-3.89,-0.9009748514139471,8.922683432390702,0.3022222222222222,-0.3288888888888889,-0.6,-0.16463572622094375,-0.15854290488377504,0.0625
1589995918.5256524,-3.893703130321702,-0.9237031303217017,8.921109390965105,0.30386805792075633,-0.330534724587423,-0.5983541643014659,-0.07871087097872867,-0.04628912902127132,0.039355435489364335
1589995918.5356524,-3.9,-0.9210569341252923,8.935528467062646,0.30666666666666664,-0.3333333333333333,-0.5955555555555555,-0.055894161716922956,-0.09705291914153852,0.0
1589995918.5456524,-3.895684574407798,-0.9013691488155956,8.895476595262382,0.30666666666666664,-0.3333333333333333,-0.5955555555555555,0.009857049756318709,0.018414229853791236,0.026971409951263743
1589995918.5556524,-3.893993539084886,-0.8860064609151138,8.88194831267909,0.30666666666666664,-0.3333333333333333,-0.5955555555555555,0.06270190359730612,0.07508076143892245,0.0625
1589995918.5656524,-3.9,-0.8814627392557567,8.93877643553454,0.30666666666666664,-0.3333333333333333,-0.5955555555555555,-0.0884315186060822,-0.00914212034847945,0.0807842406969589
1589995918.5756524,-3.9,-0.888254687955436,8.979528127732616,0.30666666666666664,-0.3333333333333333,-0.5955555555555555,0.08136719888590213,-0.05159179972147553,0.16568359944295108
1589995918.5856524,-3.9,-0.8785282718051624,8.994883036916903,0.30666666666666664,-0.3233333333333333,-0.6088888888888889,0.0930189807306413,-0.1036793204870942,0.010660339756452898
1589995918.5956523,-3.90323262010053,-0.92,8.92474331859258,0.30666666666666664,-0.3233333333333333,-0.6088888888888889,0.01831550251325295,0.0,0.0625
1589995918.6056523,-3.91,-0.9170333099038248,8.838900070288526,0.30666666666666664,-0.3233333333333333,-0.6088888888888889,0.16895818689890452,0.055625439303286416,0.025416373797809054
1589995918.6156523,-3.91,-0.9094656488549618,8.861068702290076,0.30666666666666664,-0.3233333333333333,-0.6088888888888889,0.12333015267175572,0.18249045801526717,-0.05415076335877862
1589995918.6256523,-3.9083203493862135,-0.8883203493862134,8.911757554296507,0.3059201552827615,-0.3242664725632147,-0.6073958661210787,0.031006550991501416,-0.010497816336166194,0.2290043673276676
1589995918.6356523,-3.9000690509915015,-0.8800690509915015,8.96951664305949,0.3022529115517784,-0.3288505272269437,-0.6000613786591124,-0.12370529390934845,-0.062068431303116144,0.1258631373937677
1589995918.6456523,-3.9166372584901663,-0.8766372584901663,8.946372584901663,0.3022222222222222,-0.3288888888888889,-0.6,-0.208517134436461,0.040931462254156004,0.0625
1589995918.6556523,-3.91,-0.8797101355294727,8.88,0.3022222222222222,-0.3288888888888889,-0.6,-0.23482791323519875,-0.10982791323519875,0.047327913235198756
1589995918.6656523,-3.91,-0.9131803172104642,8.899081903262786,0.3022222222222222,-0.3288888888888889,-0.6,-0.16762301743459887,-0.0625,0.0
1589995918.6756523,-3.9084904567020393,-0.9184904567020391,8.94,0.3031447209043095,-0.328469571306122,-0.5996645459337864,-0.11556535438774401,-0.0625,-0.004717322806127992
1589995918.6856523,-3.89,-0.9029829917139119,8.942982991713912,0.3144444444444445,-0.3233333333333333,-0.5955555555555555,-0.03728739642389882,-0.04385630178805059,-0.02521260357610118
1589995918.6956522,-3.8924406705058137,-0.9038983237354656,8.940237317976745,0.3144444444444445,-0.3233333333333333,-0.5955555555555555,-0.10211871400799619,0.0,0.0625
1589995918.7056522,-3.91,-0.8670382458128946,8.887595614532236,0.3144444444444445,-0.3233333333333333,-0.5955555555555555,0.0625,-0.06598355449588618,0.08449451816529539
1589995918.7156522,-3.91,-0.8813697625807256,8.924109287742176,0.3144444444444445,-0.3233333333333333,-0.5955555555555555,0.04537796774092909,-0.1703779677409291,0.09931695161139363
1589995918.7256522,-3.91,-0.8879125198889339,8.9437375596668,0.3144444444444445,-0.3233333333333333,-0.5955555555555555,-0.036406498611674415,-0.08859350138832559,-0.023359747917511636
1589995918.7356522,-3.9065575825094,-0.8817212087453001,8.95741818688205,0.3022222222222222,-0.3288888888888889,-0.6,0.057121222670937194,-0.005378777329062805,0.0625
1589995918.7456522,-3.8757103534563653,-0.8942896465436346,8.901448232718174,0.3022222222222222,-0.3288888888888889,-0.6,0.017844854551141695,-0.09818970910228339,0.0625
1589995918.7556522,-3.8929919175464427,-0.88,8.8509434228251,0.3022222222222222,-0.3288888888888889,-0.6,0.043800515334732615,-0.16880051533473261,0.09989896933053477
1589995918.7656522,-3.8995617305222265,-0.88,8.896932113655588,0.3022222222222222,-0.3288888888888889,-0.6,0.0027391842360828256,-0.12773918423608283,0.18202163152783435
1589995918.7756522,-3.9144876510772466,-0.88,8.92346295323174,0.3049646756583173,-0.3288888888888889,-0.6,-0.13902390961639516,-0.15945218076720968,-0.09695218076720967
1589995918.7856522,-3.9229555620584424,-0.88,8.962955562058443,0.3144444444444445,-0.3288888888888889,-0.6,-0.05541678859579449,-0.04048613143263241,-0.022013868567367586
1589995918.7956522,-3.907959723541795,-0.8861208293746158,8.933677788334357,0.3144444444444445,-0.3288888888888889,-0.6,0.14924481640865142,0.012751727863782857,-0.0625
1589995918.8056521,-3.9001460533914565,-0.9095618398256302,8.871168427131652,0.3144444444444445,-0.3288888888888889,-0.6,0.0027385010898116624,0.06158716630339611,-0.0625
1589995918.8156521,-3.897503631998287,-0.9024963680017128,8.929985472006852,0.3144444444444445,-0.3288888888888889,-0.6,0.01569309996788549,-0.1875,0.0625
1589995918.8256521,-3.891089446559924,-0.9089105534400759,8.955642213760305,0.3144444444444445,-0.3288888888888889,-0.6,-0.10457287700142223,-0.1875,0.0625
1589995918.835652,-3.898660782888589,-0.8973215657771779,8.991339217111411,0.3144444444444445,-0.3411111111111111,-0.5733333333333334,0.0,0.029019572214723288,0.0625
1589995918.845652,-3.8900853008926,-0.8799146991074,8.998635185718399,0.3144444444444445,-0.3411111111111111,-0.5733333333333334,-0.00213252231500144,-0.1859006082637489,0.0625
1589995918.855652,-3.9035486097416685,-0.8806458292250049,8.854194438966674,0.3144444444444445,-0.3411111111111111,-0.5733333333333334,-0.22782118911457305,0.0,0.01814237822914612
1589995918.865652,-3.904526144074415,-0.908210783888378,8.89094771185117,0.3144444444444445,-0.3411111111111111,-0.5733333333333334,-0.1361826006976381,0.0,-0.028288400465092067
1589995918.875652,-3.890019582947772,-0.9299804170522284,8.920117497686629,0.3144205097305014,-0.3411111111111111,-0.5733311574502477,0.00012239342357270438,0.00012239342357270438,0.0626223934235727
1589995918.885652,-3.899045600292668,-0.9209543997073318,8.97427360175601,0.3033887107534055,-0.3411111111111111,-0.5723282666341479,0.056535001829176444,0.056535001829176444,0.11903500182917645
1589995918.895652,-3.91,-0.91532472682411,8.95597418047233,0.3022222222222222,-0.3411111111111111,-0.5722222222222222,0.009740152449770884,0.07224015244977089,0.043019695100458236
1589995918.905652,-3.91,-0.89,8.881362295420809,0.3022222222222222,-0.3411111111111111,-0.5722222222222222,0.0625,0.10797130723989552,-0.058242826809973884
1589995918.915652,-3.91,-0.89,8.89712471109942,0.3022222222222222,-0.3411111111111111,-0.5722222222222222,0.0625,-0.08905888874274226,-0.008985277814314435
1589995918.925652,-3.901498886889695,-0.8914988868896954,8.962997773779392,0.3028883941731979,-0.33844642330720826,-0.5735545661241737,0.03439587081821231,-0.1156319569394041,-0.009368043060595896
1589995918.935652,-3.9068577300243486,-0.9,8.970573190073045,0.30666666666666664,-0.3233333333333333,-0.5811111111111111,-0.125,-0.16069593673911586,-0.0625
1589995918.945652,-3.9,-0.8975911642456186,8.91868513519304,0.30666666666666664,-0.3233333333333333,-0.5811111111111111,-0.125,-0.3147791061404636,-0.0775552234648841
1589995918.955652,-3.8982197922361945,-0.884659376708584,8.830681246582833,0.30666666666666664,-0.3233333333333333,-0.5811111111111111,-0.147252597047567,-0.1361262985237835,-0.10274740295243302
1589995918.965652,-3.8919133166841218,-0.8733932167888504,8.885739950052365,0.30666666666666664,-0.3233333333333333,-0.5811111111111111,-0.21412531217272215,-0.16358354144848142,0.011958229275759284
1589995918.975652,-3.898671231773141,-0.9206986224119875,8.906013695319423,0.30666666666666664,-0.3233333333333333,-0.5811111111111111,-0.08741440425360508,-0.07910960283573673,0.054195198582131635
1589995918.985652,-3.9085933307095067,-0.8857799921285198,8.967186661419014,0.3211111111111111,-0.3288888888888889,-0.6166666666666667,0.1875,-0.036124950803248776,0.125
1589995918.995652,-3.9010898422126012,-0.8632695266378045,8.952179684425202,0.3211111111111111,-0.3288888888888889,-0.6166666666666667,0.1875,0.1045654585137214,0.125
1589995919.005652,-3.9080540888602706,-0.8819459111397295,8.861675466838378,0.3211111111111111,-0.3288888888888889,-0.6166666666666667,-0.02432388924661945,-0.012161944623309724,-0.050338055376690276
1589995919.015652,-3.9,-0.8909653741125069,8.911930748225014,0.3211111111111111,-0.3288888888888889,-0.6166666666666667,-0.13103358820316766,-0.07456717640633534,-0.012067176406335336
1589995919.025652,-3.9,-0.9002398022754663,8.930359703413199,0.3207913747438228,-0.32882227714570383,-0.6164135420425635,-0.18824938211083195,-0.18824938211083195,-0.12200247155667218
1589995919.035652,-3.9,-0.9173744306227914,8.956061645934188,0.29794520361405585,-0.3240626581603357,-0.5983269898981646,-0.2417950956962232,-0.2417950956962232,0.09218038278489285
1589995919.045652,-3.892589891811625,-0.912589891811625,8.934101081883751,0.29444444444444445,-0.3233333333333333,-0.5955555555555555,-0.12275270470937633,0.0022472952906236743,0.01618682382265592
1589995919.055652,-3.9,-0.9134535250789197,8.87309294984216,0.29444444444444445,-0.3233333333333333,-0.5955555555555555,0.10341546825675202,0.24887320238512803,0.04204226587162399
1589995919.065652,-3.904955712270804,-0.8925664315937941,8.907433568406207,0.29444444444444445,-0.3233333333333333,-0.5955555555555555,0.17201339915373764,0.3440267983074753,0.015486600846262343
1589995919.075652,-3.92,-0.87,8.93379514544153,0.2961311757517914,-0.3233333333333333,-0.5941499461327664,0.11709344699681135,0.2341868939936227,0.06645327650159433
1589995919.0856519,-3.917060782122905,-0.8729392178770949,8.99,0.3211111111111111,-0.3233333333333333,-0.5733333333333334,0.07348044692737431,-0.036740223463687154,0.10662988826815642
1589995919.0956519,-3.907510946446615,-0.88,8.957642303805995,0.3211111111111111,-0.3233333333333333,-0.5733333333333334,0.18777366116537555,-0.125,0.03138683058268778
1589995919.1056519,-3.9,-0.8839771526064945,8.869942881516236,0.3211111111111111,-0.3233333333333333,-0.5733333333333334,0.0,-0.08771419431411456,-0.02521419431411457
1589995919.1156518,-3.9,-0.8995337796487585,8.908834449121896,0.3211111111111111,-0.3233333333333333,-0.5733333333333334,0.0,0.058129184207110135,0.12062918420711014
1589995919.1256518,-3.9097295358347086,-0.9097295358347084,8.919729535834708,0.3211111111111111,-0.3233333333333333,-0.5733333333333334,0.06080959896692733,0.0625,0.125
1589995919.1356518,-3.901427285899489,-0.861427285899489,8.947145428201022,0.28,-0.3333333333333333,-0.6166666666666667,0.04465892625638679,0.125,0.15181785251277358
1589995919.1456518,-3.9078244490200564,-0.8678244490200564,8.934351101959887,0.28,-0.3333333333333333,-0.6166666666666667,-0.0353056127507054,0.125,-0.008111225501410801
1589995919.1556518,-3.91,-0.880226674511504,8.831360047069024,0.28,-0.3333333333333333,-0.6166666666666667,-0.06108328430309974,0.12216656860619948,0.18324985290929924
1589995919.1656518,-3.91,-0.8939289295918561,8.905715718367425,0.28,-0.3333333333333333,-0.6166666666666667,-0.0368337149236504,0.0,-0.012277904974550133
1589995919.1756518,-3.91,-0.9098016991806847,8.96920679672274,0.28,-0.3333333333333333,-0.6166666666666667,-0.18564092981891805,0.0,-0.06188030993963935
1589995919.1856518,-3.9009152921565184,-0.91,8.951830584313036,0.3173482433565343,-0.324248625489852,-0.5843654832231776,-0.1307205759782418,0.11355884804351642,-0.0625
1589995919.1956518,-3.9,-0.9,8.972295423023578,0.3211111111111111,-0.3233333333333333,-0.5811111111111111,0.022130721220527047,-0.04036927877947295,0.051434639389736476
1589995919.2056518,-3.9,-0.9,8.899578710124826,0.3211111111111111,-0.3233333333333333,-0.5811111111111111,0.11302661234396671,0.050526612343966715,0.005986693828016643
1589995919.2156518,-3.892067301445886,-0.87,8.94,0.3211111111111111,-0.3233333333333333,-0.5811111111111111,0.1120793659632125,0.10126190211036248,-0.012920634036787499
1589995919.2256517,-3.89985225606474,-0.87,8.94,0.3211111111111111,-0.3233333333333333,-0.5811111111111111,0.06342339959537464,0.24722980121387605,-0.061576600404625356
1589995919.2356517,-3.91221930820857,-0.8710965410428497,8.93890345895715,0.3144444444444445,-0.3288888888888889,-0.6,0.20838797108931337,0.04862932369643779,0.09725864739287558
1589995919.2456517,-3.917769351464435,-0.9088846757322177,8.889962081589958,0.3144444444444445,-0.3288888888888889,-0.6,0.0625,0.013941553347280334,-0.006970776673640167
1589995919.2556517,-3.9019910542492315,-0.9079642169969264,8.823937379744622,0.3144444444444445,-0.3288888888888889,-0.6,0.012723643769209626,0.10011182188460481,-0.02516773282690722
1589995919.2656517,-3.907353842038387,-0.9333846050959673,8.882646157961613,0.3144444444444445,-0.3288888888888889,-0.6,-0.1875,-0.008269243630040795,0.125
1589995919.2756517,-3.896133886176687,-0.9053347154417174,8.893866113823314,0.3144444444444445,-0.3288888888888889,-0.6,-0.1875,-0.04333160569785328,0.125
1589995919.2856517,-3.9063145701046853,-0.89,8.957100995366398,0.30809988940373356,-0.32435706385980967,-0.5963745399767366,0.06741515788570446,0.09044909473142268,0.1759830315771409
1589995919.2956517,-3.9012768660026613,-0.8987231339973386,8.947231339973387,0.30666666666666664,-0.3233333333333333,-0.5955555555555555,-0.125,0.1489412375499012,0.14096082503326746
1589995919.3056517,-3.9097334569942337,-0.8902665430057664,8.862665430057664,0.30666666666666664,-0.3233333333333333,-0.5955555555555555,-0.125,0.3075023186418807,0.24666821242792047
1589995919.3156517,-3.892300754574233,-0.882300754574233,8.964601509148467,0.30666666666666664,-0.3233333333333333,-0.5955555555555555,-0.6415884384892587,0.9684681545782149,0.18031014195552192
1589995919.3256516,-3.9090021303283096,-0.8990021303283094,8.99800426065662,0.30666666666666664,-0.3233333333333333,-0.5955555555555555,-1.2156982300356383,1.6469615445875725,0.12811834272403289
1589995919.3356516,-3.923446795977616,-0.908276602011192,8.998276602011192,0.3022222222222222,-0.3288888888888889,-0.6,-1.4267287625699498,1.7586438128497497,0.23922876256994993
1589995919.3456516,-3.9395191881100264,-0.9004808118899734,8.981345385980479,0.3022222222222222,-0.3288888888888889,-0.6,-1.3719949256876665,1.4939898513753327,0.18449492568766637
1589995919.3556516,-3.9317657497781724,-0.9082342502218279,8.8417834960071,0.3022222222222222,-0.3288888888888889,-0.6,-1.323535936113576,1.3970718722271518,0.13603593611357587
1589995919.3656516,-3.938475950279229,-0.928475950279229,8.883048099441543,0.3022222222222222,-0.3288888888888889,-0.6,-1.2118987569807242,1.2696361016033146,0.3988132768870474
1589995919.3756516,-3.9216849816849817,-0.9116849816849817,8.916630036630037,0.3022222222222222,-0.3288888888888889,-0.6,-0.7921245421245422,0.7973901098901099,0.6611721611721612
1589995919.3856516,-3.9309032043041467,-0.9018225967718898,8.91,0.30666666666666664,-0.3333333333333333,-0.5811111111111111,-0.3380543850878446,0.7045362567252297,0.818145026900919
1589995919.3956516,-4.001285999818298,-0.847428000363405,8.903570000908513,0.30666666666666664,-0.3333333333333333,-0.5811111111111111,-0.508037498864359,0.7883875034069229,1.434862473880258
1589995919.4056516,-4.0065775575031575,-0.8265775575031574,8.863422442496843,0.30666666666666664,-0.3333333333333333,-0.5811111111111111,-0.5796122124842129,0.5950536281526273,2.918514868536875
1589995919.4156516,-3.966446859810938,-0.7864468598109381,8.903553140189063,0.30666666666666664,-0.3333333333333333,-0.5811111111111111,-0.7802657009453098,0.24391002334570783,5.6273369627616825
1589995919.4256516,-3.6810232975857153,-0.6033147551376195,9.058787574620952,0.30666666666666664,-0.3333333333333333,-0.5811111111111111,-1.1612208780178563,-0.451821609699403,9.607828926514872
1589995919.4356515,-3.5284318790662073,-0.59,9.135784060466897,0.29518056087085937,-0.3166262703576136,-0.5946855997788834,-1.1875,-0.8524146096440872,12.518109572330655
1589995919.4456515,-3.4389279414020555,-0.6242882343917778,9.118558828041111,0.29444444444444445,-0.31555555555555553,-0.5955555555555555,-0.625,-1.069200366237153,13.676295971391317
1589995919.4556515,-3.430885488571867,-0.6564580457125326,8.957709771437337,0.29444444444444445,-0.31555555555555553,-0.5955555555555555,-0.625,-1.1194656964258323,13.123377339315846
1589995919.4656515,-3.41,-0.7576889423171669,8.961349939893188,0.29444444444444445,-0.31555555555555553,-0.5955555555555555,-0.07093712433242023,-0.6814930138147134,12.567360276294266
1589995919.4756515,-3.41,-0.8238151075025126,8.886958004059673,0.29444444444444445,-0.31555555555555553,-0.5955555555555555,0.39401247462704214,-0.629831947263662,11.53413894527324
1589995919.4856515,-3.372693487059978,-0.848653256470011,8.749427204709923,0.30169848862722654,-0.3393902721561252,-0.5872652193466618,1.1369971176254139,-0.15866858824972402,6.949060161903594
1589995919.4956515,-2.8162103942277525,-1.1576210394227753,8.71095158423089,0.3022222222222222,-0.3411111111111111,-0.5866666666666667,0.1190525985569382,0.7886058245320506,1.8929990588727388
1589995919.5056515,-2.450713165324689,-1.121071316532469,8.725571473387014,0.3022222222222222,-0.3411111111111111,-0.5866666666666667,0.027678291331172236,2.341969047370072,-0.7111686970615914
1589995919.5156515,-2.0555723480672805,-1.796335478823655,8.840724725294265,0.3022222222222222,-0.3411111111111111,-0.5866666666666667,2.4029128587176842,4.194894384979197,-7.36808568329718
1589995919.5256515,-1.9213356566267201,-1.4831165321290138,8.475302620817184,0.3022222222222222,-0.3411111111111111,-0.5866666666666667,4.407141237864941,3.6821847996159454,-10.21129338394794
1589995919.5356514,-1.8938855125457066,-0.98,9.125180683394275,0.3144444444444445,-0.3555555555555556,-0.5955555555555555,1.0233750472828143,2.1308362753751102,-15.287336086243853
1589995919.5456514,-2.0786964393482195,-0.9768376584188292,9.347350633675315,0.3144444444444445,-0.3555555555555556,-0.5955555555555555,-0.6363533494266747,-0.2497359686179843,-20.0990872057936
1589995919.5556514,-2.1929413195903655,-0.9341175820043794,9.182352746013137,0.3144444444444445,-0.3555555555555556,-0.5955555555555555,0.819854404901462,2.025736269934308,-23.863975304682487
1589995919.5656514,-2.292055398552903,-0.8920553985529033,9.04876676086826,0.3144444444444445,-0.3555555555555556,-0.5955555555555555,1.7636842843685487,2.674653759044355,-27.226931884232258
1589995919.5756514,-2.3340883490670032,-0.9340883490670033,9.023546990559797,0.3144444444444445,-0.3555555555555556,-0.5955555555555555,0.7654017096586696,2.411947818331229,-30.58956792536027
1589995919.5856514,-2.3477657603309345,-0.9244684793381308,8.91904511569785,0.3049529595955244,-0.34433834618865,-0.5990070045915264,0.7706080062050243,2.472072004136683,-33.92612412203214
1589995919.5956514,-2.371329843348793,-0.9126596866975856,8.7437940643723,0.3022222222222222,-0.3411111111111111,-0.6,1.3069589860466968,3.3125,-38.14960737673918
1589995919.6056514,-2.396375923087641,-0.9627518461752821,8.626912358924342,0.3022222222222222,-0.3411111111111111,-0.6,1.2026003204681621,3.3125,-40.96729134735962
1589995919.6156514,-2.4328840169982753,-0.9914420084991377,8.735768033996552,0.3022222222222222,-0.3411111111111111,-0.6,1.161050212478441,3.156543935918636,-44.787813827990256
1589995919.6256514,-2.4627149232766135,-1.0063574616383066,8.795429846553226,0.3022222222222222,-0.3411111111111111,-0.6,1.5339365409576644,3.4828194733379565,-47.118353380985404
1589995919.6356514,-2.5250333573076067,-1.0728952654944075,9.014409612856824,0.323187310720358,-0.3315021122161322,-0.596505818583644,1.870684630837529,3.4642261476649883,-50.14434630837529
1589995919.6456513,-2.541429951965438,-1.13,9.096425120086405,0.3288888888888889,-0.3288888888888889,-0.5955555555555555,2.1875,3.4911231987039195,-54.366304394167635
1589995919.6556513,-2.5533513344512975,-1.13,9.066621663871757,0.3288888888888889,-0.3288888888888889,-0.5955555555555555,2.1875,3.9381750419236563,-56.378037688656455
1589995919.6656513,-2.56,-1.1491768030047207,9.05639226766824,0.3288888888888889,-0.3288888888888889,-0.5955555555555555,2.267403345853003,4.347306691706006,-59.61743866510458
1589995919.6756513,-2.544418021288885,-1.16,9.002866078059245,0.3288888888888889,-0.3288888888888889,-0.5955555555555555,2.344962455648156,4.664737189537091,-62.630397516296725
1589995919.6856513,-2.4993191879711243,-1.1702269373429586,8.903978781956686,0.33854766304612754,-0.32207093066024983,-0.6023735137841946,2.2791224624097635,4.970877537590236,-65.84654060144378
1589995919.6956513,-2.463671860014067,-1.1989844199577995,8.828359300070334,0.3477777777777778,-0.31555555555555553,-0.6088888888888889,1.9106438756154223,5.0625,-69.3295946205162
1589995919.7056513,-2.4999611948744898,-1.2399708961558673,8.680126116657908,0.3477777777777778,-0.31555555555555553,-0.6088888888888889,1.8748787339827802,5.374696834956951,-73.18489278062978
1589995919.7156513,-2.5368350292613484,-1.2842020351136185,8.68736700585227,0.3477777777777778,-0.31555555555555553,-0.6088888888888889,2.0131313597300573,5.605218932883429,-74.89112010333737
1589995919.7256513,-2.592109017076218,-1.3561453561016243,8.78123620366514,0.3477777777777778,-0.31555555555555553,-0.6088888888888889,2.194090678363182,5.512045762182424,-77.12295169981257
1589995919.7356513,-2.674602996821553,-1.4076869986378082,8.930747994551233,0.377515665203572,-0.3032502228276407,-0.596583556160974,2.596087482972605,5.610543741486302,-79.36989367337672
1589995919.7456512,-2.7289415623136555,-1.4785181872391175,8.998729874776386,0.38,-0.3022222222222222,-0.5955555555555555,2.930884764460346,5.9308847644603455,-81.27413163387001
1589995919.7556512,-2.7393341965380946,-1.48,8.971997410385717,0.38,-0.3022222222222222,-0.5955555555555555,3.1125161850892735,6.054177456726182,-82.6542907523511
1589995919.7656512,-2.7310703167917962,-1.5067890496246108,8.996789049624612,0.38,-0.3022222222222222,-0.5955555555555555,3.180810520051273,6.174121040102546,-84.20107352133309
1589995919.7756512,-2.750780082524813,-1.5307800825248132,8.993073305825062,0.38,-0.3022222222222222,-0.5955555555555555,3.0143326456265567,6.360667354373444,-85.28412861046058
1589995919.7856512,-2.7126376617082353,-1.5968348059501176,8.876330388099765,0.3915774604713203,-0.2832772869055164,-0.5955555555555555,2.7006883085411775,6.555905845729411,-86.81235553442941
1589995919.7956512,-2.6626752142740373,-1.6189299142903852,8.794280342838459,0.3922222222222223,-0.2822222222222222,-0.5955555555555555,2.5100320535276395,6.38503205352764,-87.7623397323618
1589995919.8056512,-2.671999031652848,-1.643998063305695,8.71200629425649,0.3922222222222223,-0.2822222222222222,-0.5955555555555555,2.312515130424257,6.300006052169703,-88.44994855655753
1589995919.8156512,-2.662766146663208,-1.6829784711157223,8.700212324452515,0.3922222222222223,-0.2822222222222222,-0.5955555555555555,2.2593077222366325,6.2859038611183164,-89.70078880572127
1589995919.8256512,-2.674054016702533,-1.7360810250537995,8.778108033405067,0.3922222222222223,-0.2822222222222222,-0.5955555555555555,2.5004220054885393,6.274915598902292,-90.95143481866103
1589995919.8356512,-2.6656045311799015,-1.7843954688200987,8.883186406460297,0.431074265157935,-0.2551161457554459,-0.6181439526112025,2.980767253626439,6.300823893375205,-91.88323893375205
1589995919.8456511,-2.6773615701508433,-1.8073615701508436,8.917361570150844,0.44,-0.2488888888888889,-0.6233333333333333,3.315689564699801,6.529519626885544,-92.39786931595683
1589995919.8556511,-2.69,-1.8963996373526746,8.913628649138712,0.44,-0.2488888888888889,-0.6233333333333333,3.602320942883046,6.789820942883046,-93.23321169537624
1589995919.8656511,-2.6982808321369256,-2.009684992821552,8.924842496410776,0.44,-0.2488888888888889,-0.6233333333333333,3.6875,6.978510401711567,-94.3085624102694
1589995919.8756511,-2.650707015130674,-2.0282154974782207,8.905353507565337,0.44,-0.2488888888888889,-0.6233333333333333,3.5848062815222375,7.102693718477762,-95.0023154516277
1589995919.885651,-2.64,-2.0886364676711806,8.880454510776273,0.46895628033144726,-0.2228282365905864,-0.6327441244410537,3.2367418462712187,7.125,-95.77651630745757
1589995919.895651,-2.5823538006609845,-2.10352965733171,8.779413115324404,0.4844444444444445,-0.2088888888888889,-0.6377777777777778,2.8051508958079667,6.867650895807967,-96.8970473125761
1589995919.905651,-2.516417671850022,-2.10765461830714,8.660489962007183,0.4844444444444445,-0.2088888888888889,-0.6377777777777778,2.6543172711607532,6.573293177901883,-97.73227910187472
1589995919.915651,-2.5160207015526166,-2.1180103507763084,8.654031052328925,0.4844444444444445,-0.2088888888888889,-0.6377777777777778,2.5749353076480737,6.550064692351927,-98.83866446233468
1589995919.925651,-2.5127372540723503,-2.1998902052041465,8.754415697059445,0.4844444444444445,-0.2088888888888889,-0.6377777777777778,2.744068648191242,6.789460810239052,-99.56181378252592
1589995919.935651,-2.51846584938704,-2.272329246935201,8.84079509632224,0.5070200428098852,-0.18349134072776804,-0.625549328663164,3.235792469352014,7.086646234676007,-100.38493870402802
1589995919.945651,-2.52,-2.317594917251627,8.887594917251628,0.5111111111111111,-0.17888888888888888,-0.6233333333333333,3.6062102910283342,7.418710291028335,-101.204904698468
1589995919.955651,-2.513389428695449,-2.3596634278273063,8.843726000868143,0.5111111111111111,-0.17888888888888888,-0.6233333333333333,3.790264282613777,7.520132141306888,-101.70447677718789
1589995919.965651,-2.4881720068587567,-2.4236559862824865,8.863655986282486,0.5111111111111111,-0.17888888888888888,-0.6233333333333333,3.784050028578153,7.5625,-102.52867481424201
1589995919.975651,-2.48977540910207,-2.4839893409593135,8.884887704551035,0.5111111111111111,-0.17888888888888888,-0.6233333333333333,3.7805481534439678,7.654144460331904,-103.14712599477159
1589995919.985651,-2.4830242005185825,-2.53,8.89,0.5151978776529338,-0.16537112263516757,-0.6315068664169787,3.6533518798617113,7.7323168755401905,-103.79238061797753
1589995919.995651,-2.4027172985851695,-2.5971088625466954,8.770695355472542,0.5255555555555556,-0.13111111111111112,-0.6522222222222223,3.1101898696943846,7.594293246462923,-105.16725740506516
1589995920.005651,-2.367617137607278,-2.6573047706545365,8.655390458690928,0.5255555555555556,-0.13111111111111112,-0.6522222222222223,2.829345183409147,7.5625,-106.09033348645438
1589995920.015651,-2.34866012224486,-2.6870098166327097,8.65834969438785,0.5255555555555556,-0.13111111111111112,-0.6522222222222223,2.820874235969624,7.456188646045564,-106.879493887757
1589995920.025651,-2.311299817580311,-2.7229601459357515,8.720180255387564,0.5255555555555556,-0.13111111111111112,-0.6522222222222223,2.9826256840738337,7.590251368147667,-107.85062842036916
1589995920.035651,-2.262930242392788,-2.777897660650097,8.72834419391423,0.5442036107960795,-0.09742430164435817,-0.6600423744198612,3.4347091670991676,7.851511591027045,-108.75755795513523
1589995920.045651,-2.2203665774046466,-2.8558113193891583,8.768900267786062,0.56,-0.06888888888888889,-0.6666666666666666,4.0363207461822395,8.26472370992256,-110.08736520228703
1589995920.055651,-2.2156245442233566,-2.908122721116783,8.788750911553286,0.56,-0.06888888888888889,-0.6666666666666666,3.8359659860402124,8.296886394416084,-111.44133503489947
1589995920.065651,-2.135622030237581,-2.899865010799136,8.804107991360691,0.56,-0.06888888888888889,-0.6666666666666666,3.7885124190064796,8.26283747300216,-112.84070599352052
1589995920.075651,-2.0866711276118113,-2.953382403729926,8.706590830599206,0.56,-0.06888888888888889,-0.6666666666666666,4.646307308754965,9.063001856328786,-114.06300185632878
1589995920.085651,-2.097637217070783,-3.035823302424696,8.802744341415654,0.5540599422782801,-0.032399962884038215,-0.6895783178790147,4.23627829292173,8.960173933076081,-115.535349953925
1589995920.095651,-2.063186609344652,-3.0205492874757214,8.923626781310695,0.5522222222222222,-0.021111111111111112,-0.6966666666666667,2.3894141588285356,7.892165233616306,-117.11745193461799
1589995920.105651,-1.9566982356617468,-2.9884688236142494,8.705980000961492,0.5522222222222222,-0.021111111111111112,-0.6966666666666667,2.440492644584395,8.055922792173453,-118.01106617470315
1589995920.115651,-1.9140952995463787,-3.0272376036289694,8.598190599092757,0.5522222222222222,-0.021111111111111112,-0.6966666666666667,3.277970045362115,8.988087556702643,-118.11369124432973
1589995920.125651,-1.9065622697729243,-3.0806263813624533,8.624377302270755,0.5522222222222222,-0.021111111111111112,-0.6966666666666667,3.515613488646224,9.328113488646224,-118.19141488351534
1589995920.1356509,-1.8979337924905575,-3.121377471672962,8.697576094201288,0.5535996938951837,-0.017743958132760623,-0.6970492976869338,3.1401494112419464,8.965563208175961,-118.47193679182404
1589995920.1456509,-1.8396448902141502,-3.145059184964308,8.754467335321227,0.5722222222222222,0.027777777777777776,-0.7022222222222222,2.9426786843769768,8.784579154242342,-118.9375
1589995920.1556509,-1.8047336838849366,-3.192130528920507,8.652070522734302,0.5722222222222222,0.027777777777777776,-0.7022222222222222,3.704144757191463,9.424559232910608,-118.47669733993195
1589995920.1656508,-1.7847624525172543,-3.250316729976994,8.681266919907976,0.5722222222222222,0.027777777777777776,-0.7022222222222222,3.650806203520411,9.686510218821892,-117.68156131293135
1589995920.1756508,-1.7411936975509505,-3.2872837814694296,8.777283781469428,0.5722222222222222,0.027777777777777776,-0.7022222222222222,3.276492121938688,9.480968487754753,-116.77238182908032
1589995920.1856508,-1.7011839339626247,-3.318816066037375,8.761775900943936,0.5727448907232604,0.0471165123161913,-0.7361956747897055,3.191199793633202,9.551400619100393,-115.66939752359842
1589995920.1956508,-1.6686442910164823,-3.345677854491759,8.775422835934071,0.5733333333333334,0.06888888888888889,-0.7744444444444445,2.876593865985553,9.501593865985553,-114.05880841680967
1589995920.2056508,-1.6348015744460282,-3.3751984255539718,8.724325353116496,0.5733333333333334,0.06888888888888889,-0.7744444444444445,2.3095236166904236,8.96602164863289,-112.55555510561099
1589995920.2156508,-1.5903840022180635,-3.3921536008872253,8.64,0.5733333333333334,0.06888888888888889,-0.7744444444444445,1.8884600055451584,8.64951999722742,-110.80478009981285
1589995920.2256508,-1.5209330985915492,-3.3409330985915493,8.612095070422535,0.5733333333333334,0.06888888888888889,-0.7744444444444445,1.707856514084507,8.757262323943662,-108.21665933098592
1589995920.2356508,-1.5122971507443557,-3.3545943014887114,8.731215288047586,0.586546459700359,0.058153223715680574,-0.7587538568836015,1.2533808209274047,8.998309589536298,-105.4383565020211
1589995920.2456508,-1.4961119860017498,-3.381944006999125,8.666531933508312,0.5911111111111111,0.054444444444444434,-0.7533333333333333,1.2743000874890638,8.838549868766405,-103.0582239720035
1589995920.2556508,-1.4493624117608963,-3.3716174470565377,8.540979858817433,0.5911111111111111,0.054444444444444434,-0.7533333333333333,1.489890955896639,8.878984926494399,-100.03674470565377
1589995920.2656507,-1.4053937056337449,-3.366151573591564,8.63918304542284,0.5911111111111111,0.054444444444444434,-0.7533333333333333,1.178026650527266,8.615526650527267,-96.87573858274179
1589995920.2756507,-1.3847125362037902,-3.391149855184839,8.70942507240758,0.5911111111111111,0.054444444444444434,-0.7533333333333333,0.540940215284271,8.044533512736892,-93.7743876713266
1589995920.2856507,-1.360626100151745,-3.468121699544765,8.790411532625189,0.6025919406508178,0.048704029674591136,-0.7777300961052099,0.38931145675265555,6.862029590288316,-89.98579855842185
1589995920.2956507,-1.3358316952166995,-3.5070841523916503,8.762074323691847,0.6088888888888889,0.045555555555555564,-0.7911111111111111,0.6328278573434428,6.375,-85.93456309089207
1589995920.3056507,-1.33,-3.56007667483561,8.68707713585519,0.6088888888888889,0.045555555555555564,-0.7911111111111111,1.1793244849925995,5.838464198189891,-81.66491913959187
1589995920.3156507,-1.3075992585727525,-3.5631994439295642,8.675600185356812,0.6088888888888889,0.045555555555555564,-0.7911111111111111,1.375,5.519996524559778,-78.19742585727525
1589995920.3256507,-1.29,-3.55,8.68,0.6088888888888889,0.045555555555555564,-0.7911111111111111,1.2624616754030265,5.26869251310454,-74.43994473840372
1589995920.3356507,-1.2783997252747252,-3.5732005494505494,8.687733516483515,0.5672138278388278,0.03825167887667888,-0.7511546092796093,1.173334478021978,4.917496565934066,-68.80992445054945
1589995920.3456507,-1.273043159907253,-3.6013045600618314,8.717390879876337,0.5011111111111111,0.02666666666666667,-0.6877777777777778,1.25,4.6875,-63.75
1589995920.3556507,-1.283416889639957,-3.6360817725203023,8.733416889639956,0.5011111111111111,0.02666666666666667,-0.6877777777777778,1.4145777590010797,4.522922240998921,-61.034466976482186
1589995920.3656507,-1.2325289393093086,-3.62307806390724,8.61923419172172,0.5011111111111111,0.02666666666666667,-0.6877777777777778,1.7966941293168204,4.305635942525858,-55.33941813209037
1589995920.3756506,-1.2006453190925581,-3.6290328366727134,8.601614113042947,0.5011111111111111,0.02666666666666667,-0.6877777777777778,1.3971675567151096,3.6330562972625913,-50.32457935019669
1589995920.3856506,-1.201979599877424,-3.704505100030644,8.70494899969356,0.5081190444921129,0.07271880031324938,-0.6522375442026976,0.8632650045965942,2.7939412511491484,-46.32914623735937
1589995920.3956506,-1.1849267466809708,-3.7247802400429126,8.743608186938447,0.5166666666666667,0.1288888888888889,-0.6088888888888889,1.2872018321711143,2.6920783324393187,-42.33813866166018
1589995920.4056506,-1.084368215975508,-3.707497912607849,8.835937239075982,0.5166666666666667,0.1288888888888889,-0.6088888888888889,2.271574067631506,2.273430976899527,-39.038964653492904
1589995920.4156506,-0.9857197252501121,-3.627496826937435,8.435318612811708,0.5166666666666667,0.1288888888888889,-0.6088888888888889,1.8747620203076005,2.7924758753919665,-35.1583206566373
1589995920.4256506,-1.0458441069411322,-3.5692205347056607,8.204418225178863,0.5166666666666667,0.1288888888888889,-0.6088888888888889,-1.0413973264716958,2.2118347558679554,-32.159078072047194
1589995920.4356506,-1.0296112979751855,-3.5088338939255563,8.951131134029804,0.516089516554177,0.16698079631320895,-0.6088888888888889,-0.2784885728287261,0.9942585703784554,-28.774512451829906
1589995920.4456506,-0.9688010255379047,-3.403201538306857,8.9199286145184,0.5155555555555555,0.20222222222222225,-0.6088888888888889,2.8024551327166702,2.2649871807761914,-24.950542303438567
1589995920.4556506,-0.92,-3.3345665173413335,8.464334826586667,0.5155555555555555,0.20222222222222225,-0.6088888888888889,2.3688339954999695,1.7048299312833195,-21.967115064966656
1589995920.4656506,-1.012640483818712,-3.5634270492098348,8.786011375499477,0.5155555555555555,0.20222222222222225,-0.6088888888888889,-0.6534409985960618,0.5509130098275676,-19.109549929803087
1589995920.4756505,-1.0602558029369968,-3.7152984367598294,8.728197536712457,0.5155555555555555,0.20222222222222225,-0.6088888888888889,0.30450615821885363,0.75,-15.859471222169589
1589995920.4856505,-1.0399231461041616,-3.704807865260404,8.682425394489412,0.5199658427129608,0.2215172285358697,-0.5978631709953761,0.6918230316409124,0.31586235794293194,-12.480518252800263
1589995920.4956505,-1.0379147199836785,-3.7783411200652863,8.790379679689892,0.5244444444444445,0.2411111111111111,-0.5866666666666667,0.8047970009180864,-0.0494669998979904,-9.162474497602775
1589995920.5056505,-1.0794389167557494,-3.8285395937834057,8.683259052161281,0.5244444444444445,0.2411111111111111,-0.5866666666666667,1.0955033851382836,-0.2703690760080037,-6.068792314228545
1589995920.5156505,-1.099268703898841,-3.8453656480505796,8.677806111696523,0.5244444444444445,0.2411111111111111,-0.5866666666666667,1.1676765015806112,-0.5381059009483667,-3.164699683877766
1589995920.5256505,-1.0782168930578293,-3.8342891907437724,8.669638511570284,0.5244444444444445,0.2411111111111111,-0.5866666666666667,1.2634037210742888,-0.6740962789257112,-0.6073818636343524
1589995920.5356505,-1.06,-3.8195280352330245,8.709528035233024,0.5265617856073388,0.25063914634413553,-0.5866666666666667,1.217275110103201,-0.6011244494839939,2.521480395056859
1589995920.5456505,-1.0686819532058343,-3.8343409766029173,8.689613163779581,0.5288888888888889,0.2611111111111111,-0.5866666666666667,0.9786889623176797,-0.5731555188411601,5.454424084643369
1589995920.5556505,-1.08,-3.8623324993049764,8.659571071130705,0.5288888888888889,0.2611111111111111,-0.5866666666666667,0.565180805433099,-0.8297589260892013,8.164546844592715
1589995920.5656505,-1.0883356864327014,-3.914167843216351,8.705007059298104,0.5288888888888889,0.2611111111111111,-0.5866666666666667,0.3072548994890413,-1.0781470603065753,11.474303944803012
1589995920.5756505,-1.097740698000811,-3.926777905997567,8.744518603998378,0.5288888888888889,0.2611111111111111,-0.5866666666666667,0.13912063749493186,-1.2157412749898637,13.893531874746593
1589995920.5856504,-1.100009937452505,-3.9399900625474955,8.749990062547495,0.5227717048901359,0.2705649409273657,-0.5866666666666667,0.0936568363827673,-1.4063431636172328,17.657585345180337
1589995920.5956504,-1.115908939610081,-3.935908939610081,8.793180456490727,0.5166666666666667,0.28,-0.5866666666666667,-0.07386174512601046,-1.8323778530670471,20.514165775083214
1589995920.6056504,-1.153292806029745,-3.906707193970255,8.724572780905808,0.5166666666666667,0.28,-0.5866666666666667,-0.19436001256196864,-2.1318600125619684,22.810980226115436
1589995920.6156504,-1.1744131253633996,-3.8855868746366005,8.667934373183002,0.5166666666666667,0.28,-0.5866666666666667,-0.35475389943625657,-2.362089832393761,24.999710860277574
1589995920.6256504,-1.1602506420338037,-3.8607519261014116,8.685125321016901,0.5166666666666667,0.28,-0.5866666666666667,-0.4375,-2.4085997690669108,26.85150230933089
1589995920.6356504,-1.140694280872088,-3.867222876511648,8.712570016947693,0.5357950893184859,0.2825849219799756,-0.5970063545865689,-0.3793392554505501,-2.37066074454945,28.56858967914285
1589995920.6456504,-1.1188128521759981,-3.8372835391439875,8.68847068696799,0.5577777777777778,0.2855555555555556,-0.6088888888888889,-0.277540163049994,-2.542379510850018,30.276536086800142
1589995920.6556504,-1.1258316911501254,-3.8380495342171264,8.634722769616625,0.5577777777777778,0.2855555555555556,-0.6088888888888889,-0.5798268989609459,-2.559034620207811,31.59715379792189
1589995920.6656504,-1.130153693604363,-3.8752305404065446,8.669385225582548,0.5577777777777778,0.2855555555555556,-0.6088888888888889,-0.8134605850272683,-2.561539414972732,32.34134853743183
1589995920.6756504,-1.122756328132375,-3.8903196094561245,8.732050625059,0.5577777777777778,0.2855555555555556,-0.6088888888888889,-0.75,-2.6077729491726567,32.56890820330938
1589995920.6856503,-1.128412606367915,-3.952538670047065,8.77730085094332,0.5577777777777778,0.2855555555555556,-0.6088888888888889,-0.75,-2.5724212102005315,32.710315159197876
1589995920.6956503,-1.1217918054406868,-3.9646245836779404,8.68806312448309,0.6166666666666667,0.2588888888888889,-0.6166666666666667,-0.7891957440150211,-2.4542981760064375,32.24530729597425
1589995920.7056503,-1.14,-3.911322440087146,8.766032679738561,0.6166666666666667,0.2588888888888889,-0.6166666666666667,-1.1792347494553377,-2.619489832970225,31.51015341321714
1589995920.7156503,-1.1575160295354705,-3.925403308720441,8.691677353023646,0.6166666666666667,0.2588888888888889,-0.6166666666666667,-0.9635082718011029,-2.5,30.11955790260772
1589995920.7256503,-1.196580777210789,-3.885441036281052,8.714301295351316,0.6166666666666667,0.2588888888888889,-0.6166666666666667,-0.875,-2.478629857567431,29.371779145404588
1589995920.7356503,-1.1776912207637675,-3.8615368311456515,8.658463168854349,0.7333168482504742,0.2563251486342997,-0.6384584588306746,-0.9230701297735471,-2.3125,28.014474026698398
1589995920.7456503,-1.1951535385926813,-3.874846461407319,8.634846461407319,0.92,0.25222222222222224,-0.6733333333333333,-0.9033711513872258,-2.215871151387226,26.986565373140387
1589995920.7556503,-1.2094464635900117,-3.879446463590012,8.644169695385019,0.92,0.25222222222222224,-0.6733333333333333,-0.8420201987187867,-2.125,26.090176820499412
1589995920.7656503,-1.2251914406355113,-3.8796171187289774,8.649617118728978,0.92,0.25222222222222224,-0.6733333333333333,-0.9398930079438917,-1.9952139841122165,25.49760699205611
1589995920.7756503,-1.23,-3.8775855225361675,8.677927612680838,0.92,0.25222222222222224,-0.6733333333333333,-1.0,-1.8038857262234294,25.342680968297906
1589995920.7856503,-1.232358943577431,-3.89,8.74,1.0751660664265705,0.1853854875283447,-0.7606142456982793,-0.9557698079231692,-1.6875,25.246473589435773
1589995920.7956502,-1.250361139125006,-3.900361139125006,8.729638860874994,1.5777777777777775,-0.031111111111111114,-1.0433333333333332,-0.8125,-1.817014239062575,25.664149918359506
1589995920.8056502,-1.2741746775831155,-3.9241746775831157,8.69165064483377,1.5777777777777775,-0.031111111111111114,-1.0433333333333332,-0.8125,-1.9670305782981574,26.229366939577886
1589995920.8156502,-1.3078140121172692,-3.9114975806123695,8.681376814540723,1.5777777777777775,-0.031111111111111114,-1.0433333333333332,-0.8125,-2.044535030293173,27.00354775749197
1589995920.8256502,-1.34,-3.8505083859055236,8.72,1.5777777777777775,-0.031111111111111114,-1.0433333333333332,-0.8026129019849207,-2.154661294045238,27.845693568241266
1589995920.8356502,-1.34,-3.811785813202031,8.72,1.5777777777777775,-0.031111111111111114,-1.0433333333333332,-0.7622768887521157,-2.275669333743653,28.49106977996615
1589995920.8456502,-1.3506877065785265,-3.8048139460496855,8.711375413157054,0.8011111111111111,0.045555555555555564,-0.6966666666666667,-0.6292981661157906,-2.428903667768419,29.38359633223158
1589995920.8556502,-1.374833553850225,-3.8662916115374437,8.704041280762107,0.8011111111111111,0.045555555555555564,-0.6966666666666667,-0.7106774278909764,-2.358854855781953,29.51158871394549
1589995920.8656502,-1.4461314189436671,-3.85,8.608394256831001,0.8011111111111111,0.045555555555555564,-0.6966666666666667,-0.8125,-2.5114048421361073,29.43476210534027
1589995920.8756502,-1.4691753351402828,-3.85,8.677526005420848,0.8011111111111111,0.045555555555555564,-0.6966666666666667,-0.8125,-2.31937220716431,28.954680517910777
1589995920.8856502,-1.3681335823354939,-3.91985938701527,8.73806327584313,0.7636465389920295,0.07633002551051546,-0.6966666666666667,-0.5004394155772822,-2.0376318246731846,27.573945402614523
1589995920.8956501,-1.5140409755025817,-3.7662726573657035,8.807177304185434,0.6202989246524345,0.1940798515751828,-0.6966666666666667,-0.9803979457321762,-2.181619383719653,26.422044930242777
1589995920.9056501,-1.5613224077912935,-3.6613224077912934,8.71396722337388,0.6144444444444445,0.1988888888888889,-0.6966666666666667,-0.9322063108694802,-2.3290300973911684,25.290676213478314
1589995920.9156501,-1.5285373731159644,-3.638044447862196,8.624387880652106,0.6144444444444445,0.1988888888888889,-0.6966666666666667,-0.6966414180252231,-1.946641418025223,25.483207090126115
1589995920.9256501,-1.5133841162631858,-3.7264635349472566,8.68676823252637,0.6144444444444445,0.1988888888888889,-0.6966666666666667,-0.8125,-2.1894043598694695,26.506665259543144
1589995920.93565,-1.5015370557713017,-3.7253865483144604,8.720770812257285,0.6070079807967743,0.20504320363178832,-0.6982052453523915,-0.783651649642659,-2.379803299285318,27.850997780896126
1589995920.94565,-1.4216491035309393,-3.803883034510313,8.753298207061878,0.5822222222222222,0.2255555555555556,-0.7033333333333334,-0.6301534485341856,-2.225731034310543,29.858041377415972
1589995920.95565,-1.3808726498758424,-3.789903038902684,8.670096961097316,0.5822222222222222,0.2255555555555556,-0.7033333333333334,-0.5066660754404635,-2.314318020574672,30.81553003429112
1589995920.96565,-1.437232981334996,-3.7701698944004987,8.657063086934496,0.5822222222222222,0.2255555555555556,-0.7033333333333334,-0.818871040018704,-2.4590412266687447,30.940685520009353
1589995920.97565,-1.382926580895137,-3.748153345586409,8.650626397099002,0.5822222222222222,0.2255555555555556,-0.7033333333333334,-0.21254067110426705,-2.375,30.135461166857088
1589995920.98565,-1.44,-3.718237088516937,8.791310379585665,0.5835656118199422,0.21910728548649983,-0.7052140787701413,-0.7389818032308549,-2.284321202153903,27.494343351282527
1589995920.99565,-1.4617983327894628,-3.634146667062209,8.675944999851671,0.5877777777777777,0.1988888888888889,-0.7111111111111111,-0.41158333086119436,-1.9752291672847013,24.44380210032929
1589995921.00565,-1.5302330238215314,-3.5843759826752497,8.69460900649678,0.5877777777777777,0.1988888888888889,-0.7111111111111111,-0.7226501082796879,-1.897462472930078,22.305218005577146
1589995921.01565,-1.5223635689798944,-3.590727323265079,8.7,0.5877777777777777,0.1988888888888889,-0.7111111111111111,-0.5749994209209672,-1.7670451913277123,20.607951913277123
1589995921.02565,-1.4835022699898082,-3.6198732975076435,8.7,0.5877777777777777,0.1988888888888889,-0.7111111111111111,-0.24103513272491428,-1.6152432421476883,19.089932421476885
1589995921.03565,-1.575200701681973,-3.883201939944278,8.528989784335982,0.5852975842419655,0.19722250885701512,-0.7080496222153431,0.0777590031988443,-0.8619208544009906,10.770366835207925
1589995921.04565,-3.664461871839851,-7.4164534103807656,6.1485698070374575,0.5573183595317533,0.17842396725484128,-0.6735127667136748,0.24989681147456402,-0.7143741615932309,9.589993292745847
1589995921.05565,-5.75372304199773,-10.949704880817253,3.768149829738933,0.5293391348215413,0.15962542565266744,-0.6389759112120066,0.4220346197502838,-0.5668274687854711,8.409619750283769
1589995921.06565,-0.1415505324117321,-4.3969471324490925,1.8412594806650475,0.5166666666666667,0.1511111111111111,-0.6233333333333333,-16.271198393424246,-70.74613767980571,-479.5613954791705
1589995921.07565,0.5502653819384813,-2.633373405765007,1.086614120560773,0.5101575780583852,0.20126938215139747,-0.6283108716808427,-21.280854830837093,-54.072710561044175,-536.1563723075393
1589995921.08565,0.11048810029557188,-2.1860137571972196,0.41178346424665335,0.5029964537404452,0.25645216366023,-0.6337870255710322,-23.721429184782117,-22.866531685844194,-509.1678850343026
1589995921.09565,-0.23122391872112044,-1.8404086904112735,-0.09142826392675717,0.4977777777777778,0.2966666666666667,-0.6377777777777778,-26.571399743133483,-0.07398096461269121,-486.5510997546136
1589995921.10565,-0.30946904686737653,-1.7681824182762678,-0.1335602560055104,0.4977777777777778,0.2966666666666667,-0.6377777777777778,-30.521274000516605,0.11410828573888585,-475.6795410842924
1589995921.11565,-0.46106882514437186,-1.2799384644513867,-0.9732680109817287,0.4977777777777778,0.2966666666666667,-0.6377777777777778,13.439200116759757,58.502317444539116,-442.73409937202183
1589995921.12565,0.6296537143520942,0.09949584712783888,5.202452924435152,0.4977777777777778,0.2966666666666667,-0.6377777777777778,75.61261906836266,85.47064384039031,-405.12614566997735
1589995921.13565,1.9402963350177156,1.585540454202242,12.661909624208633,0.4977777777777778,0.2966666666666667,-0.6377777777777778,135.66343802636928,100.72696244990416,-369.1321963756752
1589995921.14565,0.515266395495622,0.08744344480734134,4.334850421784518,0.4206544172160218,0.4202137976636544,-0.6422704007231228,96.47295344340473,17.954941190614534,-330.2848898952051
1589995921.15565,-0.20087304860088365,-0.7262362297496319,-0.40159941089837997,0.38333333333333336,0.48,-0.6444444444444445,61.396273932253315,-18.88967231222386,-310.6006958762887
1589995921.16565,-0.03889386352479135,-0.6383831124202258,-0.3878723613156603,0.38333333333333336,0.48,-0.6444444444444445,44.4776853215513,-11.254000981836032,-303.51410652920964
1589995921.17565,0.12308532155130092,-0.5505299950908199,-0.3741453117329406,0.38333333333333336,0.48,-0.6444444444444445,27.55909671084929,-3.6183296514482066,-296.4275171821306
1589995921.1856499,0.2850645066273932,-0.4626768777614139,-0.3604182621502209,0.38333333333333336,0.48,-0.6444444444444445,10.640508100147272,4.017341678939619,-289.34092783505156
1589995921.1956499,0.7436737078084052,-0.8323548356540684,2.9526740551292985,0.3276941050172082,0.512337329277748,-0.6363601121250074,25.827032221906478,14.842853083262291,-253.01300085251492
1589995921.2056499,1.2116052540178712,-1.2164118594297624,6.369457232168229,0.27030627387831135,0.5456909405379615,-0.628021709309954,42.02254033658552,25.76861324239841,-215.76609121909632
1589995921.2156498,1.091813955987855,-2.925412580272456,10.34095090953059,0.2533333333333333,0.5555555555555556,-0.6255555555555555,-10.494003076551039,4.375107477765537,-181.32784245103045
1589995921.2256498,0.7714011188352877,-2.137051705170517,9.394039978465932,0.2533333333333333,0.5555555555555556,-0.6255555555555555,3.6769772721953045,33.334686527163356,-165.5411180745734
1589995921.2356498,1.3529322766570604,-2.7292742137576744,9.100914045858914,0.23613429116373608,0.5649138579125423,-0.6255555555555555,9.93097473687508,-0.9995027252224031,-156.87561865680993
1589995921.2456498,0.82,-2.15,7.17,0.17777777777777778,0.5966666666666667,-0.6255555555555555,2.0625,0.0625,-146.0625
1589995921.2556498,1.0456668053335667,-2.389770980666915,8.940074004335164,0.17777777777777778,0.5966666666666667,-0.6255555555555555,-0.18535294375232603,16.28230163335012,-133.94172432290412
1589995921.2656498,1.1321671115525482,-2.68518716245577,9.26339437581476,0.17777777777777778,0.5966666666666667,-0.6255555555555555,1.133539481035446,7.157854305046868,-115.3711395803588
1589995921.2756498,1.054056117698181,-2.3380271897696936,8.300025451610901,0.17777777777777778,0.5966666666666667,-0.6255555555555555,5.581526631075796,9.978529083121236,-102.24415311316655
1589995921.2856498,13.412879834254143,-16.351091160220996,4.704564917127072,0.16434008594229588,0.6006368937998773,-0.6252501534683855,-11.213009323204421,-12.63950276243094,-68.3310169198895
1589995921.2956498,-2.066976966200844,0.19369800129996406,11.613846075723107,0.08103871014335752,0.6252486639222908,-0.6233569403820459,-33.842821995856355,12.066928014299641,-3.742869221238223
1589995921.3056498,-0.6006249045072575,0.5534718614718614,9.945166793990325,0.08,0.6255555555555555,-0.6233333333333333,36.09354150751209,4.380000636618283,21.36480455818691
1589995921.3156497,-0.4724568372803667,0.06928138528138528,0.795390883626176,0.08,0.6255555555555555,-0.6233333333333333,47.53076139546728,16.885287751464222,27.016660300483828
1589995921.3256497,1.260754293770828,-2.1723756729043835,11.91,0.08,0.6255555555555555,-0.6233333333333333,-20.621891822609587,-16.264143008203025,28.926164765444756
1589995921.3356497,0.9400878206609661,-2.9153593713889534,10.604374855558124,0.07862362940708215,0.6241791849626377,-0.6252602521634183,-21.962603998151145,-0.5585567367691241,37.040819274324015
1589995921.3456497,2.58,-3.63,6.64,0.07444444444444444,0.62,-0.6311111111111111,12.5,-1.875,39.0625
1589995921.3556497,1.3218469919469444,-3.014379677877783,7.258984367598295,0.07444444444444444,0.62,-0.6311111111111111,6.507793995736617,2.477233834675509,36.72869345097111
1589995921.3656497,-0.2543490883753339,-2.505113924050633,8.9845769364766,0.07444444444444444,0.62,-0.6311111111111111,-5.393361688537917,8.515356811055627,32.42823133201719
1589995921.3756497,2.040810851454179,-4.164989623748083,9.51778970796114,0.07444444444444444,0.62,-0.6311111111111111,-4.538794399831573,0.3452115101206048,33.64059257421276
1589995921.3856497,3.3527516617041115,-4.770500766940359,7.808482209991277,0.07444444444444444,0.62,-0.6311111111111111,-1.1879840371138988,-8.958214908719059,35.53281489668862
1589995921.3956497,1.5441692286763706,-3.3036234525914843,7.95158889946946,0.0811111111111111,0.6288888888888889,-0.6377777777777778,-3.5524180383621276,1.3549874166780032,39.95688681811998
1589995921.4056497,2.093980456026059,-3.9846601520086864,8.806699239956568,0.0811111111111111,0.6288888888888889,-0.6377777777777778,-1.9939332247557002,-4.979980998914224,41.77183767643865
1589995921.4156497,2.0900304613726366,-3.9452714576938397,8.5919888933149,0.0811111111111111,0.6288888888888889,-0.6377777777777778,-1.5030124540150431,-3.1814750919699137,44.98173489233076
1589995921.4256496,1.8798626958446867,-3.739917617506812,8.115906633174387,0.0811111111111111,0.6288888888888889,-0.6377777777777778,-1.0994164573399183,-3.4371567396117166,47.66397601966962
1589995921.4356496,1.7090543550231745,-3.649054355023175,8.094456550091294,0.08424154666916359,0.6288888888888889,-0.637190821110643,-0.4315897188948414,-3.075067968859728,50.12065225024579
1589995921.4456496,1.986772407151026,-3.9267724071510264,9.188497361504043,0.11416403040011058,0.6288888888888889,-0.6315803554110904,-2.167327544693914,-4.3900208671923595,53.06614674251089
1589995921.4556496,1.7989210069606436,-3.895677309795286,8.654329408252002,0.11666666666666667,0.6288888888888889,-0.6311111111111111,-2.229726892716517,-4.158781514173214,57.72800422677142
1589995921.4656496,1.618898053632411,-3.754789781103626,8.21601265232239,0.11666666666666667,0.6288888888888889,-0.6311111111111111,-2.474323296695094,-4.354458637356075,60.8588381976972
1589995921.4756496,1.5361747523495046,-3.830218440436881,8.332402844805689,0.11666666666666667,0.6288888888888889,-0.6311111111111111,-1.676228727457455,-4.563182626365252,67.2988315976632
1589995921.4856496,1.597052142675714,-3.9063151783446424,9.169466961791068,0.11666666666666667,0.6288888888888889,-0.6311111111111111,-2.1042728781886133,-4.800984932327007,71.24634987662833
1589995921.4956496,1.3054436440854396,-3.8218095515676396,8.924536370071198,0.13666666666666666,0.6144444444444445,-0.6377777777777778,-2.7272244660032476,-5.823809697297747,78.31221894907773
1589995921.5056496,1.4503666111595697,-3.939627045172204,8.912572621785214,0.13666666666666666,0.6144444444444445,-0.6377777777777778,-3.4884244574842067,-6.7801043401263446,84.03950750667407
1589995921.5156496,1.334788816708423,-3.882042436201583,8.362958561514755,0.13666666666666666,0.6144444444444445,-0.6377777777777778,-3.391284947786178,-7.1875,91.07043184488836
1589995921.5256495,1.3364531106560271,-3.9659526163406538,8.783143139608786,0.13666666666666666,0.6144444444444445,-0.6377777777777778,-3.127085392980722,-7.205059229574182,97.0809353153026
1589995921.5356495,1.1069084104229927,-3.8919059388461266,8.694287126615352,0.13666666666666666,0.6144444444444445,-0.6377777777777778,-2.4791769649036084,-7.297617576442342,102.44931943365582
1589995921.5456495,0.9185463237805038,-3.792848774593501,8.920609682418766,0.14888888888888888,0.6144444444444445,-0.6377777777777778,-3.4776524206046915,-8.09393305576716,112.31850718432321
1589995921.5556495,0.8598155596978319,-3.8081977827921123,8.564484450112822,0.14888888888888888,0.6144444444444445,-0.6377777777777778,-3.6762361424507013,-8.94347223584813,119.82879181791425
1589995921.5656495,0.9918990566301823,-3.9830380987039162,8.764430478963133,0.14888888888888888,0.6144444444444445,-0.6377777777777778,-4.786392870139686,-9.446202376620105,125.6809006102511
1589995921.5756495,0.6068114759244146,-3.831757172452759,8.679674179170068,0.14888888888888888,0.6144444444444445,-0.6377777777777778,-4.260303534434051,-9.70742827547241,134.5585488731245
1589995921.5856495,0.537592614510593,-3.7952962480766956,8.822777843531778,0.1517777514761773,0.6131605055167607,-0.6384732446969398,-4.300463072552965,-10.152083086755828,141.52152473665524
1589995921.5956495,0.489090932948432,-3.903636268206272,8.692726938721952,0.2088888888888889,0.5877777777777777,-0.6522222222222223,-4.130680028867602,-10.730112518042251,148.46021847526572
1589995921.6056495,0.45511941866885136,-3.9641273799134416,8.920318449783604,0.2088888888888889,0.5877777777777777,-0.6522222222222223,-5.556299757778688,-11.69320266443443,156.28743076210662
1589995921.6156495,0.343066236842574,-3.844603985965412,8.621509964913532,0.2088888888888889,0.5877777777777777,-0.6522222222222223,-5.509610932017739,-12.20677974780487,162.21691163374712
1589995921.6256495,0.31106220839813375,-4.028827760497667,8.714358864696734,0.2088888888888889,0.5877777777777777,-0.6522222222222223,-6.082760254665629,-12.895947949066874,171.643435312986
1589995921.6356494,0.2458320373250389,-3.9472900466562986,8.600206065318819,0.2088888888888889,0.5877777777777777,-0.6522222222222223,-5.3183441874028,-13.04883116251944,177.7078027799378
1589995921.6456494,0.04708981043808781,-3.881455094780956,8.776904146971395,0.2677777777777778,0.5688888888888889,-0.6444444444444445,-5.464783027142927,-13.714783027142927,187.28559463476438
1589995921.6556494,0.019819788683716796,-3.925630739606991,8.693213192455811,0.2677777777777778,0.5688888888888889,-0.6444444444444445,-5.826483348968105,-14.012857028241335,194.0392299052039
1589995921.6656494,-0.051008252683846345,-4.090450794234615,8.638991747316155,0.2677777777777778,0.5688888888888889,-0.6444444444444445,-6.800563492793269,-14.771055550447116,200.42607928553366
1589995921.6756494,-0.16012553942722638,-4.0563554335033345,8.570125539427227,0.2677777777777778,0.5688888888888889,-0.6444444444444445,-6.75,-15.171341702628482,206.71868870145155
1589995921.6856494,-0.28518116908591606,-4.0958466849745,8.695181169085917,0.2677777777777778,0.5688888888888889,-0.6444444444444445,-6.75,-15.459298744605729,211.57282169478228
1589995921.6956494,10.230196580749727,-15.05530611177916,6.084874261515136,0.3922222222222223,0.5155555555555555,-0.6588888888888889,-7.143935928268939,-16.34213088827312,216.390259842108
1589995921.7056494,1.6724530876833847,-13.485876833845104,9.447930550816938,0.3922222222222223,0.5155555555555555,-0.6588888888888889,-18.15597871412866,-18.384378909359718,126.71012334622237
1589995921.7156494,-2.33438416922552,-0.6783077447969994,8.939125819780887,0.3922222222222223,0.5155555555555555,-0.6588888888888889,-16.168460233519088,-1.2420320141021257,-56.68814445202625
1589995921.7256494,-2.9612643932238814,-1.7907965757691457,3.9151146434097623,0.3922222222222223,0.5155555555555555,-0.6588888888888889,38.205359654763576,20.593557211180997,-68.09477171794305
1589995921.7356493,-1.0311261378936156,-1.108083917770231,7.5731059220706145,0.3922222222222223,0.5155555555555555,-0.6588888888888889,17.608087333962985,9.84715426119808,-22.580594518015396
1589995921.7456493,-0.5819684974435098,-3.886940458518885,11.684949694870525,0.4188888888888889,0.4688888888888889,-0.6666666666666666,-21.54808881741712,-8.472863062840178,9.2341095579746
1589995921.7556493,-0.5525574828559904,-3.130970149253731,8.37121016538927,0.4188888888888889,0.4688888888888889,-0.6666666666666666,-7.945429104477612,-4.814428701089149,31.27388816054861
1589995921.7656493,0.06781766841468329,-3.3918097014925372,8.187917507059298,0.4188888888888889,0.4688888888888889,-0.6666666666666666,6.726795708955223,-1.2455091518757566,51.32152266538927
1589995921.7756493,4.310429081875202,-12.080221901884709,8.829917649404223,0.4188888888888889,0.4688888888888889,-0.6666666666666666,-4.266627306046711,-4.195361261482311,57.80962846386235
1589995921.7856493,-0.3656985998865192,-6.21415801499793,8.977855664095447,0.4188888888888889,0.4688888888888889,-0.6666666666666666,-8.568085885383919,-4.717968378598046,14.151833910963205
1589995921.7956493,0.7737855904926962,-3.655575637534043,8.148474870017331,0.4133333333333333,0.4833333333333333,-0.6588888888888889,10.505709952958654,4.139019559296855,-14.210943302797721
1589995921.8056493,0.1661406736101718,-6.190240227241985,9.422830244826187,0.4133333333333333,0.4833333333333333,-0.6588888888888889,-2.553494860002705,-1.8334049100500474,10.761578520221832
1589995921.8156493,-0.24676532340973922,-4.416553916103155,8.337618047812803,0.4133333333333333,0.4833333333333333,-0.6588888888888889,-2.02951014320673,0.31941508231853,0.9803117895773302
1589995921.8256493,-0.11922546734046713,-4.562313751610895,8.544111148115435,0.4133333333333333,0.4833333333333333,-0.6588888888888889,0.21002899610489267,0.35737337281533715,-0.5000615397981494
1589995921.8356493,-0.08376683828196628,-4.6616891177092885,8.544932646872134,0.4133333333333333,0.4833333333333333,-0.6588888888888889,-0.23542739262289292,0.12742876789618449,-0.3457578108470274
1589995921.8456492,-0.09,-4.609847328244275,8.707977099236642,0.43338422391857506,0.4833333333333333,-0.671420695504665,0.03291984732824427,-0.12547709923664124,0.10997137404580154
1589995921.8556492,-0.12,-4.6511957940358055,8.56239158807161,0.44,0.4833333333333333,-0.6755555555555556,0.3573422763426827,0.1875,0.007473712723780443
1589995921.8656492,-0.12,-4.66,8.58,0.44,0.4833333333333333,-0.6755555555555556,0.6875,0.1875,0.0625
1589995921.8756492,-0.11210093741748085,-4.620504687087404,8.603697187747557,0.44,0.4833333333333333,-0.6755555555555556,0.045701165170319524,0.03939257657776604,0.0625
1589995921.8856492,-0.11,-4.624530528895242,8.697183173371451,0.44,0.4833333333333333,-0.6755555555555556,-0.07959209720236879,0.045407902797631204,0.0625
1589995921.8956492,-0.11729141660494931,-4.688331332839595,8.591463084505962,0.44,0.4776622315294839,-0.6739352407544558,-0.2903567689046658,-0.028642707561866335,-0.028642707561866335
1589995921.9056492,-0.12,-4.654586722578689,8.642910372353862,0.44,0.4755555555555556,-0.6733333333333333,0.21871368665689894,0.03645228110948315,0.03645228110948315
1589995921.9156492,-0.12,-4.592284925299157,8.622284925299157,0.44,0.4755555555555556,-0.6733333333333333,0.1886129894498336,-0.08660960844013313,0.025222597889966718
1589995921.9256492,-0.12,-4.56,8.647761351636747,0.44,0.4755555555555556,-0.6733333333333333,0.017373944033790924,-0.09724788806758185,-0.09025211193241815
1589995921.9356492,-0.11450514169461354,-4.581979433221545,8.680989716610773,0.44,0.4755555555555556,-0.6733333333333333,-0.2404000508606577,-0.028157135591334613,0.012371457634661548
1589995921.9456491,-0.11,-4.615117287381879,8.674882712618121,0.4293619088794186,0.46883676116360945,-0.6733333333333333,-0.3115226051510098,-0.031494348712247544,0.15649434871224754
1589995921.9556491,-0.1159867083167362,-4.647960124950209,8.648026583366528,0.4188888888888889,0.4622222222222222,-0.6733333333333333,0.0370015618776075,-0.0625,0.037832292081595
1589995921.9656491,-0.12,-4.556933624651548,8.674355458449483,0.4188888888888889,0.4622222222222222,-0.6733333333333333,0.6169432306185489,0.1522216153092745,0.09854121148195585
1589995921.975649,-0.1487880919482477,-4.578384122597663,8.660807938701168,0.4188888888888889,0.4622222222222222,-0.6733333333333333,0.2676736590880543,0.1275248084411506,0.0650248084411506
1589995921.985649,-0.11888391737864265,-4.587779020655339,8.675558041310678,0.4188888888888889,0.4622222222222222,-0.6733333333333333,0.10414336271238742,0.027762241808258273,0.0625
1589995921.995649,-0.11,-4.628043260815204,8.660978369592398,0.4280474516777343,0.4706762801811564,-0.6733333333333333,-0.17527038009502377,0.03962839668250396,0.02287160331749604
1589995922.005649,-0.11,-4.626478116860148,8.618637489146863,0.43333333333333335,0.4755555555555556,-0.6733333333333333,0.030527462456185483,0.0625,0.0
1589995922.015649,-0.12943238547039193,-4.6005676145296075,8.590567614529608,0.43333333333333335,0.4755555555555556,-0.6733333333333333,0.18572620459497477,-0.058952409189949526,0.06072620459497476
1589995922.025649,-0.13,-4.571405474665114,8.656720559114735,0.43333333333333335,0.4755555555555556,-0.6733333333333333,0.06835614443797321,-0.0029280722189866035,-0.05664385556202679
1589995922.035649,-0.13756789538519854,-4.592703686155596,8.629728418459205,0.43333333333333335,0.4755555555555556,-0.6733333333333333,-0.1739967307874538,0.09459869231498153,-0.10979934615749076
1589995922.045649,-0.09467426507224713,-4.636260587942202,8.665325734927753,0.41520303936223213,0.4695121242318552,-0.6541958008082822,-0.30665716865969106,0.2949715059790733,0.10162867463876432
1589995922.055649,-0.13540165559053283,-4.658160662236213,8.67,0.4133333333333333,0.4688888888888889,-0.6522222222222223,-0.3125,-0.028012416928996142,0.18175206948816602
1589995922.065649,-0.12039216698057224,-4.6207843339611445,8.601372584432003,0.4133333333333333,0.4688888888888889,-0.6522222222222223,0.36151926004282875,0.06004895637142342,0.0036765654428648764
1589995922.075649,-0.1276726595249185,-4.596982021425244,8.684399254774103,0.4133333333333333,0.4688888888888889,-0.6522222222222223,0.47090824406148113,-0.0813623660922217,0.047954122030740565
1589995922.085649,-0.11936863764349145,-4.600631362356508,8.688737275286984,0.4133333333333333,0.4688888888888889,-0.6522222222222223,0.4003309779077323,-0.058553985271821526,0.029276992635910763
1589995922.095649,-0.12304454233969653,-4.590433186490455,8.676522271169848,0.42637787567302987,0.4688888888888889,-0.6565704030021211,-0.0951419481155164,0.0,0.0
1589995922.105649,-0.12069138416111869,-4.6358516950332875,8.68,0.43333333333333335,0.4688888888888889,-0.6588888888888889,-0.07978460402796736,0.0,0.0
1589995922.115649,-0.12,-4.601864586957362,8.626610421740306,0.43333333333333335,0.4688888888888889,-0.6588888888888889,-0.0625,-0.04766926630329739,0.04766926630329739
1589995922.125649,-0.12,-4.6129466478448355,8.615736661961208,0.43333333333333335,0.4688888888888889,-0.6588888888888889,0.045062411772668384,-0.026645862742443877,0.026645862742443877
1589995922.135649,-0.11383872166480861,-4.611516164994425,8.663128948346339,0.43333333333333335,0.4688888888888889,-0.6588888888888889,0.009476031215161648,-0.03850798959494612,0.0
1589995922.145649,-0.11,-4.6137214108249935,8.683139294587503,0.42875952972500214,0.4688888888888889,-0.6642249930986086,0.06613822648431514,-0.019620591171894956,0.0
1589995922.155649,-0.1185937594485094,-4.611406240551491,8.637031202757454,0.4266666666666667,0.4688888888888889,-0.6666666666666666,-0.1972659793191026,-0.05371099655318377,0.0
1589995922.165649,-0.12,-4.623854441431066,8.58150945499127,0.4266666666666667,0.4688888888888889,-0.6666666666666666,0.05306590630456587,-0.0625,-0.04329512947208084
1589995922.175649,-0.12796294554688234,-4.59814821781247,8.639629455468823,0.4266666666666667,0.4688888888888889,-0.6666666666666666,0.336805229004044,-0.0625,0.1365736386720587
1589995922.185649,-0.11735416889650005,-4.60896874665525,8.6726458311035,0.4266666666666667,0.4688888888888889,-0.6666666666666666,0.3354817778015627,0.174609333190624,0.02942711120625066
1589995922.195649,-0.11,-4.612136405529954,8.703590783410139,0.4266666666666667,0.4688888888888889,-0.6666666666666666,0.06676267281105991,0.01761520737327188,-0.013352534562211985
1589995922.205649,-0.13625,-4.61,8.675,0.4266666666666667,0.4688888888888889,-0.6666666666666666,0.0,-0.0078125,0.109375
1589995922.215649,-0.10621129995406522,-4.618447175011484,8.602422599908131,0.4266666666666667,0.4688888888888889,-0.6666666666666666,-0.21117937528709235,-0.05279484382177309,0.125
1589995922.2256489,-0.1133313124040848,-4.626665656202042,8.623328281010213,0.4266666666666667,0.4688888888888889,-0.6666666666666666,-0.041698243686174946,-0.020839648737234984,0.16666035126276502
1589995922.2356489,-0.1278968453491201,-4.6102578866272,8.66369053604736,0.4266666666666667,0.4688888888888889,-0.6666666666666666,0.0625,0.0,0.16282235828399969
1589995922.2456489,-0.13648238153098421,-4.583517618469016,8.7,0.4266666666666667,0.4688888888888889,-0.665298703928716,0.018529769137302553,0.021985115431348724,0.125
1589995922.2556489,-0.12627643738758296,-4.625105749550332,8.63723562612417,0.4266666666666667,0.4688888888888889,-0.6588888888888889,-0.1875,0.125,0.125
1589995922.2656488,-0.12363375369500032,-4.620901261085001,8.555436275865002,0.4266666666666667,0.4688888888888889,-0.6588888888888889,-0.028343842375007977,0.164789039406248,-0.03415615762499202
1589995922.2756488,-0.12,-4.6224891970656214,8.586201386795297,0.4266666666666667,0.4688888888888889,-0.6588888888888889,0.14055748166013465,0.14847125916993267,-0.125
1589995922.2856488,-0.11382562155485922,-4.6176512431097185,8.650871892225704,0.4266666666666667,0.4688888888888889,-0.6588888888888889,0.3418594611285195,0.125,-0.04782026943574026
1589995922.2956488,-0.11,-4.6050531622724415,8.689787350910233,0.42996455848503873,0.472186780707261,-0.6693322129804004,0.22107584941933459,-0.02958867898618958,0.0
1589995922.3056488,-0.11,-4.605713680494263,8.692858958517212,0.43333333333333335,0.4755555555555556,-0.68,0.0,-0.1875,0.0
1589995922.3156488,-0.11,-4.615247570080293,8.632771869277363,0.43333333333333335,0.4755555555555556,-0.68,-0.09839193900549373,-0.05631074799267502,-0.06559462600366249
1589995922.3256488,-0.10405589123867069,-4.602167673716012,8.631608761329305,0.43333333333333335,0.4755555555555556,-0.68,-0.07604796072507553,0.02534932024169184,-0.05069864048338368
1589995922.3356488,-0.12004336203085861,-4.596681120676952,8.686724482707811,0.43333333333333335,0.4755555555555556,-0.68,0.04175700423095544,0.08351400846191089,0.04175700423095544
1589995922.3456488,-0.11479377251074707,-4.607603113744626,8.707603113744627,0.43333333333333335,0.4654180705627203,-0.6749312575035824,0.0625,0.02996107819216917,0.0625
1589995922.3556488,-0.11612652749490834,-4.603873472505091,8.71612652749491,0.43333333333333335,0.4622222222222222,-0.6733333333333333,-0.01408159368635438,0.11487239052953156,0.0625
1589995922.3656487,-0.12,-4.620330269205515,8.618348653972424,0.43333333333333335,0.4622222222222222,-0.6733333333333333,-0.10485472751149048,0.10279054497701903,0.14720945502298097
1589995922.3756487,-0.10496126208365518,-4.614961262083655,8.615116213749035,0.43333333333333335,0.4622222222222222,-0.6733333333333333,0.06298422395431033,0.0625,0.04651183203426726
1589995922.3856487,-0.10438459063632168,-4.61,8.651922953181609,0.43333333333333335,0.4622222222222222,-0.6733333333333333,0.26201845738505225,0.08990369147701045,-0.02740369147701045
1589995922.3956487,-0.11073771836299516,-4.6092622816370055,8.68147543672599,0.43333333333333335,0.46320584670621573,-0.6728415210913365,0.41905704092512097,0.10655704092512097,-0.05788926023128024
1589995922.4056487,-0.13412949850354042,-4.6211942477553105,8.68587050149646,0.43333333333333335,0.4755555555555556,-0.6666666666666666,-0.03327341411781881,0.05161873129425504,0.0
1589995922.4156487,-0.11554275682954983,-4.62184758560985,8.59032344170835,0.43333333333333335,0.4755555555555556,-0.6666666666666666,-0.17595258993843788,0.07404741006156214,0.10190517987687572
1589995922.4256487,-0.11,-4.62,8.576291433293544,0.43333333333333335,0.4755555555555556,-0.6666666666666666,-0.14817854191534294,-0.055464374253971174,0.16432145808465706
1589995922.4356487,-0.12110640145034854,-4.614446799274826,8.635532007251742,0.43333333333333335,0.4755555555555556,-0.6666666666666666,-0.05558499093532161,-0.020877486402982412,0.11808499093532161
1589995922.4456487,-0.12071331213084961,-4.605356656065425,8.68928668786915,0.4209510828411328,0.47245999293250546,-0.6630551769397748,0.029020899591094957,0.09152089959109495,0.12054179918218991
1589995922.4556487,-0.11540475247524752,-4.6054047524752475,8.7,0.4066666666666667,0.4688888888888889,-0.6588888888888889,0.028720297029702968,0.125,0.05238118811881187
1589995922.4656487,-0.12491002071465562,-4.619820041429311,8.6558098135681,0.4066666666666667,0.4688888888888889,-0.6588888888888889,-0.06137525893319523,0.15568762946659762,-0.0625
1589995922.4756486,-0.1218061467567462,-4.621806146756747,8.62229077986488,0.4066666666666667,0.4688888888888889,-0.6588888888888889,-0.04818262584449565,0.11068262584449565,-0.0625
1589995922.4856486,-0.11,-4.619546125789521,8.64477306289476,0.4066666666666667,0.4688888888888889,-0.6588888888888889,0.03266835690774842,0.0,0.02699492927675473
1589995922.4956486,-0.11971545658393258,-4.6202845434160675,8.664573184875898,0.42555783224653554,0.4721273744168665,-0.6518721702449376,0.1214432072991572,-0.0303608018247893,0.0642783963504214
1589995922.5056486,-0.1351925308194344,-4.61,8.669614938361132,0.4455555555555555,0.4755555555555556,-0.6444444444444445,0.1201867295141407,-0.030046682378535174,-0.06490663524292965
1589995922.5156486,-0.1345690444334906,-4.615430955566509,8.605690444334906,0.4455555555555555,0.4755555555555556,-0.6444444444444445,-0.03394347229068376,0.06788694458136751,-0.057113055418632486
1589995922.5256486,-0.11964371905110925,-4.614821859525555,8.580712561897782,0.4455555555555555,0.4755555555555556,-0.6444444444444445,-0.0948633779652836,0.0926366220347164,0.06472675593056722
1589995922.5356486,-0.10583089648258,-4.61416910351742,8.625014621104519,0.4455555555555555,0.4755555555555556,-0.6444444444444445,-0.07288620603224999,0.010386206032249982,0.125
1589995922.5456486,-0.10443033703125659,-4.615569662968744,8.67329101109377,0.4283264671006688,0.46964843951388013,-0.6572431958680747,-0.02768960644535369,-0.00712078710929262,0.09731039355464631
1589995922.5556486,-0.11541780009764943,-4.61,8.68458219990235,0.4066666666666667,0.4622222222222222,-0.6733333333333333,0.07294500244123597,-0.03908375183092698,-0.005222501220617987
1589995922.5656486,-0.11254998318806093,-4.61,8.612949848692548,0.4066666666666667,0.4622222222222222,-0.6733333333333333,0.14093739492538085,0.06125042029847658,-0.015937394925380856
1589995922.5756485,-0.11570788115993595,-4.627123643479808,8.612831524639745,0.4066666666666667,0.4622222222222222,-0.6733333333333333,0.053651485500800566,0.08932574275040028,0.0
1589995922.5856485,-0.12,-4.63114088954081,8.643288665688786,0.4066666666666667,0.4622222222222222,-0.6733333333333333,-0.0553694403699376,0.0071305596300624,-0.0276847201849688
1589995922.5956485,-0.11408758019610217,-4.614087580196102,8.677737259411693,0.4224331194770609,0.4622222222222222,-0.6647931713943698,-0.014142128676915625,-0.02554737622563854,0.011405247548722922
1589995922.6056485,-0.11568924812932656,-4.604310751870673,8.695689248129327,0.43333333333333335,0.4622222222222222,-0.6588888888888889,0.13361560161658198,0.0,-0.008615601616581967
1589995922.6156485,-0.11361596244131456,-4.6,8.62977558685446,0.43333333333333335,0.4622222222222222,-0.6588888888888889,0.06779929577464788,-0.15960093896713615,-0.022599765258215963
1589995922.6256485,-0.11,-4.606038508156655,8.608115524469966,0.43333333333333335,0.4622222222222222,-0.6588888888888889,-0.15096270391638683,-0.13677797206270986,0.03774067597909671
1589995922.6356485,-0.11,-4.614044774473404,8.624044774473404,0.43333333333333335,0.4622222222222222,-0.6588888888888889,-0.19944031908245413,-0.037220159541227066,-0.013339521376318789
1589995922.6456485,-0.11335218490937192,-4.6334087396374875,8.640056554728117,0.42662896351458945,0.4603598972725711,-0.6540468440197961,-0.02024422158212731,0.02095115568357454,-0.14595115568357453
1589995922.6556485,-0.12450265057412804,-4.63748674712936,8.66,0.4133333333333333,0.4566666666666666,-0.6444444444444445,0.1875,0.034358433911699696,-0.15935843391169968
1589995922.6656485,-0.13486672761797597,-4.61,8.616199451438217,0.4133333333333333,0.4566666666666666,-0.6444444444444445,0.12666590477530065,0.0,-0.09458295238765033
1589995922.6756485,-0.12684451072837488,-4.61,8.591925815452708,0.4133333333333333,0.4566666666666666,-0.6444444444444445,-0.019721807947657072,0.027407269315885694,-0.08990726931588569
1589995922.6856484,-0.11,-4.61,8.631373334208625,0.4133333333333333,0.4566666666666666,-0.6444444444444445,-0.11078333223921749,0.0625,-0.11078333223921749
1589995922.6956484,-0.1018098289172173,-4.614095085541392,8.674095085541392,0.421523504416116,0.46167177121725606,-0.6562746915640195,-0.0625,0.011311430732608069,-0.011311430732608069
1589995922.7056484,-0.0951033865730002,-4.604689840280999,8.674896613427,0.43333333333333335,0.4688888888888889,-0.6733333333333333,0.001292332162502477,-0.03060383391874876,0.03060383391874876
1589995922.7156484,-0.1062396067802839,-4.59,8.645041572878865,0.43333333333333335,0.4688888888888889,-0.6733333333333333,0.1404950847535486,0.0,-0.07799508475354862
1589995922.7256484,-0.11,-4.610209436497273,8.623263521167575,0.43333333333333335,0.4688888888888889,-0.6733333333333333,0.01908802918938854,-0.08420598540530573,-0.04079401459469427
1589995922.7356484,-0.10502867908025097,-4.615028679080251,8.629942641839499,0.43333333333333335,0.4688888888888889,-0.6733333333333333,-0.12464151149686296,-0.1560707557484315,-0.031070755748431482
1589995922.7456484,-0.10940730907387163,-4.619407309073872,8.658814618147744,0.4301975636420428,0.4657531191975984,-0.6701975636420427,-0.15810215914415118,-0.12870431828830237,-0.0625
1589995922.7556484,-0.1269110126150699,-4.62308898738493,8.652355949539722,0.4266666666666667,0.4622222222222222,-0.6666666666666666,-0.08180617115581316,-0.10569382884418684,-0.10569382884418684
1589995922.7656484,-0.11666165207877462,-4.626669173960613,8.593315782275711,0.4266666666666667,0.4622222222222222,-0.6666666666666666,-0.020817662746170675,4.7011761487969483e-05,0.0417293490153173
1589995922.7756484,-0.11,-4.610509663156393,8.608980673687213,0.4266666666666667,0.4622222222222222,-0.6666666666666666,-0.04060486842418047,-0.01870973684836094,0.0031853947274585737
1589995922.7856483,-0.11,-4.614569699566219,8.640927274674665,0.4266666666666667,0.4622222222222222,-0.6666666666666666,-0.0625,-0.08526515557221656,-0.0625
1589995922.7956483,-0.11,-4.637031542869384,8.657773657152038,0.4266666666666667,0.4622222222222222,-0.6666666666666666,-0.0625,-0.12036178573341189,-0.0625
1589995922.8056483,-0.12249706085052904,-4.61,8.685005878298941,0.4266666666666667,0.4622222222222222,-0.6611111111111111,0.03128673936838691,-0.1562867393683869,-0.09371326063161309
1589995922.8156483,-0.12807710316840956,-4.61,8.652693928515687,0.4266666666666667,0.4622222222222222,-0.6611111111111111,-0.0384637896051194,-0.0504818948025597,-0.1514456844076791
1589995922.8256483,-0.1236936639310057,-4.61,8.609549311448045,0.4266666666666667,0.4622222222222222,-0.6611111111111111,-0.029841598275142572,-0.023085399568785643,-0.023085399568785643
1589995922.8356483,-0.126433016910794,-4.611783491544603,8.661783491544604,0.4266666666666667,0.4622222222222222,-0.6611111111111111,-0.15405953353869367,-0.05135317784623122,-0.09594046646130634
1589995922.8456483,-0.10079615608619685,-4.624601921956901,8.683805765870705,0.423087394033521,0.46529017019348995,-0.6667356823917686,-0.057524024461269654,0.0,-0.1637139633080955
1589995922.8556483,-0.09566854762539052,-4.63566854762539,8.694331452374609,0.4188888888888889,0.4688888888888889,-0.6733333333333333,-0.16042842265869076,0.035428422658690756,-0.0625
1589995922.8656483,-0.10416242776566663,-4.631675144468667,8.644213294577666,0.4188888888888889,0.4688888888888889,-0.6733333333333333,-0.05742413232291774,0.03648482646458355,-0.03648482646458355
1589995922.8756483,-0.11286647796764161,-4.614267044064717,8.60006534577349,0.4188888888888889,0.4688888888888889,-0.6733333333333333,0.125,0.01791548729776007,0.0
1589995922.8856483,-0.1156129518686066,-4.608774096262787,8.65,0.4188888888888889,0.4688888888888889,-0.6733333333333333,0.07016189835758242,0.0625,0.0
1589995922.8956482,-0.11455013747116266,-4.615449862528838,8.659100274942325,0.4224278846997932,0.47192231386966405,-0.6702999083525583,-0.05687671838953324,0.034061640805233384,0.05687671838953324
1589995922.9056482,-0.1255985492462881,-4.598802901507423,8.658802901507425,0.4266666666666667,0.4755555555555556,-0.6666666666666666,-0.05501813442139862,-0.06998186557860138,0.05501813442139862
1589995922.9156482,-0.12437384484739497,-4.6012523103052105,8.621869224236974,0.4266666666666667,0.4755555555555556,-0.6666666666666666,0.03516346970378141,-0.05467306059243718,-0.10549040911134422
1589995922.9256482,-0.11404963709873837,-4.61,8.605950362901261,0.4266666666666667,0.4755555555555556,-0.6666666666666666,0.025310231867114813,-0.07437953626577037,-0.07593069560134444
1589995922.9356482,-0.11442850645488577,-4.61,8.645428051639085,0.4266666666666667,0.4755555555555556,-0.6666666666666666,0.0,-0.125,0.02767816534303607
1589995922.9456482,-0.1150649096643278,-4.61,8.687532454832164,0.4283116967785574,0.47391052544366485,-0.6595382028484734,-0.030844314597951252,-0.10957784270102437,0.01623352810307313
1589995922.9556482,-0.10216220940395036,-4.61,8.68,0.43333333333333335,0.4688888888888889,-0.6377777777777778,-0.125,-0.035472382450620524,-0.08445857367593079
1589995922.9656482,-0.10938987351505132,-4.611220252969898,8.673288608665564,0.43333333333333335,0.4688888888888889,-0.6377777777777778,-0.11737341893814156,0.07012658106185844,0.0625
1589995922.9756482,-0.10490398611577652,-4.620192027768447,8.604327902810436,0.43333333333333335,0.4688888888888889,-0.6377777777777778,0.06129982644720636,0.09555026032919046,0.03185008677639682
1589995922.9856482,-0.11,-4.601111194323267,8.657777611353467,0.43333333333333335,0.4688888888888889,-0.6377777777777778,0.125,-0.055555035479582855,-0.055555035479582855
1589995922.9956481,-0.10775085236646259,-4.592249147633537,8.68,0.43483276508902496,0.4703883206445805,-0.6457747471414663,0.08282848187117352,-0.09688565458078235,-0.0687713091615647
1589995923.0056481,-0.1000625068739231,-4.599937493126077,8.68,0.43995832875071794,0.47551388430627356,-0.6731110866704957,-0.06132799611394216,-0.0007813359240385759,0.12343732815192285
1589995923.0156481,-0.11542129408589874,-4.602710647042949,8.611025470699355,0.44,0.4755555555555556,-0.6733333333333333,-0.07944154401843356,0.03388308803686712,0.0625
1589995923.025648,-0.13,-4.615557545173369,8.582230180693474,0.44,0.4755555555555556,-0.6733333333333333,-0.09026534266644962,0.10763267133322481,0.010398013999674424
1589995923.035648,-0.13,-4.63,8.65468742413207,0.44,0.4755555555555556,-0.6733333333333333,-0.02294910020636077,-0.029296400825443075,-0.0561526993809177
1589995923.045648,-0.12991353001017295,-4.63,8.680086469989826,0.43981745224369845,0.4755555555555556,-0.6731507855770318,-0.06141912512716175,-0.18804043743641913,0.060878687690742624
1589995923.055648,-0.11674426353317488,-4.62348852706635,8.69,0.4188888888888889,0.4755555555555556,-0.6522222222222223,0.021803294164686023,-0.18895494124702905,-0.08430329416468602
1589995923.065648,-0.11,-4.61,8.647253852542216,0.4188888888888889,0.4755555555555556,-0.6522222222222223,-0.040236381532404414,-0.0625,0.0
1589995923.075648,-0.11519159975293392,-4.620383199505868,8.616724397776405,0.4188888888888889,0.4755555555555556,-0.6522222222222223,0.0,-0.030052501544163064,-0.06489499691167387
1589995923.085648,-0.12,-4.621650200564552,8.664174899717723,0.4188888888888889,0.4755555555555556,-0.6522222222222223,0.13046561617887387,-0.07827936970732431,-0.020627507056900904
1589995923.095648,-0.11776627875050161,-4.61,8.676701163748495,0.42360452263782994,0.47406640805589,-0.6569378559711633,0.2985392421906351,-0.1595784843812702,0.1110392421906351
1589995923.105648,-0.11,-4.6061444705356145,8.698072235267807,0.44,0.4688888888888889,-0.6733333333333333,0.2018058816951806,-0.05045147042379515,0.03840294084759029
1589995923.115648,-0.11372042695227964,-4.593720426952279,8.649075303524924,0.44,0.4688888888888889,-0.6733333333333333,-0.09301067380699116,0.02325266845174779,-0.015994663096504422
1589995923.125648,-0.12238335396039604,-4.602383353960396,8.59191676980198,0.44,0.4688888888888889,-0.6733333333333333,-0.190416150990099,0.017812113242574257,0.04760403774752475
1589995923.135648,-0.12252384034519957,-4.61,8.6374761596548,0.44,0.4688888888888889,-0.6733333333333333,-0.02336299892125135,-0.05491100323624595,0.0
1589995923.145648,-0.11,-4.613936439257747,8.665745757030988,0.4316897393447563,0.4688888888888889,-0.6759576261718314,-0.0625,0.013294509278162038,-0.04920549072183796
1589995923.155648,-0.11453569003477437,-4.62,8.680928619930452,0.4188888888888889,0.4688888888888889,-0.68,-0.0625,-0.14754418815201958,-0.039955811847980416
1589995923.165648,-0.1126268628108678,-4.62,8.629447745459773,0.4188888888888889,0.4688888888888889,-0.68,-0.039458946283961856,-0.18087683885188557,0.01641789256792371
