time,acc_x,acc_y,acc_z,mag_x,mag_y,mag_z,gyr_x,gyr_y,gyr_z
1589995928.6170876,-3.91,-0.9,8.89,0.31222222222222223,-0.3422222222222222,-0.5811111111111111,0.125,0.0,-0.0625
1589995928.6270876,-3.918713436928702,-0.908713436928702,8.898713436928702,0.3073814239284989,-0.3267316676823075,-0.6179011781434085,-0.09283592321755027,-0.27229490402193784,0.1008769424131627
1589995928.6370876,-3.8913959947376116,-0.8913959947376114,8.94162403157433,0.30666666666666664,-0.3244444444444444,-0.6233333333333333,-0.14244993422014327,-0.5537750328899284,0.053775032889928374
1589995928.6470876,-3.9,-0.9027925193599501,8.89837755807985,0.30666666666666664,-0.3244444444444444,-0.6233333333333333,-0.21509350800062488,-0.4650935080006249,0.05235973799906269
1589995928.6570876,-3.896755456899741,-0.9083777284498705,8.928111357750648,0.30666666666666664,-0.3244444444444444,-0.6233333333333333,-0.125,-0.33444321124676285,0.16722160562338143
1589995928.6670876,-3.8826489086200517,-0.901324454310026,8.96337772844987,0.30666666666666664,-0.3244444444444444,-0.6233333333333333,-0.125,-0.1581113577506474,0.0790556788753237
1589995928.6770875,-3.876261841000839,-0.92,8.978785523002518,0.2933333333333333,-0.33,-0.5866666666666667,-0.21865132499300532,0.2340296374755186,0.125
1589995928.6870875,-3.851115152484112,-0.92,8.903345457452337,0.2933333333333333,-0.33,-0.5866666666666667,-0.4282070626323994,0.9674747192133979,0.125
1589995928.6970875,-3.9029155872949195,-0.8973803355970968,8.829225419496371,0.2933333333333333,-0.33,-0.5866666666666667,-0.6711270974818548,1.9375,0.1875
1589995928.7070875,-3.956058854440357,-0.9286862848134525,8.875254860746189,0.2933333333333333,-0.33,-0.5866666666666667,-0.8257356805044667,1.7897070415133998,0.1628678402522333
1589995928.7170875,-3.932444073267773,-0.9208146910892576,8.90674123564297,0.2933333333333333,-0.33,-0.5866666666666667,-0.5305509158471586,0.9041527475414759,0.015275457923579316
1589995928.7270875,-3.914253109426693,-0.8885062188533859,8.88637966414004,0.3038312603822047,-0.33962309979479877,-0.5936652846992475,-0.10632773566732279,0.17278257045939938,0.0
1589995928.7370875,-3.9191874042638677,-0.8924377872083972,8.91349923411094,0.30666666666666664,-0.3422222222222222,-0.5955555555555555,-0.06757872335082742,-0.31757872335082743,0.11992127664917258
1589995928.7470875,-3.907234185386006,-0.9213829073069972,8.856594887683967,0.30666666666666664,-0.3422222222222222,-0.5955555555555555,-0.125,-0.34907048799380325,0.05385682933126775
1589995928.7570875,-3.8916473143911725,-0.9267053712176555,8.958352685608828,0.30666666666666664,-0.3422222222222222,-0.5955555555555555,-0.125,-0.1875,0.030887144834480372
1589995928.7670875,-3.8997104848321733,-0.9105790303356531,8.950289515167826,0.30666666666666664,-0.3422222222222222,-0.5955555555555555,-0.125,-0.1875,0.18207159060325273
1589995928.7770875,-3.8903269452129483,-0.8977051232860115,8.958032068498959,0.3333333333333333,-0.33,-0.5955555555555555,0.040985530806357154,0.38012808215028576,0.04815702053757144
1589995928.7870874,-3.9665576849290174,-0.8807649589046629,9.01732264383368,0.3333333333333333,-0.33,-0.5955555555555555,-0.11782851026878574,-0.04337602738342855,-0.05771900684585714
1589995928.7970874,-3.912102819733858,-0.9042056394677165,8.870514098669291,0.3333333333333333,-0.33,-0.5955555555555555,0.0,-0.026285246673227503,-0.08557212999015876
1589995928.8070874,-3.9189841462183175,-0.9179682924366354,8.906952438654953,0.3333333333333333,-0.33,-0.5955555555555555,0.01904725840654347,-0.125,0.05615091386448551
1589995928.8170874,-3.910513379783904,-0.9010267595678078,8.881540139351712,0.3333333333333333,-0.33,-0.5955555555555555,0.17787412905180247,-0.125,0.003208623649399167
1589995928.8270874,-3.8913665393678394,-0.9213665393678395,8.89,0.30666666666666664,-0.3422222222222222,-0.6088888888888889,0.204581742097993,-0.36374522629397904,0.02562261314698952
1589995928.8370874,-3.8981826602746406,-0.9281826602746405,8.89,0.30666666666666664,-0.3422222222222222,-0.6088888888888889,0.2897832534330056,-0.6193497602990168,0.15342488014950842
1589995928.8470874,-3.89,-0.8912774660132785,8.825109864053115,0.30666666666666664,-0.3422222222222222,-0.6088888888888889,0.30451583741700916,-0.6941108619190641,-0.03854751225102751
1589995928.8570874,-3.89,-0.8995652861207715,8.858261144483086,0.30666666666666664,-0.3422222222222222,-0.6088888888888889,0.2527169617451786,-0.3315187322162504,0.11684911476446411
1589995928.8670874,-3.923579485446327,-0.8580256431920916,8.91876409953107,0.30666666666666664,-0.3422222222222222,-0.6088888888888889,0.04012821596045796,0.10724356807908408,0.02006410798022898
1589995928.8770874,-3.91571767201048,-0.8785646559790407,8.9657058199738,0.30666666666666664,-0.32873335689878636,-0.5930196355671997,-0.1785290998690038,0.00897090013099619,0.04463227496725095
1589995928.8870873,-3.9001865479621243,-0.910559643886373,8.977947972416633,0.30666666666666664,-0.3233333333333333,-0.5866666666666667,-0.12616592476327707,-0.18633407523672293,-0.12383407523672293
1589995928.8970873,-3.9109721192916105,-0.9380557614167795,8.875832715749661,0.30666666666666664,-0.3233333333333333,-0.5866666666666667,-0.18142425442743604,-0.11892425442743605,-0.04427276328230814
1589995928.9070873,-3.9175275608206586,-0.9187637804103292,8.928763780410328,0.30666666666666664,-0.3233333333333333,-0.5866666666666667,-0.11727362756455773,-0.07795274487088456,0.10182088269367316
1589995928.9170873,-3.9018532082663775,-0.9109266041331888,8.92092660413319,0.30666666666666664,-0.3233333333333333,-0.5866666666666667,-0.06829127583243022,-0.17591744833513956,-0.045126172502709366
1589995928.9270873,-3.9076755476849,-0.9192251825616332,8.966125912808167,0.30666666666666664,-0.3244444444444444,-0.5811111111111111,0.0145278269693774,0.05765739101020753,0.125
1589995928.9370873,-3.8826384384264876,-0.910879479475496,8.92439739737748,0.30666666666666664,-0.3244444444444444,-0.5811111111111111,0.17100975983445094,0.005496746721849695,0.125
1589995928.9470873,-3.9,-0.9025614315269863,8.801526441871438,0.30666666666666664,-0.3244444444444444,-0.5811111111111111,-0.0015357881746579094,0.3605268411309934,0.13300447352183223
1589995928.9570873,-3.9,-0.9177851983594062,8.870033392617328,0.30666666666666664,-0.3244444444444444,-0.5811111111111111,-0.38212995898515484,0.6459724692388661,0.18057874487314435
1589995928.9670873,-3.930991590825569,-0.9045042045872155,8.903243693119178,0.30666666666666664,-0.3244444444444444,-0.5811111111111111,-0.5343487213299034,0.7359243606649517,0.13907563933504832
1589995928.9770873,-3.890561511993218,-0.92,8.91,0.3333333333333333,-0.33,-0.5955555555555555,-0.3714905500423877,0.6892547249788061,0.12324527502119384
1589995928.9870872,-3.904505560265297,-0.92,8.91,0.3333333333333333,-0.33,-0.5955555555555555,-0.284340248341894,0.732829875829053,0.07967012417094699
1589995928.9970872,-3.9100052268450765,-0.9100104536901527,8.840028747647919,0.3333333333333333,-0.33,-0.5955555555555555,-0.25009800334518084,0.8125816694543174,0.18745099832740958
1589995929.0070872,-3.92462053104746,-0.9392410620949195,8.920412920761027,0.3333333333333333,-0.33,-0.5955555555555555,-0.5241349571398703,1.0409457976165586,0.050432521430064825
1589995929.0170872,-3.9372996419719084,-0.9135017901404572,8.95729964197191,0.3333333333333333,-0.33,-0.5955555555555555,-0.39688618837785733,1.033754475351143,0.04562276232442853
1589995929.0270872,-3.912328820199324,-0.9,8.980753384850507,0.3187290995496433,-0.33384321941676054,-0.5894064044887387,-0.13955512624577568,0.6973464709301074,0.14897243687711215
1589995929.0370872,-3.911250657779337,-0.91,8.959369408875636,0.31222222222222223,-0.33555555555555555,-0.5866666666666667,0.18359169443957202,0.07813322224171199,0.125
1589995929.0470872,-3.9259649184353624,-0.91,8.834298193299421,0.31222222222222223,-0.33555555555555555,-0.5866666666666667,0.13760962988949307,0.2620614804420277,0.125
1589995929.0570872,-3.9290034512510785,-0.8909965487489215,8.863487920621225,0.31222222222222223,-0.33555555555555555,-0.5866666666666667,0.35631471095772216,0.17815735547886108,0.009342644521138912
1589995929.0670872,-3.912553925798102,-0.9074460742018983,8.921061259706644,0.31222222222222223,-0.33555555555555555,-0.5866666666666667,0.04788610871440896,0.02394305435720448,0.16355694564279552
1589995929.0770872,-3.909633526850508,-0.880366473149492,8.967434687953556,0.30666666666666664,-0.33,-0.5955555555555555,0.1227095428156749,0.1227095428156749,0.06708091436865021
1589995929.0870872,-3.901069967163425,-0.89,8.8957201313463,0.30666666666666664,-0.33,-0.5955555555555555,0.04243811568577924,0.07587458954281384,0.17746905784288963
1589995929.0970871,-3.922154024040662,-0.892154024040662,8.827539084142318,0.30666666666666664,-0.33,-0.5955555555555555,-0.3596192758894804,0.29903734974586277,0.0
1589995929.1070871,-3.9367014958019957,-0.9108246260495011,8.894123130247506,0.30666666666666664,-0.33,-0.5955555555555555,-0.75,0.20296173842814597,0.0
1589995929.1170871,-3.908472734002995,-0.9178818164992513,8.929409082496257,0.30666666666666664,-0.33,-0.5955555555555555,-0.75,0.33528405936096106,0.0
1589995929.127087,-3.9197639171809917,-0.9197639171809918,8.940236082819007,0.31222222222222223,-0.33,-0.5955555555555555,-0.5639755176188015,0.309548964762397,-0.001475517618801496
1589995929.137087,-3.9133878568605396,-0.9133878568605394,8.94661214313946,0.31222222222222223,-0.33,-0.5955555555555555,-0.6038258946216291,0.22984821075674194,-0.04132589462162902
1589995929.147087,-3.924716627985326,-0.91,8.869058546080707,0.31222222222222223,-0.33,-0.5955555555555555,-0.6709894624541439,0.09552107509171222,-0.1544789249082878
1589995929.157087,-3.920732327419444,-0.91,8.882929309677777,0.31222222222222223,-0.33,-0.5955555555555555,-0.4191918145139004,-0.2454229536284751,-0.1783459072569502
1589995929.167087,-3.9284596252694413,-0.91,8.913838501077764,0.31222222222222223,-0.33,-0.5955555555555555,-0.2260093682639695,-0.19712734206599236,-0.08175468413198475
1589995929.177087,-3.9047009190899504,-0.91,8.936866053940033,0.3244032611789128,-0.33,-0.5955555555555555,-0.24020641856260358,-0.24020641856260358,-0.009793581437396413
1589995929.187087,-3.9105372055050154,-0.9294627944949849,8.905702355959878,0.32666666666666666,-0.33,-0.5955555555555555,-0.3024273967809657,-0.19085753440634476,-0.24328493118731048
1589995929.197087,-3.92,-0.9197378947769439,8.831048420892225,0.32666666666666666,-0.33,-0.5955555555555555,-0.12663815764410072,-0.25,-0.12663815764410072
1589995929.207087,-3.92,-0.911748447559907,8.863006209760371,0.32666666666666666,-0.33,-0.5955555555555555,-0.17657220275058097,-0.25,-0.17657220275058097
1589995929.217087,-3.92,-0.8951180959302326,8.922086664244185,0.32666666666666666,-0.33,-0.5955555555555555,-0.2805119004360465,-0.11048214934593023,-0.14099404978197674
1589995929.227087,-3.9013054039048765,-0.9304351346349589,8.96,0.32666666666666666,-0.33555555555555555,-0.5811111111111111,-0.06521959146849264,-0.12771959146849265,-0.18206081706301472
1589995929.237087,-3.9298628024216757,-0.94,8.95821643148178,0.32666666666666666,-0.33555555555555555,-0.5811111111111111,-0.12157006054188439,-0.1866425151354711,-0.0625
1589995929.247087,-3.9202076379457194,-0.94,8.832699293294354,0.32666666666666666,-0.33555555555555555,-0.5811111111111111,0.11980905135701297,-0.12629773716074677,-0.0625
1589995929.257087,-3.9104453601527216,-0.901781440610886,8.887327839083671,0.32666666666666666,-0.33555555555555555,-0.5811111111111111,0.06528350095450947,0.11386599618196211,-0.0625
1589995929.267087,-3.91,-0.9,8.905875785758194,0.32666666666666666,-0.33555555555555555,-0.5811111111111111,0.012888169505641596,-0.023835491483075205,-0.012888169505641596
1589995929.277087,-3.91,-0.9,8.932496077592354,0.32666666666666666,-0.33555555555555555,-0.5952753081137049,0.04686682831740598,0.07810048495221794,-0.09373365663481197
1589995929.287087,-3.921494156164835,-0.9057470780824173,8.962988312329669,0.32666666666666666,-0.33555555555555555,-0.6,0.17025771404532403,-0.018676952060432017,-0.017242285954675973
1589995929.297087,-3.9171490941593046,-0.9228509058406958,8.896469112035478,0.32666666666666666,-0.33555555555555555,-0.6,0.16968183849565127,-0.16515908075217436,0.10265908075217436
1589995929.307087,-3.9210787223207544,-0.9355393611603772,8.866618083481132,0.32666666666666666,-0.33555555555555555,-0.6,0.15962100725235745,-0.049015970990570173,0.09037899274764255
1589995929.317087,-3.9185809947878916,-0.94,8.885709502606055,0.32666666666666666,-0.33555555555555555,-0.6,0.15181560871216043,0.0625,0.02681560871216044
1589995929.327087,-3.9160943275445517,-0.9217170173663453,8.944848947900965,0.3226037816369656,-0.3321698180308047,-0.5972914099801993,0.16308954715344745,0.0625,-0.03808954715344746
1589995929.337087,-3.9372353403435243,-0.91,8.936911649141189,0.32,-0.33,-0.5955555555555555,0.07977912285297309,-0.04522087714702691,-0.008639561426486544
1589995929.347087,-3.926825908002824,-0.9034129540014122,8.857542494015535,0.32,-0.33,-0.5955555555555555,0.021330962508826018,-0.021330962508826018,0.04116903749117398
1589995929.357087,-3.9279827536441045,-0.9,8.851931014576417,0.32,-0.33,-0.5955555555555555,0.04989221027565305,0.0997844205513061,0.1622844205513061
1589995929.367087,-3.93,-0.9295544715447154,8.889554471544715,0.32,-0.33,-0.5955555555555555,0.10867886178861788,0.032642276422764224,0.0027845528455284485
1589995929.3770869,-3.9204743975903615,-0.94,8.928576807228916,0.3125911981258367,-0.3352920013386881,-0.599789156626506,0.125,0.11907003012048194,-0.0029649849397590314
1589995929.3870869,-3.9109889180648896,-0.94,8.93901108193511,0.31222222222222223,-0.33555555555555555,-0.6,0.012361475811117531,-0.10027704837776494,0.11263852418888247
1589995929.3970869,-3.91,-0.9204371755745103,8.86174870229804,0.31222222222222223,-0.33555555555555555,-0.6,0.3056691316482771,-0.18613382632965542,0.125
1589995929.4070868,-3.925678160042719,-0.9043218399572813,8.907034480128155,0.31222222222222223,-0.33555555555555555,-0.6,0.26350574986650394,0.008477000533984286,0.027011499733007857
1589995929.4170868,-3.93,-0.9,8.92,0.31222222222222223,-0.33555555555555555,-0.6,0.2897220030727069,0.0625,0.07944400614541378
1589995929.4270868,-3.93,-0.9,8.936826575903225,0.30910618964755066,-0.332439522980884,-0.5975071739402626,0.3125,-0.0076107329301106225,0.0899446335349447
1589995929.4370868,-3.9228388754818693,-0.9214833735543925,8.899872128373085,0.30666666666666664,-0.33,-0.5955555555555555,0.2677429717616824,-0.19677108471495283,0.0625
1589995929.4470868,-3.92,-0.9363030686370345,8.848484656814827,0.30666666666666664,-0.33,-0.5955555555555555,0.2893941789814655,-0.09242328407413797,-0.09507671592586203
1589995929.4570868,-3.9026078612006754,-0.94,8.882176416397973,0.30666666666666664,-0.33,-0.5955555555555555,0.25814956625211116,0.0,-0.07879913250422232
1589995929.4670868,-3.921527664010723,-0.9184723359892769,8.918703552014298,0.30666666666666664,-0.33,-0.5955555555555555,0.33969860004467944,-0.08969860004467943,-0.017650699977660285
1589995929.4770868,-3.91134025648174,-0.8913402564817396,8.93932987175913,0.31910649567884025,-0.3248167379115943,-0.5955555555555555,0.5499350954836911,-0.00837660301087259,0.0
1589995929.4870868,-3.93761333057338,-0.9084088870489202,8.94920444352446,0.32,-0.3244444444444444,-0.5955555555555555,0.3323889118884979,0.17258331608362656,0.17258331608362656
1589995929.4970868,-3.9339437240337403,-0.9039437240337405,8.889437240337404,0.32,-0.3244444444444444,-0.5955555555555555,0.2746482752108775,0.07394482563263251,0.1875
1589995929.5070868,-3.918247946540443,-0.917628080189336,8.867628080189336,0.32,-0.3244444444444444,-0.5955555555555555,0.32345033412223306,-0.11017550118334957,0.11404966587776695
1589995929.5170867,-3.922202084093582,-0.9116968738596278,8.892202084093581,0.32,-0.3244444444444444,-0.5955555555555555,0.3368684872075579,-0.22563151279244212,-0.013763025584884236
1589995929.5270867,-3.914641238926084,-0.9076793805369582,8.923038141610874,0.32,-0.31932485741980565,-0.5844631170021716,0.21650774328802325,-0.1060116149320349,-0.2064883850679651
1589995929.5370867,-3.9166817774899525,-0.9033182225100475,8.950045332469859,0.32,-0.31777777777777777,-0.5811111111111111,0.020455562751185707,-0.0625,-0.04119445343898212
1589995929.5470867,-3.928495115360632,-0.8915048846393682,8.87504884639368,0.32,-0.31777777777777777,-0.5811111111111111,-0.16868894200789858,0.043688942007898565,-0.09678341301184784
1589995929.5570867,-3.8961025964659215,-0.89,8.893897403534078,0.32,-0.31777777777777777,-0.5811111111111111,-0.1875,-0.09639407906599354,0.08685877208799136
1589995929.5670867,-3.9111361041562342,-0.9040907361041562,8.928181472208312,0.32,-0.31777777777777777,-0.5811111111111111,-0.23153355032548822,-0.16903355032548822,-0.007100650976464701
1589995929.5770867,-3.91437123517357,-0.91,8.93437123517357,0.3156220718016657,-0.32090486934801654,-0.58423820268135,-0.17964043966962678,-0.08196065950444016,-0.0625
1589995929.5870867,-3.888575543515534,-0.9171414854948221,8.908575543515534,0.31222222222222223,-0.3233333333333333,-0.5866666666666667,0.008902853027913049,0.08926856868527536,-0.01786571565736232
1589995929.5970867,-3.9016456266907125,-0.9272152088969041,8.835063119927863,0.31222222222222223,-0.3233333333333333,-0.5866666666666667,-0.11788022242260293,0.3955703336339044,0.04509505560565073
1589995929.6070867,-3.9353569448901595,-0.9130953700732269,8.852261574816932,0.31222222222222223,-0.3233333333333333,-0.5866666666666667,-0.5572887796481606,0.5528269685211658,0.009673031478834207
1589995929.6170866,-3.9262691601394146,-0.9168654199302927,8.928654199302928,0.31222222222222223,-0.3233333333333333,-0.5866666666666667,-0.4533645017426826,0.5195911254356707,-0.12872662369298804
1589995929.6270866,-3.9347637449499384,-0.92,8.94523625505006,0.31796367859164276,-0.3282545816499795,-0.5932283310888615,-0.28272659406288425,0.4538632970314421,-0.04908989109432635
1589995929.6370866,-3.9315195435972554,-0.9284804564027447,8.948480456402743,0.32,-0.33,-0.5955555555555555,-0.25,0.11948288489707809,0.0
1589995929.6470866,-3.9248238708194463,-0.9351761291805539,8.882710320652798,0.32,-0.33,-0.5955555555555555,-0.08824596310768879,-0.002201614756924486,0.03235080737846224
1589995929.6570866,-3.9169865629165317,-0.9369865629165316,8.838080622500812,0.32,-0.33,-0.5955555555555555,0.02483203645664469,-0.1001679635433553,0.005998054684967037
1589995929.6670866,-3.9152413937379418,-0.9404827874758839,8.890482787475884,0.32,-0.33,-0.5955555555555555,-0.0625,-0.2202587108621371,-0.0922412891378629
1589995929.6770866,-3.92,-0.9361132490379329,8.934716877405167,0.3107421660252886,-0.3253710830126443,-0.5893836662390813,0.11108438702583837,-0.25,0.06768829026937878
1589995929.6870866,-3.914420517575945,-0.9132615527278347,8.92768207030378,0.30666666666666664,-0.3233333333333333,-0.5866666666666667,0.36185882575172157,-0.2848717651503443,0.020384704548967084
1589995929.6970866,-3.927396112960378,-0.911597408640252,8.898402591359748,0.30666666666666664,-0.3233333333333333,-0.5866666666666667,0.5724838040015748,-0.20377429399763772,0.00998380400157485
1589995929.7070866,-3.9288946081585383,-0.9144473040792691,8.901105391841462,0.30666666666666664,-0.3233333333333333,-0.5866666666666667,0.6597043495045682,-0.29852174752284133,-0.0416130485137048
1589995929.7170866,-3.9150800997782707,-0.9050800997782705,8.919839800443459,0.30666666666666664,-0.3233333333333333,-0.5866666666666667,0.6567506236141907,-0.529748129157428,-0.002002494456762746
1589995929.7270865,-3.914900390138624,-0.9098007802772474,8.934900390138623,0.3164674469439141,-0.3233333333333333,-0.5866666666666667,0.5024902465344069,-0.4106079314352121,0.09437256163360172
1589995929.7370865,-3.906340830449827,-0.906340830449827,8.912681660899654,0.32666666666666666,-0.3233333333333333,-0.5866666666666667,0.2896301903114187,-0.05944528546712802,0.0625
1589995929.7470865,-3.9,-0.8939151206020223,8.839151206020224,0.32666666666666666,-0.3233333333333333,-0.5866666666666667,0.13590851128791825,0.0,0.13856099247472115
1589995929.7570865,-3.907236671935623,-0.9189466877424918,8.857893375484984,0.32666666666666666,-0.3233333333333333,-0.5866666666666667,0.017270800402356658,0.04522919959764334,0.09704160080471332
1589995929.7670865,-3.9228014800695186,-0.9107977798957224,8.899202220104279,0.32666666666666666,-0.3233333333333333,-0.5866666666666667,0.0,0.0625,0.02249537478275495
1589995929.7770865,-3.9163400680497427,-0.9136599319502575,8.930489897925385,0.32211335601658087,-0.32788664398341916,-0.5866666666666667,-0.17074914937821806,0.019812712655445486,-0.08537457468910903
1589995929.7870865,-3.917805162861189,-0.92,8.947805162861188,0.32,-0.33,-0.5866666666666667,-0.15243546423513626,-0.04878226788243186,0.021346803647295604
1589995929.7970865,-3.915146802304276,-0.9297063953914484,8.92573401152138,0.32,-0.33,-0.5866666666666667,-0.09466751440172382,-0.0625,0.0625
1589995929.8070865,-3.91,-0.9327455839144748,8.9096725547807,0.32,-0.33,-0.5866666666666667,-0.10784010053453219,-0.10784010053453219,0.0625
1589995929.8170865,-3.9064365700793418,-0.91,8.943563429920658,0.32,-0.33,-0.5866666666666667,-0.20545712599177068,-0.1386428149794267,0.0625
1589995929.8270864,-3.903494455807945,-0.91,8.951747227903972,0.3176703627947034,-0.32902931783112643,-0.5856959844977931,-0.15776052319948325,0.0843403487996555,0.0625
1589995929.8370864,-3.926711659049846,-0.91,8.92644170475077,0.30666666666666664,-0.3244444444444444,-0.5811111111111111,-0.4383436071846105,0.3133436071846105,0.020552130938463177
1589995929.8470864,-3.93,-0.9241078139173254,8.83240702345471,0.30666666666666664,-0.3244444444444444,-0.5811111111111111,-0.5,0.4190869184916418,0.04408691849164183
1589995929.8570864,-3.93,-0.93,8.829980932203389,0.30666666666666664,-0.3244444444444444,-0.5811111111111111,-0.4625238347457627,0.25011917372881354,0.0625
1589995929.8670864,-3.924870910304919,-0.93,8.89103271756065,0.30666666666666664,-0.3244444444444444,-0.5811111111111111,-0.309272757622969,0.09294318940574225,-0.0016136211885154766
1589995929.8770864,-3.92,-0.9258831739255368,8.95470095644678,0.30666666666666664,-0.32169989372813557,-0.5888873381406529,-0.13603967406920897,0.0625,0.040420651861582044
1589995929.8870864,-3.9091653067885117,-0.9308346932114883,8.979165306788513,0.30666666666666664,-0.31777777777777777,-0.6,0.005216832571801569,-0.07293366514360314,0.15364158371409922
1589995929.8970864,-3.9055501337381626,-0.9233495987855129,8.92004879635654,0.30666666666666664,-0.31777777777777777,-0.6,0.09718833586351477,-0.11812332827297044,0.09031166413648523
1589995929.9070864,-3.9227107947457256,-0.91,8.911776986864314,0.30666666666666664,-0.31777777777777777,-0.6,0.125,-0.0625,0.022778766419608132
1589995929.9170864,-3.918714965626653,-0.9043574828133263,8.93,0.30666666666666664,-0.31777777777777777,-0.6,0.08973426758328926,0.008031464833421473,-0.035265732416710736
1589995929.9270864,-3.9224009072254025,-0.9062004536127012,8.917599092774598,0.31906757389206897,-0.3329344421643806,-0.5882880320648978,0.10125283507938222,0.0625,0.05375850523814667
1589995929.9370863,-3.937006004062228,-0.91,8.867963975626632,0.32666666666666666,-0.3422222222222222,-0.5811111111111111,-0.006362576166774547,0.0625,0.16878752538892486
1589995929.9470863,-3.925685039765172,-0.9171574801174139,8.807055119295516,0.32666666666666666,-0.3422222222222222,-0.5811111111111111,-0.10723425073383677,-0.11643700293534709,0.09803149853232646
1589995929.9570863,-3.9265317487411453,-0.92,8.829190492446871,0.32666666666666666,-0.3422222222222222,-0.5811111111111111,-0.0841765703678416,-0.06502971110352479,0.0625
1589995929.9670863,-3.9228769098522034,-0.9164384549261015,8.87136927044339,0.32666666666666666,-0.3422222222222222,-0.5811111111111111,-0.0625,0.044519313423730694,0.08475965671186535
1589995929.9770863,-3.911246429858858,-0.9106232149294291,8.906260710423426,0.32666666666666666,-0.3422222222222222,-0.5811111111111111,-0.0625,0.11720981338213682,0.12110490669106841
1589995929.9870863,-3.909503876561127,-0.9142558148416912,8.975248061719437,0.32,-0.3422222222222222,-0.5955555555555555,-0.09219961425352327,-0.12810077149295346,0.059399228507046556
1589995929.9970863,-3.92,-0.93,8.912766108574328,0.32,-0.3422222222222222,-0.5955555555555555,-0.125,-0.13404236428209032,0.05345763571790968
1589995930.0070863,-3.92,-0.93,8.885226630186958,0.32,-0.3422222222222222,-0.5955555555555555,-0.10120839033287733,-0.13991678066575466,0.0
1589995930.0170863,-3.917589837974836,-0.9203593518993453,8.91,0.32,-0.3422222222222222,-0.5955555555555555,-0.04743648734272697,-0.017309462028180914,0.0
1589995930.0270863,-3.90683047935507,-0.8963390412898598,8.91,0.31366095871014027,-0.33623534989291026,-0.5955555555555555,-0.13866652821568146,0.16461900806162327,0.0
1589995930.0370862,-3.9092814298941265,-0.9123203574735317,8.916961072420595,0.3,-0.3233333333333333,-0.5955555555555555,-0.4375,0.25,0.0
1589995930.0470862,-3.9230311125953135,-0.9072733344464853,8.884851115934769,0.3,-0.3233333333333333,-0.5955555555555555,-0.35795834029053264,0.11743056715088773,0.0
1589995930.0570862,-3.9087375841076577,-0.8943687920538289,8.823106376161487,0.3,-0.3233333333333333,-0.5955555555555555,-0.3319148510092919,-0.08980495033643063,-0.02730495033643063
1589995930.0670862,-3.9246522841792637,-0.9139568525377916,8.872565989254847,0.3,-0.3233333333333333,-0.5955555555555555,-0.4375,-0.27038388060199553,-0.033423223879600894
1589995930.0770862,-3.9228844770536613,-0.9371155229463387,8.924231045892677,0.3023718409821129,-0.3257051743154462,-0.5923931009127383,-0.3707919723780751,-0.3930279815853834,-0.0222360092073083
1589995930.0870862,-3.91,-0.9368219789058073,8.954392673698065,0.30666666666666664,-0.33,-0.5866666666666667,-0.25,-0.39486263183870435,-0.08995421061290146
1589995930.0970862,-3.9143003816793893,-0.9286007633587786,8.934197709923664,0.30666666666666664,-0.33,-0.5866666666666667,-0.1693678435114504,-0.365613072519084,-0.125
1589995930.1070862,-3.9078275761058157,-0.94,8.912172423894184,0.30666666666666664,-0.33,-0.5866666666666667,-0.02446117533067442,-0.11142235066134884,-0.01088352599202326
1589995930.1170862,-3.906985913891376,-0.9260281722172473,8.933971827782752,0.30666666666666664,-0.33,-0.5866666666666667,0.1091549045527554,0.024823923642204315,0.0625
1589995930.1270862,-3.918909499239549,-0.9021810015209017,8.9578189984791,0.30666666666666664,-0.33,-0.5866666666666667,0.2954609256179552,0.17386874049436413,0.0625
1589995930.1370862,-3.92,-0.910669890484995,8.980669890484995,0.2933333333333333,-0.31777777777777777,-0.6,0.12918681553121888,0.2541868155312189,0.12918681553121888
1589995930.1470861,-3.92,-0.9179211016498138,8.88636819230087,0.2933333333333333,-0.31777777777777777,-0.6,-0.08684251374844776,0.2621712568742239,-0.049506885311335805
1589995930.1570861,-3.92,-0.9359113276007753,8.847733982802326,0.2933333333333333,-0.31777777777777777,-0.6,-0.2983373925145385,0.3125,-0.051108404990307665
1589995930.1670861,-3.924754453044857,-0.94,8.879017812179427,0.2933333333333333,-0.31777777777777777,-0.6,-0.19670801081786812,0.13420801081786812,0.05943066306071062
1589995930.177086,-3.9245367570025107,-0.94,8.902731621498745,0.2951544143324965,-0.3192953452770804,-0.5987859460005578,0.03414526873430983,-0.0625,0.09085473126569017
1589995930.187086,-3.91,-0.9358825168145819,8.912058741592709,0.3,-0.3233333333333333,-0.5955555555555555,0.125,-0.023898595136705537,0.03860140486329446
1589995930.197086,-3.9134844547269676,-0.9130310905460653,8.909546635819098,0.3,-0.3233333333333333,-0.5955555555555555,0.16855568408709157,0.2338892102177289,0.1875
1589995930.207086,-3.92,-0.9,8.890857914416287,0.3,-0.3233333333333333,-0.5955555555555555,0.24463803489821354,0.42856339149702255,0.1875
1589995930.217086,-3.92,-0.9028095344084499,8.922809534408449,0.3,-0.3233333333333333,-0.5955555555555555,0.08005959005281156,0.14255959005281155,0.16994040994718845
1589995930.227086,-3.9222969920768653,-0.9145939841537304,8.939187968307461,0.3076566402562172,-0.32614076809394626,-0.5986182116580424,0.09628759903918546,0.15878759903918546,0.13935620048040728
1589995930.237086,-3.93,-0.93,8.947309917737314,0.3333333333333333,-0.33555555555555555,-0.6088888888888889,-0.0236355023569646,0.015228995286070801,0.1402289952860708
1589995930.247086,-3.926690048224463,-0.9233800964489259,8.880210434020167,0.3333333333333333,-0.33555555555555555,-0.6088888888888889,-0.08318719859710653,-0.0625,0.08318719859710653
1589995930.257086,-3.92,-0.9144252317542965,8.850976622280076,0.3333333333333333,-0.33555555555555555,-0.6088888888888889,-0.09734230153564707,-0.007184603071294135,0.042026904606941196
1589995930.267086,-3.92,-0.9224659017103269,8.892465901710327,0.3333333333333333,-0.33555555555555555,-0.6088888888888889,-0.047088114310456806,0.047088114310456806,-0.047088114310456806
1589995930.277086,-3.922778271785752,-0.9272217282142484,8.919447902500261,0.32592460857132893,-0.33555555555555555,-0.6064193139682208,-0.034728397321895595,-0.017364198660947797,0.0
1589995930.287086,-3.9211831661847043,-0.9155915830923522,8.961183166184705,0.30666666666666664,-0.33555555555555555,-0.6,-0.0423421829816034,0.020157817018396598,0.0
1589995930.297086,-3.904294322410275,-0.91,8.904354579282199,0.30666666666666664,-0.33555555555555555,-0.6,0.13382096987156405,0.125,0.0
1589995930.307086,-3.9098051603962007,-0.9149025801981006,8.894512900990502,0.30666666666666664,-0.33555555555555555,-0.6,0.1875,0.06371774752374354,0.030641126238128234
1589995930.317086,-3.92,-0.9235064612326044,8.927012922465208,0.30666666666666664,-0.33555555555555555,-0.6,0.20941538270377733,0.04383076540755467,0.0625
1589995930.327086,-3.9131721002225017,-0.9334139498887492,8.93658605011125,0.3085633054937495,-0.3336589167284727,-0.5954480668150011,0.22866281319531778,0.125,0.0625
1589995930.337086,-3.912737155709889,-0.9272628442901113,8.904525688580222,0.31222222222222223,-0.33,-0.5866666666666667,0.08135703575092731,0.07192851787546366,0.03596425893773183
1589995930.347086,-3.92282175158699,-0.9135891242065053,8.841287006347958,0.31222222222222223,-0.33,-0.5866666666666667,-0.10736405258131565,0.0,0.04486405258131566
1589995930.357086,-3.9141186988367083,-0.9158813011632917,8.810593494183541,0.31222222222222223,-0.33,-0.5866666666666667,-0.21324186772942696,-0.051483735458853944,0.022032529082292113
1589995930.367086,-3.9175839479893733,-0.9075839479893735,8.856912364074386,0.31222222222222223,-0.33,-0.5866666666666667,-0.20469902480075244,-0.07969902480075244,-0.07969902480075244
1589995930.377086,-3.910663003481676,-0.9006630034816758,8.90535897562827,0.31222222222222223,-0.33,-0.5866666666666667,-0.07493131528142172,0.05006868471857828,0.05006868471857828
1589995930.387086,-3.9223486960800393,-0.9246973921600787,8.95,0.32,-0.33555555555555555,-0.5955555555555555,-0.3125,0.014679350500246022,0.0625
1589995930.397086,-3.9316787101928177,-0.936642579614365,8.933212898071824,0.32,-0.33555555555555555,-0.5955555555555555,-0.2600403064744544,0.07299193870510912,0.052008061294890884
1589995930.407086,-3.94,-0.92,8.873098628188897,0.32,-0.33555555555555555,-0.5955555555555555,0.020623775168658192,0.14562377516865818,0.0
1589995930.417086,-3.94,-0.9209074206109801,8.92090742061098,0.32,-0.33555555555555555,-0.5955555555555555,0.028471727088246586,0.19317137881862556,-0.005671378818625569
1589995930.4270859,-3.9379755760368664,-0.9279755760368664,8.93,0.31842544802867384,-0.33443087557603685,-0.592631387608807,-0.3378052995391705,0.21204205069124424,-0.04984735023041475
1589995930.4370859,-3.93,-0.9176443930189954,8.920577572075981,0.31222222222222223,-0.33,-0.5811111111111111,-0.40805491273744093,0.018332369106161414,-0.014722543631279532
1589995930.4470859,-3.9257325155104343,-0.9185349689791314,8.851592639593909,0.31222222222222223,-0.33,-0.5811111111111111,-0.28582822194021434,-0.04498466582064298,-0.0625
1589995930.4570858,-3.92,-0.9391527810373151,8.836611124149261,0.31222222222222223,-0.33,-0.5811111111111111,-0.25,-0.023307322224829854,-0.03389755925839005
1589995930.4670858,-3.92,-0.95,8.897580444000997,0.31222222222222223,-0.33,-0.5811111111111111,-0.20604888999750562,-0.08104888999750562,0.0
1589995930.4770858,-3.92,-0.9469439939266365,8.934074674764485,0.3143727450145891,-0.32875496048862973,-0.5825825214427306,-0.10589996204147831,0.012733358639014458,-0.01910003795852169
1589995930.4870858,-3.923006763139003,-0.92,8.96097971058299,0.3333333333333333,-0.31777777777777777,-0.5955555555555555,0.11887680885631163,0.125,-0.16870773038122946
1589995930.4970858,-3.928275258273507,-0.9217247417264928,8.931376291367537,0.3333333333333333,-0.31777777777777777,-0.5955555555555555,0.25,0.11422036420942042,-0.09266109262826125
1589995930.5070858,-3.924217253131909,-0.9215654937361828,8.89421725313191,0.3333333333333333,-0.31777777777777777,-0.5955555555555555,0.2763578320744289,0.14157349622328666,0.0625
1589995930.5170858,-3.927400704181852,-0.9048014083637038,8.905198591636296,0.3333333333333333,-0.31777777777777777,-0.5955555555555555,0.26376320340972265,0.28249119772685155,0.0625
1589995930.5270858,-3.9209236209772067,-0.8918472419544134,8.918152758045586,0.3333333333333333,-0.31777777777777777,-0.5955555555555555,0.14231789332262648,0.36345473778491566,0.0625
1589995930.5370858,-3.904905496603954,-0.9175472516980232,8.90735824490593,0.31222222222222223,-0.3233333333333333,-0.5866666666666667,-0.15447806132413255,0.25,-0.06368129245057831
1589995930.5470858,-3.9034343200740054,-0.9076334742962865,8.908701268666578,0.31222222222222223,-0.3233333333333333,-0.5866666666666667,-0.46708157129641864,0.23520921435179068,0.06583685740716268
1589995930.5570858,-3.862672934290856,-0.8936635328545721,8.85584116786357,0.31222222222222223,-0.3233333333333333,-0.5866666666666667,-0.621904379488387,0.22710291965892465,-0.18440437948838695
1589995930.5670857,-3.889167244094488,-0.88,8.891249133858269,0.31222222222222223,-0.3233333333333333,-0.5866666666666667,-0.75,0.30209055118110234,-0.27086220472440947
1589995930.5770857,-3.8538524776946135,-0.8779815597118267,8.930092201440866,0.31222222222222223,-0.3246789601921155,-0.5866666666666667,-0.6869237409945836,0.07511525180108328,0.914574532419499
1589995930.5870857,-3.795035671089765,-0.8706294588862206,8.966852705568897,0.31222222222222223,-0.3295803607425196,-0.5866666666666667,-0.4571705901943943,0.12106588196112114,1.7416858753001805
1589995930.5970857,-3.765525338193033,-0.8777626690965165,8.93986402186865,0.31222222222222223,-0.33,-0.5866666666666667,-0.2565667274129109,-0.10444995444031682,2.680933272587089
1589995930.6070857,-3.7476202434896546,-0.853341704427581,8.879519026041383,0.31222222222222223,-0.33,-0.5866666666666667,-0.032753043620680246,-0.25,2.86012652181034
1589995930.6170857,-3.6927611029257,-0.7409513786571249,8.93361944853715,0.31222222222222223,-0.33,-0.5866666666666667,0.007141917491054514,-0.323810776678594,2.8309526941696483
1589995930.6270857,-3.538794878931255,-0.5676245477317005,9.004716114667408,0.30666280112564553,-0.33163512385193433,-0.5892828648297616,-0.21697571667130533,-0.5183951433342611,3.2796931533537435
1589995930.6370857,-3.3705403733822012,-0.49,9.007750887641736,0.2933333333333333,-0.33555555555555555,-0.5955555555555555,-0.2824561905852708,-0.5159868571755812,4.901183999541862
1589995930.6470857,-3.236030695223915,-0.49,8.945299965639675,0.2933333333333333,-0.33555555555555555,-0.5955555555555555,0.017788626732333113,-0.4259134119803001,6.162212232275799
1589995930.6570857,-3.16,-0.49,8.91,0.2933333333333333,-0.33555555555555555,-0.5955555555555555,0.1875,-0.375,6.875
1589995930.6670856,-3.090712210164265,-0.5835385162782423,8.934250726442507,0.2933333333333333,-0.33555555555555555,-0.5955555555555555,0.6638535551206783,0.05804868647334405,2.631122872561229
1589995930.6770856,-2.9528464977645306,-0.7278092399403875,8.988941877794337,0.2967113760556383,-0.33456201357840704,-0.5955555555555555,1.640741430700447,0.9420640834575261,-6.503912071535023
1589995930.6870856,-2.9150862854073747,-0.5603451416294981,9.023994348831234,0.31222222222222223,-0.33,-0.5955555555555555,1.9965876981995656,1.239763094598697,-11.774513695911075
1589995930.6970856,-2.7358567110973344,0.1356327495350279,8.811567730936144,0.31222222222222223,-0.33,-0.5955555555555555,1.8435054053006819,0.8903973574085555,-14.883398558586485
1589995930.7070856,-2.0857072205736893,-0.6256726013847675,8.972844955489613,0.31222222222222223,-0.33,-0.5955555555555555,0.046102250247279986,2.7100720202769537,-16.053342915430267
1589995930.7170856,-1.359690900098912,-1.5850513105835806,9.031185552670623,0.31222222222222223,-0.33,-0.5955555555555555,2.5579890733184967,3.884986824616716,-17.147229112574184
1589995930.7270856,-1.6759916860658464,-1.3526325241104091,8.675658131027602,0.31222222222222223,-0.33157170306322287,-0.5930408306543989,5.784506983704689,5.335467243099435,-25.545302627203192
1589995930.7370856,-2.0725375158594743,-1.4055418471365446,8.886158725992038,0.31222222222222223,-0.33555555555555555,-0.5866666666666667,1.3047890143063392,1.6106827230170189,-31.55358041300258
1589995930.7470856,-2.2026231916103356,-1.3763912755069807,9.093275317455305,0.31222222222222223,-0.33555555555555555,-0.5866666666666667,-1.2550717828037148,1.4047101048708068,-34.21829790258386
1589995930.7570856,-2.209247583549182,-1.316771748057363,9.000533830311454,0.31222222222222223,-0.33555555555555555,-0.5866666666666667,0.15261150420115,1.3219052056352265,-35.87439588729547
1589995930.7670856,-2.3775922068130866,-1.1474916175624466,8.9176257365633,0.31222222222222223,-0.33555555555555555,-0.5866666666666667,2.2966130488264587,3.4682260976529173,-38.611627780092455
1589995930.7770855,-2.462577246542004,-1.1438658698130062,9.035154493084008,0.31494264912767117,-0.33412375192110877,-0.5866666666666667,1.925583777456024,2.9677844182249467,-41.00353308585687
1589995930.7870855,-2.48723360330316,-1.17,9.060355195595786,0.3333333333333333,-0.3244444444444444,-0.5866666666666667,1.1808400825790057,2.915770075697422,-44.08995024085544
1589995930.7970855,-2.509436239479117,-1.17,9.03075168069451,0.3333333333333333,-0.3244444444444444,-0.5866666666666667,1.7359059869779259,3.424580488063099,-45.70889246201895
1589995930.8070855,-2.4567672835613164,-1.166767283561316,8.667069134245265,0.3333333333333333,-0.3244444444444444,-0.5866666666666667,2.1029089554835485,4.021147761129113,-48.61705820629363
1589995930.8170855,-2.47,-1.1779384708998497,8.724123058200302,0.3333333333333333,-0.3244444444444444,-0.5866666666666667,1.8730772156203022,3.972308101868423,-50.82788227503758
1589995930.8270855,-2.47,-1.1704320280621374,8.739135943875725,0.3333333333333333,-0.3244444444444444,-0.5866666666666667,1.6385008769417997,3.6439012277185197,-52.7044929844656
1589995930.8370855,-2.527299082644799,-1.2109279161748565,8.911897247934396,0.34970449980327595,-0.3289919906860952,-0.5866666666666667,1.8807994760928537,3.6761598952185706,-54.50077654221283
1589995930.8470855,-2.5519885610079576,-1.2329828415119364,8.927017158488063,0.3533333333333333,-0.33,-0.5866666666666667,2.1906071265749336,4.193714253149867,-56.974428050397876
1589995930.8570855,-2.5867556366047744,-1.2851334549071618,8.874866545092837,0.3533333333333333,-0.33,-0.5866666666666667,2.24493068219496,4.30236136438992,-58.712781830238725
1589995930.8670855,-2.5894256805489726,-1.303195952768562,8.920162177756714,0.3533333333333333,-0.33,-0.5866666666666667,2.011782100686216,4.035346302058648,-61.20130932264512
1589995930.8770854,-2.62677929908303,-1.361610350458485,9.045974123853789,0.3543174363912964,-0.32847911345587516,-0.5873823779815489,2.0876617259138297,4.2327911066448936,-63.031002700665745
1589995930.8870854,-2.577499506416584,-1.385000197433366,8.977499111549852,0.3655555555555556,-0.3111111111111111,-0.5955555555555555,2.437502467917078,4.812502467917078,-65.26564289239882
1589995930.8970854,-2.541408530940682,-1.401408530940682,8.901548814355907,0.3655555555555556,-0.3111111111111111,-0.5955555555555555,2.585385067293313,5.008803318379264,-66.77465641244748
1589995930.9070854,-2.5563423057751193,-1.4163423057751192,8.811946165349283,0.3655555555555556,-0.3111111111111111,-0.5955555555555555,2.1653726500747705,5.1021394110944955,-68.36136998860643
1589995930.9170854,-2.6011912563772865,-1.47,8.728808743622714,0.3655555555555556,-0.3111111111111111,-0.5955555555555555,2.0922814094321622,5.154781409432163,-70.97336057074122
1589995930.9270854,-2.6098898751503588,-1.47,8.720110124849642,0.3655555555555556,-0.3111111111111111,-0.5955555555555555,2.3097468787589697,5.37224687875897,-72.60435159069227
1589995930.9370854,-2.663557773929578,-1.5142310957183118,8.801346643577467,0.3855555555555555,-0.28444444444444444,-0.5955555555555555,2.3125,4.919472174119725,-74.71545108824827
1589995930.9470854,-2.6777993956062613,-1.571197582425045,8.886796373637567,0.3855555555555555,-0.28444444444444444,-0.5955555555555555,2.3125,5.097492445078266,-75.82807778173915
1589995930.9570854,-2.7379332247930472,-1.62,8.86991653099131,0.3855555555555555,-0.28444444444444444,-0.5955555555555555,2.6745826549565455,5.34968699121741,-77.76030893852186
1589995930.9670854,-2.77,-1.6257132337901412,8.914284925342606,0.3855555555555555,-0.28444444444444444,-0.5955555555555555,2.875,5.5,-79.0178193393332
1589995930.9770854,-2.7699596808063838,-1.660030239395212,8.939989920201596,0.3855947547715712,-0.2844242848476364,-0.5955555555555555,2.8748110037799246,5.499937001259974,-80.2512599748005
1589995930.9870853,-2.7314857332605964,-1.6974286663029814,8.927028533478808,0.4244444444444445,-0.2644444444444444,-0.5955555555555555,2.6967858328787266,5.493214997272361,-81.704288323332
1589995930.9970853,-2.732976301115242,-1.744214219330855,8.888928903345725,0.4244444444444445,-0.2644444444444444,-0.5955555555555555,2.723661129182156,5.8476184944237914,-83.05059247211896
1589995931.0070853,-2.691284187036172,-1.7764209351808604,8.756147438891484,0.4244444444444445,-0.2644444444444444,-0.5955555555555555,2.5865785069282268,6.078552337952151,-84.26144487259329
1589995931.0170853,-2.6950809633162573,-1.8232793577891617,8.739838073367485,0.4244444444444445,-0.2644444444444444,-0.5955555555555555,2.6987600345443483,6.177252006908869,-85.38221186873147
1589995931.0270853,-2.6703839133250895,-1.8397440577832735,8.78923217334982,0.4244444444444445,-0.2644444444444444,-0.5955555555555555,2.441499097136352,6.125799819427271,-86.35980343088187
1589995931.0370853,-2.677766343825666,-1.8867009685230023,8.835532687651332,0.4511111111111111,-0.2311111111111111,-0.6233333333333333,2.791881053268765,5.9448017554479415,-87.74398456416465
1589995931.0470853,-2.6654649047208654,-1.9168026429187015,8.82340132145935,0.4511111111111111,-0.2311111111111111,-0.6233333333333333,2.958758259120942,6.173327827252705,-88.48837738197835
1589995931.0570853,-2.63,-1.977963323596235,8.851990830899059,0.4511111111111111,-0.2311111111111111,-0.6233333333333333,3.1312213465595584,6.0936067327977925,-89.4496561587147
1589995931.0670853,-2.63,-2.046030509574813,8.869007627393703,0.4511111111111111,-0.2311111111111111,-0.6233333333333333,3.184398835605323,6.3594941780266145,-90.08778602726387
1589995931.0770853,-2.6540015799708314,-2.0580005266569437,8.87,0.4511111111111111,-0.2311111111111111,-0.6233333333333333,3.3875131664235942,6.675019749635391,-90.62503291605898
1589995931.0870852,-2.6356496018629807,-2.188259840745192,8.867389761117789,0.4777777777777778,-0.19111111111111112,-0.6088888888888889,3.301624004657452,6.448375995342548,-91.27718998835637
1589995931.0970852,-2.5962650240384613,-2.1725060096153848,8.843759014423076,0.4777777777777778,-0.19111111111111112,-0.6088888888888889,3.2031625600961537,6.546837439903846,-91.52334359975961
1589995931.1070852,-2.5785683398042454,-2.227158300978774,8.708568339804247,0.4777777777777778,-0.19111111111111112,-0.6088888888888889,3.0623648664357286,6.491052123776533,-92.16079150489387
1589995931.1170852,-2.564990745481038,-2.277012956326547,8.711020359941715,0.4777777777777778,-0.19111111111111112,-0.6088888888888889,2.6749768637025952,6.424976863702595,-92.43135411333832
1589995931.1270852,-2.5236968849682984,-2.334824361044382,8.801866853069743,0.4777777777777778,-0.19111111111111112,-0.6088888888888889,2.571742212420746,6.321742212420746,-92.89591004410664
1589995931.1370852,-2.5534075581532925,-2.370445348919757,8.798073546463476,0.5244444444444445,-0.16444444444444445,-0.6444444444444445,3.0439861922903995,6.6157430961451995,-93.37639171537424
1589995931.1470852,-2.56650965877402,-2.467673105849347,8.74349034122598,0.5244444444444445,-0.16444444444444445,-0.6444444444444445,3.5043276462336697,6.824099190454461,-93.73840080954554
1589995931.1570852,-2.545243624195102,-2.4534957494634018,8.764756375804897,0.5244444444444445,-0.16444444444444445,-0.6444444444444445,3.149893736585036,6.513969519511907,-94.0485304804881
1589995931.1670852,-2.4790682997061317,-2.53232925073467,8.802795100881605,0.5244444444444445,-0.16444444444444445,-0.6444444444444445,3.4462346902550145,6.5712346902550145,-94.5378503244384
1589995931.1770852,-2.462523716545372,-2.57369070863657,8.852428850363884,0.5244444444444445,-0.16444444444444445,-0.6444444444444445,3.6013401573871366,6.726340157387137,-95.20997401534426
1589995931.1870852,-2.4299082492110267,-2.637208393420695,8.861258177106194,0.5433333333333333,-0.11333333333333333,-0.6666666666666666,3.259010491775869,7.0360419671034755,-96.63515737663803
1589995931.1970851,-2.369271403440188,-2.680485731039875,8.748299941360438,0.5433333333333333,-0.11333333333333333,-0.6666666666666666,3.3018746335027367,7.243928362001563,-97.4708940089914
1589995931.2070851,-2.335317889437867,-2.7023410552810665,8.68280926633728,0.5433333333333333,-0.11333333333333333,-0.6666666666666666,2.866221042696001,6.991221042696001,-98.882731658432
1589995931.2170851,-2.241099225067386,-2.7506595350404313,8.740219845013478,0.5433333333333333,-0.11333333333333333,-0.6666666666666666,2.6957441880053907,6.822118219339623,-100.34547675202157
1589995931.227085,-2.285260908018868,-2.7771565448113207,8.749052181603773,0.5433333333333333,-0.11333333333333333,-0.6666666666666666,3.0269568101415096,7.208532945165095,-101.67032724056604
1589995931.237085,-2.2271808638128565,-2.815896649249796,8.758974162312448,0.5562960122290931,-0.0754424257918817,-0.69957192847898,3.1185885144528065,7.362177028905613,-103.27080137577298
1589995931.247085,-2.185372450949745,-2.8684785686703567,8.76692550981005,0.5577777777777778,-0.07111111111111111,-0.7033333333333334,3.125,7.245146691061545,-104.64946421675891
1589995931.257085,-2.1517528756420456,-2.871752875642046,8.733505751284092,0.5577777777777778,-0.07111111111111111,-0.7033333333333334,3.29606679085582,7.4155890544744265,-107.01221243579542
1589995931.267085,-2.134153016420394,-2.9571584096878323,8.76169396715921,0.5577777777777778,-0.07111111111111111,-0.7033333333333334,3.362021823686268,7.932718236862682,-108.57411106321551
1589995931.277085,-2.1033196305890303,-2.9622130870593537,8.885614934114201,0.5577777777777778,-0.07111111111111111,-0.7033333333333334,3.43058410293952,8.11808410293952,-110.38268667642753
1589995931.287085,-2.090987054248862,-2.9870388372534142,8.7107281392261,0.5517691472770191,-0.016031998187489467,-0.7023318949165401,3.7191545547230653,9.026294575113809,-111.68911821889226
1589995931.297085,-2.079858319141839,-3.0214168085816113,8.749149914851033,0.5511111111111111,-0.01,-0.7022222222222222,3.4858319141838865,8.740259441001422,-113.39359561263365
1589995931.307085,-2.07249460137994,-3.0950539862006003,8.70496760827964,0.5511111111111111,-0.01,-0.7022222222222222,2.749460137993996,8.234003844870871,-114.36008356888289
1589995931.317085,-2.0199826406012664,-3.1,8.650034718797468,0.5511111111111111,-0.01,-0.7022222222222222,3.4997830075158305,8.81271699248417,-114.68836796993668
1589995931.327085,-2.0117087171798866,-3.1,8.666582565640226,0.5511111111111111,-0.01,-0.7022222222222222,3.396358964748585,8.916141035251416,-115.10206414100566
1589995931.337085,-1.8691176651431618,-3.2002941116189465,8.816764772191593,0.5577777777777778,0.021111111111111112,-0.7244444444444444,2.5128673833288926,8.198529185710479,-115.24080901190793
1589995931.347085,-1.8433282777561437,-3.2088905740812854,8.72220368510586,0.5577777777777778,0.021111111111111112,-0.7244444444444444,2.88896261605624,8.520896528048205,-114.97216955995982
1589995931.357085,-1.8499854862119014,-3.230087082728592,8.60010159651669,0.5577777777777778,0.021111111111111112,-0.7244444444444444,3.3116835994194487,9.375181422351234,-113.6864114658926
1589995931.367085,-1.839540747411076,-3.290574065736155,8.671033318325078,0.5577777777777778,0.021111111111111112,-0.7244444444444444,2.7521527465105806,9.49784725348942,-112.92243077442593
1589995931.377085,-1.8104873064801026,-3.3268908668998716,8.736403560419769,0.5577777777777778,0.021111111111111112,-0.7244444444444444,2.8883407508745194,9.36165924912548,-111.96911474387836
1589995931.387085,-1.7495530553101801,-3.321117361724549,8.701340834069459,0.57,0.006666666666666667,-0.7244444444444444,2.7346362762874454,9.119413191377253,-109.90118574395214
1589995931.397085,-1.736552915833682,-3.353617710415795,8.740341252498954,0.57,0.006666666666666667,-0.7244444444444444,2.2877564817828198,8.956911447921025,-108.84492441148666
1589995931.407085,-1.6962573402978296,-3.3362573402978293,8.685766148655226,0.57,0.006666666666666667,-0.7244444444444444,1.6828950783505823,8.706286701489148,-107.0049719365409
1589995931.417085,-1.6363885017897641,-3.3810560974943304,8.702333797852283,0.57,0.006666666666666667,-0.7244444444444444,1.3364568817116158,8.679514372762794,-104.248939462251
1589995931.427085,-1.6057392096868695,-3.381913069895623,8.66147841937374,0.57,0.006666666666666667,-0.7244444444444444,1.0597834342382224,8.6875,-101.96631078705813
1589995931.437085,-1.6,-3.3955591564510823,8.657779578225542,0.5933387346766239,0.03259859408513769,-0.7356816129924486,0.9513776360903669,8.590255272180734,-99.40923835188578
1589995931.447085,-1.559630689321243,-3.4405539660181352,8.649076723303107,0.6,0.04,-0.7388888888888889,0.5682704793555771,8.052113137159962,-95.69114111057311
1589995931.457085,-1.5411682366405495,-3.468247645039176,8.602920591601373,0.6,0.04,-0.7388888888888889,0.8567463024914165,7.532856655515451,-92.74868771458755
1589995931.467085,-1.54,-3.488197776748495,8.690988883742472,0.6,0.04,-0.7388888888888889,1.1024722093561834,7.215659738304771,-89.3210210166744
1589995931.4770849,-1.5250168330281733,-3.5124747504577405,8.662542082570432,0.6,0.04,-0.7388888888888889,1.4995791742956706,6.7660984289173705,-86.6120577638651
1589995931.4870849,-1.5195319304815011,-3.6101170173796246,8.739414913101877,0.5733333333333334,-0.004444444444444445,-0.7466666666666667,1.4404254344906182,6.243417772396109,-82.1458125585087
1589995931.4970849,-1.4853889047173268,-3.6186527738206684,8.696736130896658,0.5733333333333334,-0.004444444444444445,-0.7466666666666667,1.653819345516708,5.763281472587407,-79.10494932638692
1589995931.5070848,-1.48,-3.649194170477712,8.631611659044577,0.5733333333333334,-0.004444444444444445,-0.7466666666666667,1.6266788115047661,5.38339405752383,-74.79326512480026
1589995931.5170848,-1.4314930497999006,-3.65970139004002,8.678506950200099,0.5733333333333334,-0.004444444444444445,-0.7466666666666667,1.443098936749627,5.132465248999503,-70.98884504724242
1589995931.5270848,-1.398745222318256,-3.636558916738692,8.664372611159129,0.5733333333333334,-0.004444444444444445,-0.7466666666666667,1.4863355901277249,4.7343152789782,-67.9448645923365
1589995931.5370848,-1.3720288150543958,-3.6839135548368125,8.713913554836813,0.5274069718056781,0.024509131301251267,-0.6548139436113561,1.3315201411349602,4.063400470449868,-63.530763010879156
1589995931.5470848,-1.3579857675681581,-3.683992883784079,8.71399288378408,0.5222222222222223,0.027777777777777776,-0.6444444444444445,1.274955523650494,3.8873665709514817,-60.83478694268013
1589995931.5570848,-1.35,-3.743431186256641,8.627539457866368,0.5222222222222223,0.027777777777777776,-0.6444444444444445,1.3689334742312018,3.891788982820801,-56.89418602396557
1589995931.5670848,-1.3121325413463778,-3.7610662706731888,8.693602375960866,0.5222222222222223,0.027777777777777776,-0.6444444444444445,1.6741716165851386,3.8783320958537155,-51.83158994293035
1589995931.5770848,-1.2840268934406769,-3.6647652759491485,8.725973106559323,0.5222222222222223,0.027777777777777776,-0.6444444444444445,1.4169468066737174,3.279782974682178,-48.32425104141935
1589995931.5870848,-1.311186926004819,-3.774747704019276,9.91510318818312,0.5090544090201875,0.09430988658805818,-0.6139505612397326,2.427558752662639,2.5637614799036212,-45.47348054963858
1589995931.5970848,-1.1720738790366296,-3.573629288314102,8.798056996824906,0.5011111111111111,0.13444444444444445,-0.5955555555555555,13.426401688221171,-7.8309382986138,-41.89101583675366
1589995931.6070848,-0.6650847082272173,-2.657762152585539,7.097177499723176,0.5011111111111111,0.13444444444444445,-0.5955555555555555,3.1749252574465725,1.03865850957812,-37.35398211715203
1589995931.6170847,-1.438419882130546,-3.994986100300234,11.53807850550428,0.5011111111111111,0.13444444444444445,-0.5955555555555555,-14.93064049816524,6.681217335705549,-32.62663321472256
1589995931.6270847,-1.095919059415993,-3.4969290906875683,8.849736425293425,0.5011111111111111,0.13444444444444445,-0.5955555555555555,2.52067046054502,4.845285657718393,-27.482911048613087
1589995931.6370847,-1.1403842015601182,-3.621152604680355,8.866915628082129,0.5277777777777778,0.20222222222222225,-0.6088888888888889,2.10345590872411,3.6912363825876446,-23.09738551286649
1589995931.6470847,-1.1591876625123285,-3.6775629875369855,9.205377925221914,0.5277777777777778,0.20222222222222225,-0.6088888888888889,-2.009801174571864,-2.2436059804536894,-21.74588675692639
1589995931.6570847,-1.1997986810135368,-3.7595973620270735,8.712566817077404,0.5277777777777778,0.20222222222222225,-0.6088888888888889,1.7301826622700456,1.3554972231863935,-17.334519264144394
1589995931.6670847,-1.2297087136781792,-3.811990248936814,8.880825103649531,0.5277777777777778,0.20222222222222225,-0.6088888888888889,1.0072821580455167,1.0036410790227583,-14.945086878770084
1589995931.6770847,-1.2092383457384297,-3.7838575186076446,8.786191728692149,0.5277777777777778,0.20222222222222225,-0.6088888888888889,0.4616094912977783,0.29821898259555657,-11.769810845598522
1589995931.6870847,-1.2719948322421464,-3.940169603481437,9.0214343442193,0.53141388041627,0.219675514886985,-0.6001622425565075,1.070404629611641,0.0022815359508868704,-8.771755337749887
1589995931.6970847,-1.231263443780554,-3.863778381314503,8.77631721890277,0.5333333333333333,0.2288888888888889,-0.5955555555555555,1.0000746876697446,-0.007821835958718083,-4.773913633894622
1589995931.7070847,-1.251673936301539,-3.927103324829232,8.727918484075385,0.5333333333333333,0.2288888888888889,-0.5955555555555555,0.9375,-0.2474526273557732,-1.752002150028804
1589995931.7170846,-1.2275683387257024,-3.8851366774514053,8.608381270221384,0.5333333333333333,0.2288888888888889,-0.5955555555555555,1.1401978829643595,-0.6672212951876291,1.319200124831223
1589995931.7270846,-1.22,-3.9342623086470834,8.837049234588333,0.5333333333333333,0.2288888888888889,-0.5955555555555555,1.0089935870914357,-0.8838798096814233,4.374089780719901
1589995931.7370846,-1.2446564171513752,-4.050406862888376,9.096157308625378,0.5333333333333333,0.2435000990526668,-0.5992083580965,0.5265597141437466,-1.0402350714640634,8.046111858065647
1589995931.7470846,-1.1967140662934153,-3.8657372541247583,8.508330773423177,0.5333333333333333,0.2466666666666667,-0.6,0.4930061809443591,-1.3400309047217955,11.566827590051034
1589995931.7570846,-1.2187640069477534,-3.9032808152850578,8.660112055582028,0.5333333333333333,0.2466666666666667,-0.6,0.2483149392071568,-1.4109550086846918,13.84311546028867
1589995931.7670846,-1.2546644352607672,-3.9206711294784657,8.717572663000785,0.5333333333333333,0.2466666666666667,-0.6,-0.029152720379794397,-1.559703627173059,16.808096246456504
1589995931.7770846,-1.2522014020618557,-3.8410538556701033,8.702341938144329,0.5333333333333333,0.2466666666666667,-0.6,-0.125,-1.6875,19.800205154639176
1589995931.7870846,-1.2366599751073994,-3.7766700124463,8.69014052274461,0.5296333471625558,0.24851665975205545,-0.5985200055316889,-0.00012546673625887794,-1.8331869554743645,22.374121732846188
1589995931.7970846,-1.2980098559514783,-3.908695139415382,8.788744419172774,0.5222222222222223,0.25222222222222224,-0.5955555555555555,-0.2834428439053155,-2.258360710976329,25.258566043298796
1589995931.8070846,-1.34,-4.008427688953488,8.832369186046511,0.5222222222222223,0.25222222222222224,-0.5955555555555555,-0.3005768531976744,-2.6446538880813955,27.912865643168605
1589995931.8170846,-1.3021012052463665,-3.9166226515420064,8.598723856788373,0.5222222222222223,0.25222222222222224,-0.5955555555555555,-0.40924096065225096,-2.75,29.84158432293513
1589995931.8270845,-1.2635924231137596,-3.989028413323401,8.665630307544962,0.5222222222222223,0.25222222222222224,-0.5955555555555555,-0.5412618388847504,-2.832523677769501,31.19902229434926
1589995931.8370845,-1.297160406664784,-4.0190398192600965,8.735720135554928,0.5466757664187769,0.25222222222222224,-0.6066178731682826,-0.6607508472182999,-2.9077502824061,32.3752559305281
1589995931.8470845,-1.347404746528899,-3.9629762673555056,8.75,0.5688888888888889,0.25222222222222224,-0.6166666666666667,-0.75,-2.9837796658056184,33.509076323861805
1589995931.8570845,-1.2831535728571093,-3.8915093762499704,8.482614291428437,0.5688888888888889,0.25222222222222224,-0.6166666666666667,-0.6977762287946166,-2.5822098303569327,33.896395084821535
1589995931.8670845,-1.3196766858523414,-3.9876328193467394,8.736339562756106,0.5688888888888889,0.25222222222222224,-0.6166666666666667,-0.7909930955257112,-2.5,33.73051380894858
1589995931.8770845,-1.357018562162794,-3.9694721567558093,8.718944313511619,0.5688888888888889,0.25222222222222224,-0.6166666666666667,-0.6014174831031729,-2.711082516896827,33.39198447634444
1589995931.8870845,-1.385068844251058,-3.927396733623413,8.687534422125529,0.6634877444649752,0.23296758790142588,-0.6166666666666667,-0.8296309679918936,-2.6712295851463312,32.73200847886988
1589995931.8970845,-1.405291339297879,-3.8970629910531813,8.743519687542577,0.6944444444444444,0.22666666666666666,-0.6166666666666667,-1.0330708706117444,-2.6727854353058724,32.2280019528589
1589995931.9070845,-1.427162502491258,-3.952929175801279,8.754279165836246,0.6944444444444444,0.22666666666666666,-0.6166666666666667,-1.098255213523454,-2.794765640570362,31.874713505335823
1589995931.9170845,-1.4259905966897288,-4.0,8.665943580138375,0.6944444444444444,0.22666666666666666,-0.6166666666666667,-0.9061030732770154,-2.7436618439662093,31.599941229310804
1589995931.9270844,-1.4339710259701248,-4.013971025970125,8.671913077910375,0.6944444444444444,0.22666666666666666,-0.6166666666666667,-0.8416063041044267,-2.7166063041044266,31.533393695895573
1589995931.9370844,-1.4524198614517447,-4.025160277096511,8.717580138548255,0.7381363873231693,0.21833158833287913,-0.6220441365594328,-0.8901241340734047,-2.75,31.53024826814681
1589995931.9470844,-1.436479698357795,-3.916255336387149,8.673183758686235,1.0555555555555556,0.15777777777777774,-0.6611111111111111,-1.0838007541055124,-2.6242988688417315,32.043302639369294
1589995931.9570844,-1.4471267648267063,-3.947816912066766,8.59896477913991,1.0555555555555556,0.15777777777777774,-0.6611111111111111,-0.9978432898748135,-2.5625,32.7808979805842
1589995931.9670844,-1.486142995169082,-3.9904571980676327,8.648428985507246,1.0555555555555556,0.15777777777777774,-0.6611111111111111,-1.035536231884058,-2.5625,33.45464492753623
1589995931.9770844,-1.5247335307179868,-4.0147335307179866,8.656154700222057,1.0555555555555556,0.15777777777777774,-0.6611111111111111,-1.247779422649889,-2.6238897113249444,34.24222797927461
1589995931.9870844,-1.5452390074009579,-4.0142829777971265,8.673824118415324,1.266280075460746,-0.029080152856382768,-0.7734587142649832,-1.1785372224640835,-2.785731388767958,35.60432629516761
1589995931.9970844,-1.5291729791428867,-3.9722306388571824,8.722230638857184,1.4577777777777778,-0.1988888888888889,-0.8755555555555555,-1.0,-2.875,36.4375
1589995932.0070844,-1.541755031627372,-3.981755031627372,8.671928694652099,1.4577777777777778,-0.1988888888888889,-0.8755555555555555,-1.0,-2.841007763082231,36.335523289246694
1589995932.0170844,-1.56,-3.933859846865405,8.667558397139414,1.4577777777777778,-0.1988888888888889,-0.8755555555555555,-0.9311040071514634,-2.8469479964242685,35.21656010727195
1589995932.0270844,-1.5711070508486964,-3.8855535254243483,8.712214101697393,1.4577777777777778,-0.1988888888888889,-0.8755555555555555,-0.8055809321956477,-2.840290466097824,33.5072616524456
1589995932.0370843,-1.6329454217410915,-3.8436727559765447,8.723381822282365,0.9959760437027014,-0.037111211346664646,-0.7608404751165238,-0.8740908322056834,-2.7297727785295445,32.0679550067659
1589995932.0470843,-1.5725656279717806,-3.943865360373311,8.763717186014109,0.76,0.045555555555555564,-0.7022222222222222,-0.5276513811177213,-2.6875,30.73118655594135
1589995932.0570843,-1.65869690226767,-3.834210315773683,8.683558766907518,0.76,0.045555555555555564,-0.7022222222222222,-0.7459278195864689,-2.5484020676550743,28.93765469910243
1589995932.0670843,-1.8010551788690272,-3.722254183503413,8.69330936237244,0.76,0.045555555555555564,-0.7022222222222222,-1.0103417574138758,-2.590227838275917,27.53522161724083
1589995932.0770843,-1.8193753985195864,-3.7371242826647446,8.72649968118433,0.76,0.045555555555555564,-0.7022222222222222,-0.9335962407474148,-2.4187539851958637,27.342184511103103
1589995932.0870843,-1.7903056471958083,-3.789449835047545,8.749755482243353,0.76,0.045555555555555564,-0.7022222222222222,-0.7519102949738017,-2.128056471958083,27.560207646031436
1589995932.0970843,-1.8361965084096232,-3.794601163863459,8.652208147044211,0.6288888888888889,0.15222222222222226,-0.6644444444444444,-0.8075145482932369,-2.5962427258533816,29.959752679014976
1589995932.1070843,-1.9384547286159106,-3.695648289476362,8.590515090461363,0.6288888888888889,0.15222222222222226,-0.6644444444444444,-1.192273643079553,-2.625,32.080040244622175
1589995932.1170843,-1.9850360667750577,-3.679879777416474,8.684723488057891,0.6288888888888889,0.15222222222222226,-0.6644444444444444,-1.1570765302617416,-2.8432240261970736,34.745491653117774
1589995932.1270843,-1.9219375014977593,-3.70596875074888,8.780775000599103,0.6288888888888889,0.15222222222222226,-0.6644444444444444,-0.9927343693834024,-3.182656246255602,38.36726557070622
1589995932.1370842,-1.8618504372298725,-3.6922243441551914,8.764074781385064,0.6180228051953853,0.1703323617113948,-0.6789325560357824,-1.0856304653734044,-3.337967383656649,41.472434415519146
1589995932.1470842,-1.8412431521281079,-3.71,8.73497260851243,0.6022222222222222,0.19666666666666666,-0.7,-1.0469605983986514,-3.429730299199326,43.90676359039191
1589995932.1570842,-1.8528437797273016,-3.7602563154000634,8.69456875594546,0.6022222222222222,0.19666666666666666,-0.7,-1.2446094493182538,-3.557109449318254,44.83566417397738
1589995932.1670842,-1.82596863730297,-3.8019895457676567,8.67748693220957,0.6022222222222222,0.19666666666666666,-0.7,-1.031086652619636,-3.625,44.34653197050124
1589995932.1770842,-1.7272575620209347,-3.7472575620209345,8.715484875958131,0.6022222222222222,0.19666666666666666,-0.7,-0.7752029588724965,-3.4203597626308415,41.900175142174234
1589995932.1870842,-1.6596891679748822,-3.71,8.77863343799058,0.5967494331065759,0.17940633176347462,-0.7058937728937729,-0.7092376373626373,-2.998057299843014,38.06675333594976
1589995932.1970842,-1.4237556133757348,-3.6294618868651827,8.749932735858147,0.5877777777777777,0.1511111111111111,-0.7155555555555555,-0.12289799556711961,-2.4043581960104077,31.193315746362146
1589995932.2070842,-1.2277084995630534,-3.463959496941373,8.660105247159846,0.5877777777777777,0.1511111111111111,-0.7155555555555555,0.4947875109236673,-1.472014039287207,21.445393536988487
1589995932.2170842,-1.3018830254755203,-3.3390347112545493,8.61,0.5877777777777777,0.1511111111111111,-0.7155555555555555,0.20984901805946576,-0.8919103635926664,12.092159925839457
1589995932.2270842,-1.3516109693120437,-3.404125957143705,8.747917730159672,0.5877777777777777,0.1511111111111111,-0.7155555555555555,0.2722257671989078,-0.40520567460081913,3.070105211610376
1589995932.2370842,-2.2210599755201956,-4.470116279069767,7.738062423500612,0.5571072351421189,0.12420712634298925,-0.6746614987080103,1.2967717258261935,0.5750726744186047,-6.84468329253366
1589995932.2470841,-10.506873181985355,-5.8566755826005545,-1.4151048179477757,0.5244444444444445,0.09555555555555556,-0.6311111111111111,-43.346595088434924,83.88052300310943,-94.59570488816075
1589995932.2570841,-7.788913007259312,-2.7377093895037485,-1.3481542306319172,0.5244444444444445,0.09555555555555556,-0.6311111111111111,-23.671349518029274,-7.122161727954307,-293.240240092824
1589995932.2670841,-1.8469750550903483,-1.5689184662847069,1.1912659321286911,0.5244444444444445,0.09555555555555556,-0.6311111111111111,-0.5557404142794184,-60.8575121198766,-351.31061591009257
1589995932.277084,-0.03501806358381501,-1.4774259393063582,0.2857604768786127,0.5244444444444445,0.09555555555555556,-0.6311111111111111,-0.5829570086705202,-30.154511380057805,-339.2591898482659
1589995932.287084,-0.07019203539823007,-0.7533424778761062,-0.20030176991150442,0.5666087512291051,0.1917197640117994,-0.6451658800393314,1.6893860619469026,-8.569015486725664,-316.30686946902654
1589995932.297084,-0.1198269432827211,-0.7941467685778446,-0.04585323142215538,0.5877777777777777,0.24,-0.6522222222222223,-1.6015060054801293,-3.861911298131399,-299.94980840149157
1589995932.307084,1.0485315459759668,-2.360225127688061,4.160043967668887,0.5877777777777777,0.24,-0.6522222222222223,-3.9933614605200085,-1.1354319906114152,-285.7105055455462
1589995932.317084,2.165150552386454,-3.6946566539100294,9.289789154451585,0.5877777777777777,0.24,-0.6522222222222223,15.964803415409055,25.972520579103183,-268.7347055744097
1589995932.327084,0.15693871760923028,1.6932920370720637,4.7672479667108,0.5877777777777777,0.24,-0.6522222222222223,78.46895096463022,117.57159660487989,-237.45118332702856
1589995932.337084,0.9564588467225232,1.887126663380976,6.8827747658945295,0.542912764908822,0.28005804720442473,-0.6446111932533816,16.29381776737309,62.585602513553475,-209.12855778708723
1589995932.347084,0.5634012847056326,-1.3173191060147582,10.112036948558687,0.4633333333333333,0.3511111111111111,-0.6311111111111111,6.009602112862986,4.137870281892022,-185.12051746562616
1589995932.357084,2.054074913515448,-0.7252988190385303,10.058949063581057,0.4633333333333333,0.3511111111111111,-0.6311111111111111,32.858262256948585,20.47853542884409,-171.64268459978527
1589995932.367084,0.7983913278949328,-0.27607115052635145,5.43115069559625,0.4633333333333333,0.3511111111111111,-0.6311111111111111,9.944170361845444,18.09150221710727,-159.41546326540976
1589995932.377084,-0.4312877368631185,-1.0967943244986336,5.127953072694328,0.4633333333333333,0.3511111111111111,-0.6311111111111111,-14.022832145818619,5.8750671815976165,-149.4562225515187
1589995932.387084,-0.1304141850832905,-2.5920092511412767,9.772741784321433,0.4402338986808558,0.39870994615258004,-0.6409108712667076,-1.4755589231187827,11.207940940835023,-133.5202274238897
1589995932.397084,0.2710138911064985,-2.3999313428069615,8.677903560593965,0.4266666666666667,0.4266666666666667,-0.6466666666666666,12.657003432859652,14.567329953696312,-126.85373423279579
1589995932.407084,0.3976498593378056,-2.5615299718675613,7.756031162086129,0.4266666666666667,0.4266666666666667,-0.6466666666666666,7.542550313784895,6.57123052369617,-113.65756870807185
1589995932.417084,0.06676839237057222,-2.7182547683923706,8.087995912806539,0.4266666666666667,0.4266666666666667,-0.6466666666666666,-0.811256811989101,9.424020776566758,-104.04682391008174
1589995932.427084,0.15734094254774245,-2.5887846094900078,7.586353828470024,0.4266666666666667,0.4266666666666667,-0.6466666666666666,4.508309554538305,6.785021627780354,-97.2218082639295
1589995932.437084,0.14633914175865062,-3.0997144363140268,9.455117822150564,0.40131009963206415,0.4477971391955021,-0.6199014014634752,0.7986345808011905,6.424027967257844,-90.24564368101203
1589995932.447084,0.18641959394134708,-3.343622300999033,10.053090557524975,0.38666666666666666,0.46,-0.6044444444444445,2.1531481630679985,6.995891073155011,-83.93391475990977
1589995932.457084,0.16390495761623428,-3.1235717955304394,8.932954533778577,0.38666666666666666,0.46,-0.6044444444444445,4.293452992550732,5.378276714615978,-77.51966028769587
1589995932.467084,0.1099558846699228,-3.110110288325193,8.77547423979833,0.38666666666666666,0.46,-0.6044444444444445,2.3083641878052625,5.219508232235702,-70.05271191113913
1589995932.477084,0.12808309557774608,-3.2319347360912984,9.12540656205421,0.38666666666666666,0.46,-0.6044444444444445,1.389577389443652,4.927781740370898,-61.92247681883024
1589995932.487084,0.1497436567456688,-3.33,9.44615354464449,0.36537516585806323,0.48521361937860935,-0.6111680762787403,1.1431658130601794,3.4321595155347673,-51.95834422117118
1589995932.497084,0.1161960589501573,-3.196862063255506,8.982781255174698,0.34444444444444444,0.51,-0.6177777777777778,0.31446431528398744,2.788725368438483,-43.03576337141911
1589995932.507084,0.11361537232342601,-3.036038271013103,8.187153243847874,0.34444444444444444,0.51,-0.6177777777777778,1.4149039229785874,2.603125499360818,-34.38654522211569
1589995932.517084,0.12197258786301421,-3.2699314696575357,8.881629936150691,0.34444444444444444,0.51,-0.6177777777777778,1.187071685359597,1.5863007190068719,-20.934837661729738
1589995932.5270839,0.10409311692927378,-3.3226963629901674,8.973995972041228,0.34444444444444444,0.51,-0.6177777777777778,0.741573865655728,0.7486968368676697,-10.971419263120483
1589995932.5370839,0.08007192670586627,-3.2569060577054563,8.741077806645698,0.3345163711503107,0.52764990807846,-0.6381854839934971,0.0008990838233283172,-0.34127751948584717,2.5224907698618892
1589995932.5470839,0.08849424895852438,-3.230425236460817,8.740735452092121,0.3244444444444444,0.5455555555555556,-0.6588888888888889,-0.3947077973118139,-1.2269155946236276,14.829165247465088
1589995932.5570838,0.22465449263332643,-9.306754513384519,7.2471975513592035,0.3244444444444444,0.5455555555555556,-0.6588888888888889,-11.080222815936915,-7.51191896659058,54.802753423946875
1589995932.5670838,0.778060501821125,-6.55896853500607,7.1221180696074455,0.3244444444444444,0.5455555555555556,-0.6588888888888889,-26.282195340955077,-23.08125189700526,186.64926269728852
1589995932.5770838,0.104496859497897,-1.7589120470792385,10.613950996850066,0.3244444444444444,0.5455555555555556,-0.6588888888888889,-3.8768838297149983,-21.878787700171642,286.4728247543241
1589995932.5870838,-1.222058779314492,-2.9124496392062538,8.857639807576668,0.3280664545333066,0.5455555555555556,-0.6625108989777511,26.865493930396873,-5.4515888078773305,295.527571595009
1589995932.5970838,-0.8372519083969465,-3.3068988549618323,9.080193565976009,0.3322222222222222,0.5455555555555556,-0.6666666666666666,-13.56370978735005,-22.58764142584515,285.8180973964013
1589995932.6070838,7.420826977117625,-11.149173022882376,8.653199518265758,0.3322222222222222,0.5455555555555556,-0.6666666666666666,-30.58287334403854,-33.136993175431556,274.23604977920513
1589995932.6170838,6.28154438051945,-12.842657859222957,7.3321163908421525,0.3322222222222222,0.5455555555555556,-0.6666666666666666,-22.285669259180338,-21.639167080995335,130.25287810450553
1589995932.6270838,0.55603894335512,-7.0364603758169935,9.579299428104575,0.3322222222222222,0.5455555555555556,-0.6666666666666666,-4.151888446350762,-2.5644829112200433,-2.552262050653596
1589995932.6370838,-1.8540844226579518,-0.5428341503267973,12.166469771241829,0.3322222222222222,0.5455555555555556,-0.6666666666666666,19.228307121459693,17.496081835511983,-67.87402982026144
1589995932.6470838,-1.043589183283256,-0.09220548640106135,2.2866164592031843,0.4188888888888889,0.4666666666666667,-0.6444444444444445,40.28134877277871,14.513850138525774,-60.887094178015374
1589995932.6570837,-0.9469233234516465,-1.677249419117058,7.063260956654114,0.4188888888888889,0.4666666666666667,-0.6444444444444445,-9.66028863873087,-8.637709318163608,-52.72799655476324
1589995932.6670837,-1.6868525378794528,-3.11771985884088,12.010776199589163,0.4188888888888889,0.4666666666666667,-0.6444444444444445,-20.358168223396596,3.812607537264954,-36.38433599030848
1589995932.6770837,-0.7208426966292134,-2.170449438202247,7.203651685393258,0.4188888888888889,0.4666666666666667,-0.6444444444444445,9.586025280898877,4.617626404494382,-20.961025280898877
1589995932.6870837,-0.011857699405372069,-4.477169981546033,8.829279885175312,0.4188888888888889,0.46248700248331165,-0.6550835896384389,-0.16328941972524103,0.12756561410703293,-7.607181669058848
1589995932.6970837,-0.19007673469387742,-6.93773812244898,9.603434122448979,0.4188888888888889,0.4544444444444444,-0.6755555555555556,-11.473448979591836,-2.8492775510204083,-26.514914285714287
1589995932.7070837,-3.990162073659811,-6.582859560690238,8.216936421501895,0.4188888888888889,0.4544444444444444,-0.6755555555555556,2.4281706464549835,5.976453557893962,-73.67984243349645
1589995932.7170837,-2.9403821562431105,-6.537189681781436,7.892006320276328,0.4188888888888889,0.4544444444444444,-0.6755555555555556,10.887314433747335,8.33009204821048,-48.90003307121334
1589995932.7270837,1.0211729899707869,-1.1837822600152574,9.126716223508177,0.4188888888888889,0.4544444444444444,-0.6755555555555556,0.9774563664105093,-4.675953147386636,27.6128984239808
1589995932.7370837,0.5972688764875951,-3.034651717878034,8.179082901902778,0.4245620699701921,0.4649180095176195,-0.6690095773848211,-2.048577960061857,-3.1253445841457674,25.197906861426745
1589995932.7470837,-1.0297539551509127,-3.8756866013752864,8.779287511821373,0.43333333333333335,0.4811111111111111,-0.6588888888888889,-0.7910051372882174,1.3923253241861286,-8.357270945870134
1589995932.7570837,-2.1275753903680363,-5.31286223730222,7.877513762420802,0.43333333333333335,0.4811111111111111,-0.6588888888888889,5.369854239518055,4.58083474708306,-22.499210175535783
1589995932.7670836,0.18485547637526756,-4.9690242009454595,8.733339683435641,0.43333333333333335,0.4811111111111111,-0.6588888888888889,-1.7876008372727485,-0.8114636985818104,2.2970745431454174
1589995932.7770836,0.39122350356946733,-4.520490939044481,8.485891268533772,0.43333333333333335,0.4811111111111111,-0.6588888888888889,0.29984898407468424,-0.9973091707852828,3.0678336079077426
1589995932.7870836,-0.1018751082792739,-4.578000346493677,8.731875108279274,0.4349166811039032,0.4776805242748764,-0.6628472583153135,0.4023417197636143,-0.07734388534909238,-1.257027324876321
1589995932.7970836,-0.14117771829705572,-4.689400535326499,8.759400535326499,0.44,0.4666666666666667,-0.6755555555555556,-0.30145889096510275,-0.125,0.12131963032170093
1589995932.8070836,-0.15089332345948475,-4.549141364929649,8.59,0.44,0.4666666666666667,-0.6755555555555556,-0.14776669135128814,-0.15915003702693223,0.0625
1589995932.8170836,-0.11,-4.6454603065214455,8.596279944268828,0.44,0.4666666666666667,-0.6755555555555556,-0.15187587079956255,-0.2536255224797375,0.08212482584008748
1589995932.8270836,-0.11,-4.57633972044525,8.608847323555409,0.44,0.4666666666666667,-0.6755555555555556,0.04448943055326671,-0.13580634166803998,0.12139788611065334
1589995932.8370836,-0.10555951968359463,-4.657220240158203,8.644632933069662,0.44,0.46604894225737836,-0.6747319230098379,-0.03354416831461132,-0.18170883366292226,-0.05091766732584453
1589995932.8470836,-0.1568648957207804,-4.63156755213961,8.68738741310065,0.44,0.46034834491991333,-0.6671311265598844,0.23367133187906464,-0.12826573362418708,0.05596853275162586
1589995932.8570836,-0.09759670507040685,-4.649742119812248,8.637080944694903,0.44,0.46,-0.6666666666666666,0.17247940669004286,0.04667353110331905,0.04667353110331905
1589995932.8670835,-0.12,-4.591181773708854,8.542954434272136,0.44,0.46,-0.6666666666666666,0.2977278286393179,0.0,0.0
1589995932.8770835,-0.12508258868128894,-4.604917411318711,8.607789060384512,0.44,0.46,-0.6666666666666666,0.11014926888708368,-0.03176617925805578,0.01588308962902789
1589995932.8870835,-0.13927937990793393,-4.590720620092066,8.657477829677768,0.44,0.46,-0.6666666666666666,0.24324418663688058,-0.12049612442458706,0.06024806221229353
1589995932.8970835,-0.1123769641003615,-4.579015712802891,8.714753928200723,0.44,0.4666666666666667,-0.6522222222222223,0.0,0.017931923118221844,-0.047643974372740615
1589995932.9070835,-0.11988313826550699,-4.639065106124056,8.729766276531015,0.44,0.4666666666666667,-0.6522222222222223,0.0,-0.12280884247825619,-0.0007303858405812713
1589995932.9170835,-0.1284414765433211,-4.603896308641697,8.57077926172834,0.44,0.4666666666666667,-0.6522222222222223,-0.18262961419787843,-0.25487038580212157,0.004870385802121574
1589995932.9270835,-0.11,-4.647870859783793,8.582129140216209,0.44,0.4666666666666667,-0.6522222222222223,-0.11834643682435124,-0.30584643682435125,0.05917321841217562
1589995932.9370835,-0.10892002120804274,-4.575399893959786,8.662159957583915,0.4364000706934758,0.46594668080536183,-0.6545021774496875,0.1452496023491986,-0.06924986744973285,-0.049000265100534277
1589995932.9470835,-0.1003668583547453,-4.6181657082262735,8.67926628329051,0.407889527849151,0.4602445722364969,-0.6725588545844265,0.3056214058485256,-0.12270713528284188,0.057914270565683754
1589995932.9570835,-0.11387217720337958,-4.564511291186482,8.68,0.4066666666666667,0.46,-0.6733333333333333,0.3558505537605612,-0.08164944623943882,0.0625
1589995932.9670835,-0.11010688319489612,-4.679038051245935,8.530641299169377,0.4066666666666667,0.46,-0.6733333333333333,0.3084918801913955,0.12165990015949624,0.12433198003189924
1589995932.9770834,-0.11879487126374878,-4.600846158626261,8.582769227582492,0.4066666666666667,0.46,-0.6733333333333333,-0.017307672390579343,-0.14983972699214948,0.07003205460157011
1589995932.9870834,-0.13,-4.592095919997632,8.667904080002367,0.40982829866761344,0.4591217688886259,-0.673684625777883,0.16773979999408267,-0.10523979999408267,0.17761989999704134
1589995932.9970834,-0.12188605462639876,-4.577046484578671,8.7018860546264,0.4266666666666667,0.4544444444444444,-0.6755555555555556,0.0625,-0.03380810572333855,0.15880810572333853
1589995933.0070834,-0.10210737619543604,-4.646838935706846,8.668409430925102,0.4266666666666667,0.4544444444444444,-0.6755555555555556,0.04932889877852476,-0.13158555061073762,0.24341444938926238
1589995933.0170834,-0.11799337183978789,-4.623009942240318,8.581036454881167,0.4266666666666667,0.4544444444444444,-0.6755555555555556,-0.04995857399867437,-0.18122928699933719,0.19377071300066281
1589995933.0270834,-0.11,-4.580209759505039,8.625104879752518,0.4266666666666667,0.4544444444444444,-0.6755555555555556,-0.11436483384891727,-0.11436483384891727,0.0625
1589995933.0370834,-0.11011173527335237,-4.629441323633238,8.650223470546704,0.4265797614540593,0.4545065195963068,-0.6754562353125757,-0.058309927249286304,-0.06319834545845228,0.0625
1589995933.0470834,-0.12180623364086951,-4.589031168204348,8.671806233640869,0.4188888888888889,0.46,-0.6666666666666666,0.30121103974456553,-0.10242207948913104,0.05121103974456552
1589995933.0570834,-0.12959234439102268,-4.6279617219551135,8.679592344391022,0.4188888888888889,0.46,-0.6666666666666666,0.2525478475561083,-0.005095695112216678,0.002547847556108339
1589995933.0670834,-0.11,-4.612530345655211,8.612651728276052,0.4188888888888889,0.46,-0.6666666666666666,0.1875,-0.06325864138026008,0.01581466034506502
1589995933.0770833,-0.11185718291429106,-4.618142817085709,8.64814281708571,0.4188888888888889,0.46,-0.6666666666666666,0.18169630339284046,-0.25,0.04508891017852136
1589995933.0870833,-0.13,-4.6,8.630437341479478,0.41864592140028994,0.46,-0.6666666666666666,0.12226661575326149,-0.2527333842467385,-0.119533231506523
1589995933.0970833,-0.13,-4.6,8.636314756946877,0.41538069058506816,0.46,-0.6666666666666666,0.08553276908201729,-0.2894672309179827,-0.04606553816403458
1589995933.1070833,-0.12332252006146492,-4.603338739969267,8.619967560184396,0.4133333333333333,0.46,-0.6666666666666666,0.04163287519207785,-0.20816437596038928,0.04173424961584429
1589995933.1170833,-0.11764134820792785,-4.615094232138619,8.58,0.4133333333333333,0.46,-0.6666666666666666,-0.04775842629954902,-0.06367790173273202,0.109080524566817
1589995933.1270833,-0.1358262246412667,-4.6258262246412665,8.594608213755567,0.4133333333333333,0.46,-0.6666666666666666,-0.17445695200395844,-0.2108708560118753,0.0625
1589995933.1370833,-0.11937629144546523,-4.608752582890931,8.650623708554535,0.41367983808585257,0.4596534952474807,-0.6663201619141473,-0.11330546460247322,-0.0625,0.05860182153415774
1589995933.1470833,-0.11250810985069815,-4.600032439402792,8.670032439402792,0.4188888888888889,0.4544444444444444,-0.6611111111111111,0.10952705970059036,-0.0625,0.015675686566863453
1589995933.1570833,-0.12103446777067849,-4.63,8.689655322293214,0.4188888888888889,0.4544444444444444,-0.6611111111111111,0.24353457643325943,-0.04956915286651889,0.06896542356674056
1589995933.1670833,-0.13,-4.6293237141735375,8.601352571652924,0.4188888888888889,0.4544444444444444,-0.6611111111111111,0.18890892880513022,0.06531785761026043,0.12077321358460935
1589995933.1770833,-0.13236924768336736,-4.6047384953667345,8.657630752316633,0.4188888888888889,0.4544444444444444,-0.6611111111111111,0.22038440395790795,0.11346100989476991,-0.018076605936861945
1589995933.1870832,-0.13818760498629654,-4.617281407479445,8.653624790027408,0.41778131415829234,0.45494788750380644,-0.6616145541704732,0.10800879674652993,-0.10800879674652993,0.10800879674652993
1589995933.1970832,-0.12,-4.5938885186094645,8.680278703476338,0.4066666666666667,0.46,-0.6666666666666666,-0.026045138036271794,0.03819675869084786,-0.026045138036271794
1589995933.2070832,-0.12,-4.608601746939349,8.64349563265163,0.4066666666666667,0.46,-0.6666666666666666,0.11189137755638967,-0.05376091837092645,0.11189137755638967
1589995933.2170832,-0.11409997840280431,-4.613933347731464,8.59,0.4066666666666667,0.46,-0.6666666666666666,0.1004165766783513,-0.1741668466432974,-0.05020828833917565
1589995933.2270832,-0.09319572043260843,-4.627869519711594,8.59,0.4066666666666667,0.46,-0.6666666666666666,0.01331550180253517,-0.3483689963949297,-0.006657750901267585
1589995933.2370832,-0.10003774232286843,-4.600075484645736,8.620150969291473,0.40671279617239475,0.460025161548579,-0.6666666666666666,-0.0625,-0.3122641104820724,0.0
1589995933.2470832,-0.10903220964144794,-4.618064419282896,8.656128838565792,0.41770603400621414,0.46602147309429864,-0.6666666666666666,-0.0625,-0.2560486897409504,0.0
1589995933.2570832,-0.12469416577383852,-4.59176861140872,8.635851108730236,0.4188888888888889,0.4666666666666667,-0.6666666666666666,0.125,-0.1875,0.0918385360864907
1589995933.2670832,-0.10426804324534919,-4.598577318918217,8.581381448654264,0.4188888888888889,0.4666666666666667,-0.6666666666666666,0.125,-0.1875,-0.03582472971656764
1589995933.2770832,-0.11854986466791588,-4.61,8.628700811992504,0.4188888888888889,0.4666666666666667,-0.6666666666666666,0.3296832708723714,-0.04531672912762857,0.009063345825525712
1589995933.2870831,-0.11052258794119398,-4.609477412058807,8.68,0.4188888888888889,0.466202144052272,-0.6666666666666666,0.0625,-0.30433456341884413,0.06576617463246236
1589995933.2970831,-0.12773811276313854,-4.5922618872368615,8.68226188723686,0.4188888888888889,0.4488888888888889,-0.6666666666666666,0.0625,-0.04241038569115266,0.17336320476961578
1589995933.3070831,-0.11513672696676483,-4.604863273033235,8.660820361800589,0.4188888888888889,0.4488888888888889,-0.6666666666666666,0.0625,-0.1723022717711401,0.10980227177114009
1589995933.3170831,-0.10233605355746678,-4.6129918393275995,8.586352374902267,0.4188888888888889,0.4488888888888889,-0.6666666666666666,0.04789966526583268,-0.16880100420250196,0.07710033473416732
1589995933.327083,-0.11372604284103721,-4.595589064261556,8.64,0.4188888888888889,0.4488888888888889,-0.6666666666666666,0.011643883878241262,-0.26592446448703494,0.13664388387824125
1589995933.337083,-0.12850302987598647,-4.617754544813979,8.64,0.4188888888888889,0.4488888888888889,-0.6666666666666666,0.05782196836245772,-0.08121212655016913,0.18282196836245773
1589995933.347083,-0.12792776681845835,-4.594144466363083,8.654819417046147,0.43333333333333335,0.4811111111111111,-0.6666666666666666,-0.04954854261536476,-0.1810242713076824,0.1810242713076824
1589995933.357083,-0.11246234398333364,-4.625075312033332,8.616155859958333,0.43333333333333335,0.4811111111111111,-0.6666666666666666,0.047110350104164755,-0.13269482494791762,0.13269482494791762
1589995933.367083,-0.11597903303676116,-4.618006988987746,8.56996505506127,0.43333333333333335,0.4811111111111111,-0.6666666666666666,0.16236895647975724,-0.05004368117341426,-0.012456318826585742
1589995933.377083,-0.13859398466524386,-4.607187969330488,8.618436092008537,0.43333333333333335,0.4811111111111111,-0.6666666666666666,0.30371240415777406,-0.026362787526677735,-0.07128759584222591
1589995933.387083,-0.1303055094458936,-4.590611018891787,8.668166943324639,0.43333333333333335,0.4811111111111111,-0.6666666666666666,0.251909434036835,-0.1817716978894949,-0.12309056596316496
1589995933.397083,-0.1212600333181887,-4.624959866727245,8.687479933363623,0.4275066888787925,0.46848671479293924,-0.6618111296212159,0.14075041647735878,-0.07825041647735878,-0.07037520823867939
1589995933.407083,-0.12165110638580637,-4.608348893614194,8.646791148913548,0.4266666666666667,0.4666666666666667,-0.6611111111111111,-0.052180585088710214,0.04186117017742043,0.10436117017742043
1589995933.417083,-0.12861884510598712,-4.601381154894012,8.591049239152103,0.4266666666666667,0.4666666666666667,-0.6611111111111111,-0.008632218087580565,-0.04523556382483887,0.01726443617516113
1589995933.427083,-0.1373302619298211,-4.5986651309649105,8.614004607105269,0.4266666666666667,0.4666666666666667,-0.6611111111111111,0.05415706853069087,-0.0250287944079274,0.05415706853069087
1589995933.437083,-0.12067200190638838,-4.590336000953194,8.638991997140417,0.4266666666666667,0.4666666666666667,-0.6611111111111111,0.0021000059574637076,-0.18119998212760888,0.0021000059574637076
1589995933.447083,-0.11868941560129498,-4.644757662405181,8.688689415601294,0.4188888888888889,0.4544444444444444,-0.6666666666666666,-0.05430884750809367,-0.11680884750809367,0.07888230498381266
1589995933.457083,-0.11,-4.611249154671047,8.667508453289537,0.4188888888888889,0.4544444444444444,-0.6666666666666666,0.015614433388078447,-0.0625,0.17969278330596078
1589995933.467083,-0.11,-4.6186290748475685,8.585483700609727,0.4188888888888889,0.4544444444444444,-0.6666666666666666,0.14213656440539632,-0.05393171779730184,0.09072687118920736
1589995933.477083,-0.11,-4.609036059354051,8.624819703229747,0.4188888888888889,0.4544444444444444,-0.6666666666666666,0.25,-0.006024629037184702,-0.1129507419256306
1589995933.487083,-0.11,-4.602293136986962,8.65853431506519,0.4188888888888889,0.4544444444444444,-0.6666666666666666,0.25,-0.04816789383148722,-0.028664212337025555
1589995933.497083,-0.1008595863274953,-4.600859586327495,8.697421241017514,0.4266666666666667,0.46,-0.6522222222222223,0.0026862072734227713,-0.0026862072734227713,-0.05712758545315446
1589995933.507083,-0.12,-4.62,8.627971742201936,0.4266666666666667,0.46,-0.6522222222222223,0.015514617976306919,-0.07189707640473861,0.034308770785784155
1589995933.517083,-0.12,-4.620720068601982,8.562160205805947,0.4266666666666667,0.46,-0.6522222222222223,-0.22749785618805013,-0.13850128628716993,-0.10699828495044011
1589995933.527083,-0.11901744141668574,-4.628034882833371,8.5968779100832,0.4266666666666667,0.46,-0.6522222222222223,0.0625,-0.3125,0.11271801770857187
1589995933.537083,-0.11101366307915427,-4.612027326158309,8.65290435844592,0.4266666666666667,0.46,-0.6522222222222223,0.0625,-0.3125,0.012670788489428292
1589995933.547083,-0.11,-4.617332652734406,8.667332652734407,0.4266666666666667,0.4648884351562709,-0.6628138317274758,0.016670920409960766,-0.12918368163984306,-0.045829079590039234
1589995933.557083,-0.12939282222257842,-4.638178466667735,8.664535400003206,0.4266666666666667,0.4666666666666667,-0.6666666666666666,-0.11741027778223027,0.05870513889111514,0.0037948611088848634
1589995933.567083,-0.12266978697485052,-4.618009360924551,8.604028082773654,0.4266666666666667,0.4666666666666667,-0.6666666666666666,-0.03337233718563162,0.01668616859281581,0.04581383140718419
1589995933.5770829,-0.12975352927563064,-4.600246470724369,8.619014117102521,0.4266666666666667,0.4666666666666667,-0.6666666666666666,0.121919115945383,-0.18287867391807452,0.0625
1589995933.5870829,-0.12323251355823898,-4.593232513558239,8.660604918650566,0.4266666666666667,0.4666666666666667,-0.6666666666666666,0.08270320973899366,0.06628074156603808,-0.022093580522012685
1589995933.5970829,-0.12,-4.6125951040889674,8.695063402725978,0.4266666666666667,0.47252465661565823,-0.6666666666666666,0.15664626703736353,0.14042686648131825,-0.15664626703736353
1589995933.6070828,-0.12,-4.62,8.671096101730248,0.4266666666666667,0.4744444444444445,-0.6666666666666666,0.052012976860537824,0.1701623410464874,-0.052012976860537824
1589995933.6170828,-0.1379993533263277,-4.611333764449115,8.57266752889823,0.4266666666666667,0.4744444444444445,-0.6666666666666666,-0.004168013903483954,-0.12083198609651605,0.05833198609651605
1589995933.6270828,-0.1125711341039528,-4.628285910597365,8.606571821194729,0.4266666666666667,0.4744444444444445,-0.6666666666666666,-0.057143470616765016,-0.06785652938323498,0.005356529383234984
1589995933.6370828,-0.11695711544139356,-4.6160857691172135,8.644785577206967,0.4266666666666667,0.4744444444444445,-0.6666666666666666,-0.019018028491290223,-0.0625,-0.04348197150870978
1589995933.6470828,-0.11,-4.600051839777676,8.68,0.43333333333333335,0.4666666666666667,-0.6611111111111111,-0.06185200277903963,-0.18685200277903963,-0.12435200277903963
1589995933.6570828,-0.11184761307517442,-4.611847613075175,8.668914321548954,0.43333333333333335,0.4666666666666667,-0.6611111111111111,0.056726209140079954,-0.056726209140079954,0.0
1589995933.6670828,-0.1282868229207494,-4.628286822920749,8.570279062475503,0.43333333333333335,0.4666666666666667,-0.6611111111111111,0.005353678372658155,-0.005353678372658155,0.0
1589995933.6770828,-0.12558402482311182,-4.621168049646224,8.60857572694577,0.43333333333333335,0.4666666666666667,-0.6611111111111111,0.05519968971110223,0.0,0.0
1589995933.6870828,-0.12065430995980347,-4.611308619919607,8.662802590442162,0.43333333333333335,0.4666666666666667,-0.6611111111111111,0.11682112550245645,0.0,0.0
1589995933.6970828,-0.10216075719680251,-4.592160757196803,8.687839242803197,0.4204494357532463,0.4736041499790213,-0.6739950086911982,0.23649526751998431,-0.05574763375999216,0.0
1589995933.7070827,-0.12860686960768355,-4.599303434803842,8.682337782842259,0.4188888888888889,0.4744444444444445,-0.6755555555555556,0.05814646752401107,0.1119394025720332,-0.004353532475988931
1589995933.7170827,-0.11495132671333225,-4.592475663356666,8.607232296923327,0.4188888888888889,0.4744444444444445,-0.6755555555555556,0.015472895979163272,-0.016081312062510178,-0.04702710402083673
1589995933.7270827,-0.11964513614183005,-4.61035486385817,8.611774319290848,0.4188888888888889,0.4744444444444445,-0.6755555555555556,-0.1852821008864378,0.05584630265931337,-0.06471789911356221
1589995933.7370827,-0.11358978430976237,-4.616410215690238,8.642051078451187,0.4188888888888889,0.4744444444444445,-0.6755555555555556,-0.14743615193601478,-0.05769154419195566,-0.10256384806398522
1589995933.7470827,-0.13015896124336024,-4.633439307495573,8.68015896124336,0.4106759787527051,0.46921804708505477,-0.6755555555555556,-0.08300216407633287,-0.08300216407633287,0.0009935077710013784
1589995933.7570827,-0.11670617592014973,-4.632235391973383,8.674470783946767,0.4066666666666667,0.4666666666666667,-0.6755555555555556,0.03455760033270951,0.03455760033270951,0.013971199833645247
1589995933.7670827,-0.12018631507585852,-4.619813684924142,8.560745260303435,0.4066666666666667,0.4666666666666667,-0.6755555555555556,-0.12150659232765271,-0.057842123103536945,-0.18284212310353695
1589995933.7770827,-0.12999135049208688,-4.610008649507914,8.599965401968348,0.4066666666666667,0.4666666666666667,-0.6755555555555556,0.0623378217266288,0.18728376230217172,0.062283762302171725
1589995933.7870827,-0.1221045293541337,-4.617895470645866,8.66316376516693,0.4066666666666667,0.4666666666666667,-0.6755555555555556,0.1118466915366644,0.039459925390006784,-0.08554007460999322
1589995933.7970827,-0.11317777728512204,-4.613177777285122,8.686822222714877,0.4248592605730079,0.4621185181900814,-0.6543308626648242,0.08236110803201277,0.0,-0.03972221606402554
1589995933.8070827,-0.1104717096171043,-4.5909434192342085,8.685282903828957,0.43333333333333335,0.46,-0.6444444444444445,0.11320725957239249,-0.059551814893098125,0.05365544467929437
1589995933.8170826,-0.11899601658401755,-4.607992033168036,8.600039834159825,0.43333333333333335,0.46,-0.6444444444444445,-0.099900414600439,-0.006274896349890251,-0.10617531095032923
1589995933.8270826,-0.11046756659281777,-4.61,8.599532433407182,0.43333333333333335,0.46,-0.6444444444444445,-0.125,0.11915541758977793,-0.125
1589995933.8370826,-0.11789361869541269,-4.617893618695413,8.623680856086239,0.43333333333333335,0.46,-0.6444444444444445,-0.07566488315367062,0.17433511684632938,-0.026329766307341254
1589995933.8470826,-0.12920983367866942,-4.6289464449048925,8.668683056131115,0.4266666666666667,0.46,-0.6611111111111111,-0.18091528065557858,0.11841528065557858,-0.060853820163894644
1589995933.8570826,-0.10572156577252619,-4.5976287543633685,8.62953594295421,0.4266666666666667,0.46,-0.6611111111111111,0.014820285228948488,-0.07732028522894849,-0.011919928692762878
1589995933.8670826,-0.11782292798022546,-4.607822927980226,8.596236096026367,0.4266666666666667,0.46,-0.6611111111111111,0.09963109995880304,0.02352439983521215,-0.03713109995880304
1589995933.8770826,-0.1062625907706723,-4.612087530256891,8.603737409229327,0.4266666666666667,0.46,-0.6611111111111111,0.07554706410556727,-0.12226467947216366,0.036405871788865465
1589995933.8870826,-0.1168023140141718,-4.604399228661943,8.638003856690286,0.4266666666666667,0.46,-0.6611111111111111,0.02749517913714207,-0.15249517913714206,-0.00750964172571586
1589995933.8970826,-0.12489300777773478,-4.6,8.675320976666795,0.4164526822221363,0.46,-0.6525994574073357,0.06383740277831522,-0.06116259722168478,0.0013374027783152193
1589995933.9070826,-0.12,-4.6,8.672106998900697,0.4066666666666667,0.46,-0.6444444444444445,0.08772291437645047,0.07455417124709905,0.09977708562354953
1589995933.9170825,-0.12817194369527468,-4.616343887390549,8.602796394133078,0.4066666666666667,0.46,-0.6444444444444445,0.2667985923818672,0.0739253519045332,-0.028223944286400404
1589995933.9270825,-0.1234203037740547,-4.613420303774055,8.622898481129727,0.4066666666666667,0.46,-0.6444444444444445,0.18913069576352576,-0.019746202824316147,-0.021376898587841926
1589995933.9370825,-0.12,-4.623140096618357,8.659710144927537,0.4066666666666667,0.46,-0.6444444444444445,-0.03925120772946861,-0.02143719806763285,-0.04106280193236715
1589995933.9470825,-0.10818071105873109,-4.618180711058732,8.67,0.42242571858835853,0.463939762980423,-0.657576987712521,-0.051129444117069336,-0.03693527794146533,-0.025564722058534668
1589995933.9570825,-0.10861788949644985,-4.61861788949645,8.678617889496449,0.43333333333333335,0.4666666666666667,-0.6666666666666666,-0.10772361870562312,0.09908542805843468,-0.05386180935281156
1589995933.9670825,-0.11970890410958904,-4.629708904109589,8.563493150684932,0.43333333333333335,0.4666666666666667,-0.6666666666666666,0.11772260273972601,0.0643193493150685,-0.0625
1589995933.9770825,-0.12,-4.620830466940941,8.615017198354353,0.43333333333333335,0.4666666666666667,-0.6666666666666666,0.125,0.005190418380881724,0.05211916323823655
1589995933.9870825,-0.12,-4.59895593008968,8.627014689970107,0.43333333333333335,0.4666666666666667,-0.6666666666666666,0.08115818768683405,-0.13152543693949786,0.0625
1589995933.9970825,-0.1288913909579075,-4.598891390957907,8.674456954789537,0.43926092730527166,0.46073907269472836,-0.6864253132397944,0.11807119348692188,-0.07635761302615623,-0.10421358046076565
1589995934.0070825,-0.12099481672593729,-4.627015549822188,8.670994816725937,0.44,0.46,-0.6888888888888889,0.125,-0.0625,-0.125
1589995934.0170825,-0.12,-4.61110757191944,8.58498407363748,0.44,0.46,-0.6888888888888889,0.006922324496501223,0.17365535100699755,-0.125
1589995934.0270824,-0.12773084555819292,-4.61,8.618654227790966,0.44,0.46,-0.6888888888888889,-0.09663556947741157,0.09086443052258843,-0.0766822152612942
1589995934.0370824,-0.12058033006175048,-4.605290165030875,8.653549174845624,0.44,0.46,-0.6888888888888889,-0.15443646855702975,-0.08468234278514877,-0.003627062885940488
1589995934.0470824,-0.1129979590294051,-4.59400408194119,8.68,0.43600272129412654,0.4619986393529367,-0.6822267577124331,-0.16876275606621816,-0.19378826819865447,0.02502551213243631
1589995934.0570824,-0.11509920053576661,-4.599603197856934,8.68,0.4266666666666667,0.4666666666666667,-0.6666666666666666,-0.03311001004562389,-0.0625,-0.09312999665145871
1589995934.0670824,-0.1234188327798771,-4.6065811672201225,8.612905836100614,0.4266666666666667,0.4666666666666667,-0.6666666666666666,0.0625,-0.10443385243711592,-0.04113229512576816
1589995934.0770824,-0.11694099896145632,-4.6,8.625706503634904,0.4266666666666667,0.4666666666666667,-0.6666666666666666,0.10330937824544903,0.03823751298179609,-0.04080937824544902
1589995934.0870824,-0.11,-4.613065890218915,8.669598835328372,0.4266666666666667,0.4666666666666667,-0.6666666666666666,0.20666181386821955,0.04333818613178045,-0.0625
1589995934.0970824,-0.11557348460167494,-4.6088530307966495,8.691146969203349,0.4192353538644334,0.4629510102655501,-0.6666666666666666,0.1454971637185949,0.03483427876046837,0.007168557520936744
1589995934.1070824,-0.11336139782294713,-4.613277204354105,8.660168386937682,0.4133333333333333,0.46,-0.6666666666666666,-0.020482527213160948,-0.020482527213160948,-0.020482527213160948
1589995934.1170824,-0.12790803073011664,-4.602091969269883,8.595229923174708,0.4133333333333333,0.46,-0.6666666666666666,0.16135038412645775,-0.0625,0.10538778809484331
1589995934.1270823,-0.12092901630770693,-4.618141967384586,8.599070983692293,0.4133333333333333,0.46,-0.6666666666666666,0.13080635192316836,-0.0625,-0.04508094423049494
1589995934.1370823,-0.12,-4.613868586075154,8.642919897473925,0.4133333333333333,0.46,-0.6666666666666666,0.010035988909129018,-0.02417866296970967,-0.02417866296970967
1589995934.1470823,-0.10543661743223504,-4.617281691283883,8.677281691283882,0.4230422550451767,0.46,-0.6626212826200653,-0.10801057052426555,-0.04551057052426554,-0.04551057052426554
1589995934.1570823,-0.12461516971644085,-4.628205056572147,8.688205056572146,0.4266666666666667,0.46,-0.6611111111111111,-0.125,-0.0625,-0.21634481072775527
1589995934.1670823,-0.11401410259403676,-4.63,8.610070512970184,0.4266666666666667,0.46,-0.6611111111111111,0.02486778818090546,-0.11245592939363516,-0.10013221181909454
1589995934.1770823,-0.11,-4.617005806024237,8.622485484939407,0.4266666666666667,0.46,-0.6611111111111111,0.14371371234851732,-0.16560685617425866,-0.0625
1589995934.1870823,-0.11,-4.598729718289987,8.64751352114001,0.4266666666666667,0.46,-0.6611111111111111,0.16402024643747354,-0.11706073931242064,0.007939260687579358
1589995934.1970823,-0.11,-4.5826769464105155,8.66,0.4266666666666667,0.4618837771036962,-0.6616068419278732,0.10826908493427705,0.0,0.11384605662285137
1589995934.2070823,-0.12399889799572973,-4.603000551002135,8.680998346993594,0.4266666666666667,0.4811111111111111,-0.6666666666666666,0.024993112473310847,0.0,-0.04374655623665542
1589995934.2170823,-0.12331240314757794,-4.606687596852423,8.616436434623358,0.4266666666666667,0.4811111111111111,-0.6666666666666666,0.020702519672362092,-0.12539244098291372,-0.0625
1589995934.2270823,-0.12492682455292412,-4.61,8.594780473658773,0.4266666666666667,0.4811111111111111,-0.6666666666666666,0.0,-0.0951220396326728,-0.0009146930884485274
1589995934.2370822,-0.11553610906411202,-4.6051787030213704,8.634106484893147,0.4266666666666667,0.4811111111111111,-0.6666666666666666,-0.030133106116433307,0.060266212232866614,0.0625
1589995934.2470822,-0.11472403804752027,-4.604908012682507,8.669816025365014,0.4332106835766757,0.47783910265610663,-0.6666666666666666,-0.0625,0.0943249207343328,0.031824920734332796
1589995934.2570822,-0.13,-4.61,8.667579645155001,0.44,0.4744444444444445,-0.6666666666666666,-0.0625,-0.015127217781243915,0.11644082667186587
1589995934.2670822,-0.11410575120844432,-4.599403834138963,8.62291341948637,0.44,0.4744444444444445,-0.6666666666666666,0.0037260366314820215,-0.02938698168425899,0.08816094505277697
1589995934.2770822,-0.10499850176043149,-4.599997003520863,8.609994007041726,0.44,0.4744444444444445,-0.6666666666666666,0.0625,0.031240636002696828,0.031240636002696828
1589995934.2870822,-0.11,-4.621251697199866,8.658129242999665,0.44,0.4744444444444445,-0.6666666666666666,0.16798466124874556,-0.07814621499832738,-0.007823107499163692
1589995934.2970822,-0.11724672842229084,-4.6082598147331275,8.68,0.43033769543694556,0.4639769478344688,-0.6457316734467153,0.20470794736068226,-0.14220794736068226,-0.01720794736068225
1589995934.3070822,-0.12753796000525094,-4.6,8.68,0.4266666666666667,0.46,-0.6377777777777778,0.04616324990154466,0.016336750098455338,-0.14133675009845534
1589995934.3170822,-0.12186675147082207,-4.624399745587533,8.606800763237398,0.4266666666666667,0.46,-0.6377777777777778,-0.1524984099220862,-0.08999840992208619,-0.03500159007791381
1589995934.3270822,-0.11262738718945411,-4.607882161568362,8.634235676863275,0.4266666666666667,0.46,-0.6377777777777778,0.0428941503295589,-0.032842339868176446,0.09215766013182355
1589995934.3370821,-0.11,-4.6,8.658362786083753,0.4266666666666667,0.46,-0.6377777777777778,0.07273258697654644,0.02613370651172678,0.09886629348827322
1589995934.3470821,-0.11037192864355436,-4.599628071356445,8.670371928643554,0.4263773888327911,0.46,-0.6391001907326377,0.0,0.06482455402221474,0.05785089195557051
1589995934.3570821,-0.12,-4.609855882761495,8.65352548965134,0.4188888888888889,0.46,-0.6733333333333333,-0.08273284483956105,0.125,0.020232844839561046
1589995934.367082,-0.1279250947389143,-4.612074905261086,8.5845243368276,0.4188888888888889,0.46,-0.6733333333333333,-0.125,0.02593631576357104,-0.13562736847285792
1589995934.377082,-0.12386357809924922,-4.61,8.600682109503753,0.4188888888888889,0.46,-0.6733333333333333,0.028410547518769452,0.03835263687969236,-0.0724420893609229
1589995934.387082,-0.12511860910564315,-4.615118609105643,8.650711654633858,0.4188888888888889,0.46,-0.6733333333333333,0.125,0.0625,0.0
1589995934.397082,-0.13,-4.614408686617844,8.685591313382155,0.4157826036765803,0.4637275422547703,-0.669605791078563,0.1599457086384715,0.027554291361528517,0.0
1589995934.407082,-0.11025447817226215,-4.61,8.676836318781508,0.4133333333333333,0.4666666666666667,-0.6666666666666666,0.10522699238442561,0.12340951142336158,0.0
1589995934.417082,-0.11554839568632672,-4.594451604313673,8.607806417254693,0.4133333333333333,0.4666666666666667,-0.6666666666666666,0.013911263480228996,0.138911263480229,0.048588736519771004
1589995934.427082,-0.12694314657845773,-4.603886293156916,8.631658879470747,0.4133333333333333,0.4666666666666667,-0.6666666666666666,0.13018399834608227,-0.005183998346082269,-0.024289332230721522
1589995934.437082,-0.11867797882097891,-4.593016968231469,8.666983031768531,0.4133333333333333,0.4666666666666667,-0.6666666666666666,0.11673736763111815,-0.027118683815559076,-0.09788131618444093
1589995934.447082,-0.11,-4.618797820897349,8.673533696517108,0.4133333333333333,0.45876340685424355,-0.6616373195133065,0.0625,-0.1616575870722899,-0.044171206463855056
1589995934.457082,-0.12059442692086507,-4.6188111461582695,8.685891640381298,0.4133333333333333,0.4544444444444444,-0.6588888888888889,0.02939241587229667,-0.15067724761689,-0.03310758412770333
1589995934.467082,-0.11852066464561188,-4.605739667677194,8.613904984842089,0.4133333333333333,0.4544444444444444,-0.6588888888888889,0.0,0.009245845964925753,0.009245845964925753
