time,acc_x,acc_y,acc_z,mag_x,mag_y,mag_z,gyr_x,gyr_y,gyr_z
1589995973.0224288,-3.88,-1.02,8.9,0.3033333333333333,-0.31555555555555553,-0.6166666666666667,-0.1875,-0.0625,-0.0625
1589995973.0324287,-3.8844617839476623,-1.0244617839476624,8.904461783947662,0.3033333333333333,-0.31555555555555553,-0.6166666666666667,-0.10384155098133077,-0.11827229934577949,-0.0625
1589995973.0424287,-3.8889235678953247,-1.0289235678953248,8.908923567895325,0.3033333333333333,-0.31555555555555553,-0.6166666666666667,-0.020183101962661543,-0.17404459869155897,-0.0625
1589995973.0524287,-3.8938275762532473,-1.03,8.936793033772732,0.3033333333333333,-0.31555555555555553,-0.6166666666666667,-0.02392235158279611,-0.1635776484172039,-0.08642235158279611
1589995973.0624287,-3.8988721976330223,-1.03,8.972105383431156,0.3033333333333333,-0.31555555555555553,-0.6166666666666667,-0.055451235206388914,-0.13204876479361108,-0.11795123520638892
1589995973.0724287,-3.883854639200813,-1.03,8.988072680399593,0.3131999427106142,-0.3263191294216802,-0.6166666666666667,-0.012045747502540838,-0.07454574750254084,-0.024091495005081676
1589995973.0824287,-3.874727811381311,-1.03,8.99,0.31555555555555553,-0.3288888888888889,-0.6166666666666667,-0.03295117886680657,0.10225589433403284,0.0
1589995973.0924287,-3.87,-1.03,8.947732100119666,0.31555555555555553,-0.3288888888888889,-0.6166666666666667,-0.04488837504986039,0.17955350019944155,0.0
1589995973.1024287,-3.8710563312315016,-1.0289436687684983,8.84633798738901,0.3170813673343914,-0.3277151875205536,-0.6157277055719985,-0.019806210590657573,-0.006602070196885858,0.0
1589995973.1124287,-3.874429690516021,-1.025570309483979,8.866578143096127,0.32195399741203046,-0.32396701053775434,-0.612729163985759,-0.0830566971753957,-0.0276855657251319,0.0
1589995973.1224287,-3.8778030498005402,-1.0221969501994594,8.886818298803243,0.32682662748966956,-0.320218833554955,-0.6097306223995196,-0.14630718376013382,-0.048769061253377946,0.0
1589995973.1324286,-3.8817274692050594,-1.0217274692050595,8.886180246359524,0.33,-0.31777777777777777,-0.6077777777777778,-0.1443132698735134,-0.0840933650632433,0.0
1589995973.1424286,-3.886680996303426,-1.0266809963034262,8.84655202957259,0.33,-0.31777777777777777,-0.6077777777777778,-0.020475092414346946,-0.1460124537928265,0.0
1589995973.1524286,-3.89,-1.0283678282917625,8.844482575623562,0.33,-0.31777777777777777,-0.6077777777777778,0.052298926823515536,-0.13649463411757767,-0.010201073176484462
1589995973.1624286,-3.89,-1.0234214281502447,8.91867857774633,0.33,-0.31777777777777777,-0.6077777777777778,0.021383925939029422,0.018080370304852877,-0.04111607406097058
1589995973.1724286,-3.8780973858615613,-1.02,8.964048692930781,0.32437932110129275,-0.3210840594828997,-0.6034796115611193,0.0,0.0878043308173785,-0.04390216540868925
1589995973.1824286,-3.868061216419288,-1.016989797263452,8.916887769897972,0.3111111111111111,-0.3288888888888889,-0.5933333333333334,0.05644130131027392,0.05644130131027392,-0.01881376710342464
1589995973.1924286,-3.9028655096945224,-1.01,8.847134490305477,0.3111111111111111,-0.3288888888888889,-0.5933333333333334,0.17263647853025493,0.17263647853025493,-0.07736352146974507
1589995973.2024286,-3.883471995314571,-1.01,8.866528004685428,0.3111111111111111,-0.3288888888888889,-0.5933333333333334,0.13223332357202305,0.13223332357202305,-0.11776667642797695
1589995973.2124286,-3.88,-1.0226435220033414,8.882643522003342,0.3111111111111111,-0.3288888888888889,-0.5933333333333334,0.08548899373955829,0.045977987479116564,-0.08548899373955829
1589995973.2224286,-3.8685741107750076,-1.0223827405166719,8.89,0.3111111111111111,-0.3267729834768533,-0.5878319792620408,0.0625,0.0714118076562011,-0.03869606411459963
1589995973.2324286,-3.8531718348681325,-1.0092070412829668,8.886035206414835,0.3111111111111111,-0.3233333333333333,-0.5788888888888889,0.05754400801854288,0.1627200400927144,0.0
1589995973.2424285,-3.8741919438702,-1.00395201403245,8.85976007016225,0.3111111111111111,-0.3233333333333333,-0.5788888888888889,0.024700087702812755,-0.001499561485936246,0.0
1589995973.2524285,-3.8880481579490644,-1.0,8.85366289435655,0.3111111111111111,-0.3233333333333333,-0.5788888888888889,-0.012199012818347316,-0.06400493590826342,0.03659703845504195
1589995973.2624285,-3.8801764164930654,-1.0,8.908765084548543,0.3111111111111111,-0.3233333333333333,-0.5788888888888889,-0.06139739691834169,0.18198698459170842,0.18419219075502505
1589995973.2724285,-3.873015178099927,-1.0209544657002199,8.937939287600292,0.31421547640003256,-0.31945287672218153,-0.5951868066557264,-0.0625,0.1875,-0.03077568437728906
1589995973.2824285,-3.866426128490138,-1.0264261284901377,8.899965798861928,0.31555555555555553,-0.31777777777777777,-0.6022222222222222,-0.08483669693663945,0.12048990919008166,-0.03565321225344223
1589995973.2924285,-3.8602429460152723,-1.0202429460152727,8.813401244213816,0.31555555555555553,-0.31777777777777777,-0.6022222222222222,-0.1234815874045464,0.004555237786360827,0.11892634961818557
1589995973.3024285,-3.8671751633754163,-1.0343503267508325,8.831525490126248,0.31555555555555553,-0.31777777777777777,-0.6022222222222222,-0.125,0.0,-0.09922385548175716
1589995973.3124285,-3.87,-1.0145189551849922,8.90794945284002,0.31555555555555553,-0.31777777777777777,-0.6022222222222222,-0.07191448996873373,0.0,-0.08132897993746745
1589995973.3224285,-3.874976396852914,-1.01,8.93492919055874,0.3227436843430976,-0.3144601798758353,-0.6094103510097643,-0.0002950393385784747,0.0,-0.0625
1589995973.3324285,-3.8791729439786216,-1.012481168064135,8.94007532774346,0.33,-0.3111111111111111,-0.6166666666666667,0.07283820026722952,0.005169100133614764,-0.0625
1589995973.3424284,-3.871050909161325,-1.036847272516024,8.842610909935903,0.33,-0.3111111111111111,-0.6166666666666667,0.1743636354834337,0.055931817741716856,-0.0625
1589995973.3524284,-3.8766814264541747,-1.0533628529083492,8.876769985179221,0.33,-0.3111111111111111,-0.6166666666666667,0.22925891533859075,0.1460178306771815,-0.020741084661409254
1589995973.3624284,-3.8887940747307956,-1.0380148131730111,8.9,0.33,-0.3111111111111111,-0.6166666666666667,0.30496296706747195,0.16001851646626403,0.0
1589995973.3724284,-3.8977509106409363,-1.0055018212818725,8.893252731922809,0.3267513153702412,-0.31510949219389117,-0.6166666666666667,0.33282957451755407,0.040659149035108116,0.0
1589995973.3824284,-3.889754820762471,-0.9902451792375292,8.868038566099765,0.31555555555555553,-0.3288888888888889,-0.6166666666666667,0.1905647404691155,-0.25153237023455777,0.0
1589995973.3924284,-3.8844512865903775,-0.9955487134096226,8.825610292723018,0.31555555555555553,-0.3288888888888889,-0.6166666666666667,0.25685891762028196,-0.284679458810141,0.0
1589995973.4024284,-3.88,-1.0025641513381902,8.806666983698236,0.31555555555555553,-0.3288888888888889,-0.6166666666666667,0.3125,-0.28846108120446634,-0.016025945863689106
1589995973.4124284,-3.88,-1.0185208575069906,8.910385573795438,0.31555555555555553,-0.3288888888888889,-0.6166666666666667,0.3125,-0.13886696087196362,-0.11575535941869092
1589995973.4224284,-3.88,-1.0250016428993889,8.935004928698167,0.3266703175541974,-0.3261101983892284,-0.6094420713675495,0.21871919563645922,-0.125,-0.06247946375763948
1589995973.4324284,-3.88,-1.0277630413034158,8.941052165213662,0.3377777777777778,-0.3233333333333333,-0.6022222222222222,0.14597148778047736,-0.125,0.0
1589995973.4424284,-3.8784565911833604,-1.0084565911833605,8.874630226449918,0.3377777777777778,-0.3233333333333333,-0.6022222222222222,0.33179261020799317,-0.17323152551998297,-0.009646305103996592
1589995973.4524283,-3.8725017391921632,-1.002501739192163,8.892494782423512,0.3377777777777778,-0.3233333333333333,-0.6022222222222222,0.40622826009796265,-0.35932065024490667,-0.04686413004898133
1589995973.4624283,-3.8783470322768845,-1.0041735161384422,8.908347032276884,0.3377777777777778,-0.3233333333333333,-0.6022222222222222,0.3592465724042075,-0.3853310482694717,-0.0625
1589995973.4724283,-3.8884458236862076,-1.0115541763137927,8.907566589489658,0.3313883862655192,-0.32246990204789294,-0.6032583397647506,0.24028639803879603,-0.29307279607759207,-0.08192720392240793
1589995973.4824283,-3.8802852306554856,-1.0197147693445143,8.842281845243885,0.2978392815836636,-0.3179362392530476,-0.6086987351185651,0.1892826915967858,-0.1910653831935716,-0.1839346168064284
1589995973.4924283,-3.88,-1.02,8.815176926567808,0.2966666666666667,-0.31777777777777777,-0.6088888888888889,0.24955768358047858,-0.2185288417902393,-0.1875
1589995973.5024283,-3.879817063132768,-1.0194511893983045,8.791829368672317,0.2966666666666667,-0.31777777777777777,-0.6088888888888889,0.30678322289900406,-0.2488566445798008,-0.1852132891596016
1589995973.5124283,-3.871186105852334,-0.9935583175570005,8.878138941476665,0.2966666666666667,-0.31777777777777777,-0.6088888888888889,0.037065807885422686,-0.19491316157708455,-0.07732632315416907
1589995973.5224283,-3.883422248604129,-1.003422248604129,8.923555621510323,0.30636051288076,-0.3215061801678136,-0.6141086522349392,0.12583358066371106,-0.39722263443951844,-0.020555473112096316
1589995973.5324283,-3.87647897548536,-1.02352102451464,8.944507008171547,0.3111111111111111,-0.3233333333333333,-0.6166666666666667,0.2156688010721665,-0.38732479571133405,-0.08450640321649945
1589995973.5424283,-3.861596041027484,-1.0384039589725158,8.932443548697671,0.3111111111111111,-0.3233333333333333,-0.6166666666666667,0.27992576926533075,-0.2699505128435538,-0.1775247435782231
1589995973.5524282,-3.866980320671639,-1.033019679328361,8.873216472611972,0.3111111111111111,-0.3233333333333333,-0.6166666666666667,0.3808810125932297,-0.33725400839548647,-0.14387299580225676
1589995973.5624282,-3.8775869596556625,-1.0186195605165065,8.87034783862265,0.3111111111111111,-0.3233333333333333,-0.6166666666666667,0.3900815021521099,-0.3275815021521099,-0.07758150215210989
1589995973.5724282,-3.883655303369579,-0.9957702022463859,8.926344696630421,0.3111111111111111,-0.32450827715378167,-0.6180765992512047,0.2596275280798237,-0.2632181179800441,0.013218117980044068
1589995973.5824282,-3.8611145943428333,-0.9807430628952224,8.948885405657165,0.3111111111111111,-0.32868248252910487,-0.6230856457015925,0.07178828619027999,-0.31017792845243,0.06017792845243
1589995973.5924282,-3.8740787824213854,-0.9729606087893073,8.823290958207531,0.3111111111111111,-0.3288888888888889,-0.6233333333333333,-0.15748097533414554,-0.09251902466585446,0.0185038049331709
1589995973.6024282,-3.88,-0.9852440255126755,8.810650734700468,0.3111111111111111,-0.3288888888888889,-0.6233333333333333,-0.21824161351525917,-0.12703354593896335,-0.09527515945422252
1589995973.6124282,-3.8768183793178363,-1.015908103410819,8.85954486204649,0.3111111111111111,-0.3288888888888889,-0.6233333333333333,-0.1875,-0.25,-0.1875
1589995973.6224282,-3.869198899680009,-1.0451933980800538,8.881602200639982,0.31209023372443345,-0.3284438331555605,-0.6227992664533393,-0.17748624600011229,-0.22997249200022454,-0.17748624600011229
1589995973.6324282,-3.861350137539999,-0.9981008252399932,8.897299724920003,0.32168316522889023,-0.3240834097444438,-0.6175667583599993,-0.07937671924998596,-0.03375343849997192,-0.07937671924998596
1589995973.6424282,-3.8645907967269024,-0.9945907967269025,8.88163681309239,0.3233333333333333,-0.3233333333333333,-0.6166666666666667,-0.14857743862942352,0.057384959086282335,-0.033807520456858836
1589995973.6524282,-3.8709854681936293,-1.0007883745549033,8.863350591858339,0.3233333333333333,-0.3233333333333333,-0.6166666666666667,-0.259854681936291,0.14594119911461842,0.0012318352420363776
1589995973.6624281,-3.911350206909826,-1.0330801655278607,9.000590703493407,0.3233333333333333,-0.3233333333333333,-0.6166666666666667,-0.663502069098258,1.0036918968337984,0.05168775863728226
1589995973.6724281,-3.886221941303085,-1.0231109706515427,8.996221941303086,0.31895469609484434,-0.3233333333333333,-0.6085349117951872,-0.4685161775257098,0.8004597440978509,0.1680564334278588
1589995973.6824281,-3.8668714954743053,-1.01,8.959692756788542,0.31555555555555553,-0.3233333333333333,-0.6022222222222222,-0.07821261314236513,0.4355797299283869,0.1426328832139782
1589995973.692428,-3.881980465926571,-1.0080195340734288,8.916234408881145,0.31555555555555553,-0.3233333333333333,-0.6022222222222222,0.1633546157125118,0.27536626387679075,-0.037744175917860515
1589995973.702428,-3.8897538780881074,-1.0002461219118928,8.822953462942714,0.31555555555555553,-0.3233333333333333,-0.6022222222222222,-0.17673216635468986,0.12961478584799008,0.05942347610133997
1589995973.712428,-3.89,-0.9928665519179429,8.848533792328228,0.31555555555555553,-0.3233333333333333,-0.6022222222222222,-0.14291594948714345,0.08041594948714345,0.0625
1589995973.722428,-3.89,-0.9963510398334283,8.869526559750142,0.31414421337034926,-0.3233333333333333,-0.5976353601203017,-0.125,0.0426530005205364,0.0029590015616092064
1589995973.732428,-3.89,-1.0067476389956127,8.885121458493419,0.31183385800097496,-0.3233333333333333,-0.5901267051698353,-0.125,0.010163628138710558,-0.09450911558386832
1589995973.742428,-3.880138597671137,-1.0495842069865886,8.84097018369796,0.3111111111111111,-0.3233333333333333,-0.5877777777777777,0.0008662354446070869,-0.1866337645553929,-0.125
1589995973.752428,-3.8856697129142437,-1.0329908612572696,8.879687990399704,0.3111111111111111,-0.3233333333333333,-0.5877777777777777,0.03543570571402197,-0.15206429428597804,-0.125
1589995973.762428,-3.89,-1.02,8.916744810473492,0.3111111111111111,-0.3233333333333333,-0.5877777777777777,0.05196123363516841,-0.125,-0.125
1589995973.772428,-3.89,-1.02,8.947811973408884,0.3111111111111111,-0.3233333333333333,-0.5877777777777777,0.0034187915486176695,-0.125,-0.125
1589995973.782428,-3.8737640543016574,-1.02,8.933764054301657,0.29307117144628597,-0.31882334841712706,-0.5940917566604665,-0.10147466061464146,-0.17573733030732072,-0.023525339385358543
1589995973.792428,-3.8810293969765026,-1.0144853015117488,8.880367713605738,0.2888888888888889,-0.31777777777777777,-0.5955555555555555,-0.05606626889685919,-0.2219668655515704,-0.03446686555157041
1589995973.802428,-3.892905232135339,-1.0070947678646611,8.837094767864661,0.2888888888888889,-0.31777777777777777,-0.5955555555555555,-0.054473102537604776,-0.25,-0.044342299154131744
1589995973.812428,-3.8988559078148306,-1.0017161382777537,8.83629250701843,0.290414345135781,-0.31777777777777777,-0.5951106308168786,-0.1803494238426932,-0.2535752880786534,0.0
1589995973.822428,-3.8890023845042463,-1.0164964232436307,8.890486885226645,0.3035523762165605,-0.31777777777777777,-0.5912787050849846,-0.11876490315153936,-0.28436754842423034,0.0
1589995973.832428,-3.8805043642893935,-1.0284869071318197,8.93445199281667,0.31555555555555553,-0.31777777777777777,-0.5877777777777777,-0.05934772319129091,-0.3125,-0.003152276808709089
1589995973.842428,-3.886343324098952,-1.0109700277031448,8.87022343491153,0.31555555555555553,-0.31777777777777777,-0.5877777777777777,-0.02285422438155165,-0.3125,-0.03964577561844835
1589995973.852428,-3.89,-1.005521857057311,8.849326499700588,0.31555555555555553,-0.31777777777777777,-0.5877777777777777,-0.017255803304096658,-0.26073259008771005,-0.027988393391806685
1589995973.862428,-3.889888837485956,-1.02,8.900444650056176,0.3157161236313969,-0.31783953473002446,-0.5882594820053018,-0.060415702861674705,-0.1229157028616747,0.0625
1589995973.872428,-3.88434485493358,-1.02,8.92262058026568,0.32372409842927324,-0.32091952503689997,-0.6122834063989308,0.043533969995373734,-0.018966030004626266,0.0625
1589995973.882428,-3.88,-1.0167036081537735,8.933407216307547,0.33,-0.3233333333333333,-0.6311111111111111,0.10439755096108426,0.021295101922168526,0.0006926528832527923
1589995973.892428,-3.8830570447093113,-1.01,8.892486597616198,0.33,-0.3233333333333333,-0.6311111111111111,0.043393470566803725,-0.02428694113360745,-0.125
1589995973.902428,-3.8885146775620676,-1.01,8.843367901941393,0.33,-0.3233333333333333,-0.6311111111111111,0.009283265237079057,0.04393346952584189,-0.125
1589995973.912428,-3.8960501803480123,-1.01,8.872351262436085,0.33,-0.3233333333333333,-0.6311111111111111,-0.0378136271750763,0.024686372824923697,-0.01155911847477109
1589995973.922428,-3.889016017164812,-1.01,8.9,0.3247114156719466,-0.3233333333333333,-0.6205339424550043,-0.1082665951466161,0.0457665951466161,0.03961670242669195
1589995973.932428,-3.8715688441388343,-1.0123532662082515,8.895293467583498,0.31555555555555553,-0.3233333333333333,-0.6022222222222222,-0.18259736206614277,0.11029208619842829,-0.009805275867714474
1589995973.9424279,-3.8887360838244924,-1.0381041257367387,8.843791748526522,0.31555555555555553,-0.3233333333333333,-0.6022222222222222,-0.12894973804846105,-0.05065078585461688,-0.11710052390307793
1589995973.9524279,-3.89,-1.017810245378919,8.906569263863242,0.31555555555555553,-0.3233333333333333,-0.6022222222222222,-0.21745731092117035,0.1224146218423407,-0.03254268907882965
1589995973.9624279,-3.89,-1.01,8.952591008991009,0.3138821474821475,-0.3233333333333333,-0.5988754060754061,-0.25,0.2816292041292041,0.023532301032301032
1589995973.9724278,-3.89,-1.01,8.986111888111889,0.3113991193991194,-0.3233333333333333,-0.59390934990935,-0.25,0.4212995337995338,0.05844988344988345
1589995973.9824278,-3.8707281894020116,-1.01,8.903276852309052,0.3111111111111111,-0.3233333333333333,-0.5933333333333334,-0.3704488162374282,0.4375,0.002275591881285892
1589995973.9924278,-3.87,-1.01,8.852933846719424,0.3111111111111111,-0.3233333333333333,-0.5933333333333334,-0.2769455139988004,0.4375,0.0
1589995974.0024278,-3.8762144658529207,-1.0162144658529204,8.84310723292646,0.3111111111111111,-0.3233333333333333,-0.5933333333333334,-0.2305797942096237,0.34039897104811867,0.0
1589995974.0124278,-3.8846766871784526,-1.0246766871784525,8.847338343589225,0.3111111111111111,-0.3233333333333333,-0.5933333333333334,-0.20413535256733584,0.20817676283667913,0.0
1589995974.0224278,-3.8856396961968556,-1.0169190885905663,8.858720607606289,0.3111111111111111,-0.3233333333333333,-0.6035073755406706,-0.1602481012303467,0.07049620246069337,0.0
1589995974.0324278,-3.883105961396117,-1.0124238455844674,8.854470193019415,0.3111111111111111,-0.3233333333333333,-0.6166666666666667,-0.16382451745146046,-0.07764903490292091,-0.019412258725730228
1589995974.0424278,-3.889076325229175,-1.0363053009166998,8.824618373854126,0.3111111111111111,-0.3233333333333333,-0.6166666666666667,-0.2384540653646871,-0.22690813072937424,-0.05672703268234356
1589995974.0524278,-3.89,-1.0334899008446568,8.852550495776716,0.3111111111111111,-0.3233333333333333,-0.6166666666666667,-0.0872475211164157,-0.25,-0.10318811972089607
1589995974.0624278,-3.89,-1.024394741022226,8.909236812844417,0.3111111111111111,-0.3233333333333333,-0.6166666666666667,0.017516434305543675,-0.26751643430554367,-0.08996713138891266
1589995974.0724277,-3.89,-1.014144866265075,8.980985936144474,0.3111111111111111,-0.3233333333333333,-0.6166666666666667,0.04954729292164074,-0.29954729292164073,-0.025905414156718515
1589995974.0824277,-3.885027962981391,-1.0149720370186088,9.01,0.3133209053416039,-0.3233333333333333,-0.609484835417565,0.12465046273261021,-0.3435752313663051,0.0
1589995974.0924277,-3.883101524730383,-1.016898475269617,8.941766455931573,0.31555555555555553,-0.3233333333333333,-0.6022222222222222,0.2844226478244701,-0.355615470435106,0.0
1589995974.1024277,-3.8884703095388504,-1.0115296904611497,8.796118761844598,0.31555555555555553,-0.3233333333333333,-0.6022222222222222,0.48087886923562856,-0.2838183038534428,0.0
1589995974.1124277,-3.88,-1.0168258698115584,8.83,0.3167899395177273,-0.32245163050321063,-0.6031039250523449,0.4047574705166408,-0.1448383136777605,-0.009919156838880262
1589995974.1224277,-3.88,-1.00802430016368,8.83,0.3202127721585689,-0.32000675004546664,-0.6055488055100889,0.4872721859655013,-0.19984812397700089,-0.03742406198850044
1589995974.1324277,-3.8786916052915097,-1.000654197354245,8.83130839470849,0.3233333333333333,-0.31777777777777777,-0.6077777777777778,0.5420563326798424,-0.266354933856126,-0.0625
1589995974.1424277,-3.8638757307617584,-1.0080621346191208,8.846124269238242,0.3233333333333333,-0.31777777777777777,-0.6077777777777778,0.31055829315247535,-0.4515533654780197,-0.0625
1589995974.1524277,-3.88,-1.02,8.920147185680397,0.3233333333333333,-0.31777777777777777,-0.6077777777777778,0.18739778772194665,-0.12510221227805335,-0.12510221227805335
1589995974.1624277,-3.88,-1.02,8.987986844942851,0.3233333333333333,-0.31777777777777777,-0.6077777777777778,0.14028691323413126,-0.17221308676586874,-0.17221308676586874
1589995974.1724277,-3.8913915246059827,-1.02,9.002405650262679,0.3203799751021526,-0.32452831087761935,-0.6111530443276986,0.10126765707086952,-0.11630297121260856,-0.14003531414173903
1589995974.1824276,-3.9082550659376007,-1.02,8.991163289374933,0.3160079458680295,-0.3345215205556151,-0.6161496491666965,0.0661352792966656,-0.010905837889996772,-0.06977055859333119
1589995974.1924276,-3.8791234552695326,-1.027719136182617,8.874212957260747,0.31555555555555553,-0.33555555555555555,-0.6166666666666667,0.207233803424067,0.0,-0.0625
1589995974.2024276,-3.87,-1.0193920522965767,8.824088078444865,0.31555555555555553,-0.33555555555555555,-0.6166666666666667,0.15055049028040599,0.033149836573198005,-0.0625
1589995974.2124276,-3.8727256653638564,-1.0045486692722874,8.81817699609157,0.31555555555555553,-0.33555555555555555,-0.6166666666666667,0.0625,0.011393774427694028,-0.011393774427694028
1589995974.2224276,-3.879612763362916,-0.9896127633629158,8.843485129733757,0.3161148973646772,-0.3352973977974994,-0.6163224563225919,0.05523931305467109,-0.125,0.1177393130546711
1589995974.2324276,-3.873929815053181,-0.9839298150531807,8.894631664521373,0.32432360047873904,-0.33150876559100934,-0.6112709467139383,-0.051315967752862277,-0.125,0.011184032247137723
1589995974.2424276,-3.87,-0.986994054054054,8.909017837837837,0.33,-0.3288888888888889,-0.6077777777777778,-0.125,-0.125,-0.0625
1589995974.2524276,-3.87,-1.009665945945946,8.841002162162162,0.33,-0.3288888888888889,-0.6077777777777778,-0.125,-0.125,-0.0625
1589995974.2624276,-3.878374538969724,-1.01,8.906996311757792,0.33,-0.3288888888888889,-0.6077777777777778,-0.17734086856077494,0.03202260568232482,-0.0625
1589995974.2724276,-3.8710249761879565,-1.0189750238120436,8.964875119060219,0.33,-0.3288888888888889,-0.5948138544937148,-0.07531220234945496,0.0625,-0.0625
1589995974.2824275,-3.875495741302151,-1.014504258697849,8.948017034791397,0.33,-0.3288888888888889,-0.5933333333333334,-0.0625,-0.006196766276887533,-0.028151616861556233
1589995974.2924275,-3.8781403642407035,-1.0118596357592964,8.909544006647739,0.33,-0.3288888888888889,-0.5933333333333334,-0.0973681704868084,-0.0625,0.0
1589995974.3024275,-3.870879267363756,-1.0191207326362441,8.829671941001315,0.33,-0.3288888888888889,-0.5933333333333334,-0.23351373692957553,-0.0625,0.0
1589995974.3124275,-3.8843226057113256,-1.015225798096225,8.853419413326426,0.33,-0.3288888888888889,-0.5933333333333334,-0.19032247620281034,0.05685504759437933,0.029838761898594832
1589995974.3224275,-3.899697591368437,-1.009697591368437,8.891209634526252,0.32942878369593664,-0.3288888888888889,-0.5942405592280222,-0.125,0.1799397842109262,0.056829838158194666
1589995974.3324275,-3.891730301648811,-1.0017303016488108,8.923078793404756,0.31437945866997613,-0.3288888888888889,-0.6181424283869007,-0.125,-0.019242458779727967,-0.092556844084796
1589995974.3424275,-3.8773308510022573,-1.019003723496614,8.872988829510158,0.3111111111111111,-0.3288888888888889,-0.6233333333333333,-0.006226728146161722,-0.1020910906179461,-0.0854089093820539
1589995974.3524275,-3.87,-1.03,8.860613814418171,0.3111111111111111,-0.3288888888888889,-0.6233333333333333,0.03673273197728743,-0.15076726802271256,-0.13980180406813772
1589995974.3624275,-3.873517425252333,-1.0264825747476671,8.897034850504665,0.3111111111111111,-0.3288888888888889,-0.6233333333333333,0.021983907827080557,-0.1875,-0.2060321843458389
1589995974.3724275,-3.8894926680632262,-1.010507331936774,8.928985336126452,0.3111111111111111,-0.3288888888888889,-0.6233333333333333,0.12182917539516283,-0.1875,-0.006341649209674338
1589995974.3824275,-3.89,-1.01,8.935106439160558,0.31735231452957063,-0.3322931816625941,-0.60801401585166,0.09308475524651386,-0.1236695104930277,-0.03191524475348615
1589995974.3924274,-3.8893673004120393,-1.01,8.931142205768547,0.3233333333333333,-0.33555555555555555,-0.5933333333333334,0.05854562757524419,-0.05063688272573257,-0.0625
1589995974.4024274,-3.8805946330342387,-1.01,8.808324862479346,0.3233333333333333,-0.33555555555555555,-0.5933333333333334,0.003716456463993635,0.11385063060801909,-0.0625
1589995974.4124274,-3.8731692318443076,-1.0168307681556925,8.820492304467079,0.3233333333333333,-0.33555555555555555,-0.5933333333333334,-0.1280769029192362,-0.0030769029192362074,-0.019807699026921262
1589995974.4224274,-3.8742902719948087,-1.0285805439896176,8.881483263937707,0.3233333333333333,-0.32792840534256207,-0.6033439679878874,-0.1875,0.07157099983777646,0.0
1589995974.4324274,-3.88,-1.0358261505935924,8.943043584322654,0.3233333333333333,-0.31777777777777777,-0.6166666666666667,-0.17010896080663523,0.22391344120995282,0.017391039193364773
1589995974.4424274,-3.88,-1.0187733777850057,8.914622296308343,0.3233333333333333,-0.31777777777777777,-0.6166666666666667,-0.09905574077085705,0.11733361115628557,0.08844425922914295
1589995974.4524274,-3.873492682303317,-1.003492682303317,8.88047804690995,0.3233333333333333,-0.31777777777777777,-0.6166666666666667,-0.0625,0.0625,0.0029877931871924307
1589995974.4624274,-3.876113224655536,-1.0122264493110722,8.888339673966609,0.3233333333333333,-0.31777777777777777,-0.6166666666666667,0.05212296229130117,-0.12853827048550198,0.013915308194200796
1589995974.4724274,-3.8742166072497333,-1.02,8.917350178250802,0.31979903776372587,-0.31777777777777777,-0.6105619743191629,-0.01958481875666815,-0.1777075906216659,0.0625
1589995974.4824274,-3.8633021936558327,-1.02,8.950093419032502,0.31312911834523116,-0.31777777777777777,-0.5990412044144902,-0.29244515860417913,-0.04127742069791043,0.0625
1589995974.4924273,-3.875348654179128,-1.02,8.898605383283488,0.3111111111111111,-0.31777777777777777,-0.5955555555555555,-0.375,0.19185817723909962,-0.0014527257463665538
1589995974.5024273,-3.89,-1.0276910557211565,8.855382111442314,0.3111111111111111,-0.31777777777777777,-0.5955555555555555,-0.43909213100963734,0.3429539344951813,-0.014430901742771979
1589995974.5124273,-3.8902544716579457,-1.0492365850261636,8.900508943315891,0.3111111111111111,-0.31777777777777777,-0.5955555555555555,-0.6202286564135214,0.2436382085513619,0.12340955213784047
1589995974.5224273,-3.898599510554903,-1.0242014683352898,8.917199021109807,0.3111111111111111,-0.31777777777777777,-0.5955555555555555,-0.46375917709556114,0.035012236127414886,0.07125305903185372
1589995974.5324273,-3.8860959627143625,-1.0269520186428187,8.906095962714362,0.3142008971745861,-0.32550224293646524,-0.5901484299444743,-0.39404988348238296,-0.13035034955285119,0.19285034955285119
1589995974.5424273,-3.8931472776400042,-1.026713180589999,8.860558167079986,0.31555555555555553,-0.3288888888888889,-0.5877777777777777,-0.3339147573749861,-0.08478689343746529,0.2910852426250139
1589995974.5524273,-3.9138468371765924,-1.021538290705852,8.798459488470222,0.31555555555555553,-0.3288888888888889,-0.5877777777777777,-0.2692286338231484,0.07692841544212903,0.3557713661768516
1589995974.5624273,-3.887189848054767,-1.0145316413424612,8.845620303890465,0.31555555555555553,-0.3288888888888889,-0.5877777777777777,-0.1474682751711471,-0.011708966438470525,0.5117089664384705
1589995974.5724273,-3.8664681338158187,-1.0143120892105457,8.90646813381582,0.3172324791374344,-0.32649328377191905,-0.5908920644298385,-0.04902472121704453,-0.11152472121704453,0.5845741636511336
1589995974.5824273,-3.881955542426704,-1.0246370282844695,8.921955542426703,0.32124773322173805,-0.3207572065086281,-0.5983489648721168,-0.01675928661103316,-0.07925928661103315,0.4877778598330995
1589995974.5924273,-3.89,-1.0191563445632439,8.921867258422433,0.3233333333333333,-0.31777777777777777,-0.6022222222222222,0.0,-0.09638642323986282,0.5222160580996571
1589995974.6024272,-3.89,-0.9965926971958846,8.904944522896914,0.3233333333333333,-0.31777777777777777,-0.6022222222222222,0.0,-0.1668978212628606,0.6984945531571515
1589995974.6124272,-3.8787440996379217,-0.9168366476464901,8.956279501810393,0.3233333333333333,-0.31777777777777777,-0.6022222222222222,0.0,-0.3281987545259806,0.8203493772629903
1589995974.6224272,-3.856486051214144,-0.8262151280353596,9.0,0.3282133703948925,-0.31965471510914667,-0.6022222222222222,-0.04223108995580051,-0.521962179911601,1.1495020847127033
1589995974.6324272,-3.8255637774345344,-0.7520147993821618,8.992014799382162,0.3377777777777778,-0.3233333333333333,-0.6022222222222222,-0.15827166924099284,-0.6985905564136643,1.7928602859298106
1589995974.6424272,-3.7878980926039008,-0.6842165666870218,8.924216566687022,0.3377777777777778,-0.3233333333333333,-0.6022222222222222,-0.4407643054707425,-0.7927547684902475,2.6874203006573514
1589995974.6524272,-3.505585209129972,-0.7876063389442977,8.818528403043324,0.3377777777777778,-0.3233333333333333,-0.6022222222222222,-0.5,-0.40414465644341074,5.896829542318761
1589995974.6624272,-3.4204780876494025,-0.8472509960159362,8.805737051792828,0.3377777777777778,-0.3233333333333333,-0.6022222222222222,-0.6030876494023905,-0.2218625498007968,9.11503984063745
1589995974.6724272,-3.5246219653962054,-0.8425171833910815,8.867276615915939,0.3377777777777778,-0.3233333333333333,-0.6022222222222222,-0.7806056228344413,-0.28103520761148043,11.89615475773958
1589995974.6824272,-3.6003946002076845,-0.8767102803738318,8.920394600207684,0.323728164301373,-0.3210672666435906,-0.5927047421253029,-0.5435877466251298,-0.8733515057113188,15.822352024922118
1589995974.6924272,-3.650305855084148,-0.817189693976956,8.961281030602304,0.3033333333333333,-0.31777777777777777,-0.5788888888888889,-0.09070257650576102,-1.6310948469884778,20.77102753703517
1589995974.7024271,-3.7137085558802783,-0.46495246733178813,8.996504753266821,0.3033333333333333,-0.31777777777777777,-0.5788888888888889,-0.178761883167053,-1.454976233665894,25.12996321676912
1589995974.7124271,-2.965511732401398,-0.9155271722046561,9.139720049555297,0.3033333333333333,-0.31777777777777777,-0.5788888888888889,0.07447509291618126,-1.3938374845139698,27.461819423642314
1589995974.7224271,-2.12790813779331,-1.4545405965126386,9.294831826334573,0.3033333333333333,-0.31777777777777777,-0.5788888888888889,0.36530967437732287,-1.3453650542704463,29.570370139235592
1589995974.7324271,-1.6081290092658589,-1.5264130434782608,8.94277441197434,0.3092157677991605,-0.3231254454739843,-0.5831670230458541,-0.039112615823236,-1.162096846044191,24.051374287241625
1589995974.742427,-1.8569934546500755,-1.1574684120933132,8.725790836510106,0.31555555555555553,-0.3288888888888889,-0.5877777777777777,-1.5083060610419814,-1.9439269701982784,13.853839998561462
1589995974.752427,-1.9909692083456492,-1.1159230871156138,8.875630765153755,0.31555555555555553,-0.3288888888888889,-0.5877777777777777,-1.3040389202026277,-1.7688466379916625,11.54009680362039
1589995974.762427,-2.0379948221911914,-1.094547808094913,8.884180876762034,0.31555555555555553,-0.3288888888888889,-0.5877777777777777,-0.3421513642710807,-0.7535208845083632,10.177422766050697
1589995974.772427,-2.1179202906735943,-1.0598230355058549,8.922787567302986,0.3088299007241738,-0.3274877107990177,-0.5914208408114429,0.15486746488949132,-0.18860602808840693,7.24806680409654
1589995974.782427,-2.262506839655902,-0.9996866450430123,9.022820194612889,0.2888888888888889,-0.3233333333333333,-0.6022222222222222,-0.3144584684811733,-0.5566245945564801,1.1871580172049077
1589995974.792427,-2.3098265406853757,-0.993771682414328,9.076054858271048,0.2888888888888889,-0.3233333333333333,-0.6022222222222222,-0.3514269849104499,-0.44571904526865036,-1.1788270342687914
1589995974.802427,-2.34,-0.99,9.048468170235061,0.2888888888888889,-0.3233333333333333,-0.6022222222222222,0.12268391721641386,0.2131719021648527,-5.673603503298483
1589995974.812427,-2.3469075243327024,-0.99,8.936546237833648,0.2888888888888889,-0.3233333333333333,-0.6022222222222222,0.989206993230152,1.228413986460304,-11.725389494198902
1589995974.822427,-2.3660285838025117,-0.99,8.926985708098744,0.2888888888888889,-0.3233333333333333,-0.6022222222222222,0.9593303378085751,1.1686606756171503,-13.906385339974015
1589995974.832427,-2.3742557843885073,-0.99,8.910426307314179,0.2916546223314594,-0.32567356932320063,-0.6022222222222222,0.9973355792863802,1.2805725061445885,-17.28310026273413
1589995974.842427,-2.3529270277142134,-0.99,8.874878379523688,0.30192402369315663,-0.33436306278309835,-0.6022222222222222,1.2195101279769471,1.8582263327400628,-23.903901813713027
1589995974.852427,-2.3609327935467306,-1.0009327935467303,8.798936841946253,0.3033333333333333,-0.33555555555555555,-0.6022222222222222,1.25,1.9716649798335322,-27.37487348751492
1589995974.862427,-2.395806676440193,-1.01,8.777276310413612,0.3033333333333333,-0.33555555555555555,-0.6022222222222222,1.2679213030834675,2.1971343339181426,-32.241959371770534
1589995974.872427,-2.4586821463875874,-1.019224975286887,8.891085657798598,0.3024547642583917,-0.33555555555555555,-0.6031007912971639,1.3619195104654662,2.7286829253878886,-40.248568251171186
1589995974.882427,-2.4541754416125845,-1.0507719087119096,8.96319293419865,0.29945029440838955,-0.33555555555555555,-0.606105261147166,1.530920939528087,2.869517449606739,-44.30460254867409
1589995974.892427,-2.449579480044739,-1.080841039910522,9.025374280492128,0.2966666666666667,-0.33555555555555555,-0.6088888888888889,1.7058977480426658,3.03153899664457,-48.2543622295878
1589995974.902427,-2.4438584717789236,-1.092283056442153,8.962443189568159,0.2966666666666667,-0.33555555555555555,-0.6088888888888889,1.9561918596720953,3.460614616580735,-50.86457225086614
1589995974.912427,-2.44168957794578,-1.1101374676746805,8.9115521102711,0.2966666666666667,-0.33555555555555555,-0.6088888888888889,2.1777993108056273,3.9189577945780076,-54.12450042687982
1589995974.922427,-2.446879322931489,-1.1412759375889332,8.885603385342556,0.2966666666666667,-0.33555555555555555,-0.6088888888888889,2.3399788416090277,4.437932293148888,-58.730399101696385
1589995974.932427,-2.478430072426808,-1.1656860144853616,8.855784963786595,0.3083545853310211,-0.33208076892561234,-0.6069935507271017,2.3664248189329795,4.85661277160053,-64.00540013261246
1589995974.942427,-2.549739875548301,-1.1799479751096602,8.82013006222585,0.33767083772541284,-0.32336512632187425,-0.6022395638523355,2.188150311129246,5.124024533306131,-70.28957653269407
1589995974.952427,-2.571682656534473,-1.1774344177946647,8.751682656534474,0.3377777777777778,-0.3233333333333333,-0.6022222222222222,2.292586380907148,5.026551492123803,-74.89163450882609
1589995974.962427,-2.608203910393414,-1.2006752157048999,8.788203910393413,0.3377777777777778,-0.3233333333333333,-0.6022222222222222,2.2303342436475897,5.109554341803213,-76.1159265415974
1589995974.972427,-2.644725164252355,-1.223916013615135,8.824725164252355,0.3377777777777778,-0.3233333333333333,-0.6022222222222222,2.1680821063880313,5.192557191482625,-77.34021857436872
1589995974.982427,-2.690388318863457,-1.2705824782951856,8.890776637726914,0.34683925282820316,-0.3165372270455143,-0.6044875909848285,2.4010918179426466,5.462378321494343,-81.62802880820837
1589995974.9924269,-2.7397733435809686,-1.3593200307429052,8.948009976942823,0.3644444444444445,-0.3033333333333333,-0.6088888888888889,2.9680416986905263,5.9360833973810525,-88.99968822053684
1589995975.0024269,-2.7641025826940644,-1.4323077480821937,8.893269188938355,0.3644444444444445,-0.3033333333333333,-0.6088888888888889,3.0440705709189517,6.0881411418379034,-90.71033784567642
1589995975.0124269,-2.7497118351884566,-1.499593291761551,8.855203354119224,0.36845198317265065,-0.3005781504576916,-0.6138983122991466,3.1329450167067487,6.350424053461595,-93.3651515312746
1589995975.0224268,-2.7229323004235213,-1.5650543767425031,8.82247281162875,0.37374176781757606,-0.29694142351430536,-0.6205105431053034,3.2259295124183285,6.647974439738651,-96.32205849490285
1589995975.0324268,-2.6961527656585864,-1.6305154617234554,8.789742269138273,0.3790315524625015,-0.2933046965709191,-0.6271227739114601,3.318914008129908,6.945524826015706,-99.27896545853108
1589995975.0424268,-2.6783884429554896,-1.673223114089021,8.757107543643915,0.38222222222222224,-0.2911111111111111,-0.6311111111111111,3.3649277684718095,7.145144463056381,-101.37473917737391
1589995975.0524268,-2.6743273075843104,-1.681345384831379,8.724618460674483,0.38222222222222224,-0.2911111111111111,-0.6311111111111111,3.3395456724019406,7.195908655196119,-102.16158415553984
1589995975.0624268,-2.6702661722131316,-1.6894676555737371,8.69212937770505,0.38222222222222224,-0.2911111111111111,-0.6311111111111111,3.3141635763320716,7.246672847335857,-102.94842913370579
1589995975.0724268,-2.714011016016914,-1.8450137700211426,8.864011016016914,0.38890724891707906,-0.286988677982616,-0.6324481164500825,3.2688016375792848,7.3875344250528565,-106.25034425052857
1589995975.0824268,-2.7271001037627656,-1.8613751297034569,8.877100103762766,0.41072239516016484,-0.27353600446604653,-0.6368111456986996,3.3301567363879636,7.428437824258642,-106.65937824258643
1589995975.0924268,-2.740189191508617,-1.877736489385771,8.890189191508616,0.4325375414032505,-0.260083330949477,-0.6411741749473168,3.391511835196642,7.469341223464428,-107.06841223464428
1589995975.1024268,-2.7393768170901276,-1.9378043230944253,8.881409429907723,0.4488888888888889,-0.25,-0.6444444444444445,3.6200859562634307,7.632789786373404,-108.1219425483504
1589995975.1124268,-2.6992743478519223,-2.0761289440846156,8.831532236021154,0.4488888888888889,-0.25,-0.6444444444444445,4.086694099471151,7.990423524867788,-110.33114712698318
1589995975.1224267,-2.6643820785548757,-2.096067383682928,8.836516845920732,0.4488888888888889,-0.25,-0.6444444444444445,3.962078851981698,7.959269712995424,-110.79845430506863
1589995975.1324267,-2.637236476584203,-2.1293446639105804,8.83032766804471,0.45165241230468606,-0.2475435347415136,-0.6444444444444445,3.8231839359538027,7.980680053371831,-111.47044042697465
1589995975.1424267,-2.6280619900693396,-2.1935660695146226,8.798216965242688,0.46082689881954925,-0.2393884356171908,-0.6444444444444445,3.651162313800118,8.124031405166567,-112.61725124133254
1589995975.1524267,-2.62,-2.252569660224833,8.76935758494379,0.4688888888888889,-0.23222222222222225,-0.6444444444444445,3.508030188202602,8.24799245294935,-113.70730942907667
1589995975.1624267,-2.62,-2.2737610205886067,8.764059744852847,0.4688888888888889,-0.23222222222222225,-0.6444444444444445,3.5742531893393963,8.231436702665151,-114.38609519072881
1589995975.1724267,-2.62,-2.294952380952381,8.758761904761904,0.4688888888888889,-0.23222222222222225,-0.6444444444444445,3.6404761904761904,8.214880952380952,-115.06488095238095
1589995975.1824267,-2.62,-2.316143741316155,8.753464064670961,0.4688888888888889,-0.23222222222222225,-0.6444444444444445,3.7066991916129846,8.198325202096754,-115.7436667140331
1589995975.1924267,-2.567409665831497,-2.4220330847948803,8.745617472152626,0.4893406855099734,-0.21225737313973497,-0.6478530772146253,3.9691263923687625,8.461407990460954,-119.17309709602439
1589995975.2024267,-2.5,-2.54,8.74,0.5155555555555555,-0.18666666666666668,-0.6522222222222223,4.25,8.8125,-123.0
1589995975.2124267,-2.4797962569218908,-2.566264866001542,8.756162994462487,0.5155555555555555,-0.18666666666666668,-0.6522222222222223,4.212117981728545,8.863009357695272,-123.85865908081965
1589995975.2224267,-2.4307962802869225,-2.6299648356270007,8.795362975770463,0.5155555555555555,-0.18666666666666668,-0.6522222222222223,4.12024302553798,8.985509299282693,-125.94115808780579
1589995975.2324266,-2.389838990787617,-2.673694912440866,8.815381359448917,0.5173003753192981,-0.1812269344620577,-0.6536591326158926,4.074046601377708,9.085593202755415,-127.61371794339779
1589995975.2424266,-2.3624879954471623,-2.6836407289283044,8.80294908883962,0.5219970108828106,-0.16658448241110702,-0.6575269501387851,4.105127277900952,9.147754555801905,-128.59275925388
1589995975.2524266,-2.335137000106707,-2.6935865454157426,8.790516818230321,0.526693646446323,-0.15194203036015633,-0.6613947676616778,4.136207954424196,9.209915908848393,-129.57180056436218
1589995975.2624266,-2.307786004766252,-2.703532361903181,8.778084547621024,0.5313902820098355,-0.13729957830920564,-0.6652625851845705,4.167288630947441,9.272077261894882,-130.5508418748444
1589995975.2724266,-2.181140353381098,-2.818859646618902,8.778373818970683,0.5456095364053575,-0.10079547220557124,-0.6826645670589953,4.31834092141695,9.600350027117289,-133.90899116547254
1589995975.2824266,-2.03,-2.9768872551627283,8.79,0.5611111111111111,-0.06333333333333334,-0.7033333333333334,4.514348448255684,10.043045344767052,-138.0318627581364
1589995975.2924266,-2.03,-2.9902746007596472,8.79,0.5611111111111111,-0.06333333333333334,-0.7033333333333334,4.542238751582598,10.126716254747794,-138.70123003798236
1589995975.3024266,-2.03,-3.014905613802601,8.779566070338179,0.5611111111111111,-0.06333333333333334,-0.7033333333333334,4.497287939613621,10.25271206038638,-139.49492828467865
1589995975.3124266,-2.03,-3.0693975653168075,8.741421704278235,0.5611111111111111,-0.06333333333333334,-0.7033333333333334,4.258885651738966,10.491114348261034,-140.61882478465915
1589995975.3224266,-1.9922442379754632,-3.1707920537960064,8.724719470253067,0.5542940985233475,-0.027150728059818968,-0.7169673585088605,4.007013243673323,10.65449668908167,-141.78094040347005
1589995975.3324265,-1.95,-3.25,8.73,0.5466666666666666,0.013333333333333334,-0.7322222222222222,3.875,10.6875,-142.375
1589995975.3424265,-1.95,-3.25,8.73,0.5466666666666666,0.013333333333333334,-0.7322222222222222,3.875,10.6875,-142.375
1589995975.3524265,-1.95,-3.25,8.73,0.5466666666666666,0.013333333333333334,-0.7322222222222222,3.875,10.6875,-142.375
1589995975.3624265,-1.901142739838511,-3.2662857533871628,8.709061174216504,0.5466666666666666,0.013333333333333334,-0.7322222222222222,3.8459182975229234,10.716581702477077,-141.57525318188038
1589995975.3724265,-1.7296876294067305,-3.3165625431355767,8.6548956464125,0.5506133763998933,0.01728004306655992,-0.7346411733490386,3.6497408414543244,10.783854526129806,-138.715497577506
1589995975.3824265,-1.6775816470198492,-3.29919388233995,8.730159843193551,0.5705551721282058,0.0372218387948725,-0.7468635642792946,3.143154901581868,10.639115686166248,-137.59377156778842
1589995975.3924265,-1.6305395547523207,-3.3581115583668777,8.731079109504641,0.5811111111111111,0.04777777777777778,-0.7533333333333333,2.8547287028670008,10.623313891398999,-135.49992401215806
1589995975.4024265,-1.5898442432771671,-3.5002076756304437,8.65,0.5811111111111111,0.04777777777777778,-0.7533333333333333,2.8134734795177057,10.749675506827431,-132.36137128675213
1589995975.4124265,-1.581867559240805,-3.5108432543455934,8.65,0.5811111111111111,0.04777777777777778,-0.7533333333333333,2.8633277547449696,10.73305741508501,-131.66341143357042
1589995975.4224265,-1.5738908752044427,-3.521478833060743,8.65,0.5811111111111111,0.04777777777777778,-0.7533333333333333,2.913182029972234,10.71643932334259,-130.96545158038873
1589995975.4324265,-1.5659141911680803,-3.532114411775893,8.65,0.5811111111111111,0.04777777777777778,-0.7533333333333333,2.963036305199498,10.699821231600167,-130.26749172720702
1589995975.4424264,-1.5205205678922462,-3.564295035143233,8.634815603035479,0.5854977146786393,0.04879007090874583,-0.7533333333333333,2.525487594858727,10.402792556915236,-125.87797877404721
1589995975.4524264,-1.4182799846267877,-3.6328920169105334,8.612892016910534,0.5980297810232337,0.05592933965343168,-0.7575004499104754,1.3862249327421967,9.544899730968787,-115.59359815521454
1589995975.4624264,-1.3894943311280095,-3.6645562357591897,8.64455623575919,0.6041067523174202,0.0677634416473739,-0.7677353489322633,1.2602876986850413,9.041150794740165,-112.13931973536113
1589995975.4724264,-1.3607086776292312,-3.696220454607846,8.676220454607847,0.6101837236116068,0.07959754364131612,-0.7779702479540511,1.134350464627886,8.537401858511544,-108.68504131550773
1589995975.4824264,-1.3319230241304527,-3.727884673456502,8.707884673456503,0.6162606949057934,0.09143164563525834,-0.788205146975839,1.0084132305707305,8.033652922282922,-105.23076289565432
1589995975.4924264,-1.33,-3.784068689240758,8.72351717231019,0.6166666666666667,0.09222222222222222,-0.7888888888888889,1.042241163469342,7.535347201837238,-102.04311855714606
1589995975.5024264,-1.3149278904231791,-3.8315315851097442,8.719234207445128,0.6166666666666667,0.09222222222222222,-0.7888888888888889,1.2374441290166707,7.070269667515379,-97.54329188116787
1589995975.5124264,-1.2876451019384096,-3.8705069972308435,8.699746501384578,0.6166666666666667,0.09222222222222222,-0.7888888888888889,1.554119352500604,6.63179628115301,-91.96493602133552
1589995975.5224264,-1.26036231345364,-3.909482409351943,8.680258795324027,0.6166666666666667,0.09222222222222222,-0.7888888888888889,1.8707945759845372,6.193322894790641,-86.38658016150315
1589995975.5324264,-1.236936665830756,-3.898468332915378,8.703063334169244,0.5775871282132253,0.049298794740573554,-0.7478874059213438,1.8029270807211124,6.043354161442225,-83.60976552704172
1589995975.5424263,-1.2155940241576606,-3.897343293070566,8.69650146217419,0.5488888888888889,0.017777777777777778,-0.7177777777777777,1.713283534647171,5.7998132549268915,-80.19305785123967
1589995975.5524263,-1.199595422759059,-3.9240076287349015,8.611175588048315,0.5488888888888889,0.017777777777777778,-0.7177777777777777,1.5799618563254927,5.2998569612205975,-74.99351239669421
1589995975.5624263,-1.1829159809258556,-3.9470840190741443,8.597781435062105,0.5488888888888889,0.017777777777777778,-0.7177777777777777,1.588550238426805,4.881933015430927,-69.46938518940513
1589995975.5724263,-1.1652162721019537,-3.9647837278980465,8.692179882122913,0.5488888888888889,0.017777777777777778,-0.7177777777777777,1.809796598725577,4.586937868365897,-63.45885906795516
1589995975.5824263,-1.1274704127778312,-3.982198595208313,8.732198595208313,0.5389492927932262,0.05392176358018752,-0.6879589894907897,1.7733450399307227,4.245862599826807,-59.70522827864909
1589995975.5924263,-1.081348160162747,-3.99949443993897,8.74949443993897,0.5248563822719505,0.10516871093028123,-0.6456802579269625,1.629213000508584,3.8855325012714603,-56.89465350991739
1589995975.6024263,-1.0690947317674158,-3.9963649105891386,8.7027438376588,0.5244444444444445,0.10666666666666667,-0.6444444444444445,1.5568420735463482,3.6250876030032764,-53.222849206774335
1589995975.6124263,-1.0578611029273912,-3.9926203676424636,8.654064779352028,0.5244444444444445,0.10666666666666667,-0.6444444444444445,1.4866318932961942,3.3676502754193782,-49.52511304693289
1589995975.6224263,-1.0413482811533794,-4.010187343975448,8.637303437693241,0.5154722915664675,0.1310196530497472,-0.6322679512529042,1.329353514417241,2.8630605432517235,-43.00817769049309
1589995975.6324263,-1.0012049442475581,-3.9989160688045637,8.78337280663843,0.4933333333333334,0.19111111111111112,-0.6022222222222222,0.8128781657878814,1.9890818134670238,-32.29932902584493
1589995975.6424263,-0.9383822898799313,-3.810245497427101,9.089263507718696,0.4933333333333334,0.19111111111111112,-0.6022222222222222,0.03370229416809605,1.689335870497427,-28.81463738207547
1589995975.6524262,-0.9280058385011215,-3.8759630228262303,8.892110931521309,0.4933333333333334,0.19111111111111112,-0.6022222222222222,0.2498783645599683,1.300218943792057,-27.625668994920176
1589995975.6624262,-0.9176293871223117,-3.9416805482253596,8.694958355323921,0.4933333333333334,0.19111111111111112,-0.6022222222222222,0.46605443495184057,0.9111020170866869,-26.436700607764877
1589995975.6724262,-0.9242053014021083,-4.00704636168253,8.575569542523796,0.49712141370722895,0.21257689989651918,-0.6003281820352744,1.0156457885579777,0.7137831337631768,-22.170984290246647
1589995975.6824262,-0.96,-4.05,8.64,0.5066666666666667,0.26666666666666666,-0.5955555555555555,2.0,0.9375,-13.625
1589995975.6924262,-0.96,-4.05,8.64,0.5066666666666667,0.26666666666666666,-0.5955555555555555,2.0,0.9375,-13.625
1589995975.7024262,-0.9647904008027203,-4.064371202408161,8.582515190367356,0.5066666666666667,0.26666666666666666,-0.5955555555555555,1.461079909693963,0.5183399297619711,-10.481299473214783
1589995975.7124262,-0.9776084727645558,-4.092680787940926,8.547897733470037,0.5066666666666667,0.26666666666666666,-0.5955555555555555,0.8908509849261578,0.014947045221526574,-6.190695829061321
1589995975.7224262,-0.9913329770292969,-4.115554961715495,8.598220915774089,0.5066666666666667,0.26666666666666666,-0.5955555555555555,0.9194437021443685,-0.07083110643310575,-4.618096382059728
1589995975.7324262,-1.0058783706689993,-4.153513482675997,8.659391853344998,0.49621622992177894,0.2771171034115544,-0.5857582711072233,0.9742398166812459,-0.5291379834937056,0.26942056821207183
1589995975.7424262,-0.9947775802163026,-4.195370699639495,8.725667259351091,0.4888888888888889,0.28444444444444444,-0.5788888888888889,1.0317133745493696,-1.002780247296217,4.807662349314063
1589995975.7524261,-0.9780746313917369,-4.204597051133895,8.759410472654553,0.4888888888888889,0.28444444444444444,-0.5788888888888889,1.0083490078926016,-1.2416509921073984,7.675603726652078
1589995975.7624261,-0.9711994623523723,-4.149595698818978,8.721597042938047,0.4888888888888889,0.28444444444444444,-0.5788888888888889,0.8149848786604705,-1.4350151213395295,11.65031082753477
1589995975.7724261,-0.9643242933130076,-4.094594346504061,8.683783613221541,0.4888888888888889,0.28444444444444444,-0.5788888888888889,0.6216207494283396,-1.6283792505716606,15.625017928417464
1589995975.782426,-0.9685740102037443,-4.065144406122246,8.67543321836674,0.4936522278909691,0.28806458208602537,-0.5865102312922171,0.4142598979625569,-1.7714350255093607,18.821638329054224
1589995975.792426,-0.9916828464700114,-4.0790097078820065,8.71702912364602,0.5064904702611175,0.29782164628733815,-0.6070514190844545,0.1831715352998865,-1.8292071161750283,20.699231275688422
1589995975.802426,-1.0164502651454284,-4.097525309336333,8.741399646472763,0.5166666666666667,0.3055555555555556,-0.6233333333333333,-0.053752209545235415,-1.969066366704162,23.22223003374578
1589995975.812426,-1.0475579426198098,-4.133817599723112,8.699922743173587,0.5166666666666667,0.3055555555555556,-0.6233333333333333,-0.3129828551650824,-2.422719996538894,28.212419961927836
1589995975.822426,-1.0666650492364778,-4.156665049236478,8.690009704581133,0.5224101929816216,0.30425863025863026,-0.6198131075273932,-0.5208434422720137,-2.8437954902240614,32.44822498929642
1589995975.832426,-1.0546933066933066,-4.1446933066933065,8.761840159840158,0.543028194028194,0.29960295260295255,-0.6071762681762681,-0.5956668331668331,-3.1805007492507493,34.73033841158841
1589995975.842426,-1.0553981963673313,-4.142699098183666,8.760309919979676,0.5511111111111111,0.2977777777777777,-0.6022222222222222,-0.5743919090562682,-3.3125,35.96238727295821
1589995975.852426,-1.0642772767687032,-4.147138638384352,8.711474977772133,0.5511111111111111,0.2977777777777777,-0.6022222222222222,-0.4911505302934078,-3.3125,36.517329798043946
1589995975.862426,-1.0649413042003122,-4.144941304200312,8.685058695799688,0.5511111111111111,0.2977777777777777,-0.6022222222222222,-0.46911684874804915,-3.3125,37.855122311189525
1589995975.872426,-1.072636267134352,-4.106303287641728,8.681575821910432,0.5511111111111111,0.2977777777777777,-0.6022222222222222,-0.5789766695896986,-3.3125,39.04943000876909
1589995975.882426,-1.0922327576184263,-4.0633491364276395,8.666092674167754,0.5532818476845811,0.2983979882273406,-0.6025943484919599,-0.7119207864515379,-3.3159886837787913,39.41686420534549
1589995975.892426,-1.1139056464843498,-4.095858469726524,8.628165118652388,0.5743527118597844,0.3044182351345416,-0.6062064966362806,-0.9489680084225756,-3.3498525726317965,39.82323087158156
1589995975.902426,-1.1394074590449632,-4.118432090159173,8.606271639363309,0.59,0.3088888888888889,-0.6088888888888889,-1.1543983095155106,-3.3554011269896598,40.06620338096898
1589995975.912426,-1.175955907981875,-4.112340682003021,8.630637271987917,0.59,0.3088888888888889,-0.6088888888888889,-1.26861221244336,-3.27925852503776,39.83777557511328
1589995975.922426,-1.2146063454759106,-4.093595769682726,8.607191539365452,0.59,0.3088888888888889,-0.6088888888888889,-1.2612367802585194,-3.1987367802585194,39.64747356051704
1589995975.932426,-1.2143529082164704,-4.1012941835670595,8.656470917835296,0.6721965581824879,0.2869279763973845,-0.6252027095968636,-1.3911772945882426,-3.293382970941182,39.483822705411754
1589995975.942426,-1.2212691501370747,-4.113756383379025,8.698121808310487,0.7355555555555555,0.27,-0.6377777777777778,-1.394351717464925,-3.3515226038810946,39.41021609417836
1589995975.952426,-1.2550886953717142,-4.125029565123905,8.692485217438048,0.7355555555555555,0.27,-0.6377777777777778,-1.077293480890179,-3.2810652179755952,39.51590217303661
1589995975.962426,-1.252301886792453,-4.125575471698113,8.672301886792452,0.7355555555555555,0.27,-0.6377777777777778,-1.0204599056603774,-3.3329599056603776,40.14321933962264
1589995975.972426,-1.2343635275339186,-4.090909816440543,8.658727055067837,0.7355555555555555,0.27,-0.6377777777777778,-1.1613627294493216,-3.4284093176376698,41.020450917797284
1589995975.982426,-1.2491314961738886,-3.9924566921740765,8.688262992347777,0.7355555555555555,0.27,-0.6377777777777778,-1.2844291347824046,-3.3976427163043987,41.51271653912962
1589995975.992426,-1.2626068944413713,-3.9265172361034284,8.711303447220686,0.8027555011553504,0.27072413734482537,-0.667032926508723,-1.391293090258571,-3.3831465451292857,42.29862034672284
1589995976.002426,-1.2724796685772124,-3.951199171443031,8.716239834288606,1.057253678879251,0.2734665746047812,-0.7778273918109384,-1.4529979286075771,-3.4139989643037887,43.902946143797
1589995976.012426,-1.2896302958275785,-3.99247069026435,8.707159605563229,1.2511111111111108,0.27555555555555555,-0.8622222222222222,-1.5501577907686377,-3.4375,45.516230767995374
1589995976.022426,-1.3300468955770406,-4.086776089679761,8.65327080589728,1.2511111111111108,0.27555555555555555,-0.8622222222222222,-1.7606609144637524,-3.4375,47.15815513281727
1589995976.0324259,-1.3327809556430896,-4.099171433464635,8.672485699606097,1.225443397842096,0.09668367871210823,-0.8774624269756998,-1.6545834046925845,-3.5051785408460354,47.3594643774619
1589995976.0424259,-1.3232032882342868,-4.08480493235143,8.71558520294571,1.1913894692774638,-0.1406296359726742,-0.8976819470609503,-1.4450719301250214,-3.5949691728035624,47.090092481589316
1589995976.0524259,-1.3323681878599911,-4.039803389455029,8.699079530350023,1.18,-0.22,-0.9044444444444444,-1.3556747064687638,-3.625,45.89845826871954
1589995976.0624259,-1.350951705804165,-3.9794069561364647,8.652620735489588,1.18,-0.22,-0.9044444444444444,-1.3266379596809925,-3.625,44.24336370181657
1589995976.0724258,-1.446870175084515,-3.9065649124577426,8.65714692971391,1.18,-0.22,-0.9044444444444444,-1.142831689288057,-3.3874643650032796,40.89247533932085
1589995976.0824258,-1.5252192199428265,-3.872609609971413,8.698267269799892,1.118094252344808,-0.17926108877960445,-0.8770435397446054,-1.0,-3.1793449688393336,38.423798753573344
1589995976.0924258,-1.534407071116417,-3.8772035355582086,8.73042474890746,1.0091161287024968,-0.10754480600796631,-0.8288073210832545,-1.0,-3.1649889513805984,37.84955805522393
1589995976.1024258,-1.5435949222900078,-3.881797461145004,8.762582228015027,0.9001380050601855,-0.03582852323632818,-0.7805711024219035,-1.0,-3.150632933921863,37.27531735687452
1589995976.1124258,-1.5527827734635984,-3.886391386731799,8.794739707122595,0.7911598814178742,0.035887759535309954,-0.7323348837605527,-1.0,-3.1362769164631277,36.701076658525096
1589995976.1224258,-1.5944835810724478,-3.89,8.770190382895354,0.7055555555555556,0.09222222222222222,-0.6944444444444444,-0.7605306869968909,-2.8855306869968906,34.525820946377614
1589995976.1324258,-1.655526151616993,-3.895526151616993,8.748024591978426,0.6800738564327544,0.11923896346085475,-0.6919883770591142,-0.8067305950775794,-2.620884566621722,31.68092310478759
1589995976.1424258,-1.663966915538025,-3.903966915538025,8.836652613149262,0.641152556130218,0.1605049204081222,-0.6882369264275444,-1.4661652764082027,-2.805526277394297,31.575413555774688
1589995976.1524258,-1.725266860919622,-3.8589844360741954,8.806471466136024,0.6133333333333333,0.19,-0.6855555555555556,-1.8843587875772867,-2.9109293937886433,32.77538909814512
1589995976.1624258,-1.7869505981503429,-3.795219760739863,8.659120957040548,0.6133333333333333,0.19,-0.6855555555555556,-1.5515119630068577,-2.8913117523120713,34.98935256936214
1589995976.1724257,-1.7657073976155022,-3.8037170409537993,8.625131836184803,0.6133333333333333,0.19,-0.6855555555555556,-1.1266479523100454,-2.9178657529806222,35.78597258941866
1589995976.1824257,-1.7943103502042599,-3.7793236037047433,8.63749337324976,0.6084099610884156,0.19189360470958378,-0.6935086953358074,-0.9403183178969033,-3.129227476845355,37.717092337917485
1589995976.1924257,-1.8781066348770121,-3.7313601907379264,8.71,0.5988888888888889,0.1955555555555556,-0.7088888888888889,-1.1519994039439798,-3.440832339906633,40.56100417239214
1589995976.2024257,-1.8742897833268115,-3.7542613000391305,8.71,0.5988888888888889,0.1955555555555556,-0.7088888888888889,-1.0804334373777176,-3.3215557289628626,41.061965938355975
1589995976.2124257,-1.8704729317766111,-3.777162409340334,8.71,0.5988888888888889,0.1955555555555556,-0.7088888888888889,-1.0088674708114551,-3.202279118019092,41.56292770431981
1589995976.2224257,-1.8647411054183245,-3.7379288433465954,8.69948221083665,0.5988888888888889,0.1955555555555556,-0.7088888888888889,-1.1314723645418896,-3.483312820219252,43.39987692131551
1589995976.2324257,-1.86,-3.7022226704824823,8.70222468765365,0.5980245170345904,0.19012236104282149,-0.7112350410648423,-1.25,-3.7569458452577567,45.12502521463962
1589995976.2424257,-1.86,-3.7127984467781996,8.760391457280097,0.5939117151418114,0.1642704634310681,-0.7223983604880994,-1.25,-3.789995146181873,45.719912631273715
1589995976.2524257,-1.7738902071184397,-3.6769451035592198,8.71389020711844,0.5911111111111111,0.14666666666666667,-0.73,-0.9809068972451236,-3.7788633621556404,46.22590991353308
1589995976.2624257,-1.6373172209582822,-3.58428197418514,8.657411883067144,0.5911111111111111,0.14666666666666667,-0.73,-0.8370594153357189,-3.662940584664281,45.96426233865712
1589995976.2724257,-1.5510038985240486,-3.507559020910265,8.681387805965542,0.5911111111111111,0.14666666666666667,-0.73,-0.9569390298277104,-3.5430609701722897,45.48474388068916
1589995976.2824256,-3.024593962585034,-3.6133184523809523,-4.479958545918368,0.5308003826530612,0.13396967120181405,-0.6019719623960695,-9.808540603741497,10.367499734268707,36.980096726190474
1589995976.2924256,-0.15727478421184982,-1.4143735858543534,-1.2390463420765938,0.5277777777777778,0.13333333333333333,-0.5955555555555555,-44.90781865415235,87.32387601608984,-83.85392922986675
1589995976.3024256,1.7086661587219245,0.16269443071012296,1.5298229758537119,0.5277777777777778,0.13333333333333333,-0.5955555555555555,-64.30258747862175,123.07599717928558,-187.79569425644183
1589995976.3124256,0.24679929968469594,-0.2486681040422134,0.7240963581983091,0.5277777777777778,0.13333333333333333,-0.5955555555555555,-37.19005677903593,36.872598238674584,-233.7340103790943
1589995976.3224256,-1.2150675593525326,-0.6600306387945498,-0.08163025945709346,0.5277777777777778,0.13333333333333333,-0.5955555555555555,-10.077526079450116,-49.3308007019364,-279.67232650174674
1589995976.3324256,-1.1258863932420164,-0.8236561007381675,-0.3655820471321991,0.5418800685973938,0.19209287841506686,-0.6178841826866143,3.648529092488059,-57.29785753759918,-291.17225802313186
1589995976.3424256,-0.1566297901972236,-0.753702098027764,-0.055855384338919095,0.5544444444444444,0.24444444444444444,-0.6377777777777778,-1.6788819971696842,-10.79797989015679,-268.92846152118244
1589995976.3524256,-0.1519189990565614,-0.8008100094343861,0.04778202075564941,0.5544444444444444,0.24444444444444444,-0.6377777777777778,-3.2393315625140393,-8.943105878521047,-262.4511237027719
1589995976.3624256,-1.5889754141238013,2.3353436791630338,5.967261028770706,0.5544444444444444,0.24444444444444444,-0.6377777777777778,105.51096992153445,129.10028988666087,-232.56081952920664
1589995976.3724256,-1.3860463000404368,1.8076499528238306,6.366394392775307,0.5544444444444444,0.24444444444444444,-0.6377777777777778,92.79632952554252,136.11994541043268,-221.21275188704678
1589995976.3824255,-0.9196360695511524,0.6939188569888124,5.81235557352743,0.5544444444444444,0.24444444444444444,-0.6377777777777778,60.32428393314463,120.64360594419733,-213.3332457204475
1589995976.3924255,-0.4532258390618682,-0.4198122388462058,5.258316754279553,0.5544444444444444,0.24444444444444444,-0.6377777777777778,27.852238340746723,105.16726647796199,-205.45373955384824
1589995976.4024255,-0.07495523372885406,-1.1465764894597332,4.936576489459733,0.5398765909628129,0.26157151542960577,-0.6365966004684563,11.136061449812857,80.6100335889239,-191.63009664281407
1589995976.4124255,0.1540824336469437,-1.21815076051467,5.00815076051467,0.5006432868289957,0.3076971567761206,-0.6334155217549036,21.096814171624896,40.67755486285708,-167.7421836782289
1589995976.4224255,-0.025267827288736333,-1.8059381199705757,7.0800744521967856,0.4722222222222222,0.3411111111111111,-0.6311111111111111,14.86573527117095,12.619611132163795,-143.01359755689796
1589995976.4324255,-0.9213045287298182,-3.2964224584533297,12.559500624117874,0.4704989679619492,0.34549757650089696,-0.6282129107642883,-21.31949226175422,14.81217060445612,-120.61160900035081
1589995976.4424255,-0.4422414397950609,-3.03635963874589,10.90673296729296,0.46213437434562804,0.3667892693424417,-0.614145185136839,-8.915180137550683,13.293711706493273,-115.69265764075286
1589995976.4524255,0.03682164913969621,-2.7762968190384507,9.253965310468047,0.4537697807293069,0.38808096218398647,-0.6000774595093898,3.489131986652854,11.775252808530427,-110.7737062811549
1589995976.4624255,0.1859476442590513,-2.567731696882186,7.7964179902668596,0.4477777777777778,0.4033333333333333,-0.59,10.108404861222525,9.07702450665811,-98.1836194448901
1589995976.4724255,-0.22619635875725821,-2.658832905360076,7.666436949129016,0.4477777777777778,0.4033333333333333,-0.59,4.322862447081685,5.601227242232864,-76.99081592523191
1589995976.4824255,-0.21649339533162143,-3.0129910703958176,8.830792560205428,0.4477777777777778,0.4033333333333333,-0.59,1.957765112082726,5.540583720822634,-72.50319534087491
1589995976.4924254,-0.18404254523003236,-3.148765926397126,9.306297779191379,0.43624113121334773,0.4189078061953139,-0.5954799071181043,1.153723643099029,5.045744541525567,-64.51941336601246
1589995976.5024254,-0.10975090203338839,-2.870213016631076,8.451458506464133,0.4033333333333333,0.4633333333333333,-0.6111111111111112,3.337635305008258,3.7391019639607417,-50.0851981054669
1589995976.5124254,-0.10533877533845976,-3.05111021112315,8.65441633443085,0.4033333333333333,0.4633333333333333,-0.6111111111111112,2.6758163007689637,3.5460714210576145,-46.05913249634453
1589995976.5224254,-0.10092664864353114,-3.2320074056152235,8.857374162397567,0.4033333333333333,0.4633333333333333,-0.6111111111111112,2.01399729652967,3.353040878154487,-42.033066887222155
1589995976.5324254,0.12235096745330501,-3.4235280489558537,8.682943103200346,0.39686280253442763,0.47450970471326137,-0.6222874824910392,0.783097927684663,2.1875099860993497,-30.66553457587039
1589995976.5424254,0.3014326367652056,-3.5427588769962624,8.504588642541623,0.3911111111111111,0.4844444444444445,-0.6322222222222222,0.02801403754672102,1.212367004332314,-20.715691896024463
1589995976.5524254,0.23908108222901803,-3.4848610049269455,8.5535791496772,0.3911111111111111,0.4844444444444445,-0.6322222222222222,0.7517374384131837,1.2958735505861365,-18.71153478593272
1589995976.5624254,0.16872417599747674,-3.4256631446144143,8.590458918151711,0.3911111111111111,0.4844444444444445,-0.6322222222222222,1.3507628922882826,1.2774207538243179,-16.16197169216212
1589995976.5724254,0.04182585859172096,-3.3282304377475658,8.32651717183442,0.3911111111111111,0.4844444444444445,-0.6322222222222222,0.1820580809912799,0.267029461267248,-7.575494950740703
1589995976.5824254,0.023568868704748915,-3.2126028351300766,7.961377374094978,0.3911111111111111,0.4844444444444445,-0.6322222222222222,-0.3884728529765964,0.3050648568651064,-3.695884599759145
1589995976.5924253,-0.051496574616851476,-3.428321915389505,8.71618264001695,0.3866977423076017,0.4906231607693576,-0.6489930236755578,-0.9468535913553218,-0.6308575817501235,5.552718235751112
1589995976.6024253,-0.06516871667672881,-3.4706748667069154,8.811633558579855,0.3855555555555555,0.4922222222222222,-0.6533333333333333,-0.549176146902436,-0.905195520770445,9.229580517751803
1589995976.6124253,-0.05906698477585668,-3.4462679391034268,8.662141127008487,0.3855555555555555,0.4922222222222222,-0.6533333333333333,0.0991328675652281,-0.9433313451508958,11.098235912393893
1589995976.6224253,-0.05296525287498455,-3.421861011499938,8.512648695437122,0.3855555555555555,0.4922222222222222,-0.6533333333333333,0.7474418820328923,-0.9814671695313466,12.966891307035983
1589995976.6324253,6.30160045067509,-12.66860253781792,9.10502650486692,0.380688428773429,0.49266468829332466,-0.6533333333333333,3.277595768456438,-5.2061930884172805,50.98407630077021
1589995976.6424253,13.302399752055138,-22.83959325235769,10.70965878064259,0.37333333333333335,0.4933333333333334,-0.6533333333333333,11.435050991041516,-6.1652255486518,88.76358070014906
1589995976.6524253,1.6648065882491832,-5.723665008781381,13.396209542925455,0.37333333333333335,0.4933333333333334,-0.6533333333333333,32.984716523754,18.015278864176395,6.781998538896346
1589995976.6624253,-1.7576888825460253,0.16782703011274447,10.251824746681889,0.37333333333333335,0.4933333333333334,-0.6533333333333333,-1.6265377479663172,4.535544812330528,-21.373273155416012
1589995976.6724253,-2.184142322678194,-1.2265192781127028,10.758831682400604,0.37333333333333335,0.4933333333333334,-0.6533333333333333,-20.301436166088354,-0.5689950956636363,-15.596437813790295
1589995976.6824253,-2.1926435922974767,-2.1029390770252325,11.001582835325365,0.3859246347941567,0.4828405821159806,-0.6585797089420098,-14.788914653884461,0.5556523904382471,-9.16706611055777
1589995976.6924253,-1.275894754316069,-2.532302456839309,9.179689575033201,0.4091334661354581,0.46349988933156266,-0.6682500553342187,-1.842738421314742,-1.1850099601593622,-1.986833914342629
1589995976.7024252,-1.01521909641819,-2.7657114844558306,9.158037936640882,0.4133333333333333,0.46,-0.67,-0.7482306498497315,-1.6480951618465782,3.6072596935507706
1589995976.7124252,-0.8994971670690249,-2.955826082672316,9.53413420702567,0.4133333333333333,0.46,-0.67,-2.2722471301177514,-1.8289106764546483,8.850909617184806
1589995976.7224252,-0.8728856655290101,-2.5839624573378837,10.142397184300341,0.4133333333333333,0.46,-0.67,1.5477922354948808,2.6414382465870307,-25.83766531569966
1589995976.7324252,-1.8383196548821548,-3.0708007154882155,10.22212962962963,0.41410084642723527,0.45846497381219603,-0.668464973812196,9.29402751473064,10.875,-87.64950941708754
1589995976.7424252,-4.991301907968575,-7.900796857463525,8.064567901234568,0.41682504052874425,0.45301658560917824,-0.6630165856091782,6.566428170594837,10.875,-65.55289001122334
1589995976.7524252,-4.1898729540739215,-10.43499193155913,6.982087292845982,0.4188888888888889,0.4488888888888889,-0.6588888888888889,2.237613982736098,6.659474975026255,-25.635250441843194
1589995976.7624252,3.4387675533189554,-6.6762760603882105,8.910156961418643,0.4188888888888889,0.4488888888888889,-0.6588888888888889,-3.5807138150011983,-3.2572564701653484,24.54807542535346
1589995976.7724252,0.21207169095386103,-5.387457473862673,9.58740887256287,0.41829316863789884,0.4523440663446315,-0.6604377615414632,-2.0757518265853956,1.1092610907035887,-8.603983167157793
1589995976.7824252,-0.06559560812174547,-5.221534331732128,9.23185928228313,0.4164119538745139,0.4632551119722637,-0.6653289199262638,-1.5254965082953214,0.6648241028539136,-4.984996266096153
1589995976.7924252,-0.34326290719735203,-5.055611189601582,8.87630969200339,0.41453073911112903,0.47416615759989594,-0.6702200783110644,-0.9752411900052476,0.22038711500423847,-1.3660093650345129
1589995976.8024251,-0.31879369382222855,-4.8521158510486515,8.568429875873877,0.4133333333333333,0.4811111111111111,-0.6733333333333333,0.15671368954201748,0.005475103438436296,-0.2520643101726352
1589995976.8124251,-0.13805955274008136,-4.762039701826721,8.494029776370041,0.4133333333333333,0.4811111111111111,-0.6733333333333333,0.7503101705212571,0.025186102312754276,-1.0136786479807771
1589995976.8224251,-0.12088059416213853,-4.750587062774759,8.48544029708107,0.4133333333333333,0.4811111111111111,-0.6733333333333333,0.660836427927805,-0.02849814324331705,-0.6736784261256588
1589995976.832425,-0.10370163558419572,-4.739134423722797,8.476850817792098,0.4133333333333333,0.4811111111111111,-0.6733333333333333,0.5713626853343527,-0.08218238879938836,-0.3336782042705405
1589995976.842425,-0.087880467345716,-4.7215218693828644,8.503912522468545,0.4145108514746022,0.4796980893415885,-0.6707427934225417,0.2483054973037747,-0.13824707908927503,-0.036005841821449974
1589995976.852425,-0.07873203812316716,-4.70775146627566,8.613516495601173,0.4188888888888889,0.4744444444444445,-0.6611111111111111,-0.6161771444281525,-0.1954247617302053,0.0625
1589995976.862425,-0.07360703812316716,-4.77950146627566,8.546891495601173,0.4188888888888889,0.4744444444444445,-0.6611111111111111,-0.3278958944281525,-0.22745601173020527,0.0625
1589995976.872425,-0.07357769234092186,-4.806744999784008,8.530410384897836,0.4188888888888889,0.4744444444444445,-0.6611111111111111,0.04270432848071193,-0.23881971143461922,0.04013942286923841
1589995976.882425,-0.08565683182858871,-4.728230593114174,8.633083070543004,0.4188888888888889,0.4744444444444445,-0.6611111111111111,0.6089139919650958,-0.20107240053566028,-0.03535519892867943
1589995976.892425,-0.09724785494576656,-4.750734984620365,8.604769305488102,0.42452610940226293,0.4833029338226036,-0.680438724299822,0.08771450542334469,-0.05160271976687711,-0.0625
1589995976.902425,-0.0964730783760361,-4.759419235128108,8.56236539188018,0.4266666666666667,0.4866666666666667,-0.6877777777777778,-0.07728369925112775,0.022043260149774452,-0.04045673985022555
1589995976.912425,-0.09181284860336436,-4.745438545810093,8.53906424301682,0.4266666666666667,0.4866666666666667,-0.6877777777777778,0.06834848114486342,0.05116969622897269,-0.011330303771027311
1589995976.922425,-0.09289963792713284,-4.74,8.556096741344195,0.4266666666666667,0.4866666666666667,-0.6877777777777778,0.25185915931206154,0.026254525910839557,0.0
1589995976.932425,-0.09764539488572076,-4.74,8.598808553971486,0.4266666666666667,0.4866666666666667,-0.6877777777777778,0.45948602625028284,-0.03306743607150939,0.0
1589995976.942425,-0.1,-4.735789651943499,8.645262088339011,0.42105286925799745,0.47543907184932827,-0.6728076513546599,0.14146519434980975,-0.0625,0.0
1589995976.952425,-0.0954514534541603,-4.733032364363893,8.658773449452747,0.4133333333333333,0.46,-0.6522222222222223,-0.44697613863716606,-0.09092841591149817,0.018952277274332116
1589995976.962425,-0.08064281511121574,-4.7429047899258565,8.589666470519006,0.4133333333333333,0.46,-0.6522222222222223,-0.4778274685183006,-0.18348240555490172,0.08065493703660115
1589995976.972425,-0.07261086032926183,-4.734334838024429,8.558276022304831,0.4133333333333333,0.46,-0.6522222222222223,-0.2389139670738184,-0.23368212294211366,0.10868212294211366
1589995976.982425,-0.07873966302569319,-4.695041347897227,8.621343032768761,0.4124931086837954,0.4592998127920518,-0.6540427089628876,0.5078771060894176,-0.1875,0.0625
1589995976.992425,-0.07255693627559369,-4.7197722548976255,8.676987573519655,0.4083712908503958,0.455864964597552,-0.6629733142685869,0.5465191482775394,-0.1875,0.0625
1589995977.002425,-0.0780438432022325,-4.740725124269644,8.654418221854016,0.4066666666666667,0.4544444444444444,-0.6666666666666666,0.37816192661550535,-0.1875,0.0625
1589995977.012425,-0.09176026859684312,-4.7590136914624575,8.576691811284554,0.4066666666666667,0.4544444444444444,-0.6666666666666666,0.06382717798901194,-0.1875,0.0625
1589995977.022425,-0.08806740452213567,-4.758067404522135,8.581707913737413,0.4066666666666667,0.4544444444444444,-0.6666666666666666,0.049017017385521555,-0.1875,0.08735957391221737
1589995977.032425,-0.07,-4.734909576386278,8.666363029517152,0.407515070602287,0.4559998516597483,-0.6668080673226033,0.3045462131035594,-0.1795462131035594,0.1170462131035594
1589995977.042425,-0.07,-4.722036813958306,8.682453982552119,0.40966053100694894,0.459933195734962,-0.6671656440567137,0.28443252180985334,-0.15943252180985337,0.09693252180985337
1589995977.052425,-0.07,-4.709164051530334,8.698544935587083,0.4118059914116109,0.4638665398101756,-0.667523220790824,0.26431883051614735,-0.13931883051614735,0.07681883051614735
1589995977.062425,-0.07181760750868643,-4.70545282252606,8.677283064843644,0.4133333333333333,0.4666666666666667,-0.6677777777777778,0.13639953070709807,-0.125,0.0738600469292902
1589995977.072425,-0.07812643833762015,-4.724379315012861,8.563724109922838,0.4133333333333333,0.4666666666666667,-0.6677777777777778,-0.257902396101259,-0.125,0.11329023961012591
1589995977.0824249,-0.08,-4.722320393785893,8.543439310874689,0.41439994530751495,0.4666666666666667,-0.6632980074862148,-0.29100430703319313,-0.11300061529045616,0.11300061529045616
1589995977.0924249,-0.08,-4.711396741890537,8.56255570169156,0.41591711918186985,0.4666666666666667,-0.6569258772139244,-0.17152686442774734,-0.0959324092039639,0.0959324092039639
1589995977.1024249,-0.08,-4.7004730899951825,8.581672092508432,0.41743429305622476,0.4666666666666667,-0.6505537469416339,-0.052049421822301545,-0.07886420311747164,0.07886420311747164
1589995977.1124249,-0.07950112463233173,-4.691746063786839,8.599251686948497,0.4188888888888889,0.4666666666666667,-0.6444444444444445,0.0547050723801834,-0.06717695657188996,0.06405898552396332
1589995977.1224248,-0.06740613645538958,-4.734078522406136,8.581109204683084,0.4188888888888889,0.4666666666666667,-0.6444444444444445,-0.13427911788453775,-0.18056747073072266,0.10185582357690755
1589995977.1324248,-0.08467449694983156,-4.745195301830101,8.614414094509698,0.4128573451900412,0.4737948546743958,-0.6587008204599027,0.05843121187289452,-0.1883137576254211,0.125
1589995977.1424248,-0.10196333953888014,-4.72196333953888,8.66,0.4066666666666667,0.4811111111111111,-0.6733333333333333,0.31221359014750105,-0.125,0.08732815408850064
1589995977.1524248,-0.08861568571292186,-4.708615685712922,8.66,0.4066666666666667,0.4811111111111111,-0.6733333333333333,0.20793504463220203,-0.125,0.02476102677932121
1589995977.1624248,-0.07526803188696359,-4.695268031886964,8.66,0.4066666666666667,0.4811111111111111,-0.6733333333333333,0.10365649911690294,-0.125,-0.03780610052985822
1589995977.1724248,-0.06418949536560248,-4.710336766220392,8.633852729145211,0.4066666666666667,0.4811111111111111,-0.6733333333333333,-0.028289134912461378,-0.10684217301750773,-0.04434217301750772
1589995977.1824248,-0.05459045657397872,-4.743933401991074,8.590657054582904,0.4066666666666667,0.4811111111111111,-0.6733333333333333,-0.17827411603158255,-0.0768451767936835,-0.014345176793683488
1589995977.1924248,-0.05944306009514255,-4.7481961748810715,8.595968415261643,0.4095520461401825,0.47612727383867476,-0.6767433272565793,-0.028678279020096425,-0.04774521860133976,0.0
1589995977.2024248,-0.07754085628296818,-4.7255739296462895,8.645737354778163,0.41508192830868473,0.466575659183989,-0.6832786425466274,0.3954888191320669,-0.019467412057862205,0.0
1589995977.2124248,-0.09337543587756683,-4.713375435877567,8.663122820612166,0.4188888888888889,0.46,-0.6877777777777778,0.43434230918248745,0.021096474234792717,0.021096474234792717
1589995977.2224247,-0.09448515476942515,-4.7218382817435245,8.628161718256475,0.4188888888888889,0.46,-0.6877777777777778,-0.10845704358812382,0.02803221730890714,0.0625
1589995977.2324247,-0.08029092590921398,-4.726569691363595,8.623430308636404,0.4188888888888889,0.46,-0.6877777777777778,-0.2267422840898836,-0.060681713067412685,0.0625
1589995977.2424247,-0.07384594864954985,-4.7223081027009,8.639229743247748,0.41162431921751697,0.46811922492682745,-0.6800858804786781,-0.14423974658219407,-0.125,0.08653717905968655
1589995977.2524247,-0.07735643698084325,-4.704712873961687,8.648851495846746,0.4,0.4811111111111111,-0.6677777777777778,0.15804453773945928,-0.15804453773945928,0.15804453773945928
1589995977.2624247,-0.07263557166332756,-4.695271143326655,8.61108457330662,0.4,0.4811111111111111,-0.6677777777777778,0.21705535420840555,-0.21705535420840555,0.21705535420840555
1589995977.2724247,-0.07,-4.695711643249659,8.599995375686904,0.40190388108321967,0.47904857327095646,-0.6655565831806882,0.27677332773277635,-0.21430222968963153,0.22322667226722365
1589995977.2824247,-0.07,-4.708642147531003,8.622623758179254,0.4062140491770007,0.47437922450269365,-0.6605280537379437,0.33738506655157263,-0.13348657793123647,0.16261493344842737
1589995977.2924247,-0.07,-4.7215726518123455,8.645252140671605,0.41052421727078175,0.46970987573443085,-0.6554995242951991,0.39799680537036897,-0.052670926172841415,0.10200319462963106
1589995977.3024247,-0.07247782056284033,-4.720088717748639,8.642655256060118,0.4133333333333333,0.4666666666666667,-0.6522222222222223,0.45298637851775203,-0.03097275703550406,0.03152724296449594
1589995977.3124247,-0.07959271259181354,-4.691629149632746,8.592851011857306,0.4133333333333333,0.4666666666666667,-0.6522222222222223,0.4974544536988346,-0.11990890739766924,-0.05740890739766924
1589995977.3224247,-0.08,-4.69,8.607494653944283,0.4133333333333333,0.4666666666666667,-0.6522222222222223,0.3542112171309747,-0.125,-0.026052804282743668
1589995977.3324246,-0.08,-4.696452617277428,8.621290523455485,0.414050290808603,0.46767040713204433,-0.6549466606282472,0.17740805562893913,-0.13306577159678454,0.016131543193569083
1589995977.3424246,-0.08,-4.716239291240518,8.625247858248104,0.4162488101378353,0.47074833419296946,-0.6633010340793297,-0.04519202645582515,-0.15779911405064723,0.06559822810129448
1589995977.3524246,-0.08,-4.736025965203608,8.629205193040722,0.4184473294670676,0.4738262612538946,-0.6716554075304123,-0.26779210854058944,-0.18253245650450994,0.11506491300901989
1589995977.3624246,-0.08,-4.73462655701438,8.60850622805752,0.4188888888888889,0.4744444444444445,-0.6733333333333333,-0.010243832058865976,-0.1875,0.091415981339874
1589995977.3724246,-0.08603737886479003,-4.73,8.611130826026764,0.4188888888888889,0.4744444444444445,-0.6733333333333333,0.15566595523765575,-0.20636680895246884,0.0625
1589995977.3824246,-0.0990345659429629,-4.730965434057038,8.652276527543703,0.41770891393028803,0.47369355128897117,-0.6741914969395886,-0.05646603714351806,-0.2379320742870361,0.06853396285648194
1589995977.3924246,-0.09556946234427151,-4.7344305376557285,8.624555698754172,0.4134737873096652,0.4709984707122112,-0.6772715890273142,-0.0348091396516969,-0.19461827930339382,0.09019086034830309
1589995977.4024246,-0.09210435874558012,-4.73789564125442,8.59683486996464,0.40923866068904236,0.46830339013545125,-0.6803516811150399,-0.013152242159875746,-0.1513044843197515,0.11184775784012425
1589995977.4124246,-0.08133652430044183,-4.727004786450663,8.605990427098675,0.4066666666666667,0.4666666666666667,-0.6822222222222222,0.13536680780559648,-0.0979266384388807,0.04377991531664212
1589995977.4224246,-0.07,-4.71369083174948,8.628927504751562,0.40748685149988434,0.4676235489720873,-0.6804451550835838,0.2663646031315051,-0.07787846562283163,-0.0625
1589995977.4324245,-0.07,-4.721283012037288,8.606150963888135,0.40917400267495296,0.4695918920096674,-0.6767896608709352,0.17146234953389447,-0.10951255015536851,-0.0625
1589995977.4424245,-0.07,-4.728875192325098,8.58337442302471,0.4108611538500216,0.4715602350472475,-0.6731341666582865,0.07656009593628382,-0.1411466346879054,-0.0625
1589995977.4524245,-0.07,-4.736467372612906,8.560597882161282,0.4125483050250902,0.47352857808482757,-0.6694786724456377,-0.018342157661326797,-0.17278071922044225,-0.0625
1589995977.4624245,-0.07338707363302047,-4.73830646318349,8.570322441798123,0.4133333333333333,0.4744444444444445,-0.6677777777777778,-0.04133078979362215,-0.16633078979362215,-0.05191539489681107
1589995977.4724245,-0.07972158245674976,-4.735139208771625,8.608329494740499,0.4133333333333333,0.4744444444444445,-0.6677777777777778,-0.001740109645314028,-0.12674010964531401,-0.032120054822657014
1589995977.4824245,-0.08605609128047906,-4.731971954359761,8.646336547682875,0.4133333333333333,0.4744444444444445,-0.6677777777777778,0.03785057050299409,-0.08714942949700591,-0.012324714748502955
1589995977.4924245,-0.09,-4.731271170787727,8.67,0.41163843894969865,0.473455756053991,-0.6684839837709589,0.03866554773013821,-0.07044481742328726,-0.01588963484657453
1589995977.5024245,-0.09,-4.73463946419537,8.67,0.4071473810728406,0.4708359722924904,-0.6703552578863164,-0.024489953663178687,-0.09149665122105957,-0.05799330244211913
1589995977.5124245,-0.09,-4.738007757603014,8.67,0.40265632319598255,0.46821618853098984,-0.6722265320016739,-0.0876454550564956,-0.11254848501883187,-0.10009697003766374
1589995977.5224245,-0.08701324734181629,-4.725066236709082,8.667013247341817,0.4,0.4666666666666667,-0.6733333333333333,0.005670428795537724,-0.14366720411364825,-0.05033118354540701
1589995977.5324244,-0.07985141365811223,-4.690297172683776,8.660445759025663,0.4001981151225171,0.46688129138272677,-0.6733333333333333,0.30692801217920834,-0.1865713353632014,0.12407133536320139
1589995977.5424244,-0.07620260983036103,-4.697594780339278,8.671392170508916,0.405063186892852,0.47215178580058964,-0.6733333333333333,0.17009786863853849,-0.16376631143975642,0.10126631143975642
1589995977.5524244,-0.07255380600260984,-4.70489238799478,8.68233858199217,0.40992825866318683,0.47742228021845246,-0.6733333333333333,0.03326772509786863,-0.14096128751631143,0.07846128751631144
1589995977.5624244,-0.07,-4.724075088759051,8.644255961533085,0.4133333333333333,0.4811111111111111,-0.6733333333333333,-0.04050767381398339,-0.16898465237203322,0.0625
1589995977.5724244,-0.07133377415639265,-4.748666225843607,8.57467151572032,0.41244415056240485,0.47829536566983777,-0.6714067706629884,0.0,-0.23332782304509192,0.0625
1589995977.5824244,-0.07431594215263854,-4.745684057847361,8.607475363679024,0.4104560385649076,0.4719996776777631,-0.6670991946684109,0.0,-0.19605072309201826,0.0625
1589995977.5924244,-0.07729811014888444,-4.742701889851116,8.64027921163773,0.4084679265674104,0.46570398968568844,-0.6627916186738336,0.0,-0.1587736231389446,0.0625
1589995977.6024244,-0.08,-4.740248869920958,8.667511300790425,0.4066666666666667,0.46,-0.6588888888888889,0.0,-0.11877825197606,0.060944562994015
1589995977.6124244,-0.08,-4.742896853455895,8.641031465441047,0.4066666666666667,0.46,-0.6588888888888889,0.0,-0.05257866360261622,0.04439466590065405
1589995977.6224244,-0.08,-4.745544836990833,8.614551630091668,0.4066666666666667,0.46,-0.6588888888888889,0.0,0.013620924770827547,0.027844768807293113
1589995977.6324244,-0.08,-4.748192820525771,8.58807179474229,0.4066666666666667,0.46,-0.6588888888888889,0.0,0.07982051314427133,0.011294871713932168
1589995977.6424243,-0.08348337823346325,-4.743033243533073,8.576966756466927,0.4066666666666667,0.4580647898702982,-0.6639204352261135,0.02177111395914524,0.03791554416341904,0.0
1589995977.6524243,-0.08807395174699408,-4.7319260482530066,8.580369758734971,0.4066666666666667,0.4544444444444444,-0.6733333333333333,0.03842439683742605,-0.11296219841871302,0.0
1589995977.6624243,-0.08332975149588842,-4.736670248504112,8.556648757479442,0.4066666666666667,0.4544444444444444,-0.6733333333333333,-0.020878106301394653,-0.08331094684930268,0.0
1589995977.6724243,-0.08,-4.74,8.552497501499099,0.4066666666666667,0.4544444444444444,-0.6733333333333333,-0.0625,-0.08202734609234459,0.0
1589995977.6824243,-0.08,-4.74,8.594415350789525,0.4066666666666667,0.4544444444444444,-0.6733333333333333,-0.0625,-0.14752398560863483,0.0
1589995977.6924243,-0.08349440868951656,-4.726022365241934,8.633977634758066,0.41093761062052026,0.4657042057773311,-0.6733333333333333,0.003020162928435516,-0.1875,0.043680108618957
1589995977.7024243,-0.09,-4.7055671971866735,8.64469020773665,0.4188888888888889,0.4866666666666667,-0.6733333333333333,0.11630125439582352,-0.1788012543958235,0.10760250879164703
1589995977.7124243,-0.09,-4.72584200413298,8.588934488634305,0.4188888888888889,0.4866666666666667,-0.6733333333333333,0.08462186854221804,-0.14712186854221804,0.044243737084436074
1589995977.7224243,-0.08843491812200069,-4.738434918122001,8.564085736901994,0.4188888888888889,0.4866666666666667,-0.6733333333333333,0.10162704694998267,-0.125,0.0
1589995977.7324243,-0.08324729134715282,-4.733247291347153,8.610774377875625,0.4188888888888889,0.4866666666666667,-0.6733333333333333,0.23131771632117942,-0.125,0.0
1589995977.7424242,-0.07814187068424357,-4.728141870684244,8.64557438794727,0.4188888888888889,0.4829504080351538,-0.6706493687661296,0.25443345888261143,-0.14822661644695542,0.02322661644695543
1589995977.7524242,-0.07317402788141515,-4.723174027881415,8.660477916355754,0.4188888888888889,0.473014722429497,-0.6634735958287108,0.09918837129422356,-0.21032465148231058,0.08532465148231058
1589995977.7624242,-0.07364307707110555,-4.725464615606658,8.655427691715579,0.4188888888888889,0.4666666666666667,-0.6588888888888889,-0.034153847541614546,-0.2044615366111806,0.11361538415279515
1589995977.7724242,-0.08373231983065525,-4.740598479745983,8.615070720677378,0.4188888888888889,0.4666666666666667,-0.6588888888888889,-0.12874049841239296,-0.0783460021168094,0.08208650052920236
1589995977.7824242,-0.09,-4.743155695330001,8.603688609339997,0.42066333824777735,0.4666666666666667,-0.6654797007933316,-0.07342825550002872,0.0,0.0625
1589995977.7924242,-0.09,-4.725086162329829,8.639827675340342,0.4253480319885628,0.4666666666666667,-0.6828799918305347,0.2277306278361767,0.0,0.0625
1589995977.8024242,-0.06033030047127407,-4.7109909014138225,8.637687896701083,0.4266666666666667,0.4666666666666667,-0.6877777777777778,0.17924248821814814,-0.06456437794546296,0.004128755890925931
1589995977.8124242,-0.06604320466370645,-4.728129613991119,8.597697567354055,0.4266666666666667,0.4666666666666667,-0.6877777777777778,0.036419883407338816,-0.1002700291481653,0.07554005829633059
1589995977.8224242,-0.07,-4.7382465898736585,8.58402728101073,0.4266666666666667,0.4666666666666667,-0.6877777777777778,-0.029623560131101165,-0.10308237342073412,0.09212356013110116
1589995977.8324242,-0.07,-4.732542465082755,8.629660279337967,0.4266666666666667,0.4666666666666667,-0.6877777777777778,0.07732877969835852,-0.03178081353442766,-0.014828779698358524
1589995977.8424242,-0.08344514487305535,-4.726638713781736,8.666806431091318,0.41770323675129645,0.469281000391983,-0.6851634440524615,0.061975883407553056,-0.02100803886414898,-0.04149196113585102
1589995977.8524241,-0.10770227285871262,-4.720574431785321,8.69712784107339,0.4015318180941916,0.473997664166972,-0.6804467802774726,-0.05172940402521545,-0.058909801341738476,-0.0035901986582615245
1589995977.8624241,-0.11,-4.716560221044526,8.662162431489785,0.4,0.4744444444444445,-0.68,-0.08399861847171264,0.0019958554151379287,0.08599447388685057
1589995977.8724241,-0.11,-4.712760519998188,8.62036571998007,0.4,0.4744444444444445,-0.68,-0.107746750011324,0.07324025003397203,0.180987000045296
1589995977.882424,-0.10196427320490367,-4.7180357267950965,8.611428604786923,0.401785717065577,0.4705753908023611,-0.680595239021859,-0.108258902510216,0.05803561004086398,0.216517805020432
1589995977.892424,-0.08,-4.736369610184794,8.665159480246391,0.4066666666666667,0.46,-0.6822222222222222,-0.0398100636549604,-0.1174366878849868,0.1174366878849868
1589995977.902424,-0.08,-4.721989646069278,8.645986194759038,0.4066666666666667,0.46,-0.6822222222222222,0.05006471206701485,-0.08747842931099506,0.08747842931099506
1589995977.912424,-0.08182900915553923,-4.715487027466618,8.624512972533383,0.4066666666666667,0.46,-0.6822222222222222,0.1021373855557596,-0.0625,0.0625
1589995977.922424,-0.09087084180298777,-4.74,8.602612525408963,0.4066666666666667,0.46,-0.6822222222222222,-0.005442761268673571,-0.057057238731326426,0.057057238731326426
1589995977.932424,-0.0942541057658181,-4.74,8.612762317297454,0.4066666666666667,0.46,-0.6822222222222222,-0.02658816103636305,-0.03591183896363695,0.03591183896363695
1589995977.942424,-0.09763736972864841,-4.74,8.622912109185945,0.4066666666666667,0.46,-0.6822222222222222,-0.04773356080405253,-0.014766439195947473,0.014766439195947473
1589995977.952424,-0.09379470999803832,-4.735863139998692,8.61345255999477,0.4080456200004359,0.46137895333376927,-0.6817625711109657,-0.03664462499182633,-0.03878306251226051,-0.012927687504086837
1589995977.962424,-0.07322500490420454,-4.722150003269469,8.55860001307788,0.4126166655768434,0.4659499989101768,-0.6802388892521634,0.04906247956581443,-0.16734371934872164,-0.055781239782907215
1589995977.972424,-0.07,-4.720724339692088,8.620724339692089,0.4133333333333333,0.4666666666666667,-0.68,-0.06476356153777811,0.06023643846222188,0.11820931538666565
1589995977.982424,-0.07,-4.726047798550559,8.626047798550559,0.4133333333333333,0.4666666666666667,-0.68,-0.08139937047049715,0.043600629529502846,0.06830188858850855
1589995977.992424,-0.07,-4.731371257409029,8.631371257409029,0.4133333333333333,0.4666666666666667,-0.68,-0.09803517940321618,0.026964820596783817,0.018394461790351438
1589995978.002424,-0.07,-4.7366947162674995,8.636694716267499,0.4133333333333333,0.4666666666666667,-0.68,-0.11467098833593523,0.010329011664064781,-0.03151296500780568
1589995978.012424,-0.07614792762140427,-4.727704144757191,8.590816579028766,0.4092347149190638,0.4666666666666667,-0.6670210416881466,-0.009726357098669966,0.11527364290133003,-0.02407545236622332
1589995978.022424,-0.07611756564810432,-4.7238824343518955,8.583294606111375,0.4066666666666667,0.4666666666666667,-0.6588888888888889,0.0625,0.09043914120260772,-0.02426521469934807
1589995978.032424,-0.07102560367119497,-4.728974396328805,8.61384637797283,0.4066666666666667,0.4666666666666667,-0.6588888888888889,0.0625,-0.036859908220126,-0.0560899770550315
