time,acc_x,acc_y,acc_z,mag_x,mag_y,mag_z,gyr_x,gyr_y,gyr_z
1589996001.4982572,-3.9,-0.94,8.94,0.2977777777777777,-0.31777777777777777,-0.5866666666666667,-0.125,0.25,-0.0625
1589996001.5082572,-3.918020554283766,-0.9419794457162339,8.936143879986362,0.2977777777777777,-0.31777777777777777,-0.5866666666666667,0.04948614290584969,0.27538539282061275,-0.11262846427353758
1589996001.5182571,-3.9035023440317347,-0.9532488279841327,8.89299531193653,0.2977777777777777,-0.31777777777777777,-0.5866666666666667,0.25,0.10469482509917058,-0.0015844752975117254
1589996001.5282571,-3.89,-0.9642415386582402,8.949690770607683,0.2977777777777777,-0.31777777777777777,-0.5866666666666667,0.22349038338599791,0.11551923322800417,0.045471150157993745
1589996001.5382571,-3.8935690789473685,-0.97,8.986430921052632,0.3100712719298245,-0.3197605994152047,-0.5961842105263158,0.16519325657894737,0.1875,-0.08480674342105263
1589996001.548257,-3.894346457845433,-0.9586929156908665,8.957385831381734,0.3322222222222222,-0.3233333333333333,-0.6133333333333333,0.018996084601873534,0.1875,-0.125
1589996001.558257,-3.89,-0.95,8.887225840948862,0.3322222222222222,-0.3233333333333333,-0.6133333333333333,0.01079744312657982,0.1508512784367101,-0.05170255687342018
1589996001.568257,-3.9016520966761723,-0.95,8.873304193352345,0.3322222222222222,-0.3233333333333333,-0.6133333333333333,0.13532560422607637,0.05217439577392362,-0.03641280211303819
1589996001.578257,-3.9058299861495844,-0.9583400277008309,8.902510041551247,0.3322222222222222,-0.3233333333333333,-0.6133333333333333,0.21356258656509697,-0.05212517313019391,-0.0625
1589996001.588257,-3.9023722638207534,-0.9676277361792466,8.92,0.3258961853668799,-0.3220154089884703,-0.6101703149056621,0.27965329775941705,-0.19913324439854263,-0.07732664887970853
1589996001.598257,-3.896215100098752,-0.9554050333662507,8.901620133465004,0.3055555555555556,-0.31777777777777777,-0.6,0.4898741658437322,-0.5236556243827992,-0.125
1589996001.608257,-3.8907975765248453,-0.9392024234751548,8.874601211737577,0.3055555555555556,-0.31777777777777777,-0.6,0.4900302934394357,-0.591257573359859,-0.125
1589996001.618257,-3.8846432889963722,-0.9402378073357517,8.885356711003627,0.3055555555555556,-0.31777777777777777,-0.6,0.31101370415155183,-0.5944931479242241,-0.125
1589996001.628257,-3.8739896876401136,-0.95,8.923938125840682,0.3055555555555556,-0.31777777777777777,-0.6,0.20012890449858017,-0.7746132865042594,-0.050193356747870274
1589996001.638257,-3.8779708007974745,-0.9520291992025253,8.95594160159495,0.30668288844584746,-0.32003244355836147,-0.5986472005316498,0.09963500996843329,-0.9365875249210832,0.03713500996843329
1589996001.648257,-3.87,-0.9624413982179575,8.93877930089102,0.3111111111111111,-0.3288888888888889,-0.5933333333333334,-0.02288810829335161,-0.6417237834132967,-0.0548706305688828
1589996001.658257,-3.8730663035311794,-0.98,8.899336964688205,0.3111111111111111,-0.3288888888888889,-0.5933333333333334,-0.14917120586025545,-0.19751361758076635,0.0
1589996001.668257,-3.8819600046778153,-0.9701999766109227,8.845680037422524,0.3111111111111111,-0.3288888888888889,-0.5933333333333334,-0.025749912290960124,0.0625,-0.012250029236346625
1589996001.678257,-3.89,-0.933881858076734,8.913881858076733,0.3111111111111111,-0.3288888888888889,-0.5933333333333334,0.07647677404082524,-0.03454645191834951,-0.013976774040825243
1589996001.688257,-3.887360161984308,-0.94,8.927919514047076,0.3128710031215726,-0.3274223122135043,-0.5989063246997948,-0.01649898759807644,-0.17100101240192356,0.013003037205770687
1589996001.698257,-3.88,-0.94,8.954831109042003,0.31777777777777777,-0.3233333333333333,-0.6144444444444445,-0.0625,-0.1551944315125181,-0.06461113697496379
1589996001.708257,-3.885223120837298,-0.9504462416745956,8.907768791627023,0.31777777777777777,-0.3233333333333333,-0.6144444444444445,-0.0625,-0.12221098953377736,-0.03264450523311132
1589996001.718257,-3.8736846033286065,-0.96,8.864078849167848,0.31777777777777777,-0.3233333333333333,-0.6144444444444445,-0.037007192700947836,-0.18996403649526084,-0.0625
1589996001.728257,-3.85,-0.96,8.882866686273685,0.31777777777777777,-0.3233333333333333,-0.6144444444444445,0.026805596403512457,-0.375,-0.0625
1589996001.738257,-3.851195218076721,-0.958804781923279,8.93119521807672,0.3163169556840077,-0.3247941554271034,-0.6136476323932971,0.09511954808197583,-0.3376494351024698,-0.05502988702049395
1589996001.748257,-3.865836505848965,-0.9441634941510348,8.94,0.3055555555555556,-0.33555555555555555,-0.6077777777777778,-0.125,-0.0625,0.0
1589996001.758257,-3.88,-0.9342563604660379,8.905949116271696,0.3055555555555556,-0.33555555555555555,-0.6077777777777778,-0.125,-0.03589774708726322,-0.026602252912736785
1589996001.768257,-3.873019396551724,-0.9504709051724137,8.870470905172414,0.3055555555555556,-0.33555555555555555,-0.6077777777777778,-0.05955684267241379,0.08725754310344827,-0.10612877155172414
1589996001.778257,-3.86,-0.97,8.91081403289692,0.3055555555555556,-0.33555555555555555,-0.6077777777777778,0.04081871573237596,0.31504385280287217,-0.10077486292950381
1589996001.788257,-3.862275865774697,-0.97,8.95,0.30833716928018534,-0.3370727994053536,-0.6077777777777778,0.014224161091856747,0.4375,0.0625
1589996001.7982569,-3.87,-0.97,8.95302466871475,0.31777777777777777,-0.3422222222222222,-0.6077777777777778,0.043595820532807555,0.5320208973359623,0.043595820532807555
1589996001.8082569,-3.874323005611125,-0.963515491583313,8.94054647474994,0.31777777777777777,-0.3422222222222222,-0.6077777777777778,0.027018785069529153,0.7364906074652354,0.013509392534764577
1589996001.8182569,-3.89,-0.9398601735776277,8.870069913211186,0.31777777777777777,-0.3422222222222222,-0.6077777777777778,0.125,0.6848782545805208,0.06118912729026037
1589996001.8282568,-3.89,-0.9261154296667021,8.889173144500054,0.31777777777777777,-0.3422222222222222,-0.6077777777777778,0.06766784687466723,0.29338928229155575,-0.06766784687466723
1589996001.8382568,-3.889107137215254,-0.940892862784746,8.911785725569493,0.31837301963427517,-0.34103173850922736,-0.6082738126581922,-0.07366078480932672,0.23883921519067328,0.0625
1589996001.8482568,-3.8846193393900976,-0.9523096696950489,8.925380660609902,0.3244444444444444,-0.3288888888888889,-0.6133333333333333,-0.21637087118811182,0.08169369321783224,0.0625
1589996001.8582568,-3.899389041481794,-0.9596945207408972,8.910610958518205,0.3244444444444444,-0.3288888888888889,-0.6133333333333333,-0.30868150926121557,-0.05677226389182338,0.0625
1589996001.8682568,-3.8752693156286058,-0.9726346578143028,8.873173289071513,0.3244444444444444,-0.3288888888888889,-0.6133333333333333,0.09543322267878468,0.125,-0.029566777321215314
1589996001.8782568,-3.887336848412223,-0.9786684242061114,8.916657878969444,0.3244444444444444,-0.3288888888888889,-0.6133333333333333,0.1875,0.14996704613541043,0.037532953864589574
1589996001.8882568,-3.873684747925973,-0.9663152520740268,8.96122824930866,0.3236256115720059,-0.3288888888888889,-0.6115591954430499,0.17982344182088916,0.3125,-0.11732344182088918
1589996001.8982568,-3.8997091253188514,-0.94,8.968836501275407,0.31777777777777777,-0.3288888888888889,-0.5988888888888889,0.125,0.3070460997284621,-0.060682033242820704
1589996001.9082568,-3.8857510481087716,-0.9442489518912283,8.887510481087716,0.31777777777777777,-0.3288888888888889,-0.5988888888888889,0.125,0.125,-0.05311189864035393
1589996001.9182568,-3.8840900509045717,-0.95,8.846360203618287,0.31777777777777777,-0.3288888888888889,-0.5988888888888889,0.07387436369285186,-0.0028140907678703697,-0.09943718184642593
1589996001.9282568,-3.892911064887626,-0.9529110648876261,8.881644259550503,0.31777777777777777,-0.3288888888888889,-0.5988888888888889,0.03638831109532748,-0.1875,-0.11708246664299123
1589996001.9382567,-3.899992595335061,-0.9599925953350611,8.910029618659756,0.31775803200460734,-0.32890863466205933,-0.5988897116294377,0.1249074416882636,-0.1873148833765272,-0.2498611625323954
1589996001.9482567,-3.8925514699991988,-0.95,8.9474485300008,0.2911111111111111,-0.3555555555555556,-0.6,-0.01594668749499319,0.03060662501001362,-0.046553312505006814
1589996001.9582567,-3.892967060472567,-0.9429670604725671,8.901318832599118,0.2911111111111111,-0.3555555555555556,-0.6,-0.10645587204645575,-0.08447793602322787,0.0
1589996001.9682567,-3.876988358993616,-0.9330116410063838,8.848069846038303,0.2911111111111111,-0.3555555555555556,-0.6,-0.24396826886969583,-0.16264551257979723,0.01882275628989861
1589996001.9782567,-3.8676218529707955,-0.9364327794561933,8.89,0.2911111111111111,-0.3555555555555556,-0.6,-0.41215854733131924,-0.15338777693856998,0.0625
1589996001.9882567,-3.859333763336827,-0.9193337633368271,8.897467010669462,0.29733362000232916,-0.35182205022082474,-0.5987554982217563,-0.7808376333682712,0.7025064500524066,0.05083279582896611
1589996001.9982567,-3.9,-0.96,8.927929335011612,0.3244444444444444,-0.33555555555555555,-0.5933333333333334,-1.2780915932419736,1.3901499370645487,0.012941656177424788
1589996002.0082567,-3.9,-0.96,8.920493555764356,0.3244444444444444,-0.33555555555555555,-0.5933333333333334,-1.6034069353094473,1.6689916588366693,0.0594152764727782
1589996002.0182567,-3.914886834023234,-0.9350377219922553,8.882405695019362,0.3244444444444444,-0.33555555555555555,-0.5933333333333334,-1.9060142375484044,1.5314857624515956,0.4205783065162238
1589996002.0282567,-3.95689144077981,-0.9210361864067299,8.917409533983175,0.3244444444444444,-0.33555555555555555,-0.5933333333333334,-1.9935238349579383,1.4439761650420617,0.9018810922686608
1589996002.0382566,-3.9497761394378705,-0.9403357908431943,8.989552278875742,0.32429520406969137,-0.335480935368179,-0.5933333333333334,-1.5583026144600707,1.056203921690106,2.9535899779030625
1589996002.0482566,-3.932452553538608,-0.9663211696920885,8.954905107077215,0.31274614680351626,-0.32970640673509144,-0.5933333333333334,-1.2334853788488942,0.5689780682733412,4.198722714412573
1589996002.0582566,-3.92164604956577,-0.9134158017369202,8.92189345477653,0.3111111111111111,-0.3288888888888889,-0.5933333333333334,-0.9786512391442491,0.05221219021393773,5.568922103367931
1589996002.0682566,-3.93073969041711,-0.870384024577573,8.841095356256647,0.3111111111111111,-0.3288888888888889,-0.5933333333333334,-1.2013691953208083,-0.050853716176296825,7.520360687699397
1589996002.0782566,-3.9333994393105596,-0.7345986917246392,8.999801682068322,0.3111111111111111,-0.3288888888888889,-0.5933333333333334,-1.2099859827639912,-0.990025698266016,12.897602793064063
1589996002.0882566,-3.8351953223767383,-0.7229434260429836,9.09354962073325,0.3111111111111111,-0.32734969799129093,-0.5973352296670881,-0.31331384323640965,-2.157737436788875,17.732950774336285
1589996002.0982566,-3.4541218925421013,-0.8755942261427426,9.108769847634322,0.3111111111111111,-0.31777777777777777,-0.6222222222222222,2.0456094627105053,-2.9813352044907777,19.80008019246191
1589996002.1082566,-3.641457103734832,-0.6775877048019264,8.865326502667736,0.3111111111111111,-0.31777777777777777,-0.6222222222222222,2.2236236366211815,-3.6482394116813825,15.539900963218283
1589996002.1182566,-3.5159798615481437,-0.8918721208307111,8.786095909376966,0.3111111111111111,-0.31777777777777777,-0.6222222222222222,0.7697750157331655,-2.523223725613594,11.298349590937697
1589996002.1282566,-3.194375817171497,-1.1918051318370015,8.54,0.3111111111111111,-0.31777777777777777,-0.6222222222222222,-0.030828645946829436,2.2968954292874266,9.63367223251253
1589996002.1382565,-3.348611625626498,-1.1118310089344083,8.54,0.3111111111111111,-0.31777777777777777,-0.6222222222222222,-2.4229117863368925,6.152790640662454,8.062751961211593
1589996002.1482565,-3.36337900217881,-1.1359451973854278,9.22066656818937,0.30593100024209,-0.32813799951581996,-0.6015017787461379,-4.773629934635696,4.598858894346172,4.640240130728609
1589996002.1582565,-2.987829510517352,-1.0589692773882462,9.00422529915286,0.3055555555555556,-0.3288888888888889,-0.6,0.4040098095596204,3.5934299727942314,4.231954059852691
1589996002.1682565,-2.285189673617566,-1.0530379347235133,8.83562023185254,0.3055555555555556,-0.3288888888888889,-0.6,1.9262658061347973,3.7900316122695945,3.2444612760658726
1589996002.1782565,-1.7334919938967712,-0.9426983987793542,8.776772479348988,0.3055555555555556,-0.3288888888888889,-0.6,1.8802909994913977,3.6980819989827953,1.1755949771128922
1589996002.1882565,-1.7420915662650602,-0.9273638554216868,8.720501204819277,0.30378277554663097,-0.3282070504239179,-0.6,0.6372088353413654,-0.43096385542168675,-1.3343775100401607
1589996002.1982565,-1.8936927710843372,-0.9778975903614457,8.998436746987952,0.29161724676483713,-0.3235280008924587,-0.6,-0.9946096887550202,0.042789909638554224,-1.913409889558233
1589996002.2082565,-2.0441818023811593,-0.9654424263491788,8.987587903015555,0.2911111111111111,-0.3233333333333333,-0.6,0.07992417658816373,0.42090901190579644,-2.6084090119057963
1589996002.2182565,-2.1535317632745286,-0.9508624315633961,8.819917962979057,0.2911111111111111,-0.3233333333333333,-0.6,0.535549013643869,0.9676588163726427,-3.1551588163726425
1589996002.2282565,-2.176596907216495,-0.9278010309278351,8.890994845360826,0.2911111111111111,-0.3233333333333333,-0.6,0.3825257731958763,0.6112564432989691,-4.4898582474226805
1589996002.2382565,-2.1982170103092784,-0.9205943298969073,8.927028350515464,0.2911111111111111,-0.3233333333333333,-0.6,0.20235824742268044,0.5662145618556701,-5.480779639175258
1589996002.2482564,-2.302535180443394,-0.9425351804433939,8.989718556452848,0.3055555555555556,-0.33555555555555555,-0.6077777777777778,0.31337951108484885,0.6575692666272733,-7.161087310966669
1589996002.2582564,-2.315812003857853,-0.9519373346192843,8.910626653807157,0.3055555555555556,-0.33555555555555555,-0.6077777777777778,0.512108341370527,1.010150048223162,-8.465991851522121
1589996002.2682564,-2.335918991545234,-0.962040504227383,8.821837983090468,0.3055555555555556,-0.33555555555555555,-0.6077777777777778,0.5752531514211434,1.2614873943154261,-10.033100845476591
1589996002.2782564,-2.3259066754467908,-0.969156189221887,8.79590667544679,0.3055555555555556,-0.33555555555555555,-0.6077777777777778,0.6197261826367938,1.0625,-11.835952694528247
1589996002.2882564,-2.370869232300648,-0.9627329668141932,8.840869232300648,0.3055555555555556,-0.33555555555555555,-0.6077777777777778,0.5795810425887074,1.0625,-13.441758296451706
1589996002.2982564,-2.3985974739546165,-0.9685974739546168,8.9115848437277,0.31033192997478715,-0.3412872048586334,-0.6201963512677798,0.45503157556728985,1.0625,-16.274368488654204
1589996002.3082564,-2.4346826401804442,-0.96,8.937512959518815,0.3111111111111111,-0.3422222222222222,-0.6222222222222222,0.6015220015036999,1.4042665011277748,-19.876497516916622
1589996002.3182564,-2.4595785683194173,-0.96,8.871123817814885,0.3111111111111111,-0.3422222222222222,-0.6222222222222222,0.8089880693284792,1.5598660519963594,-22.210490779945392
1589996002.3282564,-2.4525913215344533,-0.9748173569310933,8.91445207079328,0.3111111111111111,-0.3422222222222222,-0.6222222222222222,0.9514127212290001,1.7940212020483335,-24.287386578025334
1589996002.3382564,-2.4231554818571985,-0.9889481727142672,8.9031554818572,0.3111111111111111,-0.3422222222222222,-0.6222222222222222,1.0,2.0427782383925086,-28.020008291065157
1589996002.3482563,-2.4120440671695476,-0.99,8.923867798491356,0.3111111111111111,-0.32719434909803435,-0.6151502819284868,0.9005508396193451,2.2613983207613098,-30.662330688755063
1589996002.3582563,-2.455407034698818,-1.0284690115662727,8.884690115662726,0.3111111111111111,-0.3233333333333333,-0.6133333333333333,1.1728433885539786,2.5861180993971615,-34.68507124096138
1589996002.3682563,-2.435497697821237,-1.0218325659404124,8.818325659404124,0.3111111111111111,-0.3233333333333333,-0.6133333333333333,1.3802323143621145,2.959418165851806,-36.84191606936599
1589996002.3782563,-2.505312797535704,-1.0317709325119016,8.833541865023802,0.3111111111111111,-0.3233333333333333,-0.6133333333333333,1.255534164099692,2.976239148697844,-40.66277653318398
1589996002.3882563,-2.552294595351442,-1.047431531783814,8.864863063567627,0.3111111111111111,-0.3233333333333333,-0.6133333333333333,1.304473536824419,3.3188147577709324,-43.207623914869785
1589996002.3982563,-2.574885479396441,-1.08,8.9,0.3377777777777778,-0.31777777777777777,-0.6077777777777778,1.709287671696326,3.5,-47.25890410379593
1589996002.4082563,-2.596170579876852,-1.08,8.9,0.3377777777777778,-0.31777777777777777,-0.6077777777777778,1.5319118343595641,3.5,-49.47610207050545
1589996002.4182563,-2.6,-1.095892942055567,8.84707153046668,0.3377777777777778,-0.31777777777777777,-0.6077777777777778,1.8272323551389171,3.8419647102778343,-53.7397382990286
1589996002.4282563,-2.6004450109575563,-1.1417800438302248,8.900890021915114,0.3377777777777778,-0.31777777777777777,-0.6077777777777778,1.9375,4.065281318484726,-57.07934724272105
1589996002.4382563,-2.6066979739702134,-1.1667918958808532,8.913395947940426,0.3377777777777778,-0.31777777777777777,-0.6077777777777778,1.9375,4.104362337313833,-59.0724792030055
1589996002.4482563,-2.61,-1.1879166500019998,8.912083349998001,0.3430555444457776,-0.31250001110977793,-0.6192129388917774,1.9869790625124986,4.174479062512498,-62.895827500699916
1589996002.4582562,-2.60282449500144,-1.2084734850043197,8.882468013329493,0.34444444444444444,-0.3111111111111111,-0.6222222222222222,2.181615635413667,4.824268729172666,-67.30010259390299
1589996002.4682562,-2.6287077796519522,-1.2861233389558564,8.813445920928128,0.34444444444444444,-0.3111111111111111,-0.6222222222222222,2.1276921257251,4.9321157485498,-70.05020158801992
1589996002.4782562,-2.64958849951741,-1.3016460019303586,8.84,0.34444444444444444,-0.3111111111111111,-0.6222222222222222,2.320215634048556,5.262859390080926,-73.43080638874453
1589996002.4882562,-2.6418034004009208,-1.3327863983963175,8.84,0.34444444444444444,-0.3111111111111111,-0.6222222222222222,2.4661862424827383,5.5061437374712305,-75.66902238473531
1589996002.4982562,-2.6786652479250908,-1.4340042562247286,8.881991487550543,0.37666666666666665,-0.3033333333333333,-0.6433333333333333,2.7041844009363696,5.712526601404554,-79.47537241966376
1589996002.5082562,-2.67,-1.4611482580846742,8.829234494610217,0.37666666666666665,-0.3033333333333333,-0.6433333333333333,2.8101077956569287,5.876196102171535,-81.80621680206218
1589996002.5182562,-2.67,-1.5004636775503828,8.803024214966412,0.37666666666666665,-0.3033333333333333,-0.6433333333333333,2.728200671770036,5.917149664114982,-83.73103421340416
1589996002.5282562,-2.67,-1.535635582231114,8.836906746693343,0.37666666666666665,-0.3033333333333333,-0.6433333333333333,2.785222388944463,6.084083583416694,-86.73967016783372
1589996002.5382562,-2.67,-1.5967863143157157,8.88154795239762,0.37666666666666665,-0.3033333333333333,-0.6433333333333333,2.8519349404970247,6.2433048214910745,-88.85046267938397
1589996002.5482562,-2.67,-1.638895713371721,8.908895713371722,0.41323793275040877,-0.2796114310087439,-0.656182697092486,3.0417946257197697,6.646089251439539,-92.14072296865004
1589996002.5582561,-2.654531876424809,-1.6632021853627859,8.871329691062023,0.4177777777777778,-0.2766666666666667,-0.6577777777777778,3.207513658517412,6.735837886172471,-94.27433967455389
1589996002.5682561,-2.6476440034111173,-1.7217799829444143,8.783141328785177,0.4177777777777778,-0.2766666666666667,-0.6577777777777778,3.25,7.12009167377316,-97.71105802775409
1589996002.5782561,-2.6232566478021555,-1.843716760989224,8.81565780293046,0.4177777777777778,-0.2766666666666667,-0.6577777777777778,3.25,7.069284682921157,-99.89575863439026
1589996002.5882561,-2.636888331242158,-1.868444165621079,8.82,0.4177777777777778,-0.2766666666666667,-0.6577777777777778,3.3555520702634882,7.484708281053952,-102.56242158092849
1589996002.598256,-2.616184995833427,-1.9176300083331457,8.82,0.45835148858008706,-0.26167203441363934,-0.6630700009259051,3.52384377604108,7.810572960068467,-105.2822712326299
1589996002.608256,-2.619678838149777,-2.026788381497771,8.810321161850224,0.4688888888888889,-0.2577777777777778,-0.6644444444444444,3.502007261563893,7.814507261563893,-108.47618775275261
1589996002.618256,-2.648542005420054,-2.0619439927732612,8.770485998193315,0.4688888888888889,-0.2577777777777778,-0.6644444444444444,3.6371499548328816,7.9375,-111.44918699186992
1589996002.628256,-2.620125338753388,-2.09983288166215,8.779958220415537,0.4688888888888889,-0.2577777777777778,-0.6644444444444444,3.8739555103884373,7.9375,-114.11324949186992
1589996002.638256,-2.62,-2.1440048896663644,8.84160684553291,0.4688888888888889,-0.2577777777777778,-0.6644444444444444,3.7649877758340886,8.157524448331824,-116.49026281956709
1589996002.648256,-2.586472302059136,-2.2321166187645183,8.875061222882792,0.4933333333333334,-0.19333333333333333,-0.6877777777777778,3.8257288672782392,8.526457734556478,-119.62711376432144
1589996002.658256,-2.5451881963856846,-2.256887082168589,8.817263474939958,0.4933333333333334,-0.19333333333333333,-0.6877777777777778,3.9805442635536834,8.836088527107366,-121.84613444426945
1589996002.668256,-2.5098567409565233,-2.291575849478242,8.701289331391289,0.4933333333333334,-0.19333333333333333,-0.6877777777777778,3.996418523913087,9.060709261956543,-124.59741939184741
1589996002.678256,-2.501488058420958,-2.3836313573694605,8.776607474211376,0.4933333333333334,-0.19333333333333333,-0.6877777777777778,3.787201460523953,8.956100730261976,-126.63728575989145
1589996002.688256,-2.506101811876283,-2.4549163068865454,8.808305435628847,0.4933333333333334,-0.19333333333333333,-0.6877777777777778,3.788136324226768,9.090045296907071,-128.44918032061716
1589996002.698256,-2.5182379711224194,-2.5064759422448386,8.82,0.5153012563264519,-0.15672012834480253,-0.6923544284013442,4.018449278060485,9.496423917090729,-131.0225942244839
1589996002.708256,-2.4931810337158615,-2.5368189662841383,8.813295258428965,0.52,-0.14888888888888888,-0.6933333333333334,4.272023174094832,9.855832443732764,-132.59023440975002
1589996002.718256,-2.4151858001265025,-2.6518508855154965,8.717408285895004,0.52,-0.14888888888888888,-0.6933333333333334,4.201390536053131,9.82639053605313,-134.9235946394687
1589996002.728256,-2.41,-2.7193032764138905,8.754477457310417,0.52,-0.14888888888888888,-0.6933333333333334,4.002177261206594,9.8125,-136.35975917155383
1589996002.738256,-2.3677620328126414,-2.7315524065625283,8.753104813125056,0.52,-0.14888888888888888,-0.6933333333333334,4.148689835936792,10.129284753905187,-138.29082885155754
1589996002.748256,-2.2935649819494586,-2.752145006016847,8.757381668672283,0.530662410304408,-0.10049794981503765,-0.7203994517983687,3.8645519955876453,10.602718862815884,-139.8542920176494
1589996002.758256,-2.1215325233268443,-2.8,8.767580720950527,0.5344444444444445,-0.08333333333333333,-0.73,3.128780123514802,10.492439752970396,-141.83316271732565
1589996002.768256,-1.9901409679801303,-2.8,8.730040276565752,0.5344444444444445,-0.08333333333333333,-0.73,3.1874370678660133,10.375125864267973,-143.12361549305228
1589996002.778256,-1.99,-2.848884584869557,8.73,0.5344444444444445,-0.08333333333333333,-0.73,3.676345848695571,10.741634386521678,-144.22490315956503
1589996002.788256,-2.032786604589014,-3.0211464183560555,8.738557320917803,0.5344444444444445,-0.08333333333333333,-0.73,4.061882790153872,11.070899534417604,-145.05224883604401
1589996002.798256,-2.058313507798044,-3.1125297383029342,8.789881046788263,0.5422222222222223,-0.024444444444444446,-0.7655555555555555,5.021081152524451,11.442770288131113,-145.9645948982289
1589996002.808256,-2.039304509099339,-3.1400869363625827,8.679304509099339,0.5422222222222223,-0.024444444444444446,-0.7655555555555555,5.239132954677176,11.504346818129129,-146.94456357945984
1589996002.818256,-1.9615152428422395,-3.14981059464472,8.60151524284224,0.5422222222222223,-0.024444444444444446,-0.7655555555555555,4.023675669409991,11.990529732236004,-147.7346108148835
1589996002.828256,-1.8802381645041795,-3.2297618354958204,8.703690386144567,0.5422222222222223,-0.024444444444444446,-0.7655555555555555,3.252232792226683,11.401786233781346,-148.34821376621866
1589996002.838256,-1.8496414892742665,-3.2551792553628665,8.7610755321772,0.5422222222222223,-0.024444444444444446,-0.7655555555555555,3.1919813840716693,11.670814498232925,-148.75896276814333
1589996002.8482559,-1.8198876091028657,-3.3052528795185525,8.729662827308596,0.5589825479698343,-0.018298991670320036,-0.7622034904060331,3.6267561077677253,12.156776832330317,-149.0
1589996002.8582559,-1.7530657565415244,-3.390229351535836,8.67,0.5755555555555556,-0.012222222222222223,-0.7588888888888888,3.560349829351536,12.082377701934016,-149.0
1589996002.8682559,-1.6815576488851256,-3.42937694044595,8.5924922382162,0.5755555555555556,-0.012222222222222223,-0.7588888888888888,2.76947061106407,12.181658816680779,-148.63668236663844
1589996002.8782558,-1.6541268766048614,-3.4429365616975693,8.635277965941492,0.5755555555555556,-0.012222222222222223,-0.7588888888888888,2.669146489390192,12.308780265914711,-147.6547578726823
1589996002.8882558,-1.6198866797156692,-3.463408880189554,8.619773359431338,0.5755555555555556,-0.012222222222222223,-0.7588888888888888,2.666902750592356,12.291194498815289,-145.95172298341404
1589996002.8982558,-1.573045812864161,-3.519272249514452,8.643113218325146,0.6063507115020882,0.0035175241504500025,-0.7540985312972059,2.4180423854678397,12.096024220267337,-144.0277119273392
1589996002.9082558,-1.5326622600939714,-3.6020132197180854,8.661331130046985,0.6255555555555555,0.013333333333333334,-0.7511111111111111,2.0332782511746434,11.241473879111252,-141.34536513498446
1589996002.9182558,-1.5094400156241679,-3.657973296876942,8.653146671874723,0.6255555555555555,0.013333333333333334,-0.7511111111111111,1.9571666992170162,10.653833691387177,-139.1778347655487
1589996002.9282558,-1.4445322340547349,-3.6707553723424557,8.677733882972632,0.6255555555555555,0.013333333333333334,-0.7511111111111111,2.5730681514561624,10.264163231421046,-135.30799601129814
1589996002.9382558,-1.40002800560112,-3.677994398879776,8.703983196639328,0.6255555555555555,0.013333333333333334,-0.7511111111111111,2.9247899579915986,9.850280056011202,-132.21449539907982
1589996002.9482558,-1.3723277317903713,-3.724180670524072,8.718836134104816,0.583338470388109,-0.022011203085924164,-0.7511111111111111,3.0,9.418644971069462,-128.2969013870048
1589996002.9582558,-1.3353794463683692,-3.73,8.68537944636837,0.5777777777777777,-0.02666666666666667,-0.7511111111111111,2.783621539802307,8.888148464555192,-124.30475540673807
1589996002.9682558,-1.252864854752933,-3.681790534220583,8.554655388973517,0.5777777777777777,-0.02666666666666667,-0.7511111111111111,2.5692145033271867,8.691976335551457,-119.53167174430102
1589996002.9782557,-1.2584803358466135,-3.7902443660059735,8.719606716932267,0.5777777777777777,-0.02666666666666667,-0.7511111111111111,2.3504916038346666,8.210481108628,-115.3998425719
1589996002.9882557,-1.2236720878568135,-3.788203252714088,8.611953933855892,0.5777777777777777,-0.02666666666666667,-0.7511111111111111,2.9028285723267806,8.215819780357966,-110.82765933478643
1589996002.9982557,-1.2161256677690155,-3.8228796743831084,8.65801068430425,0.5451075496763617,0.026422453998134487,-0.685090025156166,2.7421457644365304,7.637433223098448,-106.23559526837954
1589996003.0082557,-1.2025628557219428,-3.836922141791457,8.680766425374372,0.5244444444444445,0.06,-0.6433333333333333,2.5272455379344643,7.168263386196607,-101.90688373763608
1589996003.0182557,-1.1667701718159504,-3.837639770912066,8.621180114543968,0.5244444444444445,0.06,-0.6433333333333333,2.672748568200413,6.952251431799587,-96.50465578369112
1589996003.0282557,-1.1255818069197416,-3.8681393976934197,8.63441819308026,0.5244444444444445,0.06,-0.6433333333333333,2.405530115329027,6.303787644161284,-88.97246003303542
1589996003.0382557,-0.8831176600930645,-3.4199235541768225,9.350647019720807,0.5244444444444445,0.06,-0.6433333333333333,2.657953412364281,5.940747562596942,-83.69335807666741
1589996003.0482557,-0.5796942143974054,-3.019303488349646,7.56870890523349,0.4988888888888889,0.16666666666666666,-0.6077777777777778,14.05474918437868,-1.9962838555240245,-77.927731848806
1589996003.0582557,-0.4339491515607807,-2.687328622999556,6.953340862145518,0.4988888888888889,0.16666666666666666,-0.6077777777777778,10.36051668886701,-0.2250764946622652,-73.27198678596939
1589996003.0682557,-0.7431912897945672,-3.391056038842808,7.934247328637376,0.4988888888888889,0.16666666666666666,-0.6077777777777778,-0.7069823257866954,5.7347730031449435,-68.48931799790337
1589996003.0782557,-0.8989498747896055,-3.8489498747896054,8.620844862268566,0.4988888888888889,0.16666666666666666,-0.6077777777777778,-9.82690945851636,11.892691099798842,-61.277117800402316
1589996003.0882556,-0.8578829175801387,-3.6972975054808317,8.238754320475598,0.4988888888888889,0.16666666666666666,-0.6077777777777778,2.128358861172009,4.420057622800261,-57.14640116726906
1589996003.0982556,-0.8780875478113047,-3.8278878028049297,8.718563535911603,0.48120413656325256,0.24988903055201395,-0.5994555413892431,1.4716319592010203,3.961644708882278,-51.26421058223544
1589996003.1082556,-0.8930702485415952,-3.9641673611451544,8.746929751458405,0.48,0.25555555555555554,-0.5988888888888889,0.30810946615030155,2.8179751458404825,-48.32345029168096
1589996003.1182556,-0.8670299272683916,-3.9723023727196853,8.591634672707762,0.48,0.25555555555555554,-0.5988888888888889,1.8325980684392513,2.7431888637176582,-42.86775664719208
1589996003.1282556,-0.9126364274023849,-4.056500116904372,8.735454758007949,0.48,0.25555555555555554,-0.5988888888888889,1.1534077624503156,2.7653407762450315,-38.10709755669862
1589996003.1382556,-0.8896762597359668,-4.107904675330042,8.782742805198025,0.48,0.25555555555555554,-0.5988888888888889,1.7107126624382785,2.2761915583744807,-34.29322175278392
1589996003.1482556,-0.8936867360796741,-4.202120416478045,9.02267451335446,0.49900935566621396,0.2776064081283638,-0.5950870177556461,2.023042100497963,1.8683736985061112,-30.127713331824356
1589996003.1582556,-0.8399206008583691,-4.067271727467811,8.581775482832619,0.5077777777777778,0.2877777777777778,-0.5933333333333334,1.9686259388412017,1.4683778165236052,-25.30803379828326
1589996003.1682556,-0.8556495732093348,-4.138338463553605,8.70658632960028,0.5077777777777778,0.2877777777777778,-0.5933333333333334,1.9375,1.3304380334883315,-21.15728627720654
1589996003.1782556,-0.8459628708325682,-4.1515405933321095,8.719429205829814,0.5077777777777778,0.2877777777777778,-0.5933333333333334,1.9074535885407102,1.1021751197849714,-17.864297609309006
1589996003.1882555,-0.7407109680722671,-3.9395285813553746,8.766506967048239,0.5077777777777778,0.2877777777777778,-0.5933333333333334,1.5776661302710018,0.7758887100903339,-13.84099678162601
1589996003.1982555,-0.6783754015603487,-3.771732773880548,8.46960335671671,0.5031448093999723,0.3146489943690495,-0.6109386131689941,1.3334835770012456,0.46863731724906577,-7.528658296728512
1589996003.2082555,-0.818925533154644,-4.126638892126015,8.875702132618576,0.5022222222222222,0.32,-0.6144444444444445,0.7482786582760362,-0.054923911354543,-4.484677873596706
1589996003.2182555,-0.87,-4.236035840157108,8.85952972944539,0.5022222222222222,0.32,-0.6144444444444445,0.3801792007855377,-0.1601344005891533,-1.4955912135505254
1589996003.2282555,-0.861196261682243,-4.196794392523365,8.611196261682242,0.5022222222222222,0.32,-0.6144444444444445,0.5251168224299065,-0.33761682242990654,2.7308411214953274
1589996003.2382555,-0.8362592277361866,-4.18,8.63664205937017,0.5022222222222222,0.32,-0.6144444444444445,0.5887339111705546,-0.9451394799465008,7.139356186274339
1589996003.2482555,-0.8413836352777224,-4.18,8.675723272944456,0.5055485654876457,0.32522711084566547,-0.6177707877098679,0.38364772048576545,-1.2232704559028469,11.165879454509257
1589996003.2582555,-0.8750960276530065,-4.19528808295902,8.726056304183071,0.51,0.3322222222222222,-0.6222222222222222,0.21214809885580138,-1.3786010369877446,15.6327612340339
1589996003.2682555,-0.8567333383651596,-4.1460166805041885,8.605500037738697,0.51,0.3322222222222222,-0.6222222222222222,0.09312495282662842,-1.7079166352177522,19.951666163484035
1589996003.2782555,-0.8612277000687916,-4.170759000229305,8.678125200642054,0.51,0.3322222222222222,-0.6222222222222222,-0.14801937628984174,-1.989397500573263,24.54380875945884
1589996003.2882555,-0.8457735958669627,-4.181830196900222,8.723660393800444,0.51,0.3322222222222222,-0.6222222222222222,-0.3503537564578708,-2.289622538747225,28.09693290038799
1589996003.2982554,-0.8350842310590947,-4.154747306822715,8.654241920468147,0.5342913261712304,0.3412608552161684,-0.6222222222222222,-0.3114471117613158,-2.469276444119342,31.75402175599592
1589996003.3082554,-0.903413538658967,-4.161137846219655,8.750918974797704,0.5577777777777778,0.35,-0.6222222222222222,-0.9545948739885217,-2.720185898121413,36.27858205895983
1589996003.3182554,-0.9154164139006846,-4.206458965248288,8.671455932056503,0.5577777777777778,0.35,-0.6222222222222222,-1.158852586879279,-3.1315159459225237,39.77348015425947
1589996003.3282554,-0.9175165300860331,-4.227516530086033,8.665099180516197,0.5577777777777778,0.35,-0.6222222222222222,-1.0780216869622936,-3.3909349391131194,42.8485023997345
1589996003.3382554,-0.9075780828256343,-4.211367124238452,8.661367124238451,0.5577777777777778,0.35,-0.6222222222222222,-1.256592455849464,-3.5539554735096783,44.84351020860646
1589996003.3482554,-0.9222041439766238,-4.207401381325541,8.657401381325542,0.6745551275807617,0.3541118785141896,-0.6164655923023569,-1.560034533138531,-3.625,46.82772446540045
1589996003.3582554,-0.9614297558728696,-4.154997927222478,8.604997927222477,0.7155555555555555,0.3555555555555556,-0.6144444444444445,-1.1830190580377706,-3.821435974205435,48.281288864578535
1589996003.3682554,-1.0001009821552083,-4.162575736616406,8.635151473232813,0.7155555555555555,0.3555555555555556,-0.6144444444444445,-1.2506311384700513,-3.922032784617513,49.03282784617513
1589996003.3782554,-0.9959171517530797,-4.120710031135779,8.62887572762962,0.7155555555555555,0.3555555555555556,-0.6144444444444445,-1.5765534046297551,-4.069526702314877,49.363535603086504
1589996003.3882554,-0.9944302046837544,-4.082279181264982,8.62,0.7155555555555555,0.3555555555555556,-0.6144444444444445,-1.6044336621796054,-4.014244882906141,49.4375
1589996003.3982553,-1.0067934652993085,-4.0577355115668965,8.622264488433103,0.8501668124122214,0.3638586798102659,-0.6715598749238149,-1.471693894586215,-3.8608469472931075,49.29596947293108
1589996003.4082553,-1.0430871623719342,-4.054362387457311,8.664899099658491,1.31,0.3922222222222223,-0.8666666666666667,-1.4567947648245887,-3.6489104703508226,48.567115705526234
1589996003.4182553,-1.0700143739559458,-4.105064682801756,8.679956878132163,1.31,0.3922222222222223,-0.8666666666666667,-1.6563847558369915,-3.5313847558369917,47.937050813876695
1589996003.4282553,-1.0902003892073846,-4.15,8.609198443170463,1.31,0.3922222222222223,-0.8666666666666667,-1.7181237837269236,-3.5612475674538473,47.43374270236154
1589996003.4382553,-1.107381329113924,-4.142618670886076,8.599525316455697,1.31,0.3922222222222223,-0.8666666666666667,-1.6644333465189873,-3.5230666534810124,47.25
1589996003.4482553,-1.115816091954023,-4.134183908045977,8.658367816091955,1.228646232439336,0.19650830140485318,-0.8517905491698595,-1.5204022988505748,-3.640948275862069,47.40689655172414
1589996003.4582553,-1.1154466329260824,-4.145446632926082,8.691786531704329,1.1155555555555556,-0.07555555555555556,-0.8311111111111111,-1.136709809483898,-3.7159585442119853,48.10158038103221
1589996003.4682553,-1.2047795894377082,-4.095498835361473,8.685777260160656,1.1155555555555556,-0.07555555555555556,-0.8311111111111111,-1.2781322789907916,-3.8388921239959073,49.33265668197749
1589996003.4782553,-1.234322052166415,-4.0856779478335845,8.753453330459152,1.1155555555555556,-0.07555555555555556,-0.8311111111111111,-1.5802435869799525,-4.057865380469929,50.75767945677948
1589996003.4882553,-1.1749316819030766,-4.021130443330384,8.60282610832596,1.1155555555555556,-0.07555555555555556,-0.8311111111111111,-1.2729037648677872,-3.9137422589206725,52.20065983485697
1589996003.4982553,-1.215504113258083,-4.029212103819909,8.619884254830687,0.8443000375542943,0.08593935335756649,-0.7486158762550574,-0.960674941011415,-4.143250589885849,53.291425530897264
1589996003.5082552,-1.2663138382071149,-4.044744647171541,8.581095559443472,0.6844444444444444,0.1811111111111111,-0.7,-2.002960197450637,-4.375,53.65784595517787
1589996003.5182552,-1.3025926224659892,-4.0886667204387805,8.64992606334355,0.6844444444444444,0.1811111111111111,-0.7,-1.4435174356078937,-4.293518443835027,53.546296109587566
1589996003.5282552,-1.32,-4.033978136339777,8.643978136339777,0.6844444444444444,0.1811111111111111,-0.7,-1.6396333044252231,-4.167286669557478,52.81715002168108
1589996003.5382552,-1.3509761425450808,-3.986127982181865,8.63872017818135,0.6844444444444444,0.1811111111111111,-0.7,-1.8204988863665568,-4.125,51.846596993189706
1589996003.5482552,-1.3988829399922902,-3.980139632500964,8.698603674990363,0.6844444444444444,0.1811111111111111,-0.7,-1.4462270313102326,-4.125,50.83606298453763
1589996003.5582552,-1.4347149566686972,-3.9376579480024367,8.654745809342268,0.59,0.22666666666666666,-0.6877777777777778,-1.5073189124923851,-3.8271378249847703,48.723901733252106
1589996003.5682552,-1.4724025172262716,-3.9679874138686424,8.771559724379655,0.59,0.22666666666666666,-0.6877777777777778,-1.4500786633209861,-3.6075471979925915,46.831996554745686
1589996003.5782552,-1.496173417967714,-3.9340433544919287,8.698520253903142,0.59,0.22666666666666666,-0.6877777777777778,-1.2831645508071503,-3.5983742065526814,44.882893585232594
1589996003.5882552,-1.5152644865174987,-3.9376322432587494,8.743954675846242,0.59,0.22666666666666666,-0.6877777777777778,-0.9094771944922547,-3.4045969592656338,43.88003800917958
1589996003.5982552,-1.5344158649126252,-3.899886118201453,8.690113881798547,0.5938239849902917,0.23288064227589064,-0.7030737177389446,-1.3830134498331044,-3.365563027685058,42.284189083055175
1589996003.6082551,-1.5427178034966758,-3.8546739719280967,8.639457522777642,0.5988888888888889,0.2411111111111111,-0.7233333333333334,-1.2622260526963802,-3.2207876754493965,41.25068486825905
1589996003.6182551,-1.598959054698661,-3.788840649894671,8.587799704593332,0.5988888888888889,0.2411111111111111,-0.7233333333333334,-0.8467562773917043,-3.2152503692583356,40.53450295406668
1589996003.6282551,-1.6455694695989649,-3.8499373868046574,8.732152652005174,0.5988888888888889,0.2411111111111111,-0.7233333333333334,-1.1002813712807245,-3.263845407503234,39.62539133247089
1589996003.6382551,-1.5941339835044477,-3.8072782338711213,8.681907083944457,0.5988888888888889,0.2411111111111111,-0.7233333333333334,-1.1141747938055961,-3.0883373969027983,39.37963937408332
1589996003.648255,-1.5491188122107926,-3.7544059389460367,8.657930690102866,0.577731023743208,0.18972772432874302,-0.7191017603041971,-0.8235148473650921,-3.113025982888911,39.52849628815873
1589996003.658255,-1.4877741570177263,-3.7216612355265895,8.674717696272157,0.56,0.14666666666666667,-0.7155555555555555,-0.7334928008504934,-3.067691361020592,39.6632057593196
1589996003.668255,-1.484593810665753,-3.7537814319972593,8.67689071599863,0.56,0.14666666666666667,-0.7155555555555555,-0.5481443416695215,-2.822216512504282,39.212010391686654
1589996003.678255,-1.4383265364674058,-3.7074898047011087,8.71541836588315,0.56,0.14666666666666667,-0.7155555555555555,-0.5642431911797856,-2.75,38.07196011025268
1589996003.688255,-2.1898560255954496,0.10533771773906864,2.1678523183180136,0.56,0.14666666666666667,-0.7155555555555555,-7.47985278807577,8.298750063480778,33.49460730790717
1589996003.698255,-0.00013817174834818147,0.5146747627426662,-1.2468713762367676,0.5360163844578418,0.18530693615125496,-0.6509330359002958,-9.966237704445149,-59.51990726050711,-285.61003079297313
1589996003.708255,-0.29299118329466367,-2.262772621809745,0.17968816705336432,0.52,0.2111111111111111,-0.6077777777777778,-6.3125,-113.375,-495.75
1589996003.718255,-0.7046494847542266,-1.9628695063374173,-0.4461380900992404,0.52,0.2111111111111111,-0.6077777777777778,-14.567488467805074,-71.70865734569077,-488.6692124780465
1589996003.728255,-0.1097569751992914,-1.634145814880425,-0.22255895704162976,0.52,0.2111111111111111,-0.6077777777777778,-21.820898956488044,-24.538642119685562,-459.5217542487821
1589996003.738255,-0.17697668924240037,-1.59381398645456,-0.1353953378484801,0.52,0.2111111111111111,-0.6077777777777778,-23.713951015908016,-11.673260552842967,-434.5639716884549
1589996003.748255,-0.5576090242612047,-3.8553750661325674,3.656966404655732,0.505976116695639,0.25668873185028424,-0.6202434518260986,10.682217661174512,38.49768654107777,-409.2542596459073
1589996003.758255,-0.7158540945570727,-5.667384656346279,9.552070670571679,0.48,0.3411111111111111,-0.6433333333333333,89.18622579970332,141.86608535240197,-367.22731638203186
1589996003.768255,1.6957853799191929,1.0719941975330616,7.360098606339997,0.48,0.3411111111111111,-0.6433333333333333,90.51181852161686,164.03797857003008,-333.2282374116726
1589996003.778255,1.3977278691055028,0.9997993362661108,6.422965192560007,0.48,0.3411111111111111,-0.6433333333333333,33.31448734274909,113.14426564791233,-304.9948821100563
1589996003.788255,-0.2290115695742143,-1.1623524800902991,9.556888442967328,0.48,0.3411111111111111,-0.6433333333333333,9.783098897911833,19.877328024079766,-271.21687170784475
1589996003.798255,2.73219607506334,-1.1814686305664104,18.479878902391892,0.46033714566544043,0.3609252181713211,-0.6434845860589837,11.992120066990166,-31.702264138789882,-252.80559432301283
1589996003.808255,0.3760031043849438,-2.304725132583107,8.163244513430776,0.33555555555555555,0.4866666666666667,-0.6444444444444445,5.808010498857414,-31.11636592937524,-227.70697247014186
1589996003.818255,0.05868256308950781,-1.922028880665535,6.66266325366573,0.33555555555555555,0.4866666666666667,-0.6444444444444445,20.98641697504243,23.936653125956425,-204.93521848306946
1589996003.828255,0.7351580864095348,-1.768818628262429,9.230132980190918,0.33555555555555555,0.4866666666666667,-0.6444444444444445,6.973328091375599,56.005304033548526,-183.47228659714176
1589996003.838255,0.6704295503927795,-2.403401303693799,11.751422363362861,0.33555555555555555,0.4866666666666667,-0.6444444444444445,-19.91562552231322,33.24890314223634,-169.91098215778038
1589996003.848255,0.6221008807395589,-2.904201761479118,10.506069453854055,0.3099553923746943,0.5052474302656789,-0.6419670092979095,-4.04155101951614,-3.517390781738313,-156.45955946631116
1589996003.858255,0.3554905505341002,-1.9244502875924403,6.4483204601479045,0.26666666666666666,0.5366666666666666,-0.6377777777777778,13.025287592440428,17.52887222678718,-139.24676458504518
1589996003.868255,0.7837978021978022,-2.4199805337519624,8.271393406593408,0.26666666666666666,0.5366666666666666,-0.6377777777777778,2.561813186813186,14.664293563579278,-126.29354395604396
1589996003.878255,0.6850584872704176,-2.63493251468798,8.894347641983803,0.26666666666666666,0.5366666666666666,-0.6377777777777778,-5.970577727200551,2.3064263219181704,-116.19374239136188
1589996003.888255,0.6582480903354367,-2.662189887080704,9.175365949850548,0.26666666666666666,0.5366666666666666,-0.6377777777777778,3.263898258468947,7.837365856443042,-104.20005682289937
1589996003.8982549,0.7507552870090635,-2.6776737160120847,8.862567975830816,0.24260490097348103,0.5509533400469956,-0.6355219872440416,8.227719033232628,6.373111782477341,-94.73281722054381
1589996003.9082549,0.7770171470266326,-2.6839387085005475,8.782007296607077,0.1955555555555556,0.5788888888888889,-0.6311111111111111,1.505077982488143,6.62261036118205,-83.08131840569135
1589996003.9182549,0.7753449569366504,-2.660424931728836,8.673814782582602,0.1955555555555556,0.5788888888888889,-0.6311111111111111,0.7929995798697598,6.2956253938721005,-71.6425010503256
1589996003.9282548,1.0333743960627795,-3.069495993758065,9.976548780121838,0.1955555555555556,0.5788888888888889,-0.6311111111111111,3.3103599615880923,3.9356000360111634,-65.34910009602977
1589996003.9382548,0.34958083832335324,-2.1154491017964068,7.727365269461078,0.1955555555555556,0.5788888888888889,-0.6311111111111111,-14.702095808383234,-10.601796407185628,-24.002245508982035
1589996003.9482548,-1.188107051203715,-0.09448787556083182,6.621694453658281,0.1955555555555556,0.5788888888888889,-0.6311111111111111,-37.675885110245986,5.736137419039473,44.186890068259984
1589996003.9582548,-0.989158602100219,-1.0632091046927354,11.614999906407352,0.14333333333333334,0.5966666666666667,-0.6311111111111111,28.24098468824289,1.0866129756846306,80.46041148007413
1589996003.9682548,-2.11216,-2.038582857142857,13.339485714285715,0.14333333333333334,0.5966666666666667,-0.6311111111111111,42.14621428571429,11.678214285714287,84.33907142857143
1589996003.9782548,0.2073867950736178,-2.42754551347347,10.764387072877119,0.14333333333333334,0.5966666666666667,-0.6311111111111111,-17.840916983053987,-14.885369015649598,79.87869362903973
1589996003.9882548,1.3124798065827792,-2.595226660805539,12.245719270289577,0.14333333333333334,0.5966666666666667,-0.6311111111111111,-31.450488351008296,-12.165247747128962,82.08250109896149
1589996003.9982548,0.6165787362980126,-2.6085375634970145,9.68729435879155,0.15249353890027628,0.6019514006475952,-0.6399190010793254,4.183110908118706,-4.489266776579628,86.85982198556279
1589996004.0082548,0.5528207798971421,-3.1147011913286895,9.108975001627499,0.17222222222222222,0.6133333333333333,-0.6588888888888889,4.8162310396458565,-4.375537074409218,93.02136905149405
1589996004.0182548,4.0653692512547375,-8.42252176585066,9.066586704906278,0.17222222222222222,0.6133333333333333,-0.6588888888888889,-12.991191232203215,-11.312200399467377,103.12931475980744
1589996004.0282547,4.6750461850606015,-9.917911794543222,8.30373164611031,0.17222222222222222,0.6133333333333333,-0.6588888888888889,-5.810444364354744,-9.610136686422127,124.41876902130386
1589996004.0382547,0.2997442143727163,-3.84010353227771,9.118034916768169,0.17222222222222222,0.6133333333333333,-0.6588888888888889,1.6432704019488429,-7.671900375558263,147.95971630125862
1589996004.0482547,-0.08376261920293226,-2.7598925232193334,8.831076631565868,0.17796895115225186,0.6062604361886814,-0.6619832813896741,-4.88442169105085,-11.698931056440841,156.30376751157084
1589996004.0582547,0.19191983022871964,-2.763404857344966,8.974483376562132,0.18666666666666668,0.5955555555555555,-0.6666666666666666,-6.699605045979721,-13.07319323272813,161.64222176373497
1589996004.0682547,0.0,-2.829279277930787,8.436212878697162,0.18666666666666668,0.5955555555555555,-0.6666666666666666,-2.6356564707819423,-11.805492979882649,165.59282196742905
1589996004.0782547,0.0,-2.9987890671775834,8.54294126451922,0.18666666666666668,0.5955555555555555,-0.6666666666666666,-5.029197476350138,-13.453504819782061,168.26103161298047
1589996004.0882547,0.643015037458903,-6.466658162806993,8.55512567147554,0.18666666666666668,0.5955555555555555,-0.6666666666666666,-8.097361707479205,-13.019315589012056,178.910492759742
1589996004.0982547,0.4320227807621135,-5.750791577585742,8.796259679129014,0.18666666666666668,0.5955555555555555,-0.6666666666666666,-7.5322038770413755,-14.479306650976447,194.54652606852196
1589996004.1082547,-0.10356853020739405,-3.1584701871055003,8.642588198827774,0.26666666666666666,0.5755555555555556,-0.68,-5.037250267696122,-15.699754142245267,215.22867236812445
1589996004.1182547,-0.11392657217093728,-3.3770550708717972,8.66,0.26666666666666666,0.5755555555555556,-0.68,-7.024541076068358,-16.147047096474367,217.6947825788462
1589996004.1282547,-0.08690125920562317,-3.4494362714797875,8.617746851985942,0.26666666666666666,0.5755555555555556,-0.68,-6.890843826713526,-16.267605478339192,218.57658217508785
1589996004.1382546,-0.14482505452646455,-3.6249055386600313,8.511950665069271,0.26666666666666666,0.5755555555555556,-0.68,-7.345094922126993,-16.346636638712255,219.5304081037078
1589996004.1482546,2.8822135447021795,-10.175194855655283,8.243144888681664,0.288756783359884,0.5633599702978419,-0.679079578471116,-9.933425127248707,-18.171200508994833,226.7222554104985
1589996004.1582546,15.074260467073426,-26.908740584893753,6.952088786029876,0.37333333333333335,0.5166666666666667,-0.6755555555555556,-11.64104775930991,-21.554476120345043,216.1941089837997
1589996004.1682546,-2.197088892498318,-1.5963111121423765,9.188950274961133,0.37333333333333335,0.5166666666666667,-0.6755555555555556,-6.672480103023414,2.00062504350651,-53.62512906930877
1589996004.1782546,-4.187297357317344,-2.7094892294026205,11.751321341328003,0.37333333333333335,0.5166666666666667,-0.6755555555555556,30.524927825893847,21.506509549189428,-75.88245336442372
1589996004.1882546,-3.0820404534340966,-2.873371860413425,8.345203378528563,0.37333333333333335,0.5166666666666667,-0.6755555555555556,26.519782173816402,11.477828406312513,-29.716256390308956
1589996004.1982546,-0.7794946632662699,-2.9410015427725824,9.000017316835113,0.39352245416286225,0.49605693915318927,-0.6721907020839674,-11.750718255092723,-5.28784318818677,2.913008485249205
1589996004.2082546,-0.8298935762440531,-4.765152984149173,10.71319744763365,0.4266666666666667,0.4622222222222222,-0.6666666666666666,-15.828992018218303,-6.122755123897996,25.2046275732227
1589996004.2182546,-0.75,-4.88,9.36,0.4266666666666667,0.4622222222222222,-0.6666666666666666,-4.75,-4.4375,38.0625
1589996004.2282546,-0.5926676860923902,-3.3408795378603386,7.731952577825603,0.4266666666666667,0.4622222222222222,-0.6666666666666666,6.622390081365275,-1.0172323063563082,54.437031583319175
1589996004.2382545,5.927205240174672,-12.074184433598766,7.886493706652967,0.4266666666666667,0.4622222222222222,-0.6666666666666666,-5.69987798612895,-5.681206652966863,62.57812098638582
1589996004.2482545,0.4370818861482313,-7.038473538588333,9.079592825886463,0.4266666666666667,0.4622222222222222,-0.6666666666666666,-11.088593483251898,-5.747100724083122,9.434554119817115
1589996004.2582545,-1.2072256994958894,-3.490290963223602,9.23010217545759,0.44,0.4833333333333333,-0.6755555555555556,11.220013448590858,5.05739122712048,-7.590862570626247
1589996004.2682545,1.07,-5.41,9.37,0.44,0.4833333333333333,-0.6755555555555556,-1.3125,-1.9375,10.625
1589996004.2782545,0.0021720748335272155,-5.646389388013953,8.929826656801607,0.44,0.4833333333333333,-0.6755555555555556,-4.776827238135503,-2.1922299439805517,3.28877761336011
1589996004.2882545,-0.2162644186196934,-4.4657497682240574,8.655939069877752,0.44,0.4833333333333333,-0.6755555555555556,1.2614796468381444,0.6180494167870467,-0.4518633707768265
1589996004.2982545,-0.09798895448486003,-4.490557988954485,8.74100552275757,0.43921792674411225,0.48227194820034275,-0.6761700416851817,-0.2154351552085317,0.015711293087031043,-0.17807322414778137
1589996004.3082545,-0.0660384688630737,-4.658298038468864,8.756980765568462,0.4267927378911954,0.46540919189995555,-0.6859326900696164,0.3337138164159208,0.26532446200723675,-0.028305322795657978
1589996004.3182545,-0.11,-4.719278677863004,8.592641404770559,0.4244444444444445,0.4622222222222222,-0.6877777777777778,-0.1059938024828325,0.012000516459763959,-0.024001032919527918
1589996004.3282545,-0.11,-4.590912029686872,8.729030968457698,0.4244444444444445,0.4622222222222222,-0.6877777777777778,0.4957248608427858,0.06214373840356549,-0.12428747680713098
1589996004.3382545,-0.09512366671819446,-4.613303833668264,8.685123666718194,0.4244444444444445,0.4622222222222222,-0.6877777777777778,-0.18595416602256917,0.0625,-0.1554770830112846
1589996004.3482544,-0.11,-4.703755959205841,8.692715285740148,0.4244444444444445,0.4610659183714521,-0.6884715600882398,-0.026016836642326957,0.0625,-0.06900420916058174
1589996004.3582544,-0.10431528145157548,-4.647157640725788,8.664108311290548,0.4244444444444445,0.4511111111111111,-0.6944444444444444,-0.16117627268086687,0.009205763608520122,-0.125
1589996004.3682544,-0.09,-4.648508870596656,8.701783066618948,0.4244444444444445,0.4511111111111111,-0.6944444444444444,-0.02613406871516949,-0.1427268137430339,-0.10727318625696611
1589996004.3782544,-0.09305571409755455,-4.67,8.589167142292663,0.4244444444444445,0.4511111111111111,-0.6944444444444444,-0.13541072134170434,-0.14930357378056813,-0.10069642621943188
1589996004.3882544,-0.1,-4.67,8.608533445244259,0.4244444444444445,0.4511111111111111,-0.6944444444444444,0.1341659672233761,-0.053334032776623894,-0.15083613110649557
1589996004.3982544,-0.1,-4.67,8.60256664864711,0.4244444444444445,0.4511111111111111,-0.6944444444444444,0.1714584459555581,-0.016041554044441915,-0.0016662161777676598
1589996004.4082544,-0.1,-4.660576430233017,8.665964988368884,0.43072682428910003,0.47414650387484836,-0.6682678617583794,0.42308924417458504,0.3533838662618775,-0.11419193313093876
1589996004.4182544,-0.11521887010645897,-4.661952824733853,8.635656610319376,0.4311111111111111,0.4755555555555556,-0.6666666666666666,-0.125,0.08017690724805279,-0.11005896908268425
1589996004.4282544,-0.10095302880854393,-4.69761742797864,8.592859086425632,0.4311111111111111,0.4755555555555556,-0.6666666666666666,-0.125,-0.053565354919900665,-0.06547821502669976
1589996004.4382544,-0.1,-4.665399456341577,8.54674932042697,0.4311111111111111,0.4755555555555556,-0.6666666666666666,-0.125,-0.1706266989325731,-0.0625
1589996004.4482543,-0.1,-4.669269510333946,8.632695103339456,0.4311111111111111,0.4755555555555556,-0.6666666666666666,-0.00913112082568096,0.16010663752295717,-0.00456556041284048
1589996004.4582543,-0.12217756108622939,-4.655214959275847,8.647392520362077,0.4212544172950092,0.4706272086475046,-0.6715950135747176,-0.09240650452595575,0.1412967477370221,-0.046203252262977876
1589996004.4682543,-0.10015886190788713,-4.67,8.717458209473806,0.4177777777777778,0.4688888888888889,-0.6733333333333333,-0.31051422615141105,0.0625,0.05753556537852758
1589996004.4782543,-0.10825502837509168,-4.67,8.587919545998533,0.4177777777777778,0.4688888888888889,-0.6733333333333333,-0.2093121453113539,0.0625,-0.19546963672161527
1589996004.4882543,-0.11843333467563323,-4.703733338702533,8.587833326621833,0.4177777777777778,0.4688888888888889,-0.6733333333333333,0.0625,-0.009791658277292312,-0.10541668344541538
1589996004.4982543,-0.11,-4.6699444657219455,8.630166602834164,0.41779011872845656,0.4688662638126445,-0.6733374469835596,0.0627313928252266,-0.0625,0.0
1589996004.5082543,-0.1118366960473764,-4.6381633039526236,8.708979823715742,0.4244444444444445,0.4566666666666666,-0.6755555555555556,0.17602064970389752,-0.039541299407795064,-0.011479350296102466
1589996004.5182543,-0.11905729238396914,-4.630942707616031,8.665656245696185,0.4244444444444445,0.4566666666666666,-0.6755555555555556,0.1308919226001928,0.05071615479961439,-0.056608077399807194
1589996004.5282543,-0.12736893161074123,-4.672631068389259,8.567368931610742,0.4244444444444445,0.4566666666666666,-0.6755555555555556,0.0,0.0,-0.016444177432867413
1589996004.5382543,-0.12,-4.68,8.566803407427127,0.4244444444444445,0.4566666666666666,-0.6755555555555556,0.0,0.007086882736589911,-0.04832623452682018
1589996004.5482543,-0.12,-4.68,8.600299747105018,0.4244444444444445,0.4566666666666666,-0.6755555555555556,0.0,0.04197890323439372,0.021457806468787435
1589996004.5582542,-0.1055963646975445,-4.665596364697545,8.670412723558593,0.4244444444444445,0.4478644450929438,-0.6691539398655754,0.0,0.01748863967982657,0.10751136032017343
1589996004.5682542,-0.12,-4.662888255528256,8.654114594594594,0.4244444444444445,0.4444444444444444,-0.6666666666666666,-0.08957739557739558,-0.0888968058968059,-0.009025798525798526
1589996004.5782542,-0.12,-4.6793769041769036,8.563427027027027,0.4244444444444445,0.4444444444444444,-0.6666666666666666,-0.24415847665847665,0.11721130221130222,-0.060552825552825554
1589996004.5882542,-0.11268638324091189,-4.68,8.574627233518177,0.4244444444444445,0.4444444444444444,-0.6666666666666666,-0.11286968576709797,-0.10355052372150339,-0.016789895255699322
1589996004.5982542,-0.11003033009564214,-4.679969669904358,8.640060660191285,0.42440737432754855,0.44451858467823635,-0.6667071067941895,0.06306868929329017,0.18787912619552677,0.12443131070670983
1589996004.6082542,-0.11783484053440511,-4.672165159465595,8.65566968106881,0.41486852823572706,0.4635962768618792,-0.6771131207125402,0.20940326002009602,0.285435506680064,-0.021903260020096016
1589996004.6182542,-0.11,-4.66,8.663096862210095,0.4122222222222222,0.4688888888888889,-0.68,0.1796555252387449,0.01961118690313779,-0.17573328785811732
1589996004.6282542,-0.11,-4.66,8.58538931837704,0.4122222222222222,0.4688888888888889,-0.68,0.09135149815572735,0.24037125461068162,-0.043277247233591026
1589996004.6382542,-0.11,-4.661091248474406,8.611636872711609,0.4122222222222222,0.4688888888888889,-0.68,-0.0625,0.17385939406992607,-0.0625
1589996004.6482542,-0.11,-4.676147246751381,8.634220870127074,0.4122222222222222,0.4688888888888889,-0.68,-0.0625,-0.014340584392275119,-0.0625
1589996004.6582541,-0.11,-4.67,8.658802150177632,0.4244444444444445,0.4622222222222222,-0.6888888888888889,-0.0625,0.0625,-0.003743280694901698
1589996004.6682541,-0.11,-4.67,8.643199226233655,0.4244444444444445,0.4622222222222222,-0.6888888888888889,-0.0625,0.0625,-0.05250241801982776
1589996004.6782541,-0.11106760126710251,-4.68,8.561067601267103,0.4244444444444445,0.4622222222222222,-0.6888888888888889,-0.0625,-0.16080996832243716,-0.006672507919390712
1589996004.688254,-0.1181348992383905,-4.68,8.568134899238391,0.4244444444444445,0.4622222222222222,-0.6888888888888889,-0.0625,0.015872480959762764,-0.05084312023994069
1589996004.698254,-0.11044119012972538,-4.670441190129726,8.646470478962197,0.4244444444444445,0.4622222222222222,-0.6888888888888889,-0.0625,0.12224256168921638,0.056985123378432756
1589996004.708254,-0.11,-4.6781980414373585,8.65,0.41897908348620555,0.46768758318046116,-0.6888888888888889,0.03997551796697961,0.125,-0.03997551796697961
1589996004.718254,-0.1189302449802122,-4.651069755019788,8.658232694782335,0.4177777777777778,0.4688888888888889,-0.6888888888888889,0.18081403112632627,0.06918596887367373,-0.006685968873673732
1589996004.728254,-0.10746208117210354,-4.66,8.56634479706974,0.4177777777777778,0.4688888888888889,-0.6888888888888889,0.11706900366282356,0.10120701098847071,-0.0625
1589996004.738254,-0.09494621586776224,-4.663709661900822,8.61370966190082,0.4177777777777778,0.4688888888888889,-0.6888888888888889,0.03931461311986453,-0.05477153770662151,-0.0625
1589996004.748254,-0.1272305501568303,-4.687922912617623,8.637922912617624,0.4177777777777778,0.4688888888888889,-0.6888888888888889,-0.11201820386014202,-0.00432726537995267,-0.0625
1589996004.758254,-0.1109693713919179,-4.68,8.647091885824247,0.4177777777777778,0.4755555555555556,-0.6666666666666666,-0.0625,0.125,-0.18144142880051314
1589996004.768254,-0.11937680404105196,-4.68,8.621869587876843,0.4177777777777778,0.4755555555555556,-0.6666666666666666,-0.0625,0.125,-0.12889497474342526
1589996004.778254,-0.1,-4.661568443480131,8.560784221740066,0.4177777777777778,0.4755555555555556,-0.6666666666666666,0.0625,0.019605543501632166,0.0
1589996004.788254,-0.1,-4.677965558357278,8.56898277917864,0.4177777777777778,0.4755555555555556,-0.6666666666666666,0.0625,0.2245694794659786,0.0
1589996004.798254,-0.1,-4.68,8.610241757553945,0.4177777777777778,0.4755555555555556,-0.6666666666666666,0.026569859326834304,0.1422095779805029,0.0
1589996004.808254,-0.10643090315560391,-4.673569096844396,8.659292709466811,0.4177777777777778,0.48055736912102526,-0.690246644903881,0.12057943416757345,0.14288628944504897,-0.08038628944504897
1589996004.818254,-0.1028617968733473,-4.662861796873347,8.67,0.4177777777777778,0.4833333333333333,-0.7033333333333334,0.09827246091684119,0.053658691375261774,-0.16961376954157942
1589996004.828254,-0.11980613379945972,-4.68019386620054,8.561357063403783,0.4177777777777778,0.4833333333333333,-0.7033333333333334,0.18507667249324647,0.0625,0.06007667249324646
1589996004.838254,-0.11240055087663542,-4.687599449123365,8.613196143863552,0.4177777777777778,0.4833333333333333,-0.7033333333333334,0.0925068859579427,0.0625,-0.032493114042057306
1589996004.848254,-0.11,-4.673304178814383,8.646695821185618,0.4177777777777778,0.4833333333333333,-0.7033333333333334,-0.0418488824101069,0.1668488824101069,0.0418488824101069
1589996004.858254,-0.11764390305478414,-4.67,8.672931709164352,0.42287371314763395,0.4773880754018346,-0.66426449549777,-0.11027439409240092,-0.051371970462004535,0.0625
1589996004.868254,-0.09969207752768847,-4.669692077527689,8.666304930332261,0.4244444444444445,0.4755555555555556,-0.6522222222222223,-0.06057548454805287,-0.125,-0.05865096909610575
1589996004.878254,-0.09032645587709896,-4.660326455877099,8.553917470525189,0.4244444444444445,0.4755555555555556,-0.6522222222222223,-0.002040349231868528,-0.125,0.058419301536262944
1589996004.888254,-0.10941032926042775,-4.688820658520856,8.612358682958288,0.4244444444444445,0.4755555555555556,-0.6522222222222223,-0.1213145578776734,0.0625,-0.1213145578776734
1589996004.898254,-0.10209949277509543,-4.674198985550191,8.641602028899618,0.4244444444444445,0.4755555555555556,-0.6522222222222223,-0.07562182984434646,0.0625,-0.07562182984434646
1589996004.908254,-0.1195532237379037,-4.679776611868951,8.659776611868953,0.4044444444444445,0.4622222222222222,-0.6666666666666666,0.1222076483618981,0.12081147254284715,0.05831147254284715
1589996004.918254,-0.1,-4.67,8.649965582351395,0.4044444444444445,0.4622222222222222,-0.6666666666666666,4.780228972967805e-05,-0.06245219771027032,-0.12495219771027032
1589996004.928254,-0.10007083964658887,-4.669929160353411,8.56011806607765,0.4044444444444445,0.4622222222222222,-0.6666666666666666,0.12514758259706016,0.0625,-0.00014758259706015465
1589996004.9382539,-0.12483106712056515,-4.645168932879435,8.601385111867609,0.4044444444444445,0.4622222222222222,-0.6666666666666666,0.1767313898345107,0.0625,-0.05173138983451071
1589996004.9482539,-0.11965911569501138,-4.650340884304988,8.630681768609977,0.4044444444444445,0.4622222222222222,-0.6666666666666666,-0.006391580718536766,0.09481526345308947,-0.09481526345308947
1589996004.9582539,-0.11,-4.673767769530759,8.659178513020505,0.41668246180511875,0.4622222222222222,-0.6768650144672286,-0.10145144043275885,0.125,-0.125
1589996004.9682539,-0.10430029440628066,-4.684300294406281,8.67,0.4311111111111111,0.4622222222222222,-0.6888888888888889,0.03562315996074583,-0.017492639842983326,0.017492639842983326
1589996004.9782538,-0.09227211356710258,-4.6877278864328975,8.592721135671026,0.4311111111111111,0.4622222222222222,-0.6888888888888889,-0.08239787061682677,-0.07670070979439109,-0.06819716082243568
1589996004.9882538,-0.09,-4.683584532982188,8.589246401053437,0.4311111111111111,0.4622222222222222,-0.6888888888888889,-0.08490333113867288,-0.14269333772265425,-0.00470999341601866
1589996004.9982538,-0.09742219952332312,-4.650311201906707,8.629688798093293,0.4311111111111111,0.4622222222222222,-0.6888888888888889,-0.01611125297923051,-0.0019450119169220348,-0.030277494041538983
1589996005.0082538,-0.10627066078009267,-4.677623964680556,8.665082643120371,0.43598829171784986,0.4705831032623458,-0.6888888888888889,-0.03919162987557923,-0.05507488962673769,-0.023308370124420767
1589996005.0182538,-0.0938161905837191,-4.683816190583719,8.639540476459299,0.4388888888888889,0.4755555555555556,-0.6888888888888889,0.03864880885175567,-0.125,-0.050574404425877836
1589996005.0282538,-0.10655985448992882,-4.68,8.547200727550356,0.4388888888888889,0.4755555555555556,-0.6888888888888889,0.010750454718972444,0.030248635843082683,-0.010750454718972444
1589996005.0382538,-0.11,-4.66,8.601595348751088,0.4388888888888889,0.4755555555555556,-0.6888888888888889,0.18874636621178736,-0.06000726757642528,0.06000726757642528
1589996005.0482538,-0.11,-4.66,8.663725072675764,0.4388888888888889,0.4755555555555556,-0.6888888888888889,0.2372852130279408,0.03707042605588165,-0.03707042605588165
1589996005.0582538,-0.11,-4.6505497126085364,8.67981676246382,0.3977777777777778,0.4688888888888889,-0.6588888888888889,-0.06364523460111696,0.12385476539888304,0.12156429619664914
1589996005.0682538,-0.11,-4.676196649137825,8.671267783620724,0.3977777777777778,0.4688888888888889,-0.6588888888888889,-0.11707635237047001,0.07042364762952999,-0.03872905711141006
1589996005.0782537,-0.11935622430004453,-4.651931327099867,8.557725308399466,0.3977777777777778,0.4688888888888889,-0.6588888888888889,-0.18347640187527828,-0.054452803750556555,-0.12097640187527828
1589996005.0882537,-0.10034466990568734,-4.660114889968563,8.610344669905686,0.3977777777777778,0.4688888888888889,-0.6588888888888889,0.1257180623035153,-0.12356387539296942,-0.18462775078593885
1589996005.0982537,-0.12431894827093457,-4.668106316090311,8.634318948270934,0.3977777777777778,0.4688888888888889,-0.6588888888888889,0.17566447556444698,-0.02367104887110602,0.015157902257787959
1589996005.1082537,-0.10431306057748259,-4.682843469711259,8.672108674278146,0.4363081869115539,0.4731700454593085,-0.6817217239311265,0.1072283143046331,0.04013584284768345,0.02236415715231655
1589996005.1182537,-0.10476182701334748,-4.675238172986653,8.68507939099555,0.4577777777777778,0.4755555555555556,-0.6944444444444444,0.0625,0.000992387444385484,0.0
1589996005.1282537,-0.12639434613077385,-4.672788692261547,8.603267846430715,0.4577777777777778,0.4755555555555556,-0.6944444444444444,0.10246466331733653,0.09735865326934612,0.03996466331733653
1589996005.1382537,-0.12425754534311548,-4.68,8.582969818627538,0.4577777777777778,0.4755555555555556,-0.6944444444444444,0.125,0.07982897518341535,-0.009280683211056434
1589996005.1482537,-0.10801360272054411,-4.656027205441088,8.623972794558911,0.4577777777777778,0.4755555555555556,-0.6944444444444444,0.08754250850170034,-0.11237247449489898,0.012414982996599322
1589996005.1582537,-0.11622566827522637,-4.656225668275226,8.683268448733937,0.45056636965545493,0.46533939404893154,-0.6914396910601432,0.02869652442661172,-0.08608957327983517,-0.005106951146776562
1589996005.1682537,-0.11292953966834102,-4.675690153443886,8.685859079336682,0.4444444444444444,0.4566666666666666,-0.6888888888888889,0.0,0.0,-0.1336269180485791
1589996005.1782537,-0.10597109451120494,-4.674028905488795,8.582375771354336,0.4444444444444444,0.4566666666666666,-0.6888888888888889,-0.03731934069503085,0.03731934069503085,-0.03822263721987659
1589996005.1882536,-0.11838424467802527,-4.686768489356051,8.571921223390126,0.4444444444444444,0.4566666666666666,-0.6888888888888889,-0.11490152923765795,-0.09470458771297385,-0.0423030584753159
1589996005.1982536,-0.10473920790475419,-4.682369603952377,8.641043168380984,0.4444444444444444,0.4566666666666666,-0.6888888888888889,-0.07731002470235684,-0.02962004940471369,-0.0625
1589996005.2082536,-0.11825866441251057,-4.68,8.669129332206255,0.43227200150277073,0.47391096083403783,-0.6888888888888889,-0.0625,0.0,-0.005441673710904482
1589996005.2182536,-0.10670648696480839,-4.68,8.689940269552787,0.4311111111111111,0.4755555555555556,-0.6888888888888889,-0.02095777176502621,-0.12462668470492137,0.08308445646994758
1589996005.2282536,-0.10885446944057336,-4.68,8.584891897272547,0.4311111111111111,0.4755555555555556,-0.6888888888888889,0.11068086800716703,-0.07681913199283297,0.014319131992832967
1589996005.2382536,-0.11,-4.672254188559532,8.585491622880935,0.4311111111111111,0.4755555555555556,-0.6888888888888889,-0.020233964508773683,-0.20773396450877368,0.048411321502924556
