time,acc_x,acc_y,acc_z,mag_x,mag_y,mag_z,gyr_x,gyr_y,gyr_z
1589996021.9254394,-3.95,-0.89,8.96,0.31222222222222223,-0.3422222222222222,-0.6166666666666667,0.0625,0.125,0.1875
1589996021.9354393,-3.962596431091844,-0.957403568908156,8.999614275632624,0.32,-0.3244444444444444,-0.6111111111111112,-0.0600892227039016,-0.125,0.1875
1589996021.9454393,-3.967832894382116,-0.95,8.958080919101636,0.32,-0.3244444444444444,-0.6111111111111112,0.09791117977644595,-0.11145558988822298,0.17395558988822296
1589996021.9554393,-3.9504367391800255,-0.95,8.862402065490139,0.32,-0.3244444444444444,-0.6111111111111112,-0.11954076024968377,-0.002729619875158115,0.06522961987515812
1589996021.9654393,-3.958044483131228,-0.9402224156561412,8.91151068555649,0.32,-0.3244444444444444,-0.6111111111111112,-0.1875,0.025834058710529476,0.149443960859647
1589996021.9754393,-3.951749759875135,-0.9087487993756753,8.980752641373515,0.32,-0.3244444444444444,-0.6111111111111112,-0.1875,-0.09219200234121741,0.22812800156081162
1589996021.9854393,-3.949201168589725,-0.902396494230826,9.030798831410275,0.32666666666666666,-0.3422222222222222,-0.6322222222222222,0.0,-0.052514607371558414,0.125
1589996021.9954393,-3.9425585983930014,-0.9325585983930015,9.009296819283982,0.32666666666666666,-0.3422222222222222,-0.6322222222222222,0.04797371986877763,0.030517520087481577,0.09301752008748157
1589996022.0054393,-3.9476919739696315,-0.9423080260303687,8.922308026030368,0.32666666666666666,-0.3422222222222222,-0.6322222222222222,0.15864967462039045,-0.07692516268980477,0.028850325379609545
1589996022.0154393,-3.9413274499365247,-0.9460176501904255,8.933982349809574,0.32666666666666666,-0.3422222222222222,-0.6322222222222222,0.0625,-0.11670343789671976,0.11670343789671976
1589996022.0254393,-3.9499156394610755,-0.9202530816167739,8.959746918383226,0.32666666666666666,-0.3422222222222222,-0.6322222222222222,0.0625,-0.0630272533682788,0.0630272533682788
1589996022.0354393,-3.9590746405628634,-0.9109253594371368,8.969074640562864,0.3085173855409401,-0.3422222222222222,-0.6130646477006221,0.0625,0.050933007035790775,0.23264951055368613
1589996022.0454392,-3.95,-0.893980333112166,8.906019666887834,0.30666666666666664,-0.3422222222222222,-0.6111111111111112,-0.08737708195103694,0.0,0.024877081951036936
1589996022.0554392,-3.95,-0.9082517565797309,8.89174824342027,0.30666666666666664,-0.3422222222222222,-0.6111111111111112,-0.17657347862331785,0.0,0.11407347862331786
1589996022.0654392,-3.94,-0.9158378282609552,8.939729713768259,0.30666666666666664,-0.3422222222222222,-0.6111111111111112,-0.30033785778967675,-0.05033785778967676,0.07466214221032325
1589996022.0754392,-3.9403201143709596,-0.94,8.98064022874192,0.3079471241505055,-0.34207994916846235,-0.6115734985358308,-0.24799928518150174,0.0,0.1290014296369965
1589996022.0854392,-3.95,-0.942460742530255,9.002460742530255,0.3466666666666667,-0.3377777777777778,-0.6255555555555555,-0.1875,0.0,0.20386107755771815
1589996022.0954392,-3.9523348876419298,-0.945330224716141,8.991320898864565,0.3466666666666667,-0.3377777777777778,-0.6255555555555555,-0.17290695223794095,0.02918609552411813,0.03331390447588187
1589996022.1054392,-3.9537801984991527,-0.93,8.936219801500847,0.3466666666666667,-0.3377777777777778,-0.6255555555555555,-0.16387375938029533,0.125,-0.004189360929557004
1589996022.1154392,-3.9436456079619213,-0.9281771960190395,8.948177196019039,0.3466666666666667,-0.3377777777777778,-0.6255555555555555,-0.2158224253569883,0.1136074751189961,0.125
1589996022.1254392,-3.954988911726525,-0.9225055441367374,8.942505544136736,0.3466666666666667,-0.3377777777777778,-0.6255555555555555,-0.10947895256382517,0.0781596508546084,0.125
1589996022.1354392,-3.9599172846548774,-0.900248146035368,8.950082715345122,0.32,-0.3377777777777778,-0.6111111111111112,0.06094908727895037,0.061983029092983456,0.06301697090701654
1589996022.1454391,-3.947493704845504,-0.932506295154496,8.937443343609536,0.32,-0.3377777777777778,-0.6111111111111112,-0.15632868943120043,0.015664344715600215,0.07800696585319936
1589996022.1554391,-3.94,-0.9423934783639034,8.886754348547324,0.32,-0.3377777777777778,-0.6111111111111112,-0.20512228067680932,0.0625,-0.04754076022560311
1589996022.1654391,-3.9437726088289393,-0.944341086756591,8.949431522072349,0.32,-0.3377777777777778,-0.6111111111111112,-0.0625,0.0625,-0.011789402590435314
1589996022.1754391,-3.9598451870018394,-0.920232219497241,8.989612967504598,0.32,-0.3377777777777778,-0.6111111111111112,-0.0625,0.0625,-0.062016209380748005
1589996022.185439,-3.9513074685583947,-0.9373850628832109,9.042155188649634,0.30840995807785937,-0.3377777777777778,-0.6159402952453364,-0.27981328604013644,0.11682832151003411,-0.008171678489965889
1589996022.195439,-3.933212199760987,-0.92,8.997151200956052,0.30666666666666664,-0.3377777777777778,-0.6166666666666667,0.03238562724074666,0.1875,-0.04242375149383111
1589996022.205439,-3.9473318072410835,-0.92,8.940672771035667,0.30666666666666664,-0.3377777777777778,-0.6166666666666667,-0.09998569288515596,0.1875,0.04582379525677063
1589996022.215439,-3.95,-0.9150399075637722,8.942519953781886,0.30666666666666664,-0.3377777777777778,-0.6166666666666667,0.11712514443160608,0.25,0.0
1589996022.225439,-3.95,-0.9448633899208959,8.957431694960448,0.30666666666666664,-0.3377777777777778,-0.6166666666666667,0.07052595324860012,0.25,0.0
1589996022.235439,-3.95,-0.9131989824310359,8.96,0.30053316373850597,-0.3377777777777778,-0.6176889171546934,0.12000158995150648,0.13499682009698705,-0.05750158995150648
1589996022.245439,-3.95,-0.9186168729108096,8.94276625417838,0.3,-0.3377777777777778,-0.6177777777777778,0.17885545569255973,-0.03656636707767916,0.20677727846279859
1589996022.255439,-3.95,-0.91,8.85799598118016,0.3,-0.3377777777777778,-0.6177777777777778,0.0625,0.00999497647520094,0.13499497647520095
1589996022.265439,-3.9511559760385073,-0.9111559760385074,8.905779880192537,0.3,-0.3377777777777778,-0.6177777777777778,0.04082544927798651,0.0625,0.1658254492779865
1589996022.275439,-3.9574847977305994,-0.9174847977305992,8.937423988652995,0.3,-0.3377777777777778,-0.6177777777777778,-0.07783995744873479,0.0625,0.04716004255126521
1589996022.285439,-3.9371351889267516,-0.9352432073821658,8.988108018455414,0.3050810691273886,-0.3377777777777778,-0.6016877255410472,-0.029729953861463765,0.014864976930731882,0.0
1589996022.295439,-3.947955076017656,-0.9479550760176557,8.971820304070624,0.30666666666666664,-0.3377777777777778,-0.5966666666666667,0.15056154977930358,0.006390387444825895,0.11221922511034821
1589996022.305439,-3.9314987739087788,-0.9314987739087789,8.905995095635115,0.30666666666666664,-0.3377777777777778,-0.5966666666666667,0.35626532614026485,0.05781633153506621,0.009367336929867576
1589996022.315439,-3.9619051719498413,-0.9361896561003175,8.953336203648888,0.30666666666666664,-0.3377777777777778,-0.5966666666666667,0.48809267531349226,0.14881464937301545,0.038685350626984555
1589996022.325439,-3.969429524783381,-0.9211409504332383,9.006006673483666,0.30666666666666664,-0.3377777777777778,-0.5966666666666667,0.44106547010386954,0.24286905979226092,-0.05536905979226091
1589996022.335439,-3.952036286118127,-0.9110181430590635,9.018981856940936,0.30666666666666664,-0.3377777777777778,-0.6096404600257973,0.4375,0.3061366058808536,0.049773211761707264
1589996022.345439,-3.9400134008597436,-0.920026801719487,8.979879392262308,0.30666666666666664,-0.3377777777777778,-0.6111111111111112,0.25008375537339667,0.24966497850641328,0.24983248925320664
1589996022.355439,-3.947313040602865,-0.9346260812057293,8.91418263457422,0.30666666666666664,-0.3377777777777778,-0.6111111111111112,0.2957065037679041,0.0671739849283837,0.15858699246419183
1589996022.365439,-3.969439636203609,-0.9302801818981957,8.919159454305413,0.30666666666666664,-0.3377777777777778,-0.6111111111111112,0.4947465894088309,0.2429954525451078,0.125
1589996022.375439,-3.963453675441943,-0.93,8.93963897367417,0.30666666666666664,-0.3377777777777778,-0.6111111111111112,0.5,0.2090854715121455,0.20682905697570902
1589996022.385439,-3.96,-0.9150314651662101,8.96496853483379,0.32163520150045655,-0.33361985143505835,-0.6161006227223744,0.3596699859332198,0.09394665728881321,0.4371066854223736
1589996022.395439,-3.96,-0.9006069271473622,8.97,0.32666666666666666,-0.3322222222222222,-0.6177777777777778,0.19508658934202788,0.12120670532898606,0.26517317868405577
1589996022.405439,-3.948804694901576,-0.9011953050984245,8.86836713568897,0.32666666666666666,-0.3322222222222222,-0.6177777777777778,0.055029343134846836,0.0,0.3274413137303063
1589996022.415439,-3.941446015649672,-0.9085539843503281,8.919877890452296,0.32666666666666666,-0.3322222222222222,-0.6177777777777778,0.009037597810449487,0.0,0.419424804379101
1589996022.425439,-3.9486174184310117,-0.9013825815689884,8.955852255293035,0.32666666666666666,-0.3322222222222222,-0.6177777777777778,-0.10771773038764448,0.0,0.3836411348061778
1589996022.4354389,-3.95109396277803,-0.9467181116659101,9.028906037221969,0.32,-0.3377777777777778,-0.6255555555555555,-0.19433726736268725,0.0,0.25683726736268725
1589996022.4454389,-3.9588556078893142,-0.92,9.005122902561084,0.32,-0.3377777777777778,-0.6255555555555555,-0.23569509861642626,0.0,0.2910426479246394
1589996022.4554389,-3.9514128227444156,-0.922825645488831,8.891412822744416,0.32,-0.3377777777777778,-0.6255555555555555,-0.11616985784740354,-0.026490426457789384,0.13383014215259645
1589996022.4654388,-3.9588168873989207,-0.9364506621967618,8.905915563005397,0.32,-0.3377777777777778,-0.6255555555555555,-0.0625,-0.1727110924865074,0.1875
1589996022.4754388,-3.9510910129123764,-0.9132730387371291,8.944544935438117,0.32,-0.3377777777777778,-0.6255555555555555,-0.0625,-0.07613766140470445,0.1875
1589996022.4854388,-3.9423846170109305,-0.9176153829890695,8.95,0.3140769243418348,-0.3377777777777778,-0.6145555579046774,0.1278845747267384,-0.1576922873633692,0.1875
1589996022.4954388,-3.9479559960562502,-0.9040880078874993,8.957955996056251,0.31222222222222223,-0.3377777777777778,-0.6111111111111112,0.08805004929687095,-0.03832507394530643,0.08805004929687095
1589996022.5054388,-3.9406532712094737,-0.9306532712094739,8.892613084837896,0.31222222222222223,-0.3377777777777778,-0.6111111111111112,-0.07066589011842361,0.07066589011842361,0.008165890118423608
1589996022.5154388,-3.9487959619491364,-0.9387959619491361,8.925183847796545,0.31222222222222223,-0.3377777777777778,-0.6111111111111112,-0.17244952436420113,0.17244952436420113,0.10994952436420113
1589996022.5254388,-3.95,-0.9340955197251041,8.977235842199168,0.31222222222222223,-0.3377777777777778,-0.6111111111111112,-0.22440300171809952,0.1875,0.16190300171809952
1589996022.5354388,-3.956446423873417,-0.93,9.01,0.31222222222222223,-0.3377777777777778,-0.6068134951955,-0.33058029841770964,0.1875,0.1875
1589996022.5454388,-3.9528514533412547,-0.93,8.981405813365019,0.31222222222222223,-0.3377777777777778,-0.6044444444444445,-0.375,0.32153524985147536,0.14282158338284157
1589996022.5554388,-3.9388639578819187,-0.9294319789409595,8.90943197894096,0.31222222222222223,-0.3377777777777778,-0.6044444444444445,-0.25710026323800655,0.4232994735239869,0.08025065809501639
1589996022.5654387,-3.9238422004548466,-0.9219211002274234,8.901921100227424,0.31222222222222223,-0.3377777777777778,-0.6044444444444445,-0.3509862471572086,0.2355275056855828,0.3149656178930215
1589996022.5754387,-3.935953287506708,-0.927976643753354,8.947859862520124,0.31222222222222223,-0.3377777777777778,-0.6044444444444445,-0.3251459765415378,0.1875,0.4248540234584622
1589996022.5854387,-3.925127958563717,-0.9225639792818585,8.974872041436283,0.31222222222222223,-0.3229057363414948,-0.6044444444444445,-0.40545025897676856,0.1875,0.8093010359070743
1589996022.5954387,-3.96,-0.9287942948882013,8.956382884664604,0.31222222222222223,-0.31777777777777777,-0.6044444444444445,-0.2386965145768864,-0.125,1.268839142371856
1589996022.6054387,-3.959189470940839,-0.9095947354704196,8.903242116236644,0.31222222222222223,-0.31777777777777777,-0.6044444444444445,-0.05996709669012249,-0.12753290330987752,1.57263161323951
1589996022.6154387,-3.941995214287104,-0.9019952142871039,8.980997607143552,0.31222222222222223,-0.31777777777777777,-0.6044444444444445,0.00623504464719958,-0.20620513394159873,1.8249700892943992
1589996022.6254387,-3.9583144952629223,-0.9183144952629224,8.98915724763146,0.31222222222222223,-0.31777777777777777,-0.6044444444444445,0.05723279769663249,-0.3591983930898975,1.926965595393265
1589996022.6354387,-3.961466842693206,-0.9114668426932061,9.001466842693207,0.30666666666666664,-0.3322222222222222,-0.6177777777777778,-0.0625,-0.4008289326698487,2.0625
1589996022.6454387,-3.969985782471819,-0.9199857824718188,9.00998578247182,0.30666666666666664,-0.3322222222222222,-0.6177777777777778,-0.0625,-0.18785543820452932,2.0625
1589996022.6554387,-3.969687587168759,-0.9287503486750349,8.880312412831241,0.30666666666666664,-0.3322222222222222,-0.6177777777777778,0.0019525801952580198,-0.43164225941422596,2.113284518828452
1589996022.6654387,-3.9618878661087864,-0.8975514644351464,8.888112133891214,0.30666666666666664,-0.3322222222222222,-0.6177777777777778,0.05070083682008369,-0.28539748953974897,1.820794979079498
1589996022.6754386,-3.9651896047927653,-0.9055688143782955,8.921137628756592,0.30666666666666664,-0.3322222222222222,-0.6177777777777778,0.2246751497739108,-0.34730508986434644,1.5878248502260892
1589996022.6854386,-3.96035226789374,-0.9103522678937397,8.95,0.31309848807084023,-0.3322222222222222,-0.6134898968416621,0.3448508371679363,-0.37720167433587254,1.226455860175554
1589996022.6954386,-3.95,-0.9082983174962951,8.958298317496295,0.32,-0.3322222222222222,-0.6088888888888889,0.3125,-0.36436448435184376,1.1037289687036875
1589996022.7054386,-3.9687736012471855,-0.8812263987528148,8.881226398752815,0.32,-0.3322222222222222,-0.6088888888888889,-0.015329984410185345,-0.3086675038974537,0.823997488307639
1589996022.7154386,-3.9542428546682835,-0.8957571453317166,8.895757145331718,0.32,-0.3322222222222222,-0.6088888888888889,-0.19696431664645767,-0.2632589208383856,0.9602232374848432
1589996022.7254386,-3.9644996460047364,-0.9144996460047362,8.979748053026048,0.32,-0.3322222222222222,-0.6088888888888889,-0.15937721247039865,-0.11406581870559801,1.135934181294402
1589996022.7354386,-3.976127266916993,-0.9016181992490213,9.022254533833985,0.31523434795345,-0.3383494891392151,-0.6136545409354389,-0.16329541823120555,-0.21568167292482224,1.1875
1589996022.7454386,-3.963138574258906,-0.89,9.013138574258907,0.31222222222222223,-0.3422222222222222,-0.6166666666666667,-0.2928839108818362,-0.3651919554409181,1.2401919554409182
1589996022.7554386,-3.95,-0.9296207225068878,8.919873574168962,0.31222222222222223,-0.3422222222222222,-0.6166666666666667,-0.12579016144398383,-0.49841967711203233,1.1186787084481293
1589996022.7654386,-3.951348807559622,-0.9,8.911348807559623,0.31222222222222223,-0.3422222222222222,-0.6166666666666667,-0.17485492912854358,-0.35813990550472474,0.6123549291285436
1589996022.7754385,-3.967076646167692,-0.9,8.927076646167691,0.31222222222222223,-0.3422222222222222,-0.6166666666666667,-0.02740644217789112,-0.1615419229038548,0.4649064421778911
1589996022.7854385,-3.9502288287033815,-0.9002288287033814,8.97,0.2933333333333333,-0.3377777777777778,-0.6311111111111111,-0.12643017939613357,-0.18606982060386643,0.37213964120773285
1589996022.7954385,-3.959962867553204,-0.9099628675532039,8.97,0.2933333333333333,-0.3377777777777778,-0.6311111111111111,-0.18726792220752397,-0.12523207779247603,0.25046415558495205
1589996022.8054385,-3.950302193338749,-0.919697806661251,8.892417546709993,0.2933333333333333,-0.3377777777777778,-0.6311111111111111,-0.12688870836718116,-0.18561129163281884,0.12877741673436233
1589996022.8154385,-3.965712131755973,-0.904287868244027,8.91356819763396,0.2933333333333333,-0.3377777777777778,-0.6311111111111111,-0.07589958826258408,-0.13839958826258408,0.41960247042449544
1589996022.8254385,-3.965277658727729,-0.9141670238168126,8.953056388905896,0.2933333333333333,-0.3377777777777778,-0.6311111111111111,0.05555853180677156,-0.125,0.44097073409661425
1589996022.8354385,-3.9630650129368763,-0.9208049611893713,8.993065012936876,0.2991228022140996,-0.3377777777777778,-0.6222566292934686,0.1491873382890468,-0.18246899256642984,0.43246899256642984
1589996022.8454385,-3.963405358458785,-0.9,8.98681071691757,0.31222222222222223,-0.3377777777777778,-0.6022222222222222,-0.019933019265185814,-0.27128349036740707,0.5212834903674071
1589996022.8554385,-3.9521988219155975,-0.9,8.925391753409183,0.31222222222222223,-0.3377777777777778,-0.6022222222222222,-0.0625,-0.25,0.4024852739449689
1589996022.8654385,-3.95,-0.9,8.921751113585746,0.31222222222222223,-0.3377777777777778,-0.6022222222222222,-0.0625,-0.21327777004454343,0.2648333101336303
1589996022.8754385,-3.95,-0.8874304813755557,8.95513903724889,0.31222222222222223,-0.3377777777777778,-0.6022222222222222,0.05533923710416595,-0.10894050859722271,0.1875
1589996022.8854384,-3.9557531894466704,-0.8972595683400107,8.987259568340011,0.3051905462318475,-0.3377777777777778,-0.6022222222222222,0.125,-0.0625,0.11558513191662205
1589996022.8954384,-3.96,-0.9026173214842532,9.0,0.3,-0.3377777777777778,-0.6022222222222222,0.26342522217025255,-0.24706696289367008,0.01635825927658248
1589996022.9054384,-3.9515119388959836,-0.9,8.923607450063852,0.3,-0.3377777777777778,-0.6022222222222222,0.3655503819001036,-0.2594496180998964,-0.2122015276004144
1589996022.9154384,-3.949823413689733,-0.9194702410691982,8.96070634524107,0.3,-0.3377777777777778,-0.6022222222222222,0.37720732887834124,-0.4375,-0.125
1589996022.9254384,-3.9432747314514116,-0.8998241943542343,8.986901074194355,0.3,-0.3377777777777778,-0.6022222222222222,0.459065856857357,-0.4375,-0.125
1589996022.9354384,-3.9566315038071065,-0.8816842480964467,8.991684248096448,0.3101636967710096,-0.34147366751269037,-0.6262455054991539,0.5,-0.6453937975888324,-0.021053101205583763
1589996022.9454384,-3.96,-0.8867089058161886,8.969873282551434,0.31222222222222223,-0.3422222222222222,-0.6311111111111111,0.5838613227023564,-0.8552226454047127,-0.2515839681070691
1589996022.9554384,-3.940482709833132,-0.8802413549165661,8.891689484415963,0.31222222222222223,-0.3422222222222222,-0.6311111111111111,0.6859915317714619,-0.8155169364570762,-0.2530169364570763
1589996022.9654384,-3.948392954974332,-0.9135718198973277,8.898392954974332,0.31222222222222223,-0.3422222222222222,-0.6311111111111111,0.7399559685895745,-0.8125,-0.25
1589996022.9754384,-3.9428159378365253,-0.891263751346101,8.964656559471273,0.31222222222222223,-0.3422222222222222,-0.6311111111111111,0.7949003885217171,-0.9472011655651513,-0.29490038852171707
1589996022.9854383,-3.945982850569905,-0.8859828505699049,9.007948551709715,0.31222222222222223,-0.3362393716523174,-0.6098387535292272,0.7751071839380947,-1.0,-0.27510718393809475
1589996022.9954383,-3.9409389821051373,-0.8718779642102746,9.029061017894863,0.31222222222222223,-0.3322222222222222,-0.5955555555555555,0.75,-0.7168431907855406,-0.25
1589996023.0054383,-3.949149044350459,-0.8608509556495413,8.901913379093578,0.31222222222222223,-0.3322222222222222,-0.5955555555555555,0.8071815271903673,-0.7446815271903673,-0.13563694561926554
1589996023.0154383,-3.9322160420184993,-0.8481440280123328,8.9077839579815,0.31222222222222223,-0.3322222222222222,-0.5955555555555555,0.7013502626156206,-0.4906506127697814,-0.1620499124614598
1589996023.0254383,-3.9308474458874456,-0.8508474458874459,8.941694891774892,0.31222222222222223,-0.3322222222222222,-0.5955555555555555,0.45550865800865803,-0.2447034632034632,-0.2552965367965368
1589996023.0354383,-3.956995888425474,-0.876995888425474,8.976995888425474,0.31883173438768436,-0.3322222222222222,-0.5993324196501053,-0.21862151329606294,0.07806075664803147,-0.2593878486703937
1589996023.0454383,-3.9452651984491784,-0.88,8.943162996122947,0.32,-0.3322222222222222,-0.6,-0.3125,0.2170925096926336,-0.11186123546104959
1589996023.0554383,-3.948580375782881,-0.888580375782881,8.887098121085595,0.32,-0.3322222222222222,-0.6,-0.6878914405010439,0.46450939457202506,-0.27700939457202506
1589996023.0654383,-3.95,-0.89,8.921648402934643,0.32,-0.3322222222222222,-0.6,-0.8801512591707581,0.5433837530569193,-0.13896498777232252
1589996023.0754383,-3.95,-0.89,8.957601404861924,0.32,-0.3322222222222222,-0.6,-0.8641608130753162,0.5258304065376581,-0.0991695934623419
1589996023.0854383,-3.9411471469250396,-0.8988528530749602,8.97,0.32,-0.3322222222222222,-0.6206566571749073,-0.6465090048444954,0.2786786731259938,-0.2356606634370031
1589996023.0954382,-3.946469402711616,-0.9,8.995877610846463,0.32,-0.3322222222222222,-0.6233333333333333,-0.7058675338951997,0.4926026016855991,-0.1691324661048003
1589996023.1054382,-3.95,-0.9143655437454559,8.93817228127272,0.32,-0.3322222222222222,-0.6233333333333333,-0.6153230273863518,0.4903230273863518,-0.1698923242045494
1589996023.1154382,-3.95,-0.9036413345914689,8.92635866540853,0.32,-0.3322222222222222,-0.6233333333333333,-0.46025834119668046,0.28413751179502067,-0.23862082940165977
1589996023.1254382,-3.95,-0.8931526907390829,8.943694618521834,0.32,-0.3322222222222222,-0.6233333333333333,-0.3519086342385358,0.2072043171192679,-0.07881726847707154
1589996023.1354382,-3.9445752000831513,-0.8845752000831515,8.966274399750546,0.323616533277899,-0.3376470221390708,-0.6197168000554343,-0.5498349963621245,0.2214049994803035,0.1017149984409105
1589996023.1454382,-3.94,-0.8877111136899927,8.995422227379985,0.32666666666666666,-0.3422222222222222,-0.6166666666666667,-0.75,0.15361107887509187,0.47666676337472436
1589996023.1554382,-3.9336970099900275,-0.89,8.955879069930193,0.32666666666666666,-0.3422222222222222,-0.6166666666666667,-0.9075747502493133,0.16439368756232833,0.79886212537397
1589996023.1654382,-3.93,-0.89,8.946042549911354,0.32666666666666666,-0.3422222222222222,-0.6166666666666667,-0.7493351576350883,-0.01303187389192939,1.5892285901487706
1589996023.1754382,-3.923058834621912,-0.8761176692438243,8.984705826890439,0.32666666666666666,-0.3422222222222222,-0.6166666666666667,-0.6875,-0.0625,2.5742633886479354
1589996023.1854382,-3.937188105579686,-0.8442178416304711,9.008594052789842,0.29801982403385674,-0.3489064855032112,-0.6223960351932286,-0.5263615101904444,-0.2773513197460742,4.06546942866689
1589996023.1954381,-3.9475353954909442,-0.8550707909818879,8.987393813527168,0.2933333333333333,-0.35,-0.6233333333333333,-0.5,-0.3125,5.144828214549594
1589996023.2054381,-3.9185822697481894,-0.828582269748189,8.89360124180752,0.2933333333333333,-0.35,-0.6233333333333333,-0.5,-0.45977061055536395,6.419304070369093
1589996023.2154381,-3.9230563214623144,-0.8265281607311571,8.896112642924628,0.2933333333333333,-0.35,-0.6233333333333333,-0.6632040182789272,-0.5408010045697318,7.421918082255172
1589996023.225438,-3.93,-0.8385691272284671,8.944276508913868,0.2933333333333333,-0.35,-0.6233333333333333,-0.6696644322331209,-0.6696140903558387,8.187399316245436
1589996023.235438,-3.921255513341194,-0.85,8.998744486658806,0.30790747776467675,-0.3446561470418407,-0.6141030418601491,-0.589826520808769,-0.8944795624263069,9.316009978601686
1589996023.245438,-3.9256887025071543,-0.8447704324976152,9.01,0.32666666666666666,-0.3377777777777778,-0.6022222222222222,-0.5596304062201904,-1.0653695937798096,10.87675032846781
1589996023.255438,-3.8102639520226136,-0.751543603651782,8.927440696741662,0.32666666666666666,-0.3377777777777778,-0.6022222222222222,-0.5737136636235151,-1.0144295045647274,12.410207131670424
1589996023.265438,-3.916934505025004,-0.7354464242365393,8.960892848473078,0.32666666666666666,-0.3377777777777778,-0.6022222222222222,-0.8143601009855804,-0.7481398990144196,14.104600589082553
1589996023.275438,-3.993874267012137,-0.8070960043638348,9.034516568934952,0.32666666666666666,-0.3377777777777778,-0.6022222222222222,-0.6371070844129278,-0.8770071935087959,16.90519313377881
1589996023.285438,-3.865146120536368,-0.8149070142041295,8.984933581574378,0.32332447754325044,-0.34000590386005525,-0.6033362852633609,-0.3131641842562182,-1.468999069096082,20.815654875217035
1589996023.295438,-3.897006604013208,-0.78,8.944671069342139,0.32,-0.3422222222222222,-0.6044444444444445,-0.46669418338836677,-1.6104029083058167,22.43112617475235
1589996023.305438,-3.991931641015391,-0.7508766739956027,8.925438336997802,0.32,-0.3422222222222222,-0.6044444444444445,-0.2099740155906456,-1.670505196881871,22.790025984409354
1589996023.315438,-3.8903921375437216,-0.746980393122814,8.996784324350953,0.32,-0.3422222222222222,-0.6044444444444445,0.09313728508793537,-1.8183823710527611,23.703921683334155
1589996023.325438,-3.877464023025264,-0.6669379597057883,9.018133994243684,0.32,-0.3422222222222222,-0.6044444444444445,0.22458126798848738,-1.875,24.692881555804284
1589996023.335438,-3.818343649418173,-0.495429561772716,9.04055211686061,0.30981596104646364,-0.3422222222222222,-0.5866223762757559,-0.17963914335231496,-1.7795246348105966,26.366179747462244
1589996023.345438,-3.7408707160769015,-0.4763764279743661,9.058188213987183,0.30666666666666664,-0.3422222222222222,-0.5811111111111111,-0.36367633741989414,-1.5964709877403176,28.643524484536083
1589996023.355438,-2.650829766216661,-0.49498847546921304,8.962574909450115,0.30666666666666664,-0.3422222222222222,-0.5811111111111111,-0.0471270991109648,-1.375144056634837,29.811923773460652
1589996023.365438,-1.507608160572458,-0.6859148925372377,8.728592199751326,0.30666666666666664,-0.3422222222222222,-0.5811111111111111,2.531682166510188,0.6725288005277983,25.559873696363773
1589996023.375438,-1.4877393607988316,-0.8579061236966341,8.698072886594437,0.30666666666666664,-0.3422222222222222,-0.5811111111111111,3.0745444587847706,1.84654884013178,20.074158119077538
1589996023.385438,-1.8130186439187406,-1.049228739776625,8.67747339723859,0.30666666666666664,-0.34773492998759026,-0.587411348557246,1.7414392973353268,0.0089756837569257,12.515541179315804
1589996023.395438,-1.9039927239654388,-1.0700060633621344,8.703986660603304,0.30666666666666664,-0.35,-0.59,0.9500909504320145,-0.8500265272093376,9.950242534485373
1589996023.405438,-2.028294438827098,-0.9718107178968656,8.890105156723964,0.30666666666666664,-0.35,-0.59,-0.1363169868554095,-0.525262891809909,5.954218907987866
1589996023.415438,-2.1525906823849468,-0.8916062117433688,8.959378258898209,0.30666666666666664,-0.35,-0.59,0.4436529415098617,-0.1790799988664702,1.1862035252777148
1589996023.425438,-2.20042070320439,-0.8685922362983538,9.03042070320439,0.30666666666666664,-0.35,-0.59,0.5774676512431407,0.5563308718921482,-2.6310675089763564
1589996023.435438,-2.328732488154693,-0.85,9.12239441669868,0.30262910317155417,-0.34528950925570207,-0.5987480542394104,0.4621478422333205,0.75,-7.685742412600845
1589996023.445438,-2.407873887590896,-0.85,9.080315281022761,0.3,-0.3422222222222222,-0.6044444444444445,0.7423706455254246,1.0984235948861996,-11.969229911007272
1589996023.455438,-2.42,-0.8429226721307658,8.950917409830723,0.3,-0.3422222222222222,-0.6044444444444445,0.875,1.471166495913568,-16.132864344424522
1589996023.465438,-2.42,-0.8327013335319973,8.888104000595993,0.3,-0.3422222222222222,-0.6044444444444445,0.9206166654250167,1.6537333308500335,-20.47693324890114
1589996023.4754379,-2.42,-0.83,8.86865184752233,0.3,-0.3422222222222222,-0.6044444444444445,0.9020370235072787,1.793888929478164,-24.03648240150505
1589996023.4854379,-2.4373983610722907,-0.8357994536907636,8.871598907381527,0.2916230113355638,-0.35059921088665846,-0.6121770493654625,0.9112465855672722,2.019986342269089,-28.339767818574515
1589996023.4954379,-2.4621270216629365,-0.84,8.892127021662937,0.2855555555555556,-0.3566666666666667,-0.6177777777777778,1.05119082809003,2.23869082809003,-32.8914768168574
1589996023.5054379,-2.481596446258368,-0.84,8.865210661224896,0.2855555555555556,-0.3566666666666667,-0.6177777777777778,1.1612388945574,2.4936944727869994,-37.187983724460594
1589996023.5154378,-2.50893054995971,-0.8715509165995166,8.959893483078162,0.2855555555555556,-0.3566666666666667,-0.6177777777777778,1.3452545829975826,2.703877291498791,-41.80014384820709
1589996023.5254378,-2.5026774152596167,-0.89,9.042991938555287,0.2855555555555556,-0.3566666666666667,-0.6177777777777778,1.5457661546273962,2.8041330773136983,-45.332157705979434
1589996023.5354378,-2.4965748781230954,-0.89,9.074207038391226,0.287397208680344,-0.35508810684541947,-0.6146206581352833,1.6875,3.037788981566118,-48.78923388939671
1589996023.5454378,-2.5794908043191427,-0.9253889651829711,9.055120230497886,0.2933333333333333,-0.35,-0.6044444444444445,1.8349540215957132,3.931135053989283,-54.33362785093034
1589996023.5554378,-2.5724559666707916,-0.9610176133316833,8.927367900012374,0.2933333333333333,-0.35,-0.6044444444444445,2.0063600833230213,4.359650208307553,-57.85922224972157
1589996023.5654378,-2.573178461626871,-0.9873838462201534,8.86,0.2933333333333333,-0.35,-0.6044444444444445,2.1349326925839724,4.681081731459932,-61.584197123811165
1589996023.5754378,-2.6188662590954737,-1.004811043182579,8.86,0.2933333333333333,-0.35,-0.6044444444444445,2.1574309801088813,4.872638039782237,-64.81122707412041
1589996023.5854378,-2.6584108814221263,-1.0184108814221264,8.868410881422125,0.3008096723752235,-0.3465733446058003,-0.6081826139653895,2.14252266962943,5.007590678517721,-67.6138601777658
1589996023.5954378,-2.692674990379271,-1.0526749903792705,8.89,0.32,-0.3377777777777778,-0.6177777777777778,2.2931249198272545,5.1875,-71.81765510753837
1589996023.6054378,-2.7403995980501152,-1.07,8.865680321559907,0.32,-0.3377777777777778,-0.6177777777777778,2.5894979902505773,5.2254994975626445,-76.00297186350808
1589996023.6154377,-2.771928654438886,-1.1296432721944318,8.927536253852761,0.32,-0.3377777777777778,-0.6177777777777778,2.6875,5.399108180486079,-79.35068339144055
1589996023.6254377,-2.7945482556266716,-1.173637063906668,9.005459447346677,0.32,-0.3377777777777778,-0.6177777777777778,2.73296329883335,5.568194948250024,-81.93774071791712
1589996023.6354377,-2.818045405526533,-1.1795113513816333,9.046579459671435,0.32,-0.3377777777777778,-0.6177777777777778,2.8063918922704163,5.678337838405625,-83.95702703743645
1589996023.6454377,-2.82891046436185,-1.1978209287237,9.058910464361851,0.34970154787283336,-0.3328275197989722,-0.6118374682032112,3.035261609046251,6.021642413569376,-86.85382971081657
1589996023.6554377,-2.7875098714001085,-1.2599210287991307,8.980157942401739,0.3533333333333333,-0.3322222222222222,-0.6111111111111112,3.062746785002717,6.437253214997283,-90.85647527621808
1589996023.6654377,-2.7935320886318205,-1.3425534810530346,8.864510696210607,0.3533333333333333,-0.3322222222222222,-0.6111111111111112,2.903191851316293,6.737767405265172,-94.24655775528431
1589996023.6754377,-2.81,-1.3926890536765741,8.863517413235265,0.3533333333333333,-0.3322222222222222,-0.6111111111111112,2.9577580836397983,6.875,-96.39653292739294
1589996023.6854377,-2.8054219455767324,-1.4560231904814365,8.859156108846536,0.3663044875325915,-0.324337795159928,-0.6144174837501377,3.0429192602181336,6.917919260218134,-98.36141828247219
1589996023.6954377,-2.7999401282965075,-1.5348503207412687,8.885029935851747,0.41,-0.2977777777777777,-0.6255555555555555,3.249625801853172,7.093562900926586,-100.93188702779757
1589996023.7054377,-2.8387656082030928,-1.5887656082030928,8.84548127015629,0.41,-0.2977777777777777,-0.6255555555555555,3.348457010253866,7.196914020507732,-102.52222618456959
1589996023.7154377,-2.8495921990127178,-1.630815601974564,8.835611701480923,0.41,-0.2977777777777777,-0.6255555555555555,3.4725731342557693,7.217475621914744,-103.78058507404616
1589996023.7254376,-2.8582325428735538,-1.6819069500287191,8.913813900057438,0.41,-0.2977777777777777,-0.6255555555555555,3.534011651760072,7.1875,-105.0127902683187
1589996023.7354376,-2.874893158853735,-1.7455342057313235,9.000213682292529,0.42021368229252937,-0.28813152227927774,-0.6329321038779379,3.595753271492463,7.347088785820772,-105.9760953288057
1589996023.7454376,-2.845313543346431,-1.7823432283267846,8.979141929183038,0.43,-0.2788888888888889,-0.64,3.8417903540848077,7.577145177042404,-106.89108882781802
1589996023.7554376,-2.8142995274900646,-1.8057004725099353,8.908973464342711,0.43,-0.2788888888888889,-0.64,3.7903080702193575,7.575936023406452,-107.64251181274838
1589996023.7654376,-2.7821764705882353,-1.8422941176470589,8.83,0.43,-0.2788888888888889,-0.64,3.569485294117647,7.527941176470589,-108.34080882352941
1589996023.7754376,-2.722794923940454,-1.9511796957618157,8.827205076059546,0.43,-0.2788888888888889,-0.64,3.625,7.784936549255674,-109.27211929553404
1589996023.7854376,-2.729618807451395,-1.9784752298055803,8.820381192548606,0.43,-0.2788888888888889,-0.64,3.625,7.870235093142439,-109.78391055885463
1589996023.7954376,-2.746365216257902,-2.0572521886472748,8.830904351226295,0.4833333333333333,-0.24444444444444444,-0.6677777777777778,3.4375,7.954565203223774,-111.24413056937415
1589996023.8054376,-2.717022900763359,-2.135404580152672,8.817832061068701,0.4833333333333333,-0.24444444444444444,-0.6677777777777778,3.6385496183206105,7.903721374045801,-112.63187022900763
1589996023.8154376,-2.7009693102400485,-2.179361896080219,8.801938620480097,0.4833333333333333,-0.24444444444444444,-0.6677777777777778,4.04639547250076,8.074616378000607,-114.3005355515041
1589996023.8254375,-2.697156860609493,-2.249967325244516,8.845686278781015,0.4833333333333333,-0.24444444444444444,-0.6677777777777778,4.000204217221775,8.000204217221775,-115.83843967150979
1589996023.8354375,-2.6650874469298524,-2.3297668081870606,8.919766808187061,0.49658893606235344,-0.21627628864527665,-0.6716439952404086,3.75,8.029610370065269,-117.7138311101958
1589996023.8454375,-2.6561257577893698,-2.400628788946849,8.929371211053152,0.51,-0.18777777777777774,-0.6755555555555556,3.9797159171013674,8.503929930917806,-119.7493655716904
1589996023.8554375,-2.6123459621369904,-2.414043245267124,8.826605433739733,0.51,-0.18777777777777774,-0.6755555555555556,4.013310848758571,8.625,-121.65412122949476
1589996023.8654375,-2.5684519043940353,-2.4850626214387717,8.810418334620877,0.51,-0.18777777777777774,-0.6755555555555556,3.7570610061567993,8.949790188917762,-123.62839735936512
1589996023.8754375,-2.531567923517861,-2.53526132058631,8.854216038241068,0.51,-0.18777777777777774,-0.6755555555555556,3.7434669853422458,9.009799521986631,-125.47735262907352
1589996023.8854375,-2.4592753367966895,-2.5209500748437086,8.820225411640397,0.5155305098177336,-0.1661585121266375,-0.6841027070920529,4.2992152417011535,8.8125,-127.29780641894867
1589996023.8954375,-2.434213973799127,-2.543899563318777,8.76968558951965,0.5222222222222223,-0.14,-0.6944444444444444,4.509825327510917,9.266512008733624,-129.03498908296945
1589996023.9054375,-2.4011700817603714,-2.621527001110326,8.77307883314828,0.5222222222222223,-0.14,-0.6944444444444444,4.014470828706975,9.533713535883718,-130.67287397799535
1589996023.9154375,-2.283131472957422,-2.727474108170311,8.794342635212889,0.5222222222222223,-0.14,-0.6944444444444444,3.7089641470080554,9.25378488204833,-132.77081685126583
1589996023.9254375,-2.27,-2.79378617889728,8.85655345527568,0.5222222222222223,-0.14,-0.6944444444444444,4.030031758851006,9.586163618108001,-134.68506351770202
1589996023.9354374,-2.27,-2.8181996769546425,8.85045008076134,0.5222222222222223,-0.14,-0.6944444444444444,4.52593093814118,9.738747980966517,-135.67686187628235
1589996023.9454374,-2.157378244030374,-2.9352435119392517,8.84,0.5422222222222223,-0.06333333333333334,-0.7111111111111111,4.335751425696075,10.279728050379678,-137.9763597481016
1589996023.9554374,-2.130150016096148,-2.97,8.805525056336517,0.5422222222222223,-0.06333333333333334,-0.7111111111111111,3.783594001502307,10.124062399399078,-139.80124879278893
1589996023.9654374,-2.1067566638316353,-2.986554170210456,8.763378331915817,0.5422222222222223,-0.06333333333333334,-0.7111111111111111,3.790541702104558,10.353041702104559,-140.89358340420912
1589996023.9754374,-2.065705671213209,-3.0271471643933956,8.751429432878679,0.5422222222222223,-0.06333333333333334,-0.7111111111111111,4.169669777458722,10.678566044508255,-141.7233111988514
1589996023.9854374,-1.9776474249260931,-3.0864680255173487,8.764705150147813,0.5484957557526408,-0.052616046885534985,-0.7176460418719638,4.319871246304652,10.625,-142.87864672475493
1589996023.9954374,-1.9667607952908246,-3.1432392047091757,8.782159469806116,0.5688888888888889,-0.017777777777777778,-0.7388888888888889,3.903758284279422,10.625,-143.56748343144116
1589996024.0054374,-1.9252916565900846,-3.1847083434099153,8.76568053204353,0.5688888888888889,-0.017777777777777778,-0.7388888888888889,3.808854292623942,10.65564238210399,-144.24756952841597
1589996024.0154374,-1.8852073382286543,-3.254543855896961,8.73,0.5688888888888889,-0.017777777777777778,-0.7388888888888889,4.185944963285093,10.904435790499274,-144.34400917278583
1589996024.0254374,-1.8558323950458422,-3.2933295801833684,8.763340839633264,0.5688888888888889,-0.017777777777777778,-0.7388888888888889,4.19266728325559,11.125,-144.1301672832556
1589996024.0354373,-1.865287339341114,-3.2661781651647215,8.825287339341115,0.5688888888888889,-0.0037643833817567023,-0.7444093169842911,3.841954129118038,11.220545870881962,-143.44504358103117
1589996024.0454373,-1.8515512576776836,-3.3292077361801695,8.811551257677683,0.5688888888888889,0.01888888888888889,-0.7533333333333333,3.6154086081456565,11.375,-142.1011774733109
1589996024.0554373,-1.768781335261059,-3.44,8.736497213347947,0.5688888888888889,0.01888888888888889,-0.7533333333333333,3.3673833453816195,11.278551523913904,-140.7731545717417
1589996024.0654373,-1.6680152996175095,-3.447190820229494,8.687190820229494,0.5688888888888889,0.01888888888888889,-0.7533333333333333,2.752576498087548,10.860019124521887,-138.93330322991926
1589996024.0754373,-1.6206091064428585,-3.476260595704761,8.735042382819044,0.5688888888888889,0.01888888888888889,-0.7533333333333333,2.523371276845244,10.890757446309513,-136.17448989848225
1589996024.0854373,-1.598551622647355,-3.492534660367129,8.788189528309193,0.5700154046076128,0.01888888888888889,-0.7535747295587741,2.4284476415459686,11.060236910386491,-134.40268714661917
1589996024.0954373,-1.5416142506804646,-3.5370178133505807,8.762982186649419,0.6,0.01888888888888889,-0.76,1.8140394669469373,10.741450400194033,-130.63466293421726
1589996024.1054373,-1.5061981716927604,-3.533003047178733,8.702588420720815,0.6,0.01888888888888889,-0.76,1.633784280760744,10.466253808973416,-127.78355574235579
1589996024.1154373,-1.479987265856063,-3.583363046335853,8.646726092671706,0.6,0.01888888888888889,-0.76,1.8123408232007887,10.270541509201445,-124.89434768320736
1589996024.1254373,-1.462215772664755,-3.6432946359885308,8.74886309065902,0.6,0.01888888888888889,-0.76,1.4794085250716833,9.604771312679208,-121.75928240902627
1589996024.1354373,-1.4632290759363369,-3.698463655079579,8.78,0.6030092995838502,0.024719406832598694,-0.7652662742717379,1.261556981946314,8.790363449204213,-118.19693018053685
1589996024.1454372,-1.4300174202232956,-3.739978224720881,8.78,0.617770035456313,0.05331833258549547,-0.7910975620485479,1.6248094663077044,8.375217752791194,-114.56440533692296
1589996024.1554372,-1.3931630751588704,-3.781224616560753,8.7622953796168,0.6177777777777778,0.05333333333333334,-0.7911111111111111,2.1403077070094128,7.967153829614411,-108.80196139328204
1589996024.1654372,-1.3530818481532803,-3.80794543456448,8.64873190310096,0.6177777777777778,0.05333333333333334,-0.7911111111111111,2.4743179320559987,7.591392326437001,-105.50361042094701
1589996024.1754372,-1.341745642759058,-3.875502904827295,8.74100580965459,0.6177777777777778,0.05333333333333334,-0.7911111111111111,2.2328034224147038,6.857803422414704,-98.8679874828351
1589996024.1854372,-1.32,-3.887698362435538,8.733173798968606,0.5985974647405933,0.04514973310413463,-0.772698010595414,2.2450409391115533,6.683032886999005,-93.81098457432371
1589996024.1954372,-1.3125530756668482,-3.9097876973326073,8.654681545998912,0.5344444444444445,0.017777777777777778,-0.7111111111111111,2.1116970604246053,5.8776537833424065,-87.71672563962983
1589996024.2054372,-1.2901436563298572,-3.9665708957800954,8.680718281649286,0.5344444444444445,0.017777777777777778,-0.7111111111111111,1.808908591753574,5.414272394502383,-82.48766316734581
1589996024.2154372,-1.279335362883585,-3.9862235752557234,8.629788602045787,0.5344444444444445,0.017777777777777778,-0.7111111111111111,2.1763592912810523,5.574961945932781,-76.68296547735022
1589996024.2254372,-1.2747877445551865,-3.985993191419548,8.725993191419548,0.5344444444444445,0.017777777777777778,-0.7111111111111111,2.01506808580452,5.11746595709774,-71.30920850252245
1589996024.2354372,-1.2071679327689346,-3.9528320672310655,8.709824470617457,0.5292523211874913,0.03414083289060002,-0.6997828421868496,2.2776476889321273,4.8666983192233655,-66.3107806710687
1589996024.2454371,-1.1893318501253662,-3.97,8.828663700250733,0.4977777777777778,0.13333333333333333,-0.6311111111111111,1.688543984179115,4.42914812656708,-61.28730532895434
1589996024.2554371,-1.1530520619114621,-4.046301547786557,8.963644333802359,0.4977777777777778,0.13333333333333333,-0.6311111111111111,1.826301547786557,3.68951996969369,-54.541742883428945
1589996024.2654371,-1.0518643351917554,-3.9912514782902515,9.009139212704849,0.4977777777777778,0.13333333333333333,-0.6311111111111111,4.521432568846089,1.7603071147997973,-49.910731067325564
1589996024.275437,-0.6658969656552184,-3.1582288540624655,7.273273313326665,0.4977777777777778,0.13333333333333333,-0.6311111111111111,13.36967183505613,-2.6975866955651884,-45.2369644048016
1589996024.285437,-0.9537743384922616,-3.59257979697121,8.205229821933766,0.49700907897413144,0.16139083966642628,-0.6234241230746472,-0.6911008487269097,5.502772923947412,-38.191025961058415
1589996024.295437,-1.0028058029014506,-3.739424512256128,9.472158679339671,0.4955555555555556,0.21444444444444444,-0.6088888888888889,-10.239210855427714,4.790020010005003,-33.675360180090046
1589996024.305437,-0.8454807005003574,-3.616442101501072,8.032770647865359,0.4955555555555556,0.21444444444444444,-0.6088888888888889,-0.03704553577230474,-1.1034251332120344,-30.166634852816948
1589996024.315437,-0.920432451751251,-3.8412973552537526,8.3939018129833,0.4955555555555556,0.21444444444444444,-0.6088888888888889,4.817783806615115,4.475369988303334,-25.14146062122295
1589996024.325437,-0.9449318283153028,-3.879727313261211,8.852329570788257,0.4955555555555556,0.21444444444444444,-0.6088888888888889,-1.8732223734541102,-0.7414052049843944,-21.45283862905686
1589996024.335437,-0.96,-3.9577972080682606,8.90186480537884,0.5034654258081158,0.22828671738642492,-0.6088888888888889,1.317271308831067,0.8310387584044382,-16.913096978924834
1589996024.345437,-0.9631239405890744,-4.031239405890744,8.92375211882185,0.5222222222222223,0.2611111111111111,-0.6088888888888889,0.9806872535033986,0.48450742636569605,-13.230793194595956
1589996024.355437,-0.97,-4.096610484714634,8.896818551668023,0.5222222222222223,0.2611111111111111,-0.6088888888888889,-0.35982360804370567,-0.34675403928862025,-11.002600836917354
1589996024.365437,-0.9770309706323599,-4.041639367845619,8.57406194126472,0.5222222222222223,0.2611111111111111,-0.6088888888888889,1.29542325160813,0.11133860128650402,-6.952185104502764
1589996024.375437,-0.9961766804058338,-4.112353360811667,8.64941344324667,0.5222222222222223,0.2611111111111111,-0.6088888888888889,0.829048925967026,-0.3492638316423589,-4.6065957910589725
1589996024.385437,-1.0176807577763072,-4.153815354070153,8.830336490734613,0.5212773457607177,0.26239957901316274,-0.6086311953084786,1.3556729814692257,-0.27899052779616146,-2.023533152713435
1589996024.395437,-0.9656336863004632,-4.015023163467902,8.613473692918596,0.5000729833075962,0.29131461872196485,-0.6028481873667182,0.9219473858371939,-0.929578921244209,0.25352622435473204
1589996024.405437,-0.9918818948734588,-4.115412070084361,8.82776119402985,0.4977777777777778,0.29444444444444445,-0.6022222222222222,0.961023685918235,-0.7669127190136276,4.879461388708631
1589996024.415437,-0.9783375278636658,-4.13555835190911,8.690570935500109,0.4977777777777778,0.29444444444444445,-0.6022222222222222,0.5832809017041778,-0.951458797727763,8.240081433810312
1589996024.425437,-0.9905898747785232,-4.135884812167785,8.720596842587247,0.4977777777777778,0.29444444444444445,-0.6022222222222222,0.3419066413171149,-1.283093358682885,11.724105880830562
1589996024.435437,-0.9654849238420888,-4.106454771526266,8.597297482126205,0.501190619279522,0.29663841398128005,-0.6045380789555487,0.36893845197388875,-1.242349238420889,15.098869288156667
1589996024.445437,-1.0157843584893353,-4.2110782075533235,8.853725132085318,0.5288888888888889,0.3144444444444445,-0.6233333333333333,-0.1694238797208271,-1.7236522405583459,19.61244781814624
1589996024.455437,-1.0333302138075013,-4.136669786192498,8.735004679288748,0.5288888888888889,0.3144444444444445,-0.6233333333333333,-0.16662767259376576,-1.906162263335973,23.176449679648695
1589996024.465437,-1.0484273990353468,-4.121572600964654,8.712358901446981,0.5288888888888889,0.3144444444444445,-0.6233333333333333,-0.3553424879418329,-2.3307705978691238,26.243065429054784
1589996024.475437,-1.0663002482189485,-4.0418498758905255,8.706648883014731,0.5288888888888889,0.3144444444444445,-0.6233333333333333,-0.2453086215789304,-2.8471851729473583,30.270277594210373
1589996024.485437,-1.0527794074981465,-4.048610296250927,8.76749266625834,0.5288888888888889,0.3144444444444445,-0.6233333333333333,-0.4565717578414622,-2.9739430547048773,32.17164582057316
1589996024.495437,-1.0779645972942218,-4.105929194588444,8.764070805411556,0.5255555555555556,0.3244444444444444,-0.6233333333333333,-0.7118361992666582,-3.0011063345555695,35.40597420660008
1589996024.505437,-1.0499707623361374,-4.079985381168068,8.747452488796222,0.5255555555555556,0.3244444444444444,-0.6233333333333333,-0.6250913676995711,-3.234352158075107,37.14119604812232
1589996024.515437,-1.0136055719224155,-4.062710692573608,8.677237198372017,0.5255555555555556,0.3244444444444444,-0.6233333333333333,-0.7784535020349778,-3.1988488326550075,38.57352315106517
1589996024.5254369,-1.1064582872128468,-4.112708308499225,8.784374946784055,0.5255555555555556,0.3244444444444444,-0.6233333333333333,-0.6445313165199326,-3.2434895611600223,39.60025990668052
1589996024.5354369,-1.1481374308170538,-4.033352624529304,8.720745027673178,0.5289495705111464,0.32340968378725204,-0.6233333333333333,-1.3031871540852689,-3.3680153655639518,40.86139244105234
1589996024.5454369,-1.10528382720457,-4.118943234559086,8.730489111031774,0.6166666666666667,0.2966666666666667,-0.6233333333333333,-1.0625,-3.213919136022849,42.20425740806855
1589996024.5554368,-1.1567915509957754,-4.128110802655402,8.663583101991552,0.6166666666666667,0.2966666666666667,-0.6233333333333333,-1.1332453228726613,-3.451649064574532,42.95989438744719
1589996024.5654368,-1.1887724663697006,-4.1812275336303,8.694648183853024,0.6166666666666667,0.2966666666666667,-0.6233333333333333,-1.3201720851893712,-3.5411209361079714,43.37336280832391
1589996024.5754368,-1.2297602092719082,-4.155577262441091,8.656731787323272,0.6166666666666667,0.2966666666666667,-0.6233333333333333,-1.186001307949426,-3.6875,43.82992894512841
1589996024.5854368,-1.2888376252995377,-4.188339464713626,8.75933578588545,0.6191943703803706,0.29622385725696676,-0.623683890782679,-1.558348661784063,-3.6854243308920314,43.94787834553984
1589996024.5954368,-1.22,-4.078523032801577,8.725738483599212,0.7688888888888888,0.27,-0.6444444444444445,-1.3125,-3.5983655224950706,44.67009656748521
1589996024.6054368,-1.2261981926788175,-4.045351355490887,8.721405421963548,0.7688888888888888,0.27,-0.6444444444444445,-1.3125,-3.6778153239393476,45.034346760606525
1589996024.6154368,-1.2518946239852964,-4.026079032011028,8.64431612804411,0.7688888888888888,0.27,-0.6444444444444445,-1.3125,-3.6376646500229746,45.43585349977025
1589996024.6254368,-1.3162678858948265,-4.091789348968618,8.713732114105174,0.7688888888888888,0.27,-0.6444444444444445,-1.8423440015797308,-3.8610045721055988,46.36196342315521
1589996024.6354368,-1.28441276544035,-4.02170808396877,8.74558723455965,0.7688888888888888,0.27,-0.6444444444444445,-1.5636116976030623,-3.7415478704013125,47.3176170367895
1589996024.6454368,-1.2787406279733586,-3.9113343482397718,8.698815604186489,1.322461993868274,0.24474929696585263,-0.890153208584417,-1.6013867745004757,-3.851386774500476,49.17035204567079
1589996024.6554368,-1.3212315901814302,-3.9742168623265743,8.805448452508005,1.4022222222222225,0.2411111111111111,-0.9255555555555556,-1.7280789754535753,-3.926539487726788,50.766566168623264
1589996024.6654367,-1.3372410617373287,-4.116205308686642,8.675517876525342,1.4022222222222225,0.2411111111111111,-0.9255555555555556,-1.7866349537874553,-3.846986728283393,53.06682523106272
1589996024.6754367,-1.3234453836792421,-4.047226918396211,8.703109232641516,1.4022222222222225,0.2411111111111111,-0.9255555555555556,-1.6573004719928954,-4.019432704009473,53.71349764003552
1589996024.6854367,-1.328879984197308,-4.038879984197308,8.736639952591924,1.4022222222222225,0.2411111111111111,-0.9255555555555556,-1.6804999012331743,-4.2289997036995235,53.6530003950673
1589996024.6954367,-1.3461036427632416,-4.007792714473517,8.820518213816207,1.1427746443699967,-0.06306880775011897,-0.8459319885595277,-1.6875,-4.19967611636487,52.97078951274331
1589996024.7054367,-1.3813066666666667,-3.8786933333333335,8.72728,1.08,-0.13666666666666666,-0.8266666666666667,-1.3213333333333332,-4.152166666666667,50.78933333333333
1589996024.7154367,-1.4463503776154512,-3.81,8.657299244769098,1.08,-0.13666666666666666,-0.8266666666666667,-1.36739662003219,-3.9146898600965705,48.42305466138418
1589996024.7254367,-1.4278075167407347,-3.7995899776790205,8.703493736049388,1.08,-0.13666666666666666,-0.8266666666666667,-1.2799686802469383,-3.725601510185204,45.70465548271632
1589996024.7354367,-1.4784134006314222,-3.73211546582477,8.661322166140481,1.08,-0.13666666666666666,-0.8266666666666667,-1.069110830702407,-3.5674581230268054,43.38521913772648
1589996024.7454367,-1.6319368104967686,-3.7703159475161563,8.849326979567858,0.6788888888888889,0.10777777777777778,-0.6944444444444444,-1.086710131209609,-3.3386848031855867,39.90290244141263
1589996024.7554367,-1.6378043356172076,-3.7267065034258113,8.683293496574189,0.6788888888888889,0.10777777777777778,-0.6944444444444444,-1.180638548803774,-3.173777097607548,37.71793356172077
1589996024.7654366,-1.624151969869074,-3.708765269723601,8.712767979912718,0.6788888888888889,0.10777777777777778,-0.6944444444444444,-1.125,-3.0538500627727627,35.92020012554553
1589996024.7754366,-1.6993770550606804,-3.8675737829058807,8.76291803670712,0.6788888888888889,0.10777777777777778,-0.6944444444444444,-1.125,-2.897131135290249,35.6067622705805
1589996024.7854366,-1.9020167001374062,-3.804454074622133,8.717058450480922,0.6751916053036442,0.11181117805259017,-0.6944444444444444,-1.1875,-3.0094532818940913,35.96901093964697
1589996024.7954366,-1.9374827185286967,-3.706922524046084,8.841189514850438,0.6101705715862782,0.18274321483517125,-0.6944444444444444,-1.1875,-3.175700243103266,36.52316747701089
1589996024.8054366,-1.8821053413565112,-3.825438427060892,8.782456231582596,0.6055555555555555,0.18777777777777774,-0.6944444444444444,-1.006579191739098,-3.0668861278260655,40.723678590000745
1589996024.8154366,-1.8123648761414302,-3.839662160551224,8.76067567889755,0.6055555555555555,0.18777777777777774,-0.6944444444444444,-2.0266045585675796,-4.08910455856758,45.524914765276684
1589996024.8254366,-1.7576388940160212,-3.8025992100114436,8.565515892059507,0.6055555555555555,0.18777777777777774,-0.6944444444444444,-1.3144842002288752,-3.937996050057219,48.96006912399867
1589996024.8354366,-1.7855879983241485,-3.835587998324148,8.901174385252505,0.6055555555555555,0.18777777777777774,-0.6944444444444444,-1.7463199748622258,-4.102939991620742,53.1966748847852
1589996024.8454366,-1.6486697909156454,-3.7928899303052153,8.798669790915646,0.6055555555555555,0.18702999889373356,-0.7198689265019474,-1.3918743777251348,-4.125,54.88806455350706
1589996024.8554366,-1.5712681643083262,-3.796195507075022,8.852245699683435,0.6055555555555555,0.18666666666666668,-0.7322222222222222,-1.2420739730729624,-4.2887219192188875,55.23505616156223
1589996024.8654366,-1.5865508078686839,-3.8496524236060514,8.704491921313162,0.6055555555555555,0.18666666666666668,-0.7322222222222222,-1.508606372948185,-4.3125,52.49799372133888
1589996024.8754365,-1.548415039139717,-3.7263398434411323,8.677132323871273,0.6055555555555555,0.18666666666666668,-0.7322222222222222,-0.9195770241954614,-3.6577819838696923,45.44643863169131
1589996024.8854365,-1.5318328457341663,-3.792668617063335,8.751752194196252,0.6055555555555555,0.18666666666666668,-0.7322222222222222,-1.3859512137265755,-3.3468658575156165,38.34718707993991
1589996024.8954365,-1.4413881763407503,-3.748329058044503,8.765552705363001,0.56,0.11666666666666667,-0.7466666666666667,-0.7066194893515481,-2.2535345701843346,25.467864493229136
1589996024.9054365,-1.4497285688719204,-3.798371413231522,8.798914275487682,0.56,0.11666666666666667,-0.7466666666666667,-0.4459822227524906,-1.5237502237069736,15.511520909145142
1589996024.9154365,-1.3284142691639313,-3.5098216354508596,8.598235904614791,0.56,0.11666666666666667,-0.7466666666666667,0.6219649063525777,-0.21834723160841862,1.701373636319753
1589996024.9254365,-1.3002397634505367,-3.7513869426410404,8.81081335304579,0.56,0.11666666666666667,-0.7466666666666667,1.2972496303914636,0.8953338261447151,-10.62943798075893
1589996024.9354365,-1.1923963489104583,-3.8772042596044654,8.819800304257463,0.56,0.11666666666666667,-0.7466666666666667,1.1287442951725912,1.1200076064365452,-20.346578978380577
1589996024.9454365,-19.31364001955208,-9.948549146818342,-4.337635087095629,0.5114030098352886,0.12172885314215744,-0.6282115031401825,-36.29088578697121,126.58496406194453,-54.846157905261286
1589996024.9554365,-0.514866736372783,-1.9017536349109274,0.4043583420465979,0.5066666666666667,0.12222222222222222,-0.6166666666666667,-27.278107676221666,-81.47473440983251,-340.30425486792006
1589996024.9654365,-0.9782430113042277,-2.3237570281520643,0.46228037641302844,0.5066666666666667,0.12222222222222222,-0.6166666666666667,-11.03925161277595,-47.08352650476434,-382.55631029414667
1589996024.9754364,-0.431674643731107,-1.4904059306175328,-0.04020836332229749,0.5066666666666667,0.12222222222222222,-0.6166666666666667,-8.302650874478193,-26.35157824420613,-377.8034515798186
1589996024.9854364,-0.13824816610717394,-1.085912387583406,0.057226159393261256,0.5066666666666667,0.12222222222222222,-0.6166666666666667,-2.8800198930747234,-14.458030274773094,-354.59854583695966
1589996024.9954364,-0.17222680292648937,-1.2992811520148648,1.059717028606821,0.4933333333333334,0.2733333333333333,-0.6522222222222223,-5.538525093872179,-5.779849175473232,-335.6309516896992
1589996025.0054364,1.8004726512600162,-3.6860039484380445,6.742390353423916,0.4933333333333334,0.2733333333333333,-0.6522222222222223,-4.675976464212441,0.1565149227731979,-320.10507635582394
1589996025.0154364,1.8471052254831783,1.1694173228346456,9.282823192555476,0.4933333333333334,0.2733333333333333,-0.6522222222222223,95.98148711524696,133.69815676449534,-280.17765748031496
1589996025.0254364,-0.7349810561212409,-1.2491345015391901,4.35317191569974,0.4933333333333334,0.2733333333333333,-0.6522222222222223,58.598304670850105,134.44406005801562,-249.4183119228037
1589996025.0354364,2.3936111768884683,-2.4906393559081224,17.01652143026285,0.4933333333333334,0.2733333333333333,-0.6522222222222223,-22.047781494198432,30.00246418422921,-220.76024153445417
1589996025.0454364,1.4743426395561572,-0.5877370558224628,7.810677663577813,0.42777777777777776,0.3855555555555555,-0.6466666666666666,23.73196702414065,-2.6751554342490813,-196.7188768945873
1589996025.0554364,1.4431494399904805,-0.5752597759961922,6.656529279647781,0.42777777777777776,0.3855555555555555,-0.6466666666666666,39.4845328048073,16.00177280569975,-189.31049199773915
1589996025.0654364,0.5204592314901593,-2.4088541624220694,10.005889328063242,0.42777777777777776,0.3855555555555555,-0.6466666666666666,3.5520659304836784,13.494371663746383,-173.89139857789007
1589996025.0754364,-1.2989844980518943,-1.7203879631932355,8.28077592638647,0.42777777777777776,0.3855555555555555,-0.6466666666666666,-26.103892066650086,5.89967255243306,-160.65469825084972
1589996025.0854363,0.5351307717814808,-2.763486694852027,10.366973389704054,0.42777777777777776,0.3855555555555555,-0.6466666666666666,-2.9601389579706563,16.22200375113985,-145.27985757067066
1589996025.0954363,0.4082855964039869,-2.88,9.596766194002301,0.38013316154312005,0.4287053966737361,-0.6232938360609855,-2.043685261992139,7.160623547805693,-122.22355513452476
1589996025.1054363,0.01432867166245048,-2.9569834375447472,10.046094219846307,0.3688888888888889,0.4388888888888889,-0.6177777777777778,-2.809856928070259,5.504140613813183,-116.17883692902487
1589996025.1154363,0.1877184604419102,-2.8888189593727724,9.03124661439772,0.3688888888888889,0.4388888888888889,-0.6177777777777778,-6.219970598717035,13.989486813970064,-103.08525926585888
1589996025.1254363,0.15194342417662696,-2.532310517664725,7.788706548428337,0.3688888888888889,0.4388888888888889,-0.6177777777777778,7.216003520769496,4.78873353761237,-92.85946599971591
1589996025.1354363,0.04129608961220804,-2.8387185210738854,8.86964589378843,0.3688888888888889,0.4388888888888889,-0.6177777777777778,-0.9761549037115191,5.320691876864385,-73.7621616205686
1589996025.1454363,0.14,-2.95,9.02,0.3388888888888889,0.5166666666666667,-0.6466666666666666,7.1875,3.1875,-60.6875
1589996025.1554363,0.14,-2.9459313402695466,8.924386496334343,0.3388888888888889,0.5166666666666667,-0.6466666666666666,5.801612779314281,3.3273601782343385,-58.23358960007024
1589996025.1654363,0.14,-2.964326678975306,8.48821197784445,0.3388888888888889,0.5166666666666667,-0.6466666666666666,1.276075323101777,2.9310163281790906,-40.257871999769215
1589996025.1754363,0.1,-3.0319581808380853,8.853636621556443,0.3388888888888889,0.5166666666666667,-0.6466666666666666,-0.6717646182653843,1.2360129940136748,-23.38633784435555
1589996025.1854362,0.1,-3.0736072573552358,8.930984906516867,0.3388888888888889,0.5166666666666667,-0.6466666666666666,-0.3370845391097114,0.9385195903197435,-15.651509348313331
1589996025.1954362,0.1,-2.961668667466987,8.501604141656664,0.3164740896358543,0.5365197745764972,-0.6505092036814726,-0.5212616296518607,0.2816908013205282,-3.3651241746698677
1589996025.2054362,0.11176938140767192,-2.989463195484391,8.2971172675959,0.3,0.5511111111111111,-0.6533333333333333,-0.0033550282225549566,-0.6877483872825711,9.23446679530008
1589996025.2154362,0.11267780634104542,-3.204477292202228,8.788076263924593,0.3,0.5511111111111111,-0.6533333333333333,-0.6273564695801199,-1.71992823479006,22.853577549271638
1589996025.2254362,2.814714224075938,-22.5792946929383,4.620290522076801,0.3,0.5511111111111111,-0.6533333333333333,-25.335576369912268,-17.108172731195168,105.32094599453472
1589996025.2354362,0.5157807448461185,-3.81673930385859,8.992521518243272,0.3,0.5511111111111111,-0.6533333333333333,-26.217824977956923,-28.49974545492715,252.47302215854222
1589996025.2454362,-1.201252023308514,-3.0428318225963094,11.73095702492716,0.3016154994424661,0.5381871155713823,-0.6702960774792274,19.986704333926838,-9.587963337649725,278.3503358692133
1589996025.2554362,-0.7940230836334355,-1.4941689220927372,1.7596383116737873,0.3022222222222222,0.5333333333333333,-0.6766666666666666,15.62017692978728,-7.637286946115821,275.6075852215537
1589996025.2654362,-1.4601274968125797,-3.1172120696982573,8.392537186570335,0.3022222222222222,0.5333333333333333,-0.6766666666666666,-32.10948788780281,-31.971206969825754,265.8740172120697
1589996025.2754362,0.04329064943354077,-3.622154140737195,10.184148316578906,0.3022222222222222,0.5333333333333333,-0.6766666666666666,-23.50706328785703,-23.92832246290091,266.21319261608426
1589996025.2854362,3.5485796633157816,-7.035418860698899,7.281200135631083,0.3022222222222222,0.5333333333333333,-0.6766666666666666,1.2244657032870592,-18.124517562230732,263.23286036979414
1589996025.2954361,5.366519273371733,-18.78603234381923,10.255509968985379,0.38666666666666666,0.4955555555555556,-0.6555555555555556,-26.761572330527247,-25.39015285777581,26.55907454585733
1589996025.3054361,-1.8253021710234822,1.2377082410279137,5.089291980505094,0.38666666666666666,0.4955555555555556,-0.6555555555555556,2.2171009636685852,15.377439632255204,-82.79331385688967
1589996025.3154361,-1.8898433078515013,-0.4401034759471217,6.2796940068420835,0.38666666666666666,0.4955555555555556,-0.6555555555555556,52.4938468767158,32.993412647294846,-61.7472560396165
1589996025.325436,-0.9509663386408749,-1.0601165688220635,4.446226717911898,0.38666666666666666,0.4955555555555556,-0.6555555555555556,15.625211175402285,-6.477063711618868,-45.30583741605778
1589996025.335436,-1.0113131738417815,-1.711411214531675,6.693441047772281,0.38666666666666666,0.4955555555555556,-0.6555555555555556,-16.25329684375141,-3.2523128655850115,-32.95429435514187
1589996025.345436,-0.9937346889205038,-2.4959040910510426,9.42000104097991,0.4046787420336121,0.4710776069799631,-0.6606358845052068,-26.86142822443527,0.7827518303896737,-18.79517202192998
1589996025.355436,-0.37204125368336466,-3.131392981516207,8.848510581301902,0.43,0.43666666666666665,-0.6677777777777778,5.2446591213501215,1.4658451647468524,-4.609479641039378
1589996025.365436,1.691797027766914,-11.435175596402033,6.475822057098162,0.43,0.43666666666666665,-0.6677777777777778,0.7470228783730946,-2.034816190848651,-25.82227219397732
1589996025.375436,0.6373251751483446,-7.65480544207627,8.306389263729967,0.43,0.43666666666666665,-0.6677777777777778,-3.942380122742481,4.109955265541526,-74.79996464683808
1589996025.385436,-5.53155140186916,-9.988130841121496,6.425289719626168,0.43,0.43666666666666665,-0.6677777777777778,11.055140186915889,11.735280373831776,-85.22593457943925
1589996025.395436,-3.3584533090866886,-7.142477800777699,7.910367181907876,0.42493694367598916,0.44389960427239644,-0.6677777777777778,-0.02999796869861271,4.753871563715154,-20.222088951655024
1589996025.405436,1.2459284716606631,-2.373049694920238,9.318785194442404,0.4222222222222222,0.4477777777777778,-0.6677777777777778,0.4896392339925022,-12.897421524663677,45.44447915900904
1589996025.415436,0.33461724415793714,-2.4903016000920917,8.756612562833354,0.4222222222222222,0.4477777777777778,-0.6677777777777778,0.2674014811404013,-2.842880645408849,11.915750546794058
1589996025.425436,-1.4803356119791666,-3.4544957682291666,8.180176106770833,0.4222222222222222,0.4477777777777778,-0.6677777777777778,-0.7131998697916666,6.6971984863281255,-23.782293701171877
1589996025.435436,-1.1403104667747797,-6.760865946347277,8.940833317051249,0.4222222222222222,0.4477777777777778,-0.6677777777777778,-2.7367748773959084,1.3585070631679725,-8.020731570309295
1589996025.445436,0.6148994854421681,-3.8955946179168395,8.732152833264086,0.41033007695285173,0.4477777777777778,-0.6904809642011215,2.0389653712167215,-0.4341242129821982,5.2721343762983786
1589996025.455436,0.1471790113581828,-4.47376131818909,8.654253719404895,0.41,0.4477777777777778,-0.6911111111111111,0.21511158214685655,-0.601865701487762,0.8566689329707247
1589996025.465436,-0.14194420692603676,-4.617872666381644,8.539537907937865,0.41,0.4477777777777778,-0.6911111111111111,-0.26389482684908083,-0.23032902237423403,-0.6024409469858915
1589996025.475436,-0.09743430433896924,-4.6538923405989,8.816633224689346,0.41,0.4477777777777778,-0.6911111111111111,0.48505932980240385,-0.007744067019759625,-0.25
1589996025.485436,-0.1462640712945591,-4.59327626641651,8.788391181988743,0.41,0.4477777777777778,-0.6911111111111111,0.33872244371482174,-0.031968222326454035,-0.18606355534709193
1589996025.495436,-0.1875614121948433,-4.529950870244125,8.739901740488252,0.4113820653116841,0.44943625615179866,-0.6888998066124166,-0.0149341128080131,-0.0935964695128918,-0.1094517652435541
1589996025.505436,-0.15425395852878668,-4.615301460874227,8.753206456183346,0.4155555555555556,0.4544444444444444,-0.6822222222222222,-0.5970234448295009,-0.2140872408049168,-0.19543620402458406
1589996025.515436,-0.15583234369542437,-4.685832343695425,8.652491093258819,0.4155555555555556,0.4544444444444444,-0.6822222222222222,-0.6562128885784142,-0.2760478519035976,-0.2708085923856095
1589996025.525436,-0.15,-4.675401304284465,8.632190870008744,0.4155555555555556,0.4544444444444444,-0.6822222222222222,-0.1213396695569805,-0.2837581517779073,-0.21122554466627805
1589996025.535436,-0.15797741506311452,-4.634101632215985,8.697920952720901,0.4155555555555556,0.4544444444444444,-0.6822222222222222,0.42450595450563,-0.22507057792776713,-0.1878528896388357
1589996025.545436,-0.16009956243262097,-4.58495021878369,8.769701312702137,0.4188557014113486,0.4544444444444444,-0.6750719062013374,0.5018667956116432,-0.15656113260194052,-0.15469433699029742
1589996025.555436,-0.1570564784053156,-4.618225913621262,8.8,0.4222222222222222,0.4544444444444444,-0.6677777777777778,-0.2167358803986711,0.007308970099667772,-0.2242940199335548
1589996025.565436,-0.16,-4.647358465185882,8.672704588636861,0.4222222222222222,0.4544444444444444,-0.6677777777777778,-0.40133653086274446,0.026336530862744442,-0.22366346913725554
1589996025.5754359,-0.16,-4.6777998805046925,8.597799880504692,0.4222222222222222,0.4544444444444444,-0.6677777777777778,-0.18958457807612553,0.0,-0.25
1589996025.5854359,-0.14846924829157176,-4.6265808656036445,8.650357630979498,0.4222222222222222,0.4544444444444444,-0.6677777777777778,0.15370159453302962,0.0,-0.21396640091116173
1589996025.5954359,-0.1625249512446943,-4.6100332683262595,8.740066536652519,0.4022000433380496,0.44943889972340123,-0.6786231246733713,0.12479207296088105,0.0,-0.23442698175977975
1589996025.6054358,-0.14530072042760867,-4.595300720427608,8.710601440855216,0.3955555555555556,0.4477777777777778,-0.6822222222222222,-0.4006114919823379,-0.3087409946548919,-0.25
1589996025.6154358,-0.14767100031273733,-4.659039002814636,8.600276995934415,0.3955555555555556,0.4477777777777778,-0.6822222222222222,-0.5,-0.13528124022695795,-0.34588750390921685
1589996025.6254358,-0.1579480002017451,-4.656155999394765,8.57,0.3955555555555556,0.4477777777777778,-0.6822222222222222,-0.15227499117365212,-0.1618500025218137,-0.42467500126090685
1589996025.6354358,-0.1538220029239766,-4.662355994152047,8.650313961988303,0.3955555555555556,0.4477777777777778,-0.6822222222222222,0.24639985380116958,-0.1875,-0.2830500730994152
1589996025.6454358,-0.15,-4.603641527295677,8.766358472704324,0.3911316573752674,0.4617867886820238,-0.6822222222222222,0.6033961817608078,-0.14602595455979805,-0.1045519091195961
1589996025.6554358,-0.15,-4.601449468419333,8.8,0.3888888888888889,0.4688888888888889,-0.6822222222222222,0.2452418503531304,-0.026720411189584542,-0.16077958881041546
1589996025.6654358,-0.15,-4.6035065540343725,8.670131080687446,0.3888888888888889,0.4688888888888889,-0.6822222222222222,-0.19967229828138655,-0.12175211185551996,-0.14691596271482668
1589996025.6754358,-0.15,-4.655490049301774,8.624662244134122,0.3888888888888889,0.4688888888888889,-0.6822222222222222,-0.375,-0.0718957306213056,-0.125
1589996025.6854358,-0.15536980870254732,-4.679260382594905,8.656109426107642,0.3888888888888889,0.4688888888888889,-0.6822222222222222,-0.07294826048171277,-0.06712260878184162,-0.292806521954604
1589996025.6954358,-0.156048474540236,-4.642339321781652,8.693709152758585,0.39723099819283514,0.463181129891452,-0.6800269303001311,0.23689406824705006,-0.125,-0.31401482938237485
1589996025.7054358,-0.15823985589106343,-4.595880072054468,8.73,0.41,0.4544444444444444,-0.6766666666666666,0.15800270204256098,-0.15074954965957316,-0.15074954965957316
1589996025.7154357,-0.1656396209368933,-4.607441516252426,8.673315072179612,0.41,0.4544444444444444,-0.6766666666666666,-0.19876184572208447,-0.1329952617111662,-0.2692571074332507
1589996025.7254357,-0.16,-4.652237120677487,8.595552575864502,0.41,0.4544444444444444,-0.6766666666666666,-0.3194071983062809,-0.0625,-0.26381439661256173
1589996025.7354357,-0.14952034389683097,-4.664280515845246,8.64763810856743,0.41,0.4544444444444444,-0.6766666666666666,-0.11900429871038687,-0.12799785064480657,-0.19049785064480657
1589996025.7454357,-0.15029958824364617,-4.639700411756354,8.730898764730938,0.4128609967343462,0.458449839872529,-0.6841052581759667,0.25748970609115435,-0.09094136021581713,-0.2178137867386057
1589996025.7554357,-0.15312854102755438,-4.595642705137772,8.753128541027554,0.4155555555555556,0.4622222222222222,-0.6911111111111111,0.45705338142221485,-0.08589323715557029,-0.23044661857778515
1589996025.7654357,-0.1572352037802717,-4.616176018901358,8.70658877731837,0.4155555555555556,0.4622222222222222,-0.6911111111111111,0.12095983461311283,-0.07977997637330184,-0.25
1589996025.7754357,-0.1532565503400602,-4.63,8.66302620136024,0.4155555555555556,0.4622222222222222,-0.6911111111111111,-0.29502592262236593,-0.1046465603746237,-0.2921465603746237
1589996025.7854357,-0.14501940208777395,-4.65490298956113,8.664941793736679,0.4155555555555556,0.4622222222222222,-0.6911111111111111,-0.281856315242936,-0.1872574739028256,-0.2191137891457616
1589996025.7954357,-0.14888415594036486,-4.666673766089453,8.688884155940364,0.41012634914755486,0.45876727268985806,-0.6807462625140188,-0.06947402537271971,-0.16671103805907955,-0.15276298731364016
1589996025.8054357,-0.16,-4.618870942571785,8.731129057428214,0.4033333333333333,0.4544444444444444,-0.6677777777777778,0.03891132178526842,-0.02358867821473158,-0.1485886782147316
1589996025.8154356,-0.14896895608814542,-4.6,8.683813736528872,0.4033333333333333,0.4544444444444444,-0.6677777777777778,0.0969720122245456,-0.1378880488981824,-0.0905279877754544
1589996025.8254356,-0.14,-4.617762669962917,8.659604449938195,0.4033333333333333,0.4544444444444444,-0.6677777777777778,-0.13403893695920893,-0.17598887515451173,-0.24752781211372063
1589996025.8354356,-0.14539279139066563,-4.662356748343994,8.663821625828003,0.4033333333333333,0.4544444444444444,-0.6677777777777778,-0.24509010761667965,-0.15870494619166017,-0.24018021523335928
1589996025.8454356,-0.14553124762892333,-4.654249981031387,8.681281266597537,0.40631250158071774,0.4544444444444444,-0.6677777777777778,0.03593761855383293,-0.15957029768077088,-0.18085940463845823
1589996025.8554356,-0.15579224798069863,-4.615264082660233,8.72,0.41,0.4544444444444444,-0.6677777777777778,0.4112015498793664,-0.026298450120633587,-0.2829005166264555
1589996025.8654356,-0.1620742006670096,-4.616037100333505,8.700185501667525,0.41,0.4544444444444444,-0.6677777777777778,0.42569563125321475,-0.01180436874678524,-0.3372681229155951
1589996025.8754356,-0.146099649122807,-4.619750877192983,8.673900350877194,0.41,0.4544444444444444,-0.6677777777777778,0.2271798245614035,-0.11281140350877193,-0.35062280701754384
1589996025.8854356,-0.13321598429328235,-4.653568031413435,8.69,0.41,0.4544444444444444,-0.6677777777777778,-0.2053996073320583,-0.1629995091650729,-0.2700999018330146
1589996025.8954356,-0.14,-4.642016178541764,8.69,0.41037336639662303,0.4544444444444444,-0.6687485304089977,-0.3665992560759814,-0.3539981401899534,-0.3209007439240186
1589996025.9054356,-0.15035717346588962,-4.6527380442235176,8.703809564621187,0.4155555555555556,0.4544444444444444,-0.6822222222222222,-0.12053533167637984,-0.08407744472060336,-0.3296127763969832
1589996025.9154356,-0.15654532561162984,-4.62448489146279,8.6851510853721,0.4155555555555556,0.4544444444444444,-0.6822222222222222,0.15303057164243786,-0.18106114328487571,-0.125
1589996025.9254355,-0.14,-4.611324184637319,8.654901087150241,0.4155555555555556,0.4544444444444444,-0.6822222222222222,0.03186820531099627,-0.21109205132774905,-0.16390794867225095
1589996025.9354355,-0.1544558596761758,-4.624093099460293,8.679637239784117,0.4155555555555556,0.4544444444444444,-0.6822222222222222,-0.1528491229760987,-0.12726725134926753,-0.21761637432536624
1589996025.9454355,-0.16331231684575082,-4.65,8.68331231684575,0.4114686380724033,0.4544444444444444,-0.6822222222222222,-0.16640396057188528,-0.020701980285942632,-0.25
1589996025.9554355,-0.15,-4.637649549115441,8.67,0.4033333333333333,0.4544444444444444,-0.6822222222222222,0.12865053004749774,-0.04042042403799821,-0.1985397879810009
1589996025.9654355,-0.15510162184356394,-4.62,8.654695134469309,0.4033333333333333,0.4544444444444444,-0.6822222222222222,0.3443851365222747,-0.09184459043317594,-0.18877027304454935
1589996025.9754355,-0.15443497261032807,-4.603304917830984,8.667825136948359,0.4033333333333333,0.4544444444444444,-0.6822222222222222,0.20109289407275188,-0.06956284237089924,-0.18043715762910076
1589996025.9854355,-0.15,-4.621230172984214,8.700410057661404,0.4033333333333333,0.4544444444444444,-0.6822222222222222,-0.06762572076755838,-0.05993713961622081,-0.22259429057566876
1589996025.9954355,-0.1553239997431122,-4.644676000256887,8.688704001027551,0.4098404441304705,0.4508951112823696,-0.6745320003710602,-0.22077499839445122,-0.06654999678890244,-0.3125
1589996026.0054355,-0.14091295659447906,-4.6527246956036805,8.695449391207362,0.4155555555555556,0.4477777777777778,-0.6677777777777778,-0.210235326238498,-0.085235326238498,-0.193205978715494
1589996026.0154355,-0.14252903328302485,-4.647470966716975,8.6765892445786,0.4155555555555556,0.4477777777777778,-0.6677777777777778,-0.056989236635157675,-0.010295694654063076,-0.125
1589996026.0254354,-0.15785226718673817,-4.632147732813261,8.642886396879572,0.4155555555555556,0.4477777777777778,-0.6677777777777778,0.09815333983422721,0.008806679668454415,-0.1384233300828864
1589996026.0354354,-0.1532883583651987,-4.64,8.69,0.4155555555555556,0.4477777777777778,-0.6677777777777778,0.02055223978249175,-0.1875,-0.20805223978249174
1589996026.0454354,-0.15938658602189623,-4.64,8.69,0.4155555555555556,0.4477777777777778,-0.6677777777777778,0.058666162636851364,-0.1875,-0.24616616263685137
1589996026.0554354,-0.14308840935991987,-4.6530884093599205,8.71,0.41,0.4544444444444444,-0.6611111111111111,-0.2545923245015023,-0.0625,-0.20680255849949922
1589996026.0654354,-0.15,-4.635574306507753,8.677432408677005,0.41,0.4544444444444444,-0.6611111111111111,0.10399087648982175,-0.0625,-0.2754434307210913
1589996026.0754354,-0.15,-4.6,8.658323131479683,0.41,0.4544444444444444,-0.6611111111111111,0.4375,-0.1333078286992072,-0.1708843426015856
1589996026.0854354,-0.15,-4.604491766378391,8.706950598270348,0.41,0.4544444444444444,-0.6611111111111111,0.26905876081033053,-0.13135292027011017,-0.14672061959483473
1589996026.0954354,-0.15285470398146453,-4.615709407962929,8.731435888055607,0.41570940796292905,0.45254130845680135,-0.6655517617489448,0.02681620023169319,-0.0625,-0.25
1589996026.1054354,-0.15516097978393412,-4.632419510108033,8.705160979783935,0.43,0.4477777777777778,-0.6766666666666666,-0.10786581452561772,-0.0625,-0.2348780618247941
1589996026.1154354,-0.14447720483179635,-4.644477204831796,8.649705156513832,0.43,0.4477777777777778,-0.6766666666666666,-0.13806987920509156,-0.11846506039745422,-0.2154825301987271
1589996026.1254354,-0.14560480419430774,-4.645604804194308,8.621975979028461,0.43,0.4477777777777778,-0.6766666666666666,0.027469973785576716,-0.13256005242884655,-0.19506005242884655
1589996026.1354353,-0.14417122076270344,-4.631657558474593,8.670856103813517,0.43,0.4477777777777778,-0.6766666666666666,0.03642987023310347,-0.0625,-0.17714025953379306
1589996026.1454353,-0.15,-4.627536076006095,8.703768038003048,0.42455727844004265,0.4502898031131427,-0.6766666666666666,0.0,-0.015399524961907322,-0.25
1589996026.1554353,-0.15,-4.64,8.71,0.4155555555555556,0.4544444444444444,-0.6766666666666666,-0.06121382449946578,0.09310691224973289,-0.2806069122497329
1589996026.1654353,-0.15,-4.634653192343729,8.65653192343729,0.4155555555555556,0.4544444444444444,-0.6766666666666666,0.00867019140677286,-0.10892283496185251,-0.21224735644492035
1589996026.1754353,-0.15,-4.624555429939482,8.659001130544656,0.4155555555555556,0.4544444444444444,-0.6766666666666666,0.29514281439116846,-0.2784714371217663,-0.1590285628782337
1589996026.1854353,-0.14688539149171592,-4.613770782983432,8.709343825524853,0.4155555555555556,0.4544444444444444,-0.6766666666666666,0.3207021809393472,-0.28893260635355095,-0.16803369682322453
1589996026.1954353,-0.14077890690970504,-4.60155781381941,8.727663279270885,0.4155555555555556,0.4544444444444444,-0.6766666666666666,0.09170900911393881,-0.36526366362868706,-0.12986816818565647
1589996026.2054353,-0.14617910346924298,-4.625283586123029,8.71179103469243,0.3955555555555556,0.4477777777777778,-0.6966666666666667,-0.2352612066344627,-0.2647387933655373,-0.19664180995169409
1589996026.2154353,-0.14,-4.65,8.616627628051361,0.3955555555555556,0.4477777777777778,-0.6966666666666667,-0.24297422510700342,-0.1527371125535017,-0.3125
1589996026.2254353,-0.1360888286150195,-4.653911171384981,8.609555856924903,0.3955555555555556,0.4477777777777778,-0.6966666666666667,-0.16305517884387183,-0.125,-0.26361035768774366
1589996026.2354352,-0.13165544717681002,-4.65503365846957,8.64827723588405,0.3955555555555556,0.4477777777777778,-0.6966666666666667,-0.07326727572468747,-0.09396036543481248,-0.1875
1589996026.2454352,-0.14242057267156094,-4.627579427328439,8.699682290686244,0.40039670089867746,0.451274160525588,-0.6896739011710462,0.15724284160548826,0.0019856832109765507,-0.21775715839451174
1589996026.2554352,-0.15227363303044794,-4.624547266060896,8.725452733939104,0.4155555555555556,0.4622222222222222,-0.6677777777777778,0.03407958711940061,-0.15907958711940062,-0.26986938067910093
1589996026.2654352,-0.155207784482026,-4.64,8.652493413784313,0.4155555555555556,0.4622222222222222,-0.6677777777777778,0.027354040962012396,-0.09245134698733747,-0.09504865301266253
1589996026.2754352,-0.1544898642557247,-4.63102027148855,8.630408778301522,0.4155555555555556,0.4622222222222222,-0.6677777777777778,0.15306165159827936,-0.09693834840172064,-0.14668495479483812
1589996026.2854352,-0.16,-4.623804543014236,8.691413629042708,0.4155555555555556,0.4622222222222222,-0.6677777777777778,0.1875,-0.08627839383897662,-0.20244321232204676
1589996026.2954352,-0.15413315800401411,-4.624133158004014,8.721733683991973,0.41197026322467534,0.45994067255711657,-0.6677777777777778,0.1875,-0.10666611876254412,-0.16166776247491177
1589996026.3054352,-0.14,-4.614834448986927,8.73549665303922,0.4033333333333333,0.4544444444444444,-0.6677777777777778,0.03642346915854261,-0.0020693876634170494,-0.2802153061682915
1589996026.3154352,-0.14490017069259814,-4.634700512077795,8.66609812238142,0.4033333333333333,0.4544444444444444,-0.6677777777777778,-0.21687820048621528,0.031873933171261574,-0.3125
1589996026.3254352,-0.14478481250293332,-4.655215187497067,8.6256455624912,0.4033333333333333,0.4544444444444444,-0.6677777777777778,-0.21471523442999954,-0.06518984371333365,-0.24731015628666636
1589996026.3354352,-0.14282506684842447,-4.651524799454727,8.656950401090548,0.4033333333333333,0.4544444444444444,-0.6677777777777778,-0.019059993184082205,-0.125,-0.20515666780265296
1589996026.3454351,-0.1483227599224034,-4.6350317202327895,8.68993655953442,0.4033333333333333,0.4544444444444444,-0.6677777777777778,0.1871034970901274,-0.125,-0.23951724951502124
1589996026.3554351,-0.1414917692079306,-4.628508230792069,8.735524692376208,0.43666666666666665,0.4544444444444444,-0.6822222222222222,0.17817644245043382,-0.053176442450433806,-0.08114711509913239
1589996026.3654351,-0.15,-4.62329055127735,8.68038503850385,0.43666666666666665,0.4544444444444444,-0.6822222222222222,0.125,0.0,-0.20806594548343724
1589996026.375435,-0.15464297678253924,-4.63464297678254,8.624642976782539,0.43666666666666665,0.4544444444444444,-0.6822222222222222,0.0959813951091298,0.029018604890870204,-0.2645093024454351
1589996026.385435,-0.16736956097983582,-4.644739121959672,8.663673951181478,0.43666666666666665,0.4544444444444444,-0.6822222222222222,0.04932073162807823,0.09211951224794784,-0.32894024387602605
1589996026.395435,-0.15852109913511292,-4.628521099135113,8.732957801729775,0.4335445426185717,0.45263689894291576,-0.6843584123603924,0.19674313040554425,0.01848626081108849,-0.3565137391889115
1589996026.405435,-0.15068611884258307,-4.620686118842583,8.748627762314834,0.41700402866767544,0.44306081191871266,-0.6956756061162689,0.24571175723385574,0.1164235144677115,-0.2585764855322885
1589996026.415435,-0.14,-4.644628583723307,8.68611424883008,0.4155555555555556,0.44222222222222224,-0.6966666666666667,-0.06857148620300145,-0.0625,0.125
