time,acc_x,acc_y,acc_z,mag_x,mag_y,mag_z,gyr_x,gyr_y,gyr_z
1589996032.3523998,-3.91,-0.93,8.88,0.3233333333333333,-0.3388888888888889,-0.6311111111111111,0.3125,0.25,-4.25
1589996032.3623998,-4.080602678571428,-0.9174246651785715,8.980301339285715,0.3233333333333333,-0.3388888888888889,-0.6311111111111111,0.625,0.11078752790178571,-4.792637416294643
1589996032.3723998,-4.122428880866425,-0.9136606498194946,9.012928519855596,0.3222758122743682,-0.33848215002005616,-0.6294841556357802,0.6021209386281589,0.24084837545126353,-4.0729963898916965
1589996032.3823998,-3.918602231673298,-0.9525591073306809,9.035118214661363,0.3088888888888889,-0.3333333333333333,-0.6088888888888889,0.1962360520418896,-0.13078068550784283,-0.18024163122513376
1589996032.3923998,-3.9457336476134355,-0.9442663523865644,8.997200942840307,0.3088888888888889,-0.3333333333333333,-0.6088888888888889,0.07999410724808485,-0.5891647024160283,-0.08916470241602828
1589996032.4023998,-3.9323280612854243,-0.95,8.98,0.3088888888888889,-0.3333333333333333,-0.6088888888888889,0.1395503830339015,-1.0325717442118374,-0.10102519151695075
1589996032.4123998,-3.9109035447235865,-0.95,8.98545787316585,0.3088888888888889,-0.3333333333333333,-0.6088888888888889,0.11935284547758346,-1.7557234145731002,-0.028388292713449927
1589996032.4223998,-3.873399771841839,-0.9466002281581609,8.979402053423449,0.30473361219330786,-0.33522209546768833,-0.6137996704382119,0.396248574011494,-1.871262833896554,0.103751425988506
1589996032.4323997,-3.888031187695813,-0.9359844061520934,8.90795321845628,0.2966666666666667,-0.3388888888888889,-0.6233333333333333,0.5127923846482484,-1.1486355383081743,0.012305076901167757
1589996032.4423997,-3.8943011971703245,-0.947096408489026,8.884301197170325,0.2966666666666667,-0.3388888888888889,-0.6233333333333333,0.5893824823145293,-0.4469124115726465,-0.026882482314529298
1589996032.4523997,-3.89,-0.9544997246630115,8.907501376684943,0.2966666666666667,-0.3388888888888889,-0.6233333333333333,0.5281232791438217,-0.20936983743146503,0.03437672085617832
1589996032.4623997,-3.8988289250367094,-0.95,8.987388012738611,0.2966666666666667,-0.3388888888888889,-0.6233333333333333,0.6379519536985832,-0.04222882778085013,0.007319218520566752
1589996032.4723997,-3.9216103872270143,-0.9422597418486572,9.079350645378357,0.29924675271711426,-0.3315786450792874,-0.6143030321567667,0.8366883067229461,0.014123386554107789,-0.038311693277053895
1589996032.4823997,-3.929932197936059,-0.9400678020639408,9.11,0.3033333333333333,-0.32,-0.6,0.843538118550185,-0.34565693304833484,-0.06292376289962996
1589996032.4923997,-3.895371796734971,-0.9302974373879765,9.011487186939883,0.3033333333333333,-0.32,-0.6,0.9664262704064331,-0.8404967785690065,-0.06342949183742673
1589996032.5023997,-3.8659572091590118,-0.922128372522965,8.922128372522964,0.3033333333333333,-0.32,-0.6,1.099732557243823,-1.0625,-0.07580232826853082
1589996032.5123997,-3.8618405082337204,-0.9381594917662793,8.941840508233721,0.3033333333333333,-0.32,-0.6,0.9359650589317061,-0.970474588313968,-0.14148729415698402
1589996032.5223997,-3.8688526289392295,-0.9311473710607707,8.948852628939228,0.3033333333333333,-0.32,-0.6,0.4538817604279862,-0.6198685530385355,0.03381572348073228
1589996032.5323997,-3.8821477403712388,-0.9121477403712389,8.92785225962876,0.3088888888888889,-0.3333333333333333,-0.6233333333333333,0.07592337732024325,0.04027013196072976,-0.08472986803927024
1589996032.5423996,-3.8909384888477274,-0.9218769776954542,8.915307555761364,0.3088888888888889,-0.3333333333333333,-0.6233333333333333,0.125,0.16990333410511693,0.07423111059658871
1589996032.5523996,-3.896906098644187,-0.9369060986441871,8.897845112202315,0.3088888888888889,-0.3333333333333333,-0.6233333333333333,0.2410213008429838,0.058010650421491894,0.1875
1589996032.5623996,-3.8897702766057196,-0.93,8.962067510548524,0.3088888888888889,-0.3333333333333333,-0.6233333333333333,0.5,0.1875,0.18462845757149554
1589996032.5723996,-3.8849609919197547,-0.9324804959598775,9.05992198383951,0.30751083557784586,-0.33608943995541934,-0.6175455094269527,0.5,0.17199690025076622,0.0625
1589996032.5823996,-3.896846481243195,-0.94,9.080539443729585,0.3033333333333333,-0.34444444444444444,-0.6,0.3817430466198159,0.18412847669009205,0.0625
1589996032.5923996,-3.89,-0.9357959054118394,9.005346770353912,0.3033333333333333,-0.34444444444444444,-0.6,-0.05892913823202667,0.41760236470401524,0.009948817647992388
1589996032.6023996,-3.8941730605285594,-0.93,8.942519181585679,0.3033333333333333,-0.34444444444444444,-0.6,-0.3646632566069906,0.5885816283034953,-0.11466325660699062
1589996032.6123996,-3.9089334023209403,-0.9389334023209402,8.95553329883953,0.3033333333333333,-0.34444444444444444,-0.6,-0.46541688225293815,0.45749870648237123,-0.1037493532411856
1589996032.6223996,-3.9119671966527196,-0.9459835983263598,8.96606560669456,0.3055646675964667,-0.3373041748024175,-0.6093716039051603,-0.474897489539749,0.22489748953974895,0.025102510460251047
1589996032.6323996,-3.8874021147403686,-0.9441992950865438,8.948007049134562,0.3088888888888889,-0.32666666666666666,-0.6233333333333333,-0.33251762283640424,0.1875,0.0625
1589996032.6423995,-3.8615692546282836,-0.95,8.870328260799328,0.3088888888888889,-0.32666666666666666,-0.6233333333333333,-0.11724378856902846,0.16993594714225713,0.0625
1589996032.6523995,-3.84483760011793,-0.95,8.863538401061373,0.3088888888888889,-0.32666666666666666,-0.6233333333333333,-0.0886750036853226,0.4273500073706452,0.09273500073706452
1589996032.6623995,-3.8540373820959437,-0.9419252358081129,8.938261674671605,0.3088888888888889,-0.32666666666666666,-0.6233333333333333,-0.35093455239858806,1.1537382095943522,0.09976636190035298
1589996032.6723995,-3.869234439747185,-0.9369258298103889,9.003086099367962,0.3122235476864835,-0.3294883010338621,-0.6199986745357386,-0.557715248419907,1.9087169331547444,0.04807118789502323
1589996032.6823995,-3.9097484040555766,-0.96,9.066352234322194,0.3233333333333333,-0.3388888888888889,-0.6088888888888889,-0.8231130304168232,2.486242020277882,-0.04874202027788209
1589996032.6923995,-3.95,-0.96,8.96417467483127,0.3233333333333333,-0.3388888888888889,-0.6088888888888889,-1.0677183435390873,2.429732545925893,-0.3072816564609127
1589996032.7023995,-3.9457875449158797,-0.9642124550841206,8.918424910168241,0.3233333333333333,-0.3388888888888889,-0.6088888888888889,-0.9473443114484925,1.8617215572424626,-0.375
1589996032.7123995,-3.936298754489509,-0.9662987544895087,8.93,0.3233333333333333,-0.3388888888888889,-0.6088888888888889,-0.7130705089160068,1.2224065867131546,-0.25933607779714773
1589996032.7223995,-3.91865306122449,-0.9562176870748299,8.94512925170068,0.3233333333333333,-0.3367876039304611,-0.6004837490551777,-0.3665816326530612,0.48996598639455785,0.032057823129251706
1589996032.7323995,-3.89545543504852,-0.95454456495148,8.974544564951481,0.3233333333333333,-0.3333333333333333,-0.5866666666666667,-0.07957881431949768,0.005692938106499221,0.10228940715974884
1589996032.7423995,-3.892712994067615,-0.96,8.950157065256237,0.3233333333333333,-0.3333333333333333,-0.5866666666666667,0.17586863876777928,-0.0625,-0.050868638767779285
1589996032.7523994,-3.899583258616361,-0.9591665172327224,8.872500448301832,0.3233333333333333,-0.3333333333333333,-0.5866666666666667,0.3125,-0.05468609905677294,-0.17708146540903058
1589996032.7623994,-3.8962004073319756,-0.9462004073319755,8.945501018329939,0.3233333333333333,-0.3333333333333333,-0.5866666666666667,0.40938136456211816,0.1443762729124236,0.04312372708757638
1589996032.7723994,-3.91273742447899,-0.9545251510420202,8.98821227343697,0.3233333333333333,-0.33637491608776654,-0.5927498321755331,0.5736732910189396,0.13617329101893966,-0.06843561197474712
1589996032.7823994,-3.9131006229117347,-0.9434496885441327,8.999650934367601,0.3233333333333333,-0.34444444444444444,-0.6088888888888889,0.35125778639668226,-0.043121106801658864,-0.25
1589996032.7923994,-3.902184203660218,-0.9521842036602184,8.96689477803869,0.3233333333333333,-0.34444444444444444,-0.6088888888888889,0.16019745424726975,-0.13182563643818257,-0.22269745424726975
1589996032.8023994,-3.92,-0.9663140907790987,8.878429546104506,0.3233333333333333,-0.34444444444444444,-0.6088888888888889,-0.08553693263063283,-0.1875,-0.02303693263063284
1589996032.8123994,-3.92,-0.96,8.92776323657942,0.3233333333333333,-0.34444444444444444,-0.6088888888888889,-0.07741990201941212,-0.20336003266019598,-0.046639967339804037
1589996032.8223994,-3.9157902668203173,-0.9578951334101586,8.988419466359366,0.32169621487456784,-0.34444444444444444,-0.6060824001024337,0.0625,-0.34208791330555804,-0.05262166474603315
1589996032.8323994,-3.9,-0.95,9.018102946034414,0.31555555555555553,-0.34444444444444444,-0.5955555555555555,0.12178293642451726,-0.6875,-0.25
1589996032.8423994,-3.9037701282665123,-0.9537701282665121,8.968528589068367,0.31555555555555553,-0.34444444444444444,-0.5955555555555555,0.4692532066628027,-0.5932467933371973,-0.2735633016657007
1589996032.8523993,-3.9141825953901828,-0.9558174046098171,8.912547786170549,0.31555555555555553,-0.34444444444444444,-0.5955555555555555,0.651141221188643,-0.5159236635659291,-0.28635877881135696
1589996032.8623993,-3.92,-0.95,8.940167470424234,0.31555555555555553,-0.34444444444444444,-0.5955555555555555,0.6451355398990279,-0.625,-0.25
1589996032.8723993,-3.92,-0.9521204804358593,8.96424096087172,0.3172048181167795,-0.3420883550712674,-0.6014457789884982,0.5492469972758791,-0.5852409918276374,-0.21024099182763745
1589996032.8823993,-3.906780510292025,-0.9566951275730062,8.96347563786503,0.3233333333333333,-0.3333333333333333,-0.6233333333333333,0.43803364199386685,-0.4788109053374221,-0.08315545266871105
1589996032.8923993,-3.8724178653880306,-0.9525273782039898,8.91483573077606,0.3233333333333333,-0.3333333333333333,-0.6233333333333333,0.34409222754987273,-0.6098883413248091,-0.18818445509974546
1589996032.9023993,-3.839423763170675,-0.9635254122764416,8.884101649105766,0.3233333333333333,-0.3333333333333333,-0.6233333333333333,0.4154661732722397,-0.8381353069110412,-0.375
1589996032.9123993,-3.822477487370964,-0.9675225126290358,8.917432462112892,0.3233333333333333,-0.3333333333333333,-0.6233333333333333,0.32854711179442125,-0.9070942235888425,-0.48339007247968374
1589996032.9223993,-3.862047490106228,-0.9493175032979241,8.956023745053114,0.3179920849822953,-0.3363006935283544,-0.6194757650798058,0.15411719780601263,-0.5248515934180379,-0.9961054120669305
1589996032.9323993,-3.965151735575664,-0.9109089586546015,8.990908958654602,0.3033333333333333,-0.34444444444444444,-0.6088888888888889,0.043560330530419855,-0.19318099159125957,-1.5378793389391603
1589996032.9423993,-3.9956610608397103,-0.8926033634961739,8.972603363496175,0.3033333333333333,-0.34444444444444444,-0.6088888888888889,0.005423673950362244,-0.07877102185108675,-1.6141526520992755
1589996032.9523993,-3.9894497199902603,-0.9120550280009739,8.87616508400292,0.3033333333333333,-0.34444444444444444,-0.6088888888888889,0.049656074993912835,-0.1010317750182615,-0.8844046749452155
1589996032.9623992,-3.90927499284618,-0.9221750214614605,8.903625035769101,0.3033333333333333,-0.34444444444444444,-0.6088888888888889,-0.00906258942275175,-0.2726564735568794,-0.4148435264431206
1589996032.9723992,-3.9,-0.9513286713286713,8.956643356643356,0.3068764568764568,-0.3437062937062937,-0.6077078477078477,-0.11669580419580419,-0.5375874125874126,-0.10839160839160839
1589996032.9823992,-3.8996456165247557,-0.96,9.000708766950488,0.33,-0.3388888888888889,-0.6,-0.07135958688111006,-0.375,0.0022148967202775148
1589996032.9923992,-3.895937478763167,-0.96,9.0021875637105,0.33,-0.3388888888888889,-0.6,-0.29394537886510363,-0.30078151546041454,0.043945378865103635
1589996033.0023992,-3.91,-0.96,8.96102231847882,0.33,-0.3388888888888889,-0.6,-0.24744420380295132,-0.12627789809852433,0.0012778980985243375
1589996033.0123992,-3.9194617388068957,-0.96,9.013153912935632,0.33,-0.3388888888888889,-0.6,-0.125,-0.28605977923849685,0.04278804415230063
1589996033.0223992,-3.937174289008455,-0.96565142198309,9.02,0.3240346101289606,-0.3388888888888889,-0.6025117431035956,0.10458901806302842,-0.7295890180630284,0.07064277478862413
1589996033.0323992,-3.901288304928218,-0.9717966585509193,8.970779951305516,0.3088888888888889,-0.3388888888888889,-0.6088888888888889,0.6875,-1.3125,0.25
1589996033.0423992,-3.8564931083409344,-0.9564931083409344,8.864931083409346,0.3088888888888889,-0.3388888888888889,-0.6088888888888889,0.7094180728691598,-1.33441807286916,0.2280819271308402
1589996033.0523992,-3.8590017654847726,-0.95,8.81500294247462,0.3088888888888889,-0.3388888888888889,-0.6088888888888889,0.5999705752537885,-0.9811727600411946,0.1875
1589996033.0623991,-3.88,-0.9463953677272622,8.85991273875003,0.3088888888888889,-0.3388888888888889,-0.6088888888888889,0.2387355241476943,-0.05686776207384715,0.18186776207384717
1589996033.0723991,-3.8808886940710434,-0.9126660822131307,8.963554776284175,0.30839516996053135,-0.3388888888888889,-0.6095800953885895,0.08611963439184363,-0.005554337944022339,0.11944566205597766
1589996033.0823991,-3.894389495818248,-0.9356105041817521,9.0,0.3033333333333333,-0.3388888888888889,-0.6166666666666667,-0.2987828255679752,-0.07621717443202479,0.03506565113595042
1589996033.0923991,-3.9076518948317025,-0.9223481051682978,9.0,0.3033333333333333,-0.3388888888888889,-0.6166666666666667,-0.2573378286509304,-0.11766217134906957,-0.04782434269813915
1589996033.102399,-3.88,-0.9530219031016448,8.930576660855758,0.3033333333333333,-0.3388888888888889,-0.6166666666666667,-0.1969434471926403,-0.11555655280735971,0.10611310561471943
1589996033.112399,-3.88,-0.9675007335554137,8.981252567443947,0.3033333333333333,-0.3388888888888889,-0.6166666666666667,-0.24218979236066762,-0.07031020763933238,0.015620415278664743
1589996033.122399,-3.888774491196309,-0.96,8.97877449119631,0.3048311774267332,-0.337391044795489,-0.615713493152685,-0.14154341986159372,0.047181139953864575,0.007659430023067714
1589996033.132399,-3.882918384373773,-0.96,8.97,0.31555555555555553,-0.32666666666666666,-0.6088888888888889,0.16926009766391834,-0.044260097663918335,0.117219707008245
1589996033.142399,-3.886973538119911,-0.9630264618800888,8.936708919319024,0.31555555555555553,-0.32666666666666666,-0.6088888888888889,0.125,-0.018915386750555145,0.19325383974833457
1589996033.152399,-3.88,-0.9728296228768832,8.8769777372613,0.31555555555555553,-0.32666666666666666,-0.6088888888888889,0.17805542894156032,0.04361085788312062,0.0801851429805201
1589996033.162399,-3.88,-0.9758313736339742,8.932505879098077,0.31555555555555553,-0.32666666666666666,-0.6088888888888889,0.2603921704246784,0.2994730426061696,0.09894608521233919
1589996033.172399,-3.88,-0.9613262553603541,8.976021233918939,0.31555555555555553,-0.32666666666666666,-0.6088888888888889,0.07907819200442662,0.25414454800110664,0.008289096002213309
1589996033.182399,-3.896800019756013,-0.9363999604879736,9.00040005926804,0.3233333333333333,-0.32666666666666666,-0.6,-0.05999962957475181,0.0625,0.125
1589996033.192399,-3.8933345677583615,-0.9433308644832774,8.946654322416387,0.3233333333333333,-0.32666666666666666,-0.6,-0.1875,0.10418209697951626,0.14584104848975812
1589996033.202399,-3.9,-0.9325288086031435,8.887586425809431,0.3233333333333333,-0.32666666666666666,-0.6,-0.21911010753929322,0.1875,0.1716949462303534
1589996033.212399,-3.9018549622878065,-0.9424732830504089,8.913709924575613,0.3233333333333333,-0.32666666666666666,-0.6,-0.30477099046747197,0.18363549523373598,0.121135495233736
1589996033.222399,-3.926896057632988,-0.975861410177317,8.963792115265976,0.3233333333333333,-0.32666666666666666,-0.6,-0.20043309319588448,0.13146654659794224,0.06896654659794224
1589996033.232399,-3.8812830210468574,-0.9674339579062852,8.952566042093714,0.3088888888888889,-0.3388888888888889,-0.6088888888888889,-0.04646223691428242,0.07051888154285879,0.11698111845714121
1589996033.242399,-3.89,-0.95,8.95659257399758,0.3088888888888889,-0.3388888888888889,-0.6088888888888889,0.11277784750907141,0.1752778475090714,0.045740717496976196
1589996033.252399,-3.892537064158894,-0.95,8.937759449112258,0.3088888888888889,-0.3388888888888889,-0.6088888888888889,0.2341433490069118,0.24907339602764716,0.01585665099308821
1589996033.262399,-3.902406882137792,-0.9427793535866238,8.994813764275584,0.3088888888888889,-0.3388888888888889,-0.6088888888888889,0.1875,0.017370959916399198,0.09258602672240054
1589996033.272399,-3.9095111197815062,-0.920244440109247,9.010733320327741,0.3094049291195214,-0.339187649022413,-0.6088888888888889,0.18444449863441278,-0.125,0.1829167479516192
1589996033.282399,-3.8931463129145536,-0.9284268435427234,9.03528053062817,0.3266788919235271,-0.3491883643299952,-0.6088888888888889,0.08216445571595786,-0.125,0.029496683573936783
1589996033.292399,-3.8751415199465122,-0.9517138399821706,8.903144640071318,0.33,-0.3511111111111111,-0.6088888888888889,-0.05178850011143303,0.021422999777133946,0.030365500334299085
1589996033.302399,-3.896713068522741,-0.958904356174247,8.874382575303011,0.33,-0.3511111111111111,-0.6088888888888889,-0.006847773910956437,0.11130445217808713,-0.10445667826713068
1589996033.312399,-3.898382409918636,-0.9751472297559085,8.90294072065091,0.33,-0.3511111111111111,-0.6088888888888889,0.08271987601704765,0.125,0.010109938008523828
1589996033.322399,-3.891611294072065,-0.9548338822161953,8.95710964742348,0.33,-0.3511111111111111,-0.6088888888888889,0.16735882409918634,0.125,0.05242941204959318
1589996033.332399,-3.911646196056309,-0.9367076078873817,9.015061411831072,0.3233333333333333,-0.3388888888888889,-0.6311111111111111,-0.0213450985922716,-0.0205774507038642,-0.18826764788840739
1589996033.342399,-3.92,-0.9222862444455296,8.973996288881294,0.3233333333333333,-0.3388888888888889,-0.6311111111111111,0.1732109722154402,-0.125,0.09642194443088041
1589996033.3523989,-3.912733974584006,-0.9372660254159938,8.929688033887992,0.3233333333333333,-0.3388888888888889,-0.6311111111111111,0.14013755294998712,-0.14013755294998712,-0.04541265884996139
1589996033.3623989,-3.89,-0.96,8.96542120181406,0.3233333333333333,-0.3388888888888889,-0.6311111111111111,0.14232331821617536,-0.1649116591080877,-0.1536174886621315
1589996033.3723989,-3.89,-0.96,8.989198412698412,0.3233333333333333,-0.3388888888888889,-0.6311111111111111,-0.055820105820105825,-0.06583994708994709,-0.005009920634920617
1589996033.3823988,-3.89,-0.9742915009940357,8.981902833001989,0.3233333333333333,-0.3333333333333333,-0.6088888888888889,-0.050607293737574555,0.17560729373757455,-0.011892706262425447
1589996033.3923988,-3.8842346781644594,-0.9423129042192793,8.957329842931937,0.3233333333333333,-0.3333333333333333,-0.6088888888888889,-0.03603326147212812,0.17304434862950416,-0.02646673852787188
1589996033.4023988,-3.86,-0.9107468092445671,8.824480855467403,0.3233333333333333,-0.3333333333333333,-0.6088888888888889,-0.19216755777854433,0.4356782511210762,0.12966755777854433
1589996033.4123988,-3.8675772054539097,-0.9275772054539099,8.897048712271298,0.3233333333333333,-0.3333333333333333,-0.6088888888888889,-0.33287568465213846,1.400608903391213,0.1519818494347978
1589996033.4223988,-3.9000789444005863,-0.9600394722002932,8.970276305402054,0.3233026327331052,-0.3333552623334962,-0.6089108178890518,-0.6870065974963347,2.311019792489004,0.0004934025036652757
1589996033.4323988,-3.9158463967520016,-0.9679231983760008,9.025462388632006,0.3171708457075548,-0.3377351102088894,-0.613290665764445,-0.5884600202999887,2.0153800608999664,0.09903997970001129
1589996033.4423988,-3.926717902350814,-0.9589059674502712,8.989059674502712,0.31555555555555553,-0.3388888888888889,-0.6144444444444445,-0.3818377034358047,1.3896360759493671,-0.1806622965641953
1589996033.4523988,-3.9052519703845237,-0.9517506567948412,8.917506567948411,0.31555555555555553,-0.3388888888888889,-0.6144444444444445,-0.42655839503224263,1.0765912347743014,-0.13594160496775734
1589996033.4623988,-3.900989255496677,-0.9570322335099687,8.904946277483386,0.31555555555555553,-0.3388888888888889,-0.6144444444444445,-0.693682846854232,1.824865693708464,0.006182846854231929
1589996033.4723988,-3.9071289925930266,-0.938613022220921,8.935644962965132,0.31555555555555553,-0.3388888888888889,-0.6144444444444445,-0.7320562037064144,1.9016124074128289,0.0445562037064145
1589996033.4823987,-3.9400943396226418,-0.9450471698113208,8.980094339622642,0.3063600628930817,-0.3430686582809224,-0.6211320754716981,-0.8910672169811321,1.9375,0.01547759433962264
1589996033.4923987,-3.942703438093229,-0.9572965619067707,8.97540687618646,0.3033333333333333,-0.34444444444444444,-0.6233333333333333,-0.9375,1.7094824404134148,-0.09120702383463404
1589996033.5023987,-3.9207575918172664,-0.96,8.837575918172664,0.3033333333333333,-0.34444444444444444,-0.6233333333333333,-1.1297349488579151,1.3702650511420849,0.018939795431660394
1589996033.5123987,-3.93,-0.96,8.936656866071091,0.3033333333333333,-0.34444444444444444,-0.6233333333333333,-1.17085783482227,1.29585783482227,0.25
1589996033.5223987,-3.93,-0.96,8.976182479550681,0.3033333333333333,-0.34444444444444444,-0.6233333333333333,-1.0720438011232991,1.1970438011232991,0.25
1589996033.5323987,-3.93,-0.96,9.008990105069877,0.3087018713092364,-0.33370736849263827,-0.6233333333333333,-1.1228960522289095,1.308292104457819,0.25
1589996033.5423987,-3.9070713830465267,-0.9529286169534735,8.927071383046526,0.3088888888888889,-0.3333333333333333,-0.6233333333333333,-1.0808038559592097,1.4375,0.10669614404079031
1589996033.5523987,-3.891028227672374,-0.97,8.91514113836187,0.3088888888888889,-0.3333333333333333,-0.6233333333333333,-1.193926422952337,1.4053678852383156,0.0
1589996033.5623987,-3.8987126016260163,-0.9687126016260162,8.961287398373985,0.3088888888888889,-0.3333333333333333,-0.6233333333333333,-1.209768800813008,1.1048844004065042,0.020115599593495934
1589996033.5723987,-3.881662601626016,-0.9516626016260162,8.978337398373984,0.3088888888888889,-0.3333333333333333,-0.6233333333333333,-0.6769563008130082,0.8384781504065041,0.2865218495934959
1589996033.5823987,-3.941718153418952,-0.8885352308226311,8.995605692467894,0.3088888888888889,-0.3333333333333333,-0.6088888888888889,-0.25,-0.04735768830267269,1.1938346060395695
1589996033.5923986,-4.0042158400313665,-0.8750421485983141,8.95925798862968,0.3088888888888889,-0.3333333333333333,-0.6088888888888889,-0.2654932856302686,-0.6926644285434228,2.8940771417369144
1589996033.6023986,-3.956251225249951,-0.8339296216428151,8.870180846892767,0.3088888888888889,-0.3333333333333333,-0.6088888888888889,-0.3939699323662027,-0.7354899774554009,4.607099098216036
1589996033.6123986,-3.7532019464720197,-0.9783990267639903,9.145197080291972,0.3088888888888889,-0.3333333333333333,-0.6088888888888889,-1.5124695863746958,0.38746958637469586,7.630003041362531
1589996033.6223986,-3.804227493917275,-0.9528862530413624,9.068658759124087,0.3088888888888889,-0.3333333333333333,-0.6088888888888889,-0.715195407542579,-0.40980459245742096,7.709730459245742
1589996033.6323986,-3.879983144714664,-0.925719101510096,8.937174159815624,0.31920287113159734,-0.32857303383669867,-0.6088888888888889,0.7139395789618521,-1.8389395789618521,7.303721922190499
1589996033.6423986,-3.864181488976462,-0.9486548088188306,8.914327404409415,0.3233333333333333,-0.32666666666666666,-0.6088888888888889,0.7668148897646181,-1.75749547342635,6.542949195867505
1589996033.6523986,-3.6788023630504836,-0.9091445450360596,8.901197636949517,0.3233333333333333,-0.32666666666666666,-0.6088888888888889,0.24679204388522327,-0.8039454503605954,5.040044307196563
1589996033.6623986,-3.6224879162191193,-0.8689199401565137,8.957512083780882,0.3233333333333333,-0.32666666666666666,-0.6088888888888889,0.0959497755869265,-0.40169940156513734,3.9841484291084854
1589996033.6723986,-3.52506360587487,-0.7184393431247831,9.0360616398751,0.3233333333333333,-0.32666666666666666,-0.6088888888888889,0.12148360703134035,-0.1945327859373193,3.278131143749277
1589996033.6823986,-3.504306593686854,-0.8433939536617425,9.087080218939438,0.3285644687710487,-0.34061636116724103,-0.6019140416386017,0.2230837894571636,-0.28558378945716356,4.132754105114472
1589996033.6923985,-3.36,-0.74,8.85,0.33,-0.34444444444444444,-0.6,1.625,-1.0,0.5
1589996033.7023985,-3.3133795571460523,-0.7458275553567435,8.834848356072467,0.33,-0.34444444444444444,-0.6,1.3044844553791097,-0.4973733504808767,-0.9933110601655111
1589996033.7123985,-2.934983110528794,-0.7889993244211518,8.729006080209635,0.33,-0.34444444444444444,-0.6,-1.2031777795975187,3.450092892091633,-12.737787121010502
1589996033.7223985,-2.5056527524720043,-0.7718261100988802,8.883565009110079,0.33,-0.34444444444444444,-0.6,-2.544835148524986,5.811409861403976,-20.036403207975926
1589996033.7323985,-2.0299823587402064,-1.1699911793701032,9.14994707622062,0.3033333333333333,-0.34444444444444444,-0.6088888888888889,-3.496857650599284,5.749724355315727,-30.943950085611995
1589996033.7423985,-2.012829457364341,-1.1481162790697674,9.075286821705426,0.3033333333333333,-0.34444444444444444,-0.6088888888888889,0.19336240310077518,5.433963178294573,-38.56124031007752
1589996033.7523985,-2.0474187695860135,-1.0028411677387432,8.89542239815273,0.3033333333333333,-0.34444444444444444,-0.6088888888888889,1.7931180933531254,5.390726538017483,-42.36606465446149
1589996033.7623985,-2.111110330918055,-1.208056920893404,9.191394935385075,0.3033333333333333,-0.34444444444444444,-0.6088888888888889,1.17704676178382,5.401067266751326,-49.25342589825951
1589996033.7723985,-2.136175244640323,-1.1641933218794351,8.9971418540375,0.3033333333333333,-0.34444444444444444,-0.6088888888888889,2.3519645925151265,4.578624785239412,-50.74165515051916
1589996033.7823985,-2.192291174817313,-1.1259029417275623,8.918194116544875,0.317430391605771,-0.34052859492432286,-0.604189869464743,2.6916268502904255,4.873906220723253,-51.73871322840547
1589996033.7923985,-2.287927544105453,-1.1297409430131815,8.920259056986819,0.3233333333333333,-0.3388888888888889,-0.6022222222222222,1.7101674863466103,3.6654776541903757,-52.42130893832385
1589996033.8023984,-2.369869599065784,-1.1832463993771896,8.928874399896198,0.3233333333333333,-0.3388888888888889,-0.6022222222222222,1.299245004541326,3.6804649993512393,-52.659359997404955
1589996033.8123984,-2.4197819848761033,-1.19,8.890218015123896,0.3233333333333333,-0.3388888888888889,-0.6022222222222222,1.8301539461098377,3.977576973054919,-52.646060432420725
1589996033.8223984,-2.4686204458109144,-1.19,8.848534665641814,0.3233333333333333,-0.3388888888888889,-0.6022222222222222,2.125,4.303877786318217,-52.669719446579556
1589996033.8323984,-2.5053789569706733,-1.2217236962133415,8.87806843545601,0.3353178407917068,-0.31844472910695765,-0.615616671734522,2.045690759466646,4.176726898666615,-52.84611848106671
1589996033.8423984,-2.5532064085063584,-1.2483016021265896,8.924904806379768,0.3422222222222222,-0.30666666666666664,-0.6233333333333333,1.7405749335440763,3.906844960126446,-53.04127002658237
1589996033.8523984,-2.5817292720903073,-1.25,8.879298365122615,0.3422222222222222,-0.30666666666666664,-0.6233333333333333,1.8685772674192291,3.9202693168548075,-53.24357726741923
1589996033.8623984,-2.609596472663139,-1.308789417989418,8.918789417989418,0.3422222222222222,-0.30666666666666664,-0.6233333333333333,1.9987389770723103,3.9375,-53.3125
1589996033.8723984,-2.6339074238163116,-1.3339074238163118,8.95984570636052,0.3422222222222222,-0.30666666666666664,-0.6233333333333333,1.8007714681974034,3.887692867049351,-53.661149930654545
1589996033.8823984,-2.649512269009391,-1.34,8.97,0.3496206536739708,-0.3119512605607728,-0.5810565821804841,1.8689033626173888,3.8155483186913055,-53.92835504392608
1589996033.8923984,-2.6126814091739723,-1.3866482385325345,8.979329647706507,0.35,-0.31222222222222223,-0.5788888888888889,1.7583794036686637,4.104051490828341,-54.34567208715968
1589996033.9023983,-2.571835331682523,-1.4090823341587384,8.897309885312133,0.35,-0.31222222222222223,-0.5788888888888889,1.8295097256614101,4.085245137169295,-54.69303890264564
1589996033.9123983,-2.579152013085988,-1.4418640098144913,8.842711996728502,0.35,-0.31222222222222223,-0.5788888888888889,1.7838999591062865,3.9258499386594297,-55.33050020446857
1589996033.9223983,-2.604297563290486,-1.457148781645243,8.832851218354756,0.35,-0.31222222222222223,-0.5788888888888889,1.7946798852827697,4.0090396558483095,-55.90211896754493
1589996033.9323983,-2.6411011583865527,-1.4911011583865528,8.899977606369744,0.36382273706069007,-0.30790261689075654,-0.5918477048832859,1.7639044400210113,3.9653088800420226,-56.69424227972685
1589996033.9423983,-2.719524144397562,-1.5198640412564464,8.880271917487109,0.36777777777777776,-0.30666666666666664,-0.5955555555555555,1.6879248710736052,4.247875644631974,-57.681976676043135
1589996033.9523983,-2.7566020814686114,-1.5419612488811667,8.84339791853139,0.36777777777777776,-0.30666666666666664,-0.5955555555555555,1.9620156110145843,4.295752601835764,-58.556799434879515
1589996033.9623983,-2.7432511732381375,-1.539300469295255,8.83,0.36777777777777776,-0.30666666666666664,-0.5955555555555555,1.995627933095343,4.3125,-59.44341256868958
1589996033.9723983,-2.756649514752817,-1.5849742721292257,8.91551553442324,0.36777777777777776,-0.30666666666666664,-0.5955555555555555,1.8611468442649646,4.3125,-60.701031557350355
1589996033.9823983,-2.785997760313556,-1.62,8.97,0.383771805280594,-0.28267562541244223,-0.6168809255593105,1.8874720039194512,4.349986001959726,-61.86224803527506
1589996033.9923983,-2.7720863456275784,-1.6468704815586324,8.916259036882735,0.3944444444444444,-0.26666666666666666,-0.6311111111111111,2.217400849569089,4.7108810194829065,-63.54406373810399
1589996034.0023983,-2.7499339435208614,-1.6633773709860924,8.843113145069537,0.3944444444444444,-0.26666666666666666,-0.6311111111111111,2.25,4.666391431336922,-64.52358568663078
1589996034.0123982,-2.747239677419355,-1.7279174193548388,8.831719032258064,0.3944444444444444,-0.26666666666666666,-0.6311111111111111,2.1595040322580643,4.579752016129032,-65.97820362903227
1589996034.0223982,-2.735424461373906,-1.7937266158782825,8.876438846565236,0.3944444444444444,-0.26666666666666666,-0.6311111111111111,2.1705485582065442,4.6535971164130885,-67.37706828054398
1589996034.0323982,-2.73,-1.800313074297716,8.860939222893148,0.4267341967853913,-0.26666666666666666,-0.6149662349406377,2.3085865712785507,4.8691298569178265,-69.02140899842479
1589996034.0423982,-2.7231894990446124,-1.847673506687713,8.853189499044612,0.42777777777777776,-0.26666666666666666,-0.6144444444444445,2.2699343690288276,4.960131261942345,-69.99894388136579
1589996034.0523982,-2.7029431613677266,-1.9126420965806838,8.807357903419316,0.42777777777777776,-0.26666666666666666,-0.6144444444444445,2.6231183450809836,5.21321048290342,-71.77006551814637
1589996034.0623982,-2.7,-1.928706744532234,8.84353372266117,0.42777777777777776,-0.26666666666666666,-0.6144444444444445,2.415414233367686,5.032331386694149,-73.19717737318219
1589996034.0723982,-2.7073391972500254,-1.988713578000202,8.886695986250126,0.42777777777777776,-0.26666666666666666,-0.6144444444444445,2.420869982812658,5.22934991406329,-74.38413962187848
1589996034.0823982,-2.6689468579741567,-2.0182106284051686,8.883578743189663,0.45605883117335894,-0.23382415304599174,-0.6336025773898382,2.5914492825969138,5.517765710129218,-76.08422711583992
1589996034.0923982,-2.651253494188613,-2.0374930116227747,8.923732529056936,0.4622222222222222,-0.22666666666666666,-0.6377777777777778,2.570334338678829,5.3438373547153155,-77.46831322642342
1589996034.1023982,-2.6420870125684823,-2.0479129874315176,8.842957138253304,0.4622222222222222,-0.22666666666666666,-0.6377777777777778,2.5625,5.609237028681921,-78.7624919432807
1589996034.1123981,-2.5917304128053917,-2.0922358887952823,8.78983150800337,0.4622222222222222,-0.22666666666666666,-0.6377777777777778,2.6756318449873633,5.876053074978938,-80.00526537489469
1589996034.1223981,-2.565800961377229,-2.1374028841316863,8.81640769101783,0.4622222222222222,-0.22666666666666666,-0.6377777777777778,2.7137439913923203,5.818719956961601,-81.60391223240735
1589996034.1323981,-2.53788530751029,-2.166057346244855,8.855352448748285,0.4830373006877749,-0.21239347000457337,-0.6342094786122544,2.5871415859696567,5.720952804676781,-83.41644255433378
1589996034.142398,-2.489365138158382,-2.173121712719461,8.86,0.5011111111111111,-0.2,-0.6311111111111111,2.7579357730202236,6.1369036595303355,-85.79364675161123
1589996034.152398,-2.5520728842718188,-2.2420728842718187,8.804559319790908,0.5011111111111111,-0.2,-0.6311111111111111,2.9443008502613646,6.381800850261365,-87.47701275392046
1589996034.162398,-2.589184352892218,-2.310407823553891,8.812039117769455,0.5011111111111111,-0.2,-0.6311111111111111,3.0325244486059093,6.470024448605909,-89.48338014981273
1589996034.172398,-2.57,-2.331701804408,8.848298195592,0.5011111111111111,-0.2,-0.6311111111111111,3.2453406938750025,6.573136277550001,-91.76924857957502
1589996034.182398,-2.546791577319225,-2.4096252680423245,8.863208422680774,0.5062685383735055,-0.17593200610882617,-0.6758088140518625,3.3266491194150527,6.915105283509685,-94.3656317010581
1589996034.192398,-2.4943026922664377,-2.43,8.862383782044406,0.5077777777777778,-0.1688888888888889,-0.6888888888888889,3.0268918266652367,6.714391826665237,-96.4458449533412
1589996034.202398,-2.44218168882783,-2.4602546489377364,8.784363377655659,0.5077777777777778,-0.1688888888888889,-0.6888888888888889,2.9847728889652125,6.719545777930425,-98.35568666895638
1589996034.212398,-2.43,-2.476520286785074,8.773040573570148,0.5077777777777778,-0.1688888888888889,-0.6888888888888889,3.0,6.790751792406714,-100.03505377220141
1589996034.222398,-2.4060250753465944,-2.5219561181434598,8.797981193490054,0.5077777777777778,-0.1688888888888889,-0.6888888888888889,3.0374608197709465,7.149647377938517,-101.69894213381555
1589996034.232398,-2.376338161124147,-2.563661838875853,8.844154597189632,0.5259935629455817,-0.13245731855328102,-0.6926838441321813,3.2759662324352026,7.375,-103.31425142271489
1589996034.242398,-2.343567468191899,-2.6052433757441342,8.78951324851173,0.5344444444444445,-0.11555555555555555,-0.6944444444444444,3.5402033238006303,7.705406647601261,-105.23682991420567
1589996034.252398,-2.34,-2.6543592346739553,8.757820382663022,0.5344444444444445,-0.11555555555555555,-0.6944444444444444,3.423877391643889,7.565169855525186,-106.77751854744241
1589996034.262398,-2.2909854567273347,-2.719014543272665,8.80718363381811,0.5344444444444445,-0.11555555555555555,-0.6944444444444444,3.0686591045458442,7.551056815909026,-108.22007950227149
1589996034.272398,-2.2587880295282248,-2.74414131364785,8.82,0.5344444444444445,-0.11555555555555555,-0.6944444444444444,3.2651496308971883,7.960224446345783,-109.23294889269157
1589996034.282398,-2.226196680599521,-2.773803319400479,8.810478672239809,0.5471395481247,-0.09862875064854812,-0.7023788842446042,3.464262447751797,8.154754149250598,-110.09807468651078
1589996034.292398,-2.1902908295528194,-2.833982096565133,8.78543624432923,0.5611111111111111,-0.08,-0.7111111111111111,3.3804530541153595,8.09647652705768,-111.17295852235904
1589996034.302398,-2.1440202785844367,-2.8843918885662254,8.734020278584437,0.5611111111111111,-0.08,-0.7111111111111111,3.3224239553083623,8.134923955308363,-112.45206908008072
1589996034.312398,-2.123954763129774,-2.92022618435113,8.726045236870226,0.5611111111111111,-0.08,-0.7111111111111111,3.3372172695610876,8.300848191316737,-113.12782730438913
1589996034.322398,-2.105747111514994,-2.9506896663637545,8.75494255484876,0.5611111111111111,-0.08,-0.7111111111111111,3.2234194469687134,8.397270138257822,-113.59770138257822
1589996034.332398,-2.0752053063802904,-2.9747946936197094,8.8,0.5597259773987506,-0.07232849020846494,-0.7131355373060996,3.0744867340492736,8.467466835123183,-114.02996683512319
1589996034.342398,-2.0123479966377134,-3.0288260016811432,8.777934995797143,0.5466666666666666,0.0,-0.7322222222222222,3.3529875315214346,8.887906276267863,-114.39524376576071
1589996034.352398,-1.99,-3.067959860383944,8.733224083769635,0.5466666666666666,0.0,-0.7322222222222222,3.247951570680628,8.922700698080279,-114.67474912739965
1589996034.362398,-1.9530726317304923,-3.105826014972646,8.73055067664843,0.5466666666666666,0.0,-0.7322222222222222,3.1318834581053845,8.8125,-114.7465582709473
1589996034.372398,-1.9343527582105937,-3.1582740218949166,8.768705516421187,0.5466666666666666,0.0,-0.7322222222222222,3.3397047388162107,8.872303159210807,-114.44828736315677
1589996034.382398,-1.9235225770690316,-3.2,8.794704515413807,0.5649066691302226,0.014121292229849772,-0.7510506118620219,3.3051128853451583,9.036790335991132,-113.8565322133629
1589996034.3923979,-1.879843829226245,-3.2335936179562585,8.796718723591251,0.5811111111111111,0.02666666666666667,-0.7677777777777778,3.0615239326640302,9.041015955109353,-112.93261966332015
1589996034.4023979,-1.8153984078205532,-3.3046015921794467,8.698597043095313,0.5811111111111111,0.02666666666666667,-0.7677777777777778,2.658740048878457,9.0,-111.79622583299054
1589996034.4123979,-1.8,-3.343289930760687,8.677763310253562,0.5811111111111111,0.02666666666666667,-0.7677777777777778,2.611020689084765,9.09704137816953,-110.64060690738947
1589996034.4223979,-1.7885608622147084,-3.384317413355875,8.714317413355875,0.5811111111111111,0.02666666666666667,-0.7677777777777778,2.410516166525782,9.053505388841927,-109.5885592772612
1589996034.4323978,-1.7441844691739095,-3.417163106165218,8.718510681504346,0.5858865152212565,0.0250748652966182,-0.7622064729826081,2.160461172934774,8.955230586467387,-107.6569175940216
1589996034.4423978,-1.7156805800188424,-3.448638839962315,8.695680580018843,0.5877777777777777,0.024444444444444446,-0.76,2.035503625117765,9.071744562323353,-105.87205075164871
1589996034.4523978,-1.6834433750325157,-3.4666391562418712,8.636886750065031,0.5877777777777777,0.024444444444444446,-0.76,1.6265474613947548,9.00051582046492,-104.08866347813749
1589996034.4623978,-1.6592390376406674,-3.486141443538999,8.663804811796663,0.5877777777777777,0.024444444444444446,-0.76,1.302987970508343,8.9375,-102.29414774932091
1589996034.4723978,-1.6254796835913732,-3.5122601582043136,8.706934960448923,0.5877777777777777,0.024444444444444446,-0.76,1.1875,8.880030508417281,-100.60370960381313
1589996034.4823978,-1.57,-3.540328192961645,8.701640964808224,0.5887623566627125,0.02484556917534379,-0.7611669083080709,1.1833975879794385,8.737692763938316,-98.92000296559905
1589996034.4923978,-1.5635638923962591,-3.566090269009352,8.75321805380187,0.6177777777777778,0.03666666666666667,-0.7955555555555556,1.0021614912149293,8.113533128598027,-95.79821222205577
1589996034.5023978,-1.541697975708502,-3.6,8.72264089068826,0.6177777777777778,0.03666666666666667,-0.7955555555555556,0.9268876518218624,7.329005566801619,-93.14974696356275
1589996034.5123978,-1.5044939008364127,-3.612753049581794,8.67,0.6177777777777778,0.03666666666666667,-0.7955555555555556,1.132844266477018,6.867155733522982,-90.35905733522982
1589996034.5223978,-1.4633044854881265,-3.6383693931398415,8.681717150395778,0.6177777777777778,0.03666666666666667,-0.7955555555555556,1.3438852242744064,6.624729551451187,-88.0707981530343
1589996034.5323977,-1.4404631591000172,-3.68,8.736512280299994,0.59607641075552,0.016127872877744063,-0.7858674452777619,1.5653947443751073,6.138114014999713,-84.49149109749814
1589996034.5423977,-1.4366574606255131,-3.682917817421811,8.72708218257819,0.5555555555555556,-0.022222222222222227,-0.7677777777777778,1.6875,5.848972717772636,-81.48141841457043
1589996034.5523977,-1.3683631849618727,-3.695818407519064,8.673452739847491,0.5555555555555556,-0.022222222222222227,-0.7677777777777778,1.4693097180351127,5.646579624046817,-77.27605736832771
1589996034.5623977,-1.34687732150227,-3.706561339248865,8.66624535699546,0.5555555555555556,-0.022222222222222227,-0.7677777777777778,1.394516740610813,5.355483259389187,-73.3109894113702
1589996034.5723977,-1.3351901287697947,-3.734049356151027,8.704049356151026,0.5555555555555556,-0.022222222222222227,-0.7677777777777778,1.5878084759439195,5.2523766096224325,-70.19629828867296
1589996034.5823977,-1.3340915979743466,-3.79682438176912,8.75454958784608,0.5373706756695704,0.007782829589653234,-0.7232248220571142,1.698855025320667,4.906202639263667,-66.61336081026134
1589996034.5923977,-1.3168522894466985,-3.8384261447233494,8.755278434170048,0.5111111111111111,0.05111111111111112,-0.6588888888888889,1.625,4.391495106781399,-62.043733837888446
1589996034.6023977,-1.3,-3.8361735472982024,8.643570337825167,0.5111111111111111,0.05111111111111112,-0.6588888888888889,1.7021693412275296,4.119576646931176,-57.92949641010529
1589996034.6123977,-1.2457181405617563,-3.84,8.657852324297805,0.5111111111111111,0.05111111111111112,-0.6588888888888889,1.5803691892554887,3.6183306758248497,-53.66090702808782
1589996034.6223977,-1.1895280965362751,-3.7546786703015704,9.549307677677042,0.5111111111111111,0.05111111111111112,-0.6588888888888889,1.4619101206703438,3.399410120670344,-49.93724772290201
1589996034.6323977,-1.0827020993263354,-3.575945088516372,8.795126116246278,0.5131531672672202,0.09195223423329331,-0.642552439640016,5.141917495691681,1.5371494595018016,-46.59458228889237
1589996034.6423976,-0.9885108108642757,-3.4129783782714487,7.305390991276137,0.5155555555555555,0.14,-0.6233333333333333,8.808496617277601,0.6161599177068704,-43.1169932345552
1589996034.6523976,-1.0209295763907424,-3.407160559728524,7.747887291722271,0.5155555555555555,0.14,-0.6233333333333333,2.5677117093072024,4.474084435886682,-39.09218315095131
1589996034.6623976,-1.0748192417307194,-3.5770481043267988,8.738464288798687,0.5155555555555555,0.14,-0.6233333333333333,-8.683746437516193,4.098651653856119,-36.14552206580879
1589996034.6723976,-1.0886748526927357,-3.642265029461453,8.371109234002224,0.5155555555555555,0.14,-0.6233333333333333,0.8873305451398903,-0.059801083687008094,-33.22832883513948
1589996034.6823976,-1.1231315490468374,-3.788949943188991,8.740426082565332,0.509867546185246,0.18794179326403793,-0.6078944507567787,0.2315482577957324,1.6576978916803433,-27.758454582754702
1589996034.6923976,-1.163119579294376,-3.8268804207056237,8.654809465876536,0.5077777777777778,0.20555555555555555,-0.6022222222222222,0.6279237471056867,1.2284986852949256,-24.93257230877909
1589996034.7023976,-1.1865091638675354,-3.8530183277350707,8.610061092450236,0.5077777777777778,0.20555555555555555,-0.6022222222222222,1.6342413602651096,1.525152731125589,-21.823930882120877
1589996034.7123976,-1.1601359311282282,-3.8733559885213715,8.686711977042743,0.5077777777777778,0.20555555555555555,-0.6022222222222222,0.15022277601570755,0.7118732064642803,-18.132221341187133
1589996034.7223976,-1.1808500047317119,-3.945864294501751,8.79087858427179,0.5077777777777778,0.20555555555555555,-0.6022222222222222,0.813035866376455,0.4063393110627425,-14.801160452351661
1589996034.7323976,-1.21,-4.0,8.787657503539405,0.5175804559278486,0.2258144237323685,-0.6146389478789785,1.2353593971212837,0.23165961243511085,-11.275977760736197
1589996034.7423975,-1.21,-4.0356994003317315,8.747849700165865,0.5244444444444445,0.24,-0.6233333333333333,1.2840556288010887,-0.037186875345553524,-7.6319137285756815
1589996034.7523975,-1.2039311935116224,-4.0417935805348675,8.668967902674336,0.5244444444444445,0.24,-0.6233333333333333,1.2969897161334782,-0.2900802433141615,-3.786697566858385
1589996034.7623975,-1.2,-4.010938620544189,8.622707586303875,0.5244444444444445,0.24,-0.6233333333333333,1.0455775856007874,-0.47721120719960625,0.18930605357519514
1589996034.7723975,-1.2092297198027075,-4.032304019309477,8.685378318816246,0.5244444444444445,0.24,-0.6233333333333333,0.855785628082695,-0.7019001206842271,3.240200965473817
1589996034.7823975,-1.2224224128569876,-4.072422412856988,8.745155174286024,0.5244444444444445,0.24296072682520722,-0.6233333333333333,0.5815194375067868,-0.9375,5.9879845803018785
1589996034.7923975,-1.2244092755921117,-4.070216232286196,8.731397681101972,0.5244444444444445,0.25222222222222224,-0.6233333333333333,0.25873550688732533,-0.9549710137746507,9.124275344366268
1589996034.8023975,-1.1911574670498464,-4.012025567337231,8.73971063323754,0.5244444444444445,0.25222222222222224,-0.6233333333333333,0.310691457734615,-1.05888291546923,11.72207288673075
1589996034.8123975,-1.1881323462334654,-3.9943970387003964,8.643553910389109,0.5244444444444445,0.25222222222222224,-0.6233333333333333,-0.057230448054454236,-1.4141543279183186,14.831310743482685
1589996034.8223975,-1.21,-4.06,8.680759156235512,0.5244444444444445,0.25222222222222224,-0.6233333333333333,0.12215316411682893,-1.6875,16.591917304126103
1589996034.8323975,-1.1945256682781842,-4.0290513365563685,8.736189732688727,0.5265076886740199,0.2560048366431105,-0.6212700891037579,-0.0431570853477304,-1.7455287439568088,18.9448870370022
1589996034.8423975,-1.1744140317759948,-3.9702957369828535,8.762354884379425,0.5311111111111111,0.2644444444444444,-0.6166666666666667,-0.012869671228566934,-1.875,20.23350243825704
1589996034.8523974,-1.225008834530393,-4.0199823309392135,8.735132517955897,0.5311111111111111,0.2644444444444444,-0.6166666666666667,-0.15608435255512976,-1.9373895683700866,21.780532194405563
1589996034.8623974,-1.2054348193381768,-3.9620291569114916,8.655144939779392,0.5311111111111111,0.2644444444444444,-0.6166666666666667,-0.25,-2.060688252757597,22.855070780333566
1589996034.8723974,-1.19,-3.937157309150489,8.689297757625408,0.5311111111111111,0.2644444444444444,-0.6166666666666667,-0.25,-2.125,24.05372197031759
1589996034.8823974,-1.2165249586528342,-4.01,8.780314238460383,0.5466892614310296,0.26191825790607925,-0.6246662573714897,-0.29736599759434673,-2.243414993985867,25.333525973537814
1589996034.8923974,-1.2393528054842586,-3.976964488774814,8.78457617206537,0.5722222222222222,0.2577777777777778,-0.6377777777777778,-0.4266179862893531,-2.4116910068553232,26.78110684232756
1589996034.9023974,-1.2167786384336927,-3.954855007590207,8.697404538554357,0.5722222222222222,0.2577777777777778,-0.6377777777777778,-0.5706108170176326,-2.375,28.006298411895216
1589996034.9123974,-1.2609433380017565,-4.04,8.682830014005269,0.5722222222222222,0.2577777777777778,-0.6377777777777778,-0.8779479312554893,-2.4077239656277447,30.097875175065873
1589996034.9223974,-1.2842751597834372,-4.0143490412993765,8.727174520649688,0.5722222222222222,0.2577777777777778,-0.6377777777777778,-1.097818491878897,-2.597818491878897,31.453773967515588
1589996034.9323974,-1.279026257019579,-3.977256564254895,8.712743435745105,0.6048386249695848,0.2596067349411813,-0.6359488206143743,-1.2267676329654604,-2.72676763296546,32.75830830857961
1589996034.9423974,-1.2530618880739912,-3.9638762238520178,8.713876223852019,0.6911111111111111,0.2644444444444444,-0.6311111111111111,-1.0574104013873333,-2.6148208027746667,34.377646410636224
1589996034.9523973,-1.2754887269259587,-3.9913032718025567,8.674185455123402,0.6911111111111111,0.2644444444444444,-0.6311111111111111,-1.0261590945212633,-2.9072681810957475,36.11716816520219
1589996034.9623973,-1.2945086945124082,-3.9758956658511013,8.663526083537224,0.6911111111111111,0.2644444444444444,-0.6311111111111111,-0.9877173628102062,-3.0220380221076546,37.48880417686124
1589996034.9723973,-1.3217858917575889,-3.931785891757589,8.712678837636384,0.6911111111111111,0.2644444444444444,-0.6311111111111111,-1.125,-3.1476936372474884,38.74367910770228
1589996034.9823973,-1.3481528420252202,-3.97394905265826,8.75420378936696,0.8653082117032437,0.25303607009836016,-0.6710404213224059,-1.3718157911412459,-3.2615447373423736,40.09235789873899
1589996034.9923973,-1.334678380536954,-3.965964858389138,8.734678380536954,1.1322222222222222,0.23555555555555555,-0.7322222222222222,-1.5160809731523008,-3.375,41.64327732383117
1589996035.0023973,-1.3331379547604714,-3.9362759095209428,8.695396705943063,1.1322222222222222,0.23555555555555555,-0.7322222222222222,-1.271443891373527,-3.417887782747054,42.73954615334996
1589996035.0123973,-1.3375142980136523,-3.931017157616383,8.638022876821843,1.1322222222222222,0.23555555555555555,-0.7322222222222222,-1.4438572351023922,-3.4781071274829345,43.700214470204784
1589996035.0223973,-1.3740434005517348,-3.9821302016552047,8.694043400551735,1.1322222222222222,0.23555555555555555,-0.7322222222222222,-1.6622287465516572,-3.336414986206629,44.339127520690056
1589996035.0323973,-1.38686420053541,-3.9759752981260648,8.717160501338524,1.204296327844028,0.07615356534436601,-0.8115418728536276,-1.5177468666342175,-3.1875,43.983333079824774
1589996035.0423973,-1.4397746111880139,-3.9465727546616725,8.753314550932334,1.3422222222222222,-0.2288888888888889,-0.9633333333333334,-1.3125,-3.1875,42.875
1589996035.0523973,-1.5206634647604156,-3.9803317323802077,8.755355746677091,1.3422222222222222,-0.2288888888888889,-0.9633333333333334,-1.3125,-3.1978666368814923,42.82731347034514
1589996035.0623972,-1.5513982982822283,-3.981451276288329,8.6399470219939,1.3422222222222222,-0.2288888888888889,-0.9633333333333334,-1.1700212714721463,-3.3040917482742014,40.31548001284315
1589996035.0723972,-1.5794393623765963,-3.956636174259578,8.693924463363825,1.3422222222222222,-0.2288888888888889,-0.9633333333333334,-0.816003985146273,-2.819507970292546,37.4088963861969
1589996035.0823972,-1.57,-3.9,8.764578473413378,1.2007982656756242,-0.1652989803697351,-0.9071198542024014,-0.9179231882504288,-2.9231922705831903,35.40284492924528
1589996035.0923972,-1.5971643260021955,-3.9181095506681305,8.770945224665935,0.7244444444444444,0.048888888888888885,-0.7177777777777777,-1.0200557406215693,-2.860851913540523,33.388057406215694
1589996035.1023972,-1.7350661134511012,-3.907894218478238,8.694933886548899,0.7244444444444444,0.048888888888888885,-0.7177777777777777,-0.987665283627753,-2.671668395465309,31.402339902768173
1589996035.1123972,-1.7592467126167082,-3.8507532873832915,8.678441609229115,0.7244444444444444,0.048888888888888885,-0.7177777777777777,-1.1490260057681967,-2.4759739942318033,30.942208046145574
1589996035.1223972,-1.7397496745176944,-3.8173620152286265,8.670584092792046,0.7244444444444444,0.048888888888888885,-0.7177777777777777,-0.93958604568588,-2.4788189923856865,31.477254458121276
1589996035.1323972,-1.8518616619282398,-3.664406017202289,8.674060172022887,0.6937116077462282,0.08346333017438211,-0.7158569754841393,-0.8876880375715263,-2.6165225645085832,32.27964290855436
1589996035.1423972,-1.904933420835362,-3.7562999343734784,8.861100196879564,0.6177777777777778,0.1688888888888889,-0.7111111111111111,-1.0323448779558397,-2.720677117513813,35.382861951436375
1589996035.1523972,-1.8238124943495164,-3.8428749660970976,8.76149986438839,0.6177777777777778,0.1688888888888889,-0.7111111111111111,-0.9621078564325107,-3.068749434951632,39.081248304854896
1589996035.1623971,-1.821289763214542,-3.9322614207127478,8.811283983098143,0.6177777777777778,0.1688888888888889,-0.7111111111111111,-1.9717322410906482,-3.560475713545404,42.026279598182256
1589996035.1723971,-1.8,-4.04911333264626,8.585241334295235,0.6177777777777778,0.1688888888888889,-0.7111111111111111,-0.545104177402178,-3.3248458380569583,44.878016678690436
1589996035.1823971,-1.8,-3.977068604211756,8.686103954103542,0.6177777777777778,0.1688888888888889,-0.7111111111111111,-1.6708030591913154,-3.8201533460441786,46.13879942629427
1589996035.192397,-1.75,-3.9913040558689232,8.834351329572925,0.5844444444444444,0.18666666666666668,-0.7244444444444444,-0.6467062852538276,-3.4076013967230727,46.56528673113081
1589996035.202397,-1.75,-3.9993511377153603,8.737786347415678,0.5844444444444444,0.18666666666666668,-0.7244444444444444,-1.5520029929780133,-3.608778442884003,44.65410479260197
1589996035.212397,-1.7086789134598641,-3.867624412328052,8.753151662893957,0.5844444444444444,0.18666666666666668,-0.7244444444444444,-0.9292432091241511,-3.236818735852342,39.62977646700331
1589996035.222397,-1.584522375065297,-3.69964791920599,8.607085147135644,0.5844444444444444,0.18666666666666668,-0.7244444444444444,-0.15326484415810548,-2.6890693017586624,35.93246778687097
1589996035.232397,-1.7580805353706523,-3.9095355717034783,8.846161070741303,0.5844444444444444,0.17554183301260878,-0.7278878453373672,-1.1664093689864146,-2.33901003819973,26.500586997730995
1589996035.242397,-1.669747406405052,-3.9477311682453764,8.742940911141181,0.5844444444444444,0.14,-0.7388888888888889,-0.28256089309878213,-1.3592410915651782,16.543555480378892
1589996035.252397,-1.5777345039508341,-3.9783982440737486,8.7,0.5844444444444444,0.14,-0.7388888888888889,0.2733132133450395,-0.7075219490781387,7.0744995610184365
1589996035.262397,-1.4932648870636551,-3.992683093771389,8.693696098562627,0.5844444444444444,0.14,-0.7388888888888889,0.9404303559206023,-0.003636208076659847,-2.0667137234770707
1589996035.272397,-1.052823968765914,-3.8242359531488708,8.618588015617043,0.5844444444444444,0.14,-0.7388888888888889,2.3171543456119505,1.8524539551858767,-17.612304786963165
1589996035.282397,-1.144475948764722,-3.9255240512352776,8.612168775032716,0.574078950267236,0.13338752957660838,-0.720302485536653,1.4427320854978785,2.5257911329658564,-28.586603283499226
1589996035.292397,-0.36497070633927986,-2.5708761766835626,5.869480284378907,0.52,0.09888888888888887,-0.6233333333333333,-28.53682484694885,55.1914023928642,-109.27549412481075
1589996035.302397,1.4941497659906395,-0.09087948517940718,0.24858502340093605,0.52,0.09888888888888887,-0.6233333333333333,-75.81379680187207,135.27240883385335,-256.1509726014041
1589996035.312397,2.334058149779736,-0.9341162995594713,0.054366519823788546,0.52,0.09888888888888887,-0.6233333333333333,-8.659361233480176,-79.32806167400881,-418.74937224669605
1589996035.322397,-0.17432155074116307,-2.2074458380843787,0.12984036488027367,0.52,0.09888888888888887,-0.6233333333333333,-18.065992018244014,-37.887115165336375,-408.2353192702395
1589996035.332397,0.06837522762470433,-1.2937638489422898,0.07273524055889312,0.52,0.09888888888888887,-0.6233333333333333,-19.315166612774213,-19.863310301400634,-397.39426832485236
1589996035.342397,-0.10214473684210527,-1.3455049342105263,0.3063092105263158,0.5255555555555556,0.2488888888888889,-0.6522222222222223,-15.776027960526315,-2.9565481085526315,-374.35679481907897
1589996035.352397,0.14191486025635996,-2.266154207988711,2.4399506095409818,0.5255555555555556,0.2488888888888889,-0.6522222222222223,7.452976167143586,34.536381364901416,-350.4116288071812
1589996035.362397,1.4045299222292287,-3.979051436807495,9.079518061435907,0.5255555555555556,0.2488888888888889,-0.6522222222222223,76.18972952887127,117.72113811068073,-318.03768616941414
1589996035.372397,2.012366296002118,1.0964043332450797,9.131168475862676,0.5255555555555556,0.2488888888888889,-0.6522222222222223,119.32461003000617,108.27110085164593,-280.0101463904333
1589996035.382397,0.5420308309735011,-0.2302904937831705,-2.494483243628453,0.5042362166002996,0.2765407047615476,-0.6507446442748283,66.85399944676782,-25.719151444967462,-250.73595704480243
1589996035.392397,-0.4018695497252591,-0.5213264444986216,0.054047784258199894,0.4159640513682859,0.3910323250129712,-0.644626771436966,1.8133638392438485,-13.428781904619019,-221.43571606061175
1589996035.402397,-0.5169701304451482,-0.7366051905589046,5.98967422771704,0.4133333333333333,0.3944444444444444,-0.6444444444444445,-27.405539022853446,48.68374608323967,-190.18207933142605
1589996035.412397,-2.774043799598106,-0.20090732604475325,7.411059228227922,0.4133333333333333,0.3944444444444444,-0.6444444444444445,-7.897208456796431,100.69108042982188,-176.83427420728177
1589996035.422397,0.7152173070212848,-1.3716558756251696,7.189173806846819,0.4133333333333333,0.3944444444444444,-0.6444444444444445,3.2047527429922846,-2.9944994766021775,-154.35014829604933
1589996035.432397,1.2792319054652879,-2.958776688599436,11.558229152678932,0.406717246318428,0.40462303985199105,-0.6446989093296331,-10.349173744460856,-34.321303880757355,-138.39922745736538
1589996035.4423969,0.41935839958555005,-2.3019255982624984,8.120910395122243,0.3555555555555556,0.4833333333333333,-0.6466666666666666,3.624995018630323,19.771375057285752,-115.72092997190508
1589996035.4523969,0.2766874512860483,-1.7375136399064692,6.664259547934528,0.3555555555555556,0.4833333333333333,-0.6466666666666666,11.139735970381917,37.05940666406859,-102.33958495713172
1589996035.4623969,0.5153415007656967,-2.745809341500766,9.427708269525269,0.3555555555555556,0.4833333333333333,-0.6466666666666666,6.233393950995406,-2.35875287136294,-95.13639931087289
1589996035.4723969,0.5988770053475936,-3.188663101604278,9.983315508021391,0.3555555555555556,0.4833333333333333,-0.6466666666666666,-0.5725267379679146,-7.788435828877006,-83.913435828877
1589996035.4823968,0.32547361817801634,-2.8931281801073396,9.876545619293232,0.34726570789092576,0.4905029313135537,-0.6437540174872021,-4.180037638530703,19.673106747055133,-67.95474663692758
1589996035.4923968,0.12556107491856677,-2.593469055374593,8.543655537459284,0.3144444444444445,0.5188888888888888,-0.6322222222222222,-4.2070643322475565,9.832278094462541,-55.938568811074916
1589996035.5023968,0.28435796202293667,-2.94546781976562,9.24998871968415,0.3144444444444445,0.5188888888888888,-0.6322222222222222,4.181072570031961,0.0710699066240521,-43.707730149777525
1589996035.5123968,0.15362926260565435,-2.7496519965024775,8.030152725153016,0.3144444444444445,0.5188888888888888,-0.6322222222222222,0.9225408044301953,3.1440651413582046,-30.578435587292333
1589996035.5223968,0.2352577763206426,-3.20078398426294,9.436084381787632,0.3144444444444445,0.5188888888888888,-0.6322222222222222,-0.8029665792385559,0.9215221712224909,-16.01238294537109
1589996035.5323968,0.2066247305678969,-2.901152949456737,8.17836449214798,0.3102119776927326,0.5214651729986265,-0.6381108716159084,0.8156452074077333,-0.3228511415123389,-4.440909140896494
1589996035.5423968,0.23615364924967203,-3.301025181582568,9.412047803410873,0.2888888888888889,0.5344444444444445,-0.6677777777777778,-1.67948676927015,-0.5352646145969987,8.181172607429687
1589996035.5523968,0.20540100760396782,-3.242299496198016,8.904010076039677,0.2888888888888889,0.5344444444444445,-0.6677777777777778,-1.136357057921582,-1.89806517351441,21.990010991332102
1589996035.5623968,0.1922761836217417,-3.248861908189129,8.772761836217416,0.2888888888888889,0.5344444444444445,-0.6677777777777778,0.25815549018994277,-2.6773515974590856,29.98795060550114
1589996035.5723968,0.9971283668333902,-9.139620056541053,7.149423560843767,0.2888888888888889,0.5344444444444445,-0.6677777777777778,-8.059343836403741,-7.385650959955264,63.48093098574047
1589996035.5823967,4.95180247910777,-19.055623349591475,7.103817763832365,0.2888888888888889,0.5344444444444445,-0.6677777777777778,-30.414328264313898,-23.0626436826245,145.32704883655907
1589996035.5923967,-0.9341936029785074,-3.0528225306030348,12.249838100073333,0.2911111111111111,0.5522222222222222,-0.6755555555555556,2.9965765498956394,-15.977618886444407,272.618347013031
1589996035.6023967,-1.287090075041759,-2.434238488195258,5.83550223130812,0.2911111111111111,0.5522222222222222,-0.6755555555555556,27.99594874224028,-2.8860583755079663,273.3923767794371
1589996035.6123967,-0.9103455056179776,-2.4621573033707866,5.777966292134832,0.2911111111111111,0.5522222222222222,-0.6755555555555556,-11.59501404494382,-22.244926264044945,268.57872191011234
1589996035.6223967,-1.0060721558988763,-3.699240168539326,10.755752106741575,0.2911111111111111,0.5522222222222222,-0.6755555555555556,-37.91984287219101,-31.495434295997192,265.081017380618
1589996035.6323967,-0.45589098532494765,-3.7939832285115305,9.961383647798742,0.30149235189067475,0.5451036571162357,-0.6761487693143878,-8.322458071278826,-20.232267645003493,267.154393780573
1589996035.6423967,0.22,-3.69,6.14,0.3688888888888889,0.4988888888888889,-0.68,7.4375,-13.625,268.5625
1589996035.6523967,5.363182564750473,-14.740692356285534,7.683447883765003,0.3688888888888889,0.4988888888888889,-0.68,-12.163795009475681,-22.56269740998105,194.47207043588122
1589996035.6623967,0.2532306849776731,-7.670390091835877,13.357940433060914,0.3688888888888889,0.4988888888888889,-0.68,-19.74942339287219,-4.882896094868986,-38.137798571910025
1589996035.6723967,-1.7470823500691675,-1.3229880380828383,9.920991130279111,0.3688888888888889,0.4988888888888889,-0.68,45.98223258605257,29.208074802669053,-66.85624084547156
1589996035.6823967,-0.7146340222963625,-0.33320286435023205,2.053905525266499,0.3688888888888889,0.4988888888888889,-0.68,33.663246856945236,6.329958448612583,-52.72407106965579
1589996035.6923966,-0.7276535314586664,-2.025057838803724,7.2987482366218375,0.42183725717629605,0.4385277490412447,-0.68,-23.457702435813033,-3.9086393774099495,-39.02614502022007
1589996035.7023966,-0.742391214802366,-2.7912372102219365,9.342323002652694,0.4244444444444445,0.4355555555555555,-0.68,-17.571673216021615,-0.02393088988845493,-18.69856593841135
1589996035.7123966,-0.6525523536486909,-2.5424526716425286,7.925633269075512,0.4244444444444445,0.4355555555555555,-0.68,6.615712479198589,3.042684082184107,-6.00018844842074
1589996035.7223966,1.4926028311329298,-7.132538804950511,7.251063025276838,0.4244444444444445,0.4355555555555555,-0.68,-0.8199889185453506,0.025837861239534188,-3.429939588198847
1589996035.7323966,-0.4865006434393022,-3.307604817056702,9.796576585164356,0.4244444444444445,0.4355555555555555,-0.68,-8.566479791239693,-3.1393949684635305,-45.660809184500266
1589996035.7423966,-2.2207713414634145,-4.612045731707317,7.013121951219512,0.4311111111111111,0.4511111111111111,-0.6944444444444444,16.66234756097561,14.665663109756098,-80.61152820121951
1589996035.7523966,-3.6370283508263967,-7.893302931596092,7.713437085293763,0.4311111111111111,0.4511111111111111,-0.6944444444444444,2.127631499577754,3.934310532030402,-19.124298769453492
1589996035.7623966,-0.06914985903274777,-2.066875587363551,9.611774741560037,0.4311111111111111,0.4511111111111111,-0.6944444444444444,-7.797888202125352,-10.593982686329792,38.335149642160054
1589996035.7723966,0.29470180004337454,-3.582924166847394,8.944713366587148,0.4311111111111111,0.4511111111111111,-0.6944444444444444,-1.544187811754501,-6.235343020313742,21.27960312296682
1589996035.7823966,-1.9413117763343688,-3.7577852301609713,7.744823496187517,0.4305594778624996,0.45124901942326395,-0.6940537042266779,5.071581121152217,8.424160724371646,-23.2629906805987
1589996035.7923965,-1.5185486617613984,-6.007382321755615,8.918621598174983,0.4044444444444445,0.4577777777777778,-0.6755555555555556,-3.345178806670308,1.809393374674678,-5.974568646981332
1589996035.8023965,-0.39274816159615633,-4.7891058297115405,8.736837578625002,0.4044444444444445,0.4577777777777778,-0.6755555555555556,-0.5625,-3.4434988813702296,6.030570913792155
1589996035.8123965,-0.17738369001118626,-4.6352740642937045,8.536856283581816,0.4044444444444445,0.4577777777777778,-0.6755555555555556,-0.5625,-0.17457386624122062,-1.6129449304065577
1589996035.8223965,-0.11604531829497536,-4.637796067672611,8.611750749377634,0.4044444444444445,0.4577777777777778,-0.6755555555555556,-0.12641619671798,-0.012358380328202,0.024716760656404
1589996035.8323965,-0.10183915053599553,-4.70172382258802,8.689884672052024,0.4044444444444445,0.4577777777777778,-0.6755555555555556,0.3175265457501397,-0.05675265457501397,0.11350530915002793
1589996035.8423965,-0.13429646675296036,-4.662072966105758,8.72570353324704,0.4044444444444445,0.4455555555555555,-0.6755555555555556,0.11573541396998896,0.022220624190996692,0.013426458603001103
1589996035.8523965,-0.15,-4.582851528492898,8.689433624356392,0.4044444444444445,0.4455555555555555,-0.6755555555555556,-0.4606932318483695,-0.125,0.03393558938387682
1589996035.8623965,-0.1476468688086829,-4.671765655956586,8.608234344043414,0.4044444444444445,0.4455555555555555,-0.6755555555555556,-0.6176363704884141,-0.125,-0.04779293005426824
1589996035.8723965,-0.14,-4.709146344699483,8.574268276502588,0.4044444444444445,0.4455555555555555,-0.6755555555555556,-0.16615861748706381,-0.11966465437176596,0.010670691256468091
1589996035.8823965,-0.14,-4.70358139843439,8.602093007828048,0.4044444444444445,0.4455555555555555,-0.6755555555555556,-0.02703496085975851,-0.08488374021493963,0.08023251957012074
1589996035.8923965,-0.14642927794263105,-4.616419386745797,8.74215628090999,0.41730300032970663,0.45341356192988236,-0.6798417408506429,0.46432987141444115,0.01786597428288822,0.04463402571711178
1589996035.9023964,-0.13077860734420235,-4.6212570470821275,8.758742952917874,0.4244444444444445,0.4577777777777778,-0.6822222222222222,0.44723259180252933,0.022455431967088227,0.04004456803291177
1589996035.9123964,-0.12844796661664043,-4.641552033383359,8.662416267066877,0.4244444444444445,0.4577777777777778,-0.6822222222222222,0.10130083458398917,0.05279979135400271,-0.09589937406200813
1589996035.9223964,-0.14537642740619902,-4.678441068515498,8.596182504078303,0.4244444444444445,0.4577777777777778,-0.6822222222222222,-0.22580801386623162,-0.03360267128874389,-0.02889732871125611
1589996035.9323964,-0.1328873357562203,-4.655774671512441,8.674119653340789,0.4244444444444445,0.4577777777777778,-0.6822222222222222,0.008362454570869426,-0.11597707576181157,-0.10695415152362314
1589996035.9423964,-0.137349479447675,-4.6426505205523245,8.69,0.4244444444444445,0.4577777777777778,-0.6707896986369499,0.20030273964390624,-0.125,-0.07906575345203126
1589996035.9523964,-0.15,-4.613345243326901,8.717455337524123,0.4244444444444445,0.4577777777777778,-0.6666666666666666,0.088411401112024,-0.005226942698282286,0.11977305730171771
1589996035.9623964,-0.15,-4.645401341307298,8.597244970097636,0.4244444444444445,0.4577777777777778,-0.6666666666666666,-0.26220217054856026,-0.05531459579265147,0.06968540420734853
1589996035.9723964,-0.13857222490616525,-4.64285555018767,8.64,0.4244444444444445,0.4577777777777778,-0.6666666666666666,-0.47769101415883164,-0.0625,0.04911460849529897
1589996035.9823964,-0.12298524657177895,-4.674029506856442,8.64,0.4244444444444445,0.4577777777777778,-0.6666666666666666,-0.23414447768404623,-0.0625,-0.09701331338957225
1589996035.9923964,-0.15098157848955213,-4.630981578489552,8.701963156979104,0.4177777777777778,0.4511111111111111,-0.6888888888888889,0.3309045966791023,-0.006134865559700771,0.11886513444029922
1589996036.0023963,-0.15908916938897802,-4.639089169388978,8.718178338777957,0.4177777777777778,0.4511111111111111,-0.6888888888888889,0.48292192604333795,-0.05680730868111263,0.06819269131888736
1589996036.0123963,-0.13176439424442138,-4.613528788488843,8.66,0.4177777777777778,0.4511111111111111,-0.6888888888888889,0.262876411875649,-0.17647253597236645,-0.011027464027633558
1589996036.0223963,-0.14954099472334653,-4.649081989446693,8.66,0.4177777777777778,0.4511111111111111,-0.6888888888888889,-0.23709047659412152,-0.06536878297908412,-0.12213121702091588
1589996036.0323963,-0.15,-4.656044825800725,8.67208965160145,0.4177777777777778,0.4511111111111111,-0.6888888888888889,-0.25,0.05084048376359197,-0.011659516236408027
1589996036.0423963,-0.15,-4.653677558825975,8.68,0.4219927385604612,0.4553260718937945,-0.6832689411786443,-0.13145422798702916,0.04596948532468613,-0.01653051467531387
1589996036.0523963,-0.1304489889898271,-4.6295510110101725,8.677306066061037,0.4244444444444445,0.4577777777777778,-0.68,0.11658145644074183,-0.05688763762716122,-0.0056123623728387825
1589996036.0623963,-0.13922845062167707,-4.620771549378323,8.624629296269937,0.4244444444444445,0.4577777777777778,-0.68,-0.048033449156444946,0.05285563277096328,-0.11535563277096328
1589996036.0723963,-0.15331141266527487,-4.626655706332637,8.633311412665275,0.4244444444444445,0.4577777777777778,-0.68,-0.27049082289492,0.10409816457898399,-0.041803670842032
1589996036.0823963,-0.13894996911673874,-4.651050030883261,8.64,0.4244444444444445,0.4577777777777778,-0.68,-0.375,-0.0942711550339716,0.08770846201358863
1589996036.0923963,-0.13,-4.646336105644086,8.680991683067742,0.4198898129924732,0.45322314632580646,-0.6655770004020909,-0.03340264110215224,0.025998349311154856,0.03960066027553806
1589996036.1023962,-0.12077012658227848,-4.6392298734177215,8.698716455696202,0.4177777777777778,0.4511111111111111,-0.6588888888888889,0.19391772151898734,0.0016044303797468353,-0.060895569620253165
1589996036.1123962,-0.14200708860759492,-4.617992911392405,8.663321518987342,0.4177777777777778,0.4511111111111111,-0.6588888888888889,0.37089240506329113,0.04584810126582278,-0.016651898734177217
1589996036.1223962,-0.14044248757673197,-4.619557512423268,8.640442487576733,0.4177777777777778,0.4511111111111111,-0.6588888888888889,0.31803109470914936,0.18196890529085064,0.0
1589996036.1323962,-0.14,-4.661065451465903,8.664639270879542,0.4177777777777778,0.4511111111111111,-0.6588888888888889,-0.09815451465903136,0.033504557002863256,0.05133181433237892
1589996036.1423962,-0.13018804686341393,-4.660188046863414,8.689623906273171,0.4177777777777778,0.4576524132021685,-0.6796030121772374,-0.3101494142073261,0.0,0.12382470710366306
1589996036.1523962,-0.14735307708464607,-4.66,8.698676538542323,0.4177777777777778,0.4577777777777778,-0.68,0.012870195337114032,-0.05422836588951901,0.07077163411048099
1589996036.1623962,-0.15,-4.621545018071965,8.632703781625938,0.4177777777777778,0.4577777777777778,-0.68,0.0625,-0.0625,0.0625
1589996036.1723962,-0.14159418184836287,-4.628405818151637,8.663623272606548,0.4177777777777778,0.4577777777777778,-0.68,0.009963636552267917,-0.22010909034319626,0.16757272689546415
1589996036.1823962,-0.12322616444168816,-4.652365114077749,8.67,0.4177777777777778,0.4577777777777778,-0.68,-0.13978196298593207,-0.215054509253517,0.11760901850703397
1589996036.1923962,-0.1217149919566838,-4.664142504021658,8.675857495978342,0.4177777777777778,0.4577777777777778,-0.6721900053622109,-0.17678130027072625,-0.15089065013536312,0.025890650135363125
1589996036.2023962,-0.15,-4.6495862922069,8.6493104870115,0.4177777777777778,0.4577777777777778,-0.6666666666666666,0.1909475649425024,-0.0616381087643744,0.0034475649425024053
1589996036.2123961,-0.15,-4.620762129472672,8.601270215787785,0.4177777777777778,0.4577777777777778,-0.6666666666666666,0.43114892106107117,-0.0015877697347322084,0.24364892106107117
1589996036.2223961,-0.15,-4.62745949105789,8.644756946347345,0.4177777777777778,0.4577777777777778,-0.6666666666666666,0.39087818088818255,0.09324363822363493,0.06351272355273013
1589996036.2323961,-0.12863598262592393,-4.6371213391246915,8.674242678249383,0.4177777777777778,0.4577777777777778,-0.6666666666666666,0.10794978282404938,0.03598326094134979,0.0
1589996036.242396,-0.13133304948258948,-4.634333475258705,8.68,0.41022241145605154,0.4508520253161953,-0.6792589438695438,-0.14166311853236824,-0.03541577963309206,-0.03541577963309206
1589996036.252396,-0.14732656046171483,-4.637326560461714,8.672673439538285,0.4044444444444445,0.4455555555555555,-0.6888888888888889,-0.2042089971142823,-0.10829100288571768,-0.016708997114282323
1589996036.262396,-0.14382720381807973,-4.65234559236384,8.626790426726558,0.4044444444444445,0.4455555555555555,-0.6888888888888889,0.04397985682201011,-0.24073992841100506,0.03857997613700169
1589996036.272396,-0.13332482260096823,-4.6399744678029045,8.646726241793223,0.4044444444444445,0.4455555555555555,-0.6888888888888889,0.10406028251210292,-0.1039007062802573,0.02078014125605146
1589996036.282396,-0.13600760456273764,-4.636007604562737,8.688022813688212,0.4044444444444445,0.4455555555555555,-0.6888888888888889,0.0625,-0.07509505703422054,0.03754752851711027
1589996036.292396,-0.14818515594157125,-4.656370311883142,8.691814844058428,0.420814756327587,0.450102864411984,-0.6888888888888889,-0.14212889853928148,0.02847167390446112,0.0625
1589996036.302396,-0.14085441410554672,-4.66,8.69,0.4244444444444445,0.4511111111111111,-0.6888888888888889,-0.016020264479000873,0.005340088159666953,-0.051819823680666094
1589996036.312396,-0.14962480915075213,-4.650375190849248,8.584127099341726,0.4244444444444445,0.4511111111111111,-0.6888888888888889,0.3007752859610042,0.0,-0.0023449428077991635
1589996036.322396,-0.15901098411425263,-4.631978031771495,8.652087872914022,0.4244444444444445,0.4511111111111111,-0.6888888888888889,0.19986269857184236,0.0,0.05631865071407883
1589996036.332396,-0.16,-4.622327018290438,8.706037890257376,0.4244444444444445,0.4511111111111111,-0.6888888888888889,0.1875,0.09591227136953231,0.0625
1589996036.342396,-0.1478167470407716,-4.626091626479615,8.707816747040772,0.41699912319158267,0.4551721954308539,-0.6922731258220078,-0.0028633274879438786,0.04885466900482245,-0.05171799649276633
1589996036.352396,-0.14,-4.654068551719182,8.667908597707758,0.4122222222222222,0.4577777777777778,-0.6944444444444444,-0.1751428160816297,-0.05014281608162972,-0.07485718391837029
1589996036.362396,-0.14,-4.667743800072253,8.598049599421978,0.4122222222222222,0.4577777777777778,-0.6944444444444444,-0.13910124954842001,-0.11089875045158,0.03429750090316
1589996036.372396,-0.14597391204851443,-4.658052175902971,8.615843472291086,0.4122222222222222,0.4577777777777778,-0.6944444444444444,0.024347801212860898,-0.19967390060643045,-0.012173900606430449
1589996036.382396,-0.15,-4.631612134408286,8.689034308244572,0.4122222222222222,0.4577777777777778,-0.6944444444444444,0.010075840051786036,-0.13507584005178602,-0.10080805331607132
1589996036.392396,-0.14131871777087543,-4.628681282229125,8.72,0.4122222222222222,0.46452988617820806,-0.6780464669005425,-0.0625,-0.0625,0.20054808359217152
1589996036.402396,-0.13080788804071247,-4.648384223918575,8.701615776081425,0.4122222222222222,0.4655555555555556,-0.6755555555555556,-0.0625,-0.11995069974554708,0.19254930025445294
1589996036.412396,-0.13604379447876752,-4.656043794478768,8.62747446625479,0.4122222222222222,0.4655555555555556,-0.6755555555555556,0.050821146476890594,-0.125,0.14972628450770314
1589996036.422396,-0.15401136124552914,-4.645988638754471,8.636045444982116,0.4122222222222222,0.4655555555555556,-0.6755555555555556,0.2563565116768357,-0.08121449610772144,0.08121449610772144
1589996036.432396,-0.14239934638320811,-4.645866884538931,8.701068191772515,0.4122222222222222,0.4655555555555556,-0.6755555555555556,0.27583197163168355,-0.13583605673663288,0.09916802836831644
1589996036.442396,-0.13,-4.643628810891922,8.723628810891924,0.4157617717267097,0.4563527268438881,-0.6783871951591456,0.21018006807451597,-0.10786013614903195,0.08518006807451597
1589996036.452396,-0.14221859799713876,-4.646109298998569,8.689453505007153,0.4177777777777778,0.4511111111111111,-0.68,-0.11796494992846929,0.013866237482117322,-0.09023247496423464
1589996036.462396,-0.1335451351764167,-4.65,8.595953108293875,0.4177777777777778,0.4511111111111111,-0.68,-0.20965709485260425,0.011078547426302127,-0.03323564227890635
1589996036.472396,-0.13,-4.643537259386316,8.592925481227368,0.4177777777777778,0.4511111111111111,-0.68,-0.14710787116447493,-0.12117638650657518,0.04039212883552506
1589996036.482396,-0.13,-4.645671118838747,8.65671118838747,0.4177777777777778,0.4511111111111111,-0.68,-0.08955550725783082,-0.15205550725783082,-0.008388985484338363
1589996036.4923959,-0.13,-4.625128205128205,8.70621794871795,0.40948717948717955,0.4600925925925926,-0.6889814814814815,0.054086538461538464,-0.047275641025641024,0.015224358974358976
1589996036.5023959,-0.1380178403470979,-4.634053521041293,8.718017840347098,0.4044444444444445,0.4655555555555556,-0.6944444444444444,-0.025334506508085802,0.05011150216936193,0.0625
1589996036.5123959,-0.13191773943211907,-4.664246781703643,8.606848352049667,0.4044444444444445,0.4655555555555556,-0.6944444444444444,-0.0625,-0.13955651419702367,0.11301412854925591
1589996036.5223958,-0.13886765016920474,-4.6433970494923855,8.642073551184433,0.4044444444444445,0.4655555555555556,-0.6944444444444444,0.048345627115059214,0.03419125423011843,0.06957718644247039
1589996036.5323958,-0.13292570677186064,-4.625851413543721,8.692445759368837,0.4044444444444445,0.4655555555555556,-0.6944444444444444,0.15092866535174226,-0.025928665351742264,0.018285667324128868
1589996036.5423958,-0.15277947359327304,-4.635186315728848,8.71,0.43059865486635057,0.4748360818342965,-0.683476549751387,0.1875,0.03241447330530439,0.047457236652652196
1589996036.5523958,-0.139405392146843,-4.64,8.730594607853158,0.4388888888888889,0.4777777777777778,-0.68,0.14459456697258957,0.01959456697258958,0.01959456697258958
1589996036.5623958,-0.15313344153962088,-4.647711147179874,8.624332792301896,0.4388888888888889,0.4777777777777778,-0.68,-0.11597334937105094,-0.04819466987421019,-0.09638933974842039
1589996036.5723958,-0.14655928623596062,-4.65,8.61016107064606,0.4388888888888889,0.4777777777777778,-0.68,-0.2715044610252462,-0.02049776948737688,-0.08299776948737689
1589996036.5823958,-0.1442826465565344,-4.654282646556535,8.637130586226137,0.4388888888888889,0.4777777777777778,-0.68,-0.2054338360866404,0.026766540978339897,0.0177996229350197
1589996036.5923958,-0.14337786104097092,-4.643444652602428,8.676555347397573,0.43189885332102484,0.4711556388187487,-0.6829431728706796,-0.021111631506068262,0.0625,0.08361163150606826
1589996036.6023958,-0.12492270348779372,-4.620154593024413,8.71,0.4177777777777778,0.4577777777777778,-0.6888888888888889,0.09423310320128928,0.03076689679871073,-0.06346620640257854
1589996036.6123958,-0.12687627423545872,-4.643752548470918,8.627484709174496,0.4177777777777778,0.4577777777777778,-0.6888888888888889,-0.003930141914851082,0.0,-0.03904657205676594
1589996036.6223958,-0.14131298064173958,-4.66131298064174,8.59,0.4177777777777778,0.4577777777777778,-0.6888888888888889,-0.027146935494563776,-0.035353064505436224,0.0
1589996036.6323957,-0.14101929003538408,-4.656528935053076,8.639393904805386,0.4177777777777778,0.4577777777777778,-0.6888888888888889,0.028064718639424724,-0.006370562721150552,0.028064718639424724
1589996036.6423957,-0.1348443017656501,-4.64,8.70484430176565,0.4177777777777778,0.45185696450864987,-0.6845828428749777,0.123053772070626,0.0625,0.0625
1589996036.6523957,-0.14,-4.64,8.742288577009333,0.4177777777777778,0.4455555555555555,-0.68,0.22786072126166534,-0.1393036063083267,0.10286072126166534
1589996036.6623957,-0.14590808019552715,-4.645908080195527,8.665470716871566,0.4177777777777778,0.4455555555555555,-0.68,0.06537249388977709,-0.17614899755591085,0.05114899755591083
1589996036.6723957,-0.14259521300617192,-4.657404786993828,8.629619147975312,0.4177777777777778,0.4455555555555555,-0.68,-0.10877991871142556,-0.21755983742285112,0.09255983742285114
1589996036.6823957,-0.15110470366439063,-4.66,8.656657055496586,0.4177777777777778,0.4455555555555555,-0.68,-0.125,-0.25,0.05559560209755865
1589996036.6923957,-0.1545181818181818,-4.654518181818182,8.680963636363636,0.4068141414141414,0.4522555555555555,-0.6684272727272728,-0.125,-0.07869318181818183,0.0
1589996036.7023957,-0.15,-4.6371281824126225,8.677128182412622,0.3977777777777778,0.4577777777777778,-0.6588888888888889,-0.04455114007888798,-0.09839771984222404,0.04022442996055601
1589996036.7123957,-0.14258225973641345,-4.622582259736413,8.603240337627721,0.3977777777777778,0.4577777777777778,-0.6588888888888889,0.04636087664741596,0.04430438323707983,0.0625
1589996036.7223957,-0.14,-4.6445002703898535,8.61266702718647,0.3977777777777778,0.4577777777777778,-0.6588888888888889,-0.03958445995772085,0.07395777002113957,-0.03958445995772085
1589996036.7323956,-0.14,-4.6561228294449775,8.656736976669862,0.3977777777777778,0.4577777777777778,-0.6588888888888889,-0.0625,0.0625,0.014035368062213699
1589996036.7423956,-0.1441607516089647,-4.655839248391035,8.700803758044824,0.40609928099570713,0.4577777777777778,-0.67368267238743,0.04151879022411689,0.0625,0.0625
1589996036.7523956,-0.15,-4.644384945796687,8.727192472898343,0.4177777777777778,0.4577777777777778,-0.6944444444444444,0.1875,0.009858866843935367,0.027405911229290245
1589996036.7623956,-0.14505128298718836,-4.632474358506405,8.695256414935942,0.4177777777777778,0.4577777777777778,-0.6944444444444444,0.1875,-0.15592948133007264,-0.03157051866992737
1589996036.7723956,-0.1436253274551147,-4.646812663727557,8.660875982365344,0.4177777777777778,0.4577777777777778,-0.6944444444444444,0.05976255510829978,-0.20742085170276658,0.019920851702766598
1589996036.7823956,-0.15596915147893636,-4.661938302957873,8.674030848521063,0.4177777777777778,0.4577777777777778,-0.6944444444444444,-0.22384318046011353,-0.11288560651329549,0.037307196743352256
1589996036.7923956,-0.1456415862883744,-4.655641586288374,8.68076881028372,0.4177777777777778,0.46056969155503835,-0.6924502203178298,-0.33012995715117,-0.0625,0.017629957151169967
1589996036.8023956,-0.12619783388163974,-4.632065944627213,8.706197833881639,0.4177777777777778,0.4655555555555556,-0.6888888888888889,-0.17252707647950322,-0.0754121539200828,-0.010851384319668797
1589996036.8123956,-0.1439799517902287,-4.633979951790229,8.657759421482744,0.4177777777777778,0.4655555555555556,-0.6888888888888889,0.20025060262214123,-0.08737469868892939,0.1875
1589996036.8223956,-0.15506723602896322,-4.637533618014482,8.640134472057927,0.4177777777777778,0.4655555555555556,-0.6888888888888889,0.10874466222846987,-0.10958511259051004,0.09332977481897993
