time,acc_x,acc_y,acc_z,mag_x,mag_y,mag_z,gyr_x,gyr_y,gyr_z
1589996057.1775222,-3.94,-0.88,8.97,0.3111111111111111,-0.3411111111111111,-0.6311111111111111,-0.3125,-0.0625,-0.25
1589996057.1875222,-3.9274979880175267,-0.8925020119824734,8.951246982026289,0.30208188023488036,-0.3376383300048685,-0.6206927677923832,-0.03901848788339446,-0.21877514978091747,-0.1327936376643119
1589996057.1975222,-3.9228175349087,-0.8859123254564985,8.909007116004297,0.2966666666666667,-0.33555555555555555,-0.6144444444444445,0.10739040682062298,-0.330109593179377,-0.08010959317937702
1589996057.2075222,-3.929856840762621,-0.8507157961868957,8.831574751611171,0.2966666666666667,-0.33555555555555555,-0.6144444444444445,0.06339474523361976,-0.37410525476638024,-0.12410525476638024
1589996057.2175221,-3.9245005941938773,-0.87,8.88199762322449,0.2966666666666667,-0.33555555555555555,-0.6144444444444445,-0.03437128628826892,-0.2156287137117311,0.045314356855865545
1589996057.2275221,-3.9122026127370937,-0.8711013063685467,8.941101306368546,0.2982574425323452,-0.33616739242697036,-0.6113852600873704,-0.125,-0.11811683519658334,-0.006883164803416657
1589996057.2375221,-3.9236056020302663,-0.873605602030266,8.956394397969733,0.3111111111111111,-0.3411111111111111,-0.5866666666666667,-0.125,-0.0625,-0.10246498731083749
1589996057.247522,-3.9066037587892413,-0.8633962412107588,8.919056381838619,0.3111111111111111,-0.3411111111111111,-0.5866666666666667,-0.06132047729827221,-0.08372650756724259,-0.1875
1589996057.257522,-3.907653726138032,-0.8776537261380323,8.846788041483114,0.3111111111111111,-0.3411111111111111,-0.5866666666666667,0.03858210581864904,-0.125,-0.35492525926945667
1589996057.267522,-3.922425757746842,-0.8875742422531576,8.894851515493686,0.3111111111111111,-0.3411111111111111,-0.5866666666666667,0.1364488732598842,-0.15532197183552982,-0.6401609859177649
1589996057.277522,-3.9291915216234092,-0.8808084783765909,8.908383043246818,0.3111111111111111,-0.3411111111111111,-0.5866666666666667,0.5170230913167616,-0.2398940202926137,-0.6824470101463068
1589996057.287522,-3.93,-0.8655648032329453,8.908912008082362,0.2966666666666667,-0.3411111111111111,-0.6233333333333333,0.9375,-0.6040799696911383,-0.8611400101029539
1589996057.297522,-3.93,-0.8519712635408744,8.858172418754753,0.2966666666666667,-0.3411111111111111,-0.6233333333333333,0.8882184114781393,-0.8116019856523259,-0.8125
1589996057.307522,-3.923934258758488,-0.86,8.811733068926147,0.2966666666666667,-0.3411111111111111,-0.6233333333333333,0.6820841596057929,-1.067915840394207,-0.8179158403942071
1589996057.317522,-3.86219808464863,-0.86,8.854178931134932,0.2966666666666667,-0.3411111111111111,-0.6233333333333333,0.5425718256763703,-1.0150957675684937,-0.9299521162157531
1589996057.327522,-3.869579052978255,-0.86,8.940210473510872,0.2969706839601494,-0.3412514267850262,-0.6228422284746304,0.23684540557045955,-0.6065835677986434,-1.1276309188859082
1589996057.337522,-3.85128290693363,-0.86,8.949358546533185,0.3101845672146006,-0.34735014213323445,-0.6014967247559015,-0.33490915832406376,0.19387282165368935,-1.2419818316648128
1589996057.347522,-3.8713490842309026,-0.9122698168461806,8.963682930461111,0.3111111111111111,-0.3477777777777778,-0.6,-0.5682545788454857,1.0483136447113715,-1.9486089740408001
1589996057.357522,-3.906046557800169,-0.9192093115600338,8.85265101503946,0.3111111111111111,-0.3477777777777778,-0.6,-0.39476721099915624,1.004941802749789,-2.5558147615029534
1589996057.367522,-3.91,-0.8739190565077211,8.855946037671814,0.3111111111111111,-0.3477777777777778,-0.6,0.026180425929068385,0.4493254708976752,-3.513511793653487
1589996057.377522,-3.9141816028677505,-0.8541816028677506,8.846969338112917,0.30909774676737933,-0.3468485326960554,-0.5993805032788517,0.3488649820765587,0.2587116726411471,-3.7950766547177057
1589996057.387522,-3.94,-0.8718181818181818,8.887272727272729,0.2966666666666667,-0.3411111111111111,-0.5955555555555555,0.1534090909090909,0.21022727272727273,-3.5511363636363638
1589996057.397522,-3.939425753319714,-0.851148493360572,8.875406026557712,0.2966666666666667,-0.3411111111111111,-0.5955555555555555,0.04814383299284985,-0.0337876659856997,-3.155198624233912
1589996057.407522,-3.9321824894514767,-0.8743649789029536,8.82182489451477,0.2966666666666667,-0.3411111111111111,-0.5955555555555555,-0.26934335443037977,0.5466244725738396,-2.57043776371308
1589996057.417522,-3.9395564345991563,-0.8891128691983122,8.895564345991561,0.2966666666666667,-0.3411111111111111,-0.5955555555555555,-0.5458662974683544,0.9153217299578059,-2.386089135021097
1589996057.427522,-3.94,-0.916651342032317,8.971070245419511,0.2966666666666667,-0.3411111111111111,-0.5955555555555555,-0.6180236292339937,0.9375,-1.8752873368940572
1589996057.437522,-3.94,-0.8923883469196846,8.992388346919684,0.31555555555555553,-0.3477777777777778,-0.6233333333333333,-0.47014566350394227,0.7677184952559134,-1.4878641587598556
1589996057.447522,-3.9494096817779436,-0.9094096817779435,8.959224712295578,0.31555555555555553,-0.3477777777777778,-0.6233333333333333,-0.43381051111214647,0.6838105111121465,-1.0931719703676093
1589996057.457522,-3.9587103412405873,-0.9158879265507338,8.867177585310147,0.31555555555555553,-0.3477777777777778,-0.6233333333333333,-0.4742995409420863,0.6360990818841726,-0.6088792655073382
1589996057.467522,-3.9259165132474187,-0.8820417433762907,8.86,0.31555555555555553,-0.3477777777777778,-0.6233333333333333,-0.14791283118546386,0.14921731169454894,-0.21171731169454894
1589996057.477522,-3.9111078836059727,-0.8905539418029863,8.861107883605973,0.3148785155741278,-0.3474084832424536,-0.6217946061028158,0.23268931865667838,0.013848545074657291,-0.05557572746267135
1589996057.487522,-3.928925411987911,-0.9021491760241788,8.88107458801209,0.3033333333333333,-0.3411111111111111,-0.5955555555555555,-0.07593235015111738,0.2634323501511174,0.06921617507555869
1589996057.4975219,-3.9196949215219,-0.9190847645656998,8.8881695291314,0.3033333333333333,-0.3411111111111111,-0.5955555555555555,-0.1875,0.3692797785356233,0.11546629755937217
1589996057.5075219,-3.9110781493960065,-0.8932344481880188,8.836468896376038,0.3033333333333333,-0.3411111111111111,-0.5955555555555555,-0.1875,0.20771530117511708,-0.15380783137480486
1589996057.5175219,-3.9337901282263554,-0.92,8.925160512905421,0.3033333333333333,-0.3411111111111111,-0.5955555555555555,-0.25,0.2769675478779182,-0.0506558492926394
1589996057.5275218,-3.949222547234027,-0.92,8.986890188936108,0.3033333333333333,-0.3411111111111111,-0.5955555555555555,-0.25,0.13228861968099787,-0.0024295398936659413
1589996057.5375218,-3.9141015007387057,-0.8941015007387056,9.00384774889194,0.3111111111111111,-0.3411111111111111,-0.6022222222222222,-0.049682810191545065,0.16186562038309013,0.012817189808454938
1589996057.5475218,-3.93,-0.9180855845087258,8.95304805163758,0.3111111111111111,-0.3411111111111111,-0.6022222222222222,0.016844967726512075,0.0625,0.011965096820463782
1589996057.5575218,-3.9250485922382867,-0.9325728883574301,8.875048592238286,0.3111111111111111,-0.3411111111111111,-0.6022222222222222,0.13986574627676923,-0.0458120447874769,-0.07858055223393846
1589996057.5675218,-3.911467910104265,-0.9055962696872061,8.85706417979147,0.3111111111111111,-0.3411111111111111,-0.6022222222222222,0.4300466289099242,-0.375,0.05332556184834598
1589996057.5775218,-3.9198617142628427,-0.8804148572114712,8.840276571474314,0.3111111111111111,-0.3411111111111111,-0.6022222222222222,0.744814284856611,-0.375,0.0008642858572314865
1589996057.5875218,-3.928195832287221,-0.88,8.885412503138339,0.3233333333333333,-0.33,-0.5955555555555555,0.5061197589756465,0.0625,-0.0512239517951293
1589996057.5975218,-3.92,-0.8845449657869012,8.891820136852395,0.3233333333333333,-0.33,-0.5955555555555555,0.23579698191593354,0.005687927663734119,0.01420301808406647
1589996057.6075218,-3.917637824106918,-0.8976378241069182,8.853621758930819,0.3233333333333333,-0.33,-0.5955555555555555,0.12844560267295238,-0.1727364006682381,0.047736400668238095
1589996057.6175218,-3.91,-0.8934351007316829,8.94202285256089,0.3233333333333333,-0.33,-0.5955555555555555,-0.08396937957301795,-0.13573468978650896,0.0
1589996057.6275218,-3.9101496963030273,-0.9097006073939452,9.0,0.3233333333333333,-0.330083164612793,-0.5955555555555555,-0.1837575924243149,-0.18562879621215744,0.0
1589996057.6375217,-3.9201729179618243,-0.890691671847298,8.998789574267228,0.3233333333333333,-0.33555555555555555,-0.5955555555555555,0.06358073726140315,-0.0625,0.0
1589996057.6475217,-3.9298303055421244,-0.9293212221684972,8.93118786120513,0.3233333333333333,-0.33555555555555555,-0.5955555555555555,0.1239394096382768,-0.0625,0.0
1589996057.6575217,-3.9279642502482623,-0.8720357497517378,8.826107249255214,0.3233333333333333,-0.33555555555555555,-0.5955555555555555,0.34955312810327704,-0.27544687189672296,-0.012723435948361471
1589996057.6675217,-3.920532634897089,-0.8805326348970888,8.84946736510291,0.3233333333333333,-0.33555555555555555,-0.5955555555555555,0.2533289681068051,-0.3583551594659744,-0.059171031893194885
1589996057.6775217,-3.9270137214908214,-0.8870137214908215,8.842986278509178,0.3233333333333333,-0.33555555555555555,-0.5955555555555555,0.29383575931763395,-0.15582120341183014,-0.01866424068236603
1589996057.6875217,-3.9132012478181752,-0.8648018717272626,8.881996880454563,0.3130674292222181,-0.33555555555555555,-0.6132875717474819,0.20750779886359416,-0.0625,0.05249610056820292
1589996057.6975217,-3.9177380022206685,-0.8986900111033433,8.882261997779333,0.3111111111111111,-0.33555555555555555,-0.6166666666666667,0.09077497224164166,-0.15922502775835834,-0.08258754163753751
1589996057.7075217,-3.9004016381809703,-0.9012049145429111,8.845622934533585,0.3111111111111111,-0.33555555555555555,-0.6166666666666667,-0.13002047726212923,0.0050204772621292295,-0.05747952273787077
1589996057.7175217,-3.9089053788293495,-0.9267161364880482,8.964675303610893,0.3111111111111111,-0.33555555555555555,-0.6166666666666667,-0.23631723536686738,0.11131723536686738,0.048817235366867384
1589996057.7275217,-3.9392765775629557,-0.9007234224370444,8.98,0.3111111111111111,-0.33555555555555555,-0.6166666666666667,-0.06702139023152723,0.0030142601543514808,0.0625
1589996057.7375216,-3.91275201947549,-0.8818346796503265,8.98,0.32826724699691395,-0.3406014778749093,-0.6227217734498911,0.16456650437091955,-0.05676662609272989,0.0625
1589996057.7475216,-3.91,-0.8953911966151616,8.956216367844036,0.33,-0.3411111111111111,-0.6233333333333333,0.04809748942238014,-0.004889957689520559,0.0
1589996057.7575216,-3.9121360924329958,-0.8821360924329955,8.818544369731983,0.33,-0.3411111111111111,-0.6233333333333333,-0.01335057770622218,0.1875,-0.01335057770622218
1589996057.7675216,-3.92,-0.89,8.846700122861733,0.33,-0.3411111111111111,-0.6233333333333333,-0.03156365182874965,0.11531518760041584,-0.05218788394291655
1589996057.7775216,-3.92,-0.89,8.830844154616766,0.33,-0.3411111111111111,-0.6233333333333333,0.11708605046781967,-0.2315341177582459,-0.0026379831773934367
1589996057.7875216,-3.918385534911736,-0.8832289301765278,8.87,0.33,-0.33555555555555555,-0.5955555555555555,0.17740959319835056,-0.19759040680164944,-0.04231918639670111
1589996057.7975216,-3.9086622898915118,-0.9013377101084882,8.860636029240583,0.33,-0.33555555555555555,-0.5955555555555555,0.09155724728779624,-0.20819655910974533,0.05413931182194906
1589996057.8075216,-3.9010122279704134,-0.9079755440591731,8.808097823763308,0.33,-0.33555555555555555,-0.5955555555555555,-0.15030569926033605,0.11311139852067212,0.006326424815084014
1589996057.8175216,-3.9099786224293474,-0.8900427551413057,8.879828979434778,0.33,-0.33555555555555555,-0.5955555555555555,-0.3744655607336782,0.5614311214673564,0.06236639018341956
1589996057.8275216,-3.9162752890715216,-0.89,8.942752890715218,0.33,-0.33555555555555555,-0.5955555555555555,-0.375,0.4840588866059779,0.02327944330298895
1589996057.8375216,-3.92,-0.8970845239574274,8.987084523957428,0.3252769840283817,-0.33555555555555555,-0.6002785715271738,-0.15360862633039302,0.3932217252660786,0.0
1589996057.8475215,-3.9057521329142344,-0.9,9.004247867085766,0.3233333333333333,-0.33555555555555555,-0.6022222222222222,-0.151549169286035,0.3304754153569825,0.0
1589996057.8575215,-3.92,-0.9076691859060635,8.83291351761742,0.3233333333333333,-0.33555555555555555,-0.6022222222222222,-0.19478379404355178,0.06978379404355178,0.06614189702177589
1589996057.8675215,-3.92,-0.8787200193256721,8.86909997584291,0.3233333333333333,-0.33555555555555555,-0.6022222222222222,-0.28524993960727474,0.16024993960727474,0.11137496980363737
1589996057.8775215,-3.937083321190219,-0.8956249817853292,8.89708332119022,0.3233333333333333,-0.33555555555555555,-0.6022222222222222,-0.15234386384169266,0.13411462128056423,-0.035156136158307344
1589996057.8875215,-3.925265656162744,-0.9,8.892632828081373,0.3085989894960776,-0.3396484288436821,-0.6071336701679741,-0.171044824491424,-0.05917929796569604,-0.01645517550857599
1589996057.8975215,-3.91,-0.91,8.829290248450715,0.3033333333333333,-0.3411111111111111,-0.6088888888888889,-0.004435947183032266,-0.18306405281696772,-0.10725621126787094
1589996057.9075215,-3.91,-0.91,8.821389741754412,0.3033333333333333,-0.3411111111111111,-0.6088888888888889,-0.05381411403492249,-0.13368588596507752,0.09025645613968997
1589996057.9175215,-3.927861240359488,-0.9257224807189751,8.875346899101281,0.3033333333333333,-0.3411111111111111,-0.6088888888888889,-0.13168362387660143,0.2767344955064058,0.11831637612339856
1589996057.9275215,-3.914494231627255,-0.8989884632545095,8.908764420931863,0.3033333333333333,-0.3411111111111111,-0.6088888888888889,-0.17345552616482884,0.44382210465931543,0.07654447383517114
1589996057.9375215,-3.939735143663049,-0.929337859157623,9.019337859157623,0.31555555555555553,-0.3411111111111111,-0.5866666666666667,-0.24668929578811494,0.6875,0.0625
1589996057.9475214,-3.92,-0.8803425648444766,8.967773328510903,0.31555555555555553,-0.3411111111111111,-0.5866666666666667,0.005352575694946782,0.6778653637490958,0.06357051513898936
1589996057.9575214,-3.92,-0.898171283807558,8.841828716192442,0.31555555555555553,-0.3411111111111111,-0.5866666666666667,0.3067852618986184,0.1478589524055265,0.13071473810138162
1589996057.9675214,-3.918675633303078,-0.8795585444343593,8.859117088868718,0.31555555555555553,-0.3411111111111111,-0.5866666666666667,0.23896361085898177,0.3694818054294909,0.1875
1589996057.9775214,-3.9013709877052563,-0.8737903292350854,8.84758065847017,0.31555555555555553,-0.3411111111111111,-0.5866666666666667,0.09475823087713509,0.29737911543856754,0.1875
1589996057.9875214,-3.9017933579335793,-0.8758966789667897,8.84589667896679,0.3129348093480935,-0.3411111111111111,-0.5997703977039771,-0.1474169741697417,0.17629151291512915,0.15064575645756456
1589996057.9975214,-3.910930566525454,-0.8518611330509083,8.869069433474545,0.3111111111111111,-0.3411111111111111,-0.6088888888888889,-0.574132081568177,0.5683160407840885,0.06056131973863718
1589996058.0075214,-3.94,-0.9105045157271878,8.841765805045156,0.3111111111111111,-0.3411111111111111,-0.6088888888888889,-0.9359233883525382,0.7436935534101526,0.0015766116474618499
1589996058.0175214,-3.94,-0.9250181667185716,8.892563583515,0.3111111111111111,-0.3411111111111111,-0.6088888888888889,-0.8905682290044639,0.5622729160178553,0.04693177099553617
1589996058.0275214,-3.9317314042144447,-0.93,8.934805787356666,0.3111111111111111,-0.3411111111111111,-0.6088888888888889,-0.5132489343819415,0.08657021072221888,-0.04085744731944528
1589996058.0375214,-3.9091770438549,-0.9275311315646996,9.005885219274498,0.31555555555555553,-0.3411111111111111,-0.6233333333333333,-0.307356524093124,-0.125,-0.052213048186247966
1589996058.0475214,-3.9000935571196536,-0.9002806713589605,8.960467785598269,0.31555555555555553,-0.3411111111111111,-0.6233333333333333,-0.2505847319978343,-0.125,0.06133053600433136
1589996058.0575213,-3.9109550951243937,-0.9,8.830955095124393,0.31555555555555553,-0.3411111111111111,-0.6233333333333333,-0.20142847056407095,0.19346934452745898,0.060510218490847006
1589996058.0675213,-3.94,-0.90076967824032,8.8638483912016,0.31555555555555553,-0.3411111111111111,-0.6233333333333333,-0.6009475549900019,0.37018951099800035,0.004810489001999636
1589996058.0775213,-3.94,-0.9083942919469188,8.901971459734593,0.31555555555555553,-0.3411111111111111,-0.6233333333333333,-0.3626783766587893,0.32253567533175787,0.052464324668242135
1589996058.0875213,-3.9101447979363715,-0.8904343938091144,8.919855202063628,0.2966666666666667,-0.3477777777777778,-0.6166666666666667,0.06430997420464317,-0.0036199484092863284,0.0625
1589996058.0975213,-3.9173576956147893,-0.912073086844368,8.91264230438521,0.2966666666666667,-0.3477777777777778,-0.6166666666666667,0.15447119518486674,-0.18394239036973345,0.0625
1589996058.1075213,-3.92,-0.891694415847208,8.79677766338883,0.2966666666666667,-0.3477777777777778,-0.6166666666666667,0.1875,-0.42690990095495046,-0.17337986793993398
1589996058.1175213,-3.9038585543421735,-0.8980707228289132,8.870707228289131,0.2966666666666667,-0.3477777777777778,-0.6166666666666667,0.08661596463858554,-0.4879420176807072,-0.03617394695787832
1589996058.1275213,-3.907634502647504,-0.8847309947049924,8.89,0.2966666666666667,-0.3477777777777778,-0.6166666666666667,0.25336256618759456,-0.3568530753593041,-0.04771564154689864
1589996058.1375213,-3.91,-0.8986118072148727,8.927223614429746,0.3101085274329636,-0.33640389559091116,-0.6228706024049575,0.021690512267614648,-0.021690512267614648,-0.2369856926394312
1589996058.1475213,-3.939563582015195,-0.929563582015195,8.939854527338397,0.3111111111111111,-0.33555555555555555,-0.6233333333333333,-0.12318159172997882,0.24636318345995764,-0.37318159172997883
1589996058.1575212,-3.9396766906677962,-0.9196766906677962,8.830323309332204,0.3111111111111111,-0.33555555555555555,-0.6233333333333333,0.004041366652548355,0.24595863334745163,-0.49696897501058873
1589996058.1675212,-3.920050297210791,-0.9000502972107911,8.850201188843164,0.3111111111111111,-0.33555555555555555,-0.6233333333333333,0.249685642432556,0.0001571787837219936,-0.312028463648834
1589996058.1775212,-3.9360322359396434,-0.9160322359396433,8.914128943758573,0.3111111111111111,-0.33555555555555555,-0.6233333333333333,0.1497985253772291,0.05010073731138546,-0.16219778806584362
1589996058.1875212,-3.934143215380329,-0.9024296461409864,8.941713569239342,0.3111111111111111,-0.33555555555555555,-0.6109690102473607,0.08839509612705489,-0.010709807745890226,-0.051790192254109774
1589996058.1975212,-3.923020329826557,-0.9039593403468866,8.922081319306226,0.3111111111111111,-0.33555555555555555,-0.6022222222222222,0.23699175433608188,-0.1933688157520614,0.0
1589996058.2075212,-3.9004134578782463,-0.8904134578782467,8.79248074726948,0.3111111111111111,-0.33555555555555555,-0.6022222222222222,0.496123832391438,-0.25,0.0
1589996058.2175212,-3.9,-0.89,8.828685316522195,0.3111111111111111,-0.33555555555555555,-0.6022222222222222,0.35493006304176516,-0.25,-0.09671329130548989
1589996058.2275212,-3.892808875198537,-0.8971911248014631,8.890337873610243,0.3111111111111111,-0.33555555555555555,-0.6022222222222222,0.1327218799634211,-0.025277349954276357,-0.035110939981710554
1589996058.2375212,-3.939894835398171,-0.9097896707963419,8.940210329203659,0.31555555555555553,-0.33555555555555555,-0.6166666666666667,-0.2513145575228637,0.6901291150457274,0.12434272123856815
1589996058.2475212,-3.93288224574075,-0.8957644914815001,8.9542355085185,0.31555555555555553,-0.33555555555555555,-0.6166666666666667,-0.3389719282406246,0.8654438564812492,0.0805140358796877
1589996058.2575212,-3.939813299435926,-0.899813299435926,8.871680305076666,0.31555555555555553,-0.33555555555555555,-0.6166666666666667,-0.12966751410185112,0.5081681496782395,0.0625
1589996058.2675211,-3.9181855001314982,-0.8781855001314982,8.877271499956167,0.31555555555555553,-0.33555555555555555,-0.6166666666666667,-0.03410625054790917,0.13642500219163667,-0.07384062417813622
1589996058.2775211,-3.922886066674808,-0.8893291000122115,8.905772133349615,0.31555555555555553,-0.33555555555555555,-0.6166666666666667,0.0,-0.20134479179386983,-0.004193124923678113
1589996058.2875211,-3.9183605058986077,-0.9058197470506961,8.908360505898608,0.30456270001535174,-0.33555555555555555,-0.6153733895442898,0.03637341906685089,-0.3488734190668509,0.02612658093314911
1589996058.297521,-3.8920657730547843,-0.9189671134726081,8.864131546109567,0.2966666666666667,-0.33555555555555555,-0.6144444444444445,0.0625,-0.31895554079620014,0.0
1589996058.307521,-3.9169060471472497,-0.8841252704703337,8.788250540940666,0.2966666666666667,-0.33555555555555555,-0.6144444444444445,0.11855426489010364,-0.1443372053296891,0.056054264890103636
1589996058.317521,-3.929807082383162,-0.8996141647663233,8.83884249429897,0.2966666666666667,-0.33555555555555555,-0.6144444444444445,-0.12017705957904118,0.30405985426332205,0.1237942648947603
1589996058.327521,-3.922149402732001,-0.907850597267999,8.926356569947988,0.2966666666666667,-0.33555555555555555,-0.6144444444444445,-0.22313246584998764,0.3125,0.07593376707500618
1589996058.337521,-3.929989248713104,-0.91,8.97996774613931,0.3110955814744829,-0.3411051381739464,-0.6088948618260537,-0.1875671955431029,0.5622312178275884,0.0625
1589996058.347521,-3.93,-0.91,8.98,0.3111111111111111,-0.3411111111111111,-0.6088888888888889,0.12095207253886009,0.15123056994818657,0.0625
1589996058.357521,-3.9212329460669366,-0.8924658921338734,8.822193029204861,0.3111111111111111,-0.3411111111111111,-0.6088888888888889,0.2422940870816457,-0.1566763483265828,0.11729408708164571
1589996058.367521,-3.9127581120943953,-0.8972418879056048,8.843451327433629,0.3111111111111111,-0.3411111111111111,-0.6088888888888889,0.159476401179941,-0.1422382005899705,0.0797382005899705
1589996058.377521,-3.9163818378477897,-0.8936181621522105,8.872763675695579,0.3111111111111111,-0.3411111111111111,-0.6088888888888889,-0.07443243274342393,-0.125,0.14227297309736958
1589996058.387521,-3.9123001703177307,-0.866900510953192,8.88,0.3111111111111111,-0.33683342795429483,-0.6037556691007093,-0.1875,0.11561967757091676,0.13937606448581663
1589996058.397521,-3.922444136371099,-0.897332409113296,8.88622206818555,0.3111111111111111,-0.33555555555555555,-0.6022222222222222,-0.4597154831177833,0.38193963079841664,0.08611207384031666
1589996058.407521,-3.9550505368309277,-0.8949494631690723,8.839898926338144,0.3111111111111111,-0.33555555555555555,-0.6022222222222222,-0.3640569080111692,0.4478113816022338,0.010311381602233848
1589996058.417521,-3.9359930042133713,-0.9140069957866286,8.860008744733285,0.3111111111111111,-0.33555555555555555,-0.6022222222222222,-0.16245627633357185,0.39998906908339293,0.03751093091660704
1589996058.427521,-3.92,-0.9190107301753468,8.901978539649306,0.3111111111111111,-0.33555555555555555,-0.6022222222222222,-0.02815853179795865,0.20329265898979326,0.0625
1589996058.437521,-3.9257720362250543,-0.9042279637749457,8.937316108675162,0.31367646054446857,-0.33555555555555555,-0.6188969935390457,0.10822567921976807,0.13465045281317872,0.13465045281317872
1589996058.447521,-3.93,-0.8756173475225999,8.9337448983484,0.31555555555555553,-0.33555555555555555,-0.6311111111111111,0.1875,0.1875,0.1875
1589996058.457521,-3.910021578464692,-0.8899784215353078,8.856745787703872,0.31555555555555553,-0.33555555555555555,-0.6311111111111111,0.14587828846810882,0.14587828846810882,0.10425657693621765
1589996058.467521,-3.917784374167523,-0.9,8.87335312250257,0.31555555555555553,-0.33555555555555555,-0.6311111111111111,-0.09730467709403659,0.06942383072649086,0.0069238307264908525
1589996058.477521,-3.92,-0.9071569759979464,8.88,0.31555555555555553,-0.33555555555555555,-0.6311111111111111,-0.16973109998716468,0.017768900012835327,0.0
1589996058.487521,-3.92,-0.893952655538695,8.896047344461305,0.3119894790085989,-0.34001315123925135,-0.619521362333502,-0.1875,0.050147951441578145,0.10029590288315629
1589996058.497521,-3.9270475792656243,-0.8970475792656244,8.949333054859371,0.3111111111111111,-0.3411111111111111,-0.6166666666666667,-0.31964211123045705,0.15059474082030472,0.03690525917969527
1589996058.507521,-3.921512949798002,-0.9,8.868155397576023,0.3111111111111111,-0.3411111111111111,-0.6166666666666667,-0.16282374495004853,0.1875,-0.05304406376248787
1589996058.517521,-3.928925015631764,-0.9089250156317638,8.885700062527055,0.3111111111111111,-0.3411111111111111,-0.6166666666666667,-0.013437304602953198,0.2432813476985234,0.0490626953970468
1589996058.527521,-3.923250905030348,-0.9032509050303478,8.896749094969653,0.3111111111111111,-0.3411111111111111,-0.6166666666666667,0.04218184356032635,0.29218184356032634,0.0625
1589996058.537521,-3.9362592718611773,-0.9162592718611773,8.940648179652943,0.30478806094287547,-0.332078182299346,-0.6166666666666667,0.11331022456617898,0.21087955086764204,0.011689775433821027
1589996058.5475209,-3.9343730121970046,-0.9143730121970048,8.910611085379033,0.3033333333333333,-0.33,-0.6166666666666667,0.19533734753744017,0.08199397869383974,0.07033734753744017
1589996058.5575209,-3.9201635910584667,-0.91,8.8504907731754,0.3033333333333333,-0.33,-0.6166666666666667,0.18852244411541658,0.03073877794229172,0.06352244411541656
1589996058.5675209,-3.915063955812348,-0.91,8.825063955812348,0.3033333333333333,-0.33,-0.6166666666666667,0.061700552345652096,0.030850276172826048,0.03164972382717395
1589996058.5775208,-3.929655623080442,-0.9003443769195583,8.873450303861988,0.3033333333333333,-0.33,-0.6166666666666667,0.0,0.030173822126380447,0.0625
1589996058.5875208,-3.94,-0.8953164891992589,8.92531648919926,0.309831264576872,-0.3359072102213988,-0.6078058513345684,0.0664561149907364,-0.07041222998147281,0.029271942504631797
1589996058.5975208,-3.918197620874904,-0.8927325402916347,8.908197620874905,0.31555555555555553,-0.3411111111111111,-0.6,-0.011264869531849575,0.08502973906369915,0.04542162317728319
1589996058.6075208,-3.91599820856444,-0.89,8.85801254004892,0.31555555555555553,-0.3411111111111111,-0.6,-0.17496641058325008,0.22498880352775003,0.09998880352775003
1589996058.6175208,-3.92,-0.9042321442154104,8.865580360538527,0.31555555555555553,-0.3411111111111111,-0.6,-0.25,0.47237725336578684,0.036049098653685246
1589996058.6275208,-3.932656316186898,-0.91,8.905312632373796,0.31555555555555553,-0.3411111111111111,-0.6,-0.2895509880840562,0.3647450595797189,-0.03955098808405621
1589996058.6375208,-3.9480546100069547,-0.9180546100069544,8.944163830020862,0.31197572888579805,-0.3321615444367174,-0.607159653339515,-0.36284131254346474,0.19965868745653526,0.0885239376303942
1589996058.6475208,-3.930144196888383,-0.9133813989627944,8.910288393776765,0.3111111111111111,-0.33,-0.6088888888888889,-0.25090123055239333,0.1047674870349289,0.08363374351746444
1589996058.6575208,-3.897006829654558,-0.9176643901151473,8.859342439539411,0.3111111111111111,-0.33,-0.6088888888888889,0.0041097528786828985,0.30201219109835364,0.014597561780329275
1589996058.6675208,-3.867122233705727,-0.92,8.861438883147136,0.3111111111111111,-0.33,-0.6088888888888889,-0.11623254917400788,0.4464930196696032,-0.10723952950440474
1589996058.6775208,-3.8186324955471997,-0.92,8.905848576517485,0.3111111111111111,-0.33,-0.6088888888888889,-0.278006700404286,0.7800670040428599,-0.803647408894292
1589996058.6875207,-3.689069894762455,-0.8927209684287366,8.959093010523754,0.3075749403518732,-0.33,-0.5992907111138147,-0.3409156578867328,1.3239096052071293,-2.557048026035647
1589996058.6975207,-3.5326037914132167,-0.8333396326699345,8.94630189570661,0.3033333333333333,-0.33,-0.5877777777777777,-0.5971697277505463,1.6920990078544853,-4.583136479064549
1589996058.7075207,-3.406842794914474,-0.7546499274002195,8.87464992740022,0.3033333333333333,-0.33,-0.5877777777777777,-1.412813861245883,2.1096433757127175,-7.1244223005276766
1589996058.7175207,-3.2902625374370738,-0.6239227681131715,8.92777607850634,0.3033333333333333,-0.33,-0.5877777777777777,-2.8733591410182884,2.53962355827439,-10.630695214426815
1589996058.7275207,-3.2631515308546013,-0.5010908148723928,8.99,0.3033333333333333,-0.33,-0.5877777777777777,-2.549620525111197,2.521401466079371,-12.48636481409509
1589996058.7375207,-3.27,-0.44704319101904977,8.983521595509526,0.30837209238148067,-0.3256810636730166,-0.5928165368259251,-1.5211794948215482,1.8521595509524875,-13.364410252589225
1589996058.7475207,-3.0689669820428653,-0.7951583317242712,8.986701100598571,0.3111111111111111,-0.3233333333333333,-0.5955555555555555,0.5502751496427882,2.2957556960803243,-13.269326848812511
1589996058.7575207,-2.359922249916298,-1.296076038837841,8.80592481678509,0.3111111111111111,-0.3233333333333333,-0.5955555555555555,2.5912110319556563,2.917593979018638,-13.848152505487146
1589996058.7675207,-1.841742602523051,-1.3106650977971528,8.570166274449289,0.3111111111111111,-0.3233333333333333,-0.5955555555555555,3.6875,3.601139037845762,-16.08713012615254
1589996058.7775207,-1.86,-1.1059162066781287,8.637760383675685,0.3111111111111111,-0.3233333333333333,-0.5955555555555555,2.616018912315628,2.711677676228396,-18.4388460320333
1589996058.7875206,-1.9417931919182665,-1.06,8.883843404957164,0.3082194326089502,-0.3258119149066141,-0.6034043972042781,1.0585026572593577,1.3605797865029552,-20.541654258487196
1589996058.7975206,-2.132611972749674,-1.0424626757501088,9.063233802000289,0.3033333333333333,-0.33,-0.6166666666666667,0.5682526453109147,1.4538248296854617,-22.18361356718365
1589996058.8075206,-2.192150497722288,-1.03,8.956165007592373,0.3033333333333333,-0.33,-0.6166666666666667,1.0730280917833643,1.8720874810190653,-23.640231145604858
1589996058.8175206,-2.2483226991883054,-1.0369032427411864,8.97141945644712,0.3033333333333333,-0.33,-0.6166666666666667,0.9286283972055083,1.9375,-25.164922212575213
1589996058.8275206,-2.27,-1.0605817281658545,8.984854567958537,0.3033333333333333,-0.33,-0.6166666666666667,0.9732947512957376,2.06613580103659,-26.394996905701245
1589996058.8375206,-2.282014696440037,-1.0775970607119927,8.931941214239853,0.30974117143468644,-0.32359216189864687,-0.6075888960230831,1.1700551116501392,2.35270207605051,-27.828436898052367
1589996058.8475206,-2.3119376471427553,-1.071612470571449,8.81224941142898,0.32570007847613613,-0.30763325485719717,-0.5849804443810294,1.282266176785332,2.7641426482128844,-29.736025005350644
1589996058.8575206,-2.3452327328872875,-1.0636918167781781,8.647528152341739,0.33,-0.3033333333333333,-0.5788888888888889,1.233647709727226,2.875,-31.31450591868245
1589996058.8675206,-2.3880638185962244,-1.0810478639471686,8.668223365086787,0.33,-0.3033333333333333,-0.5788888888888889,1.143650283443399,2.6119017006603937,-33.16529206358483
1589996058.8775206,-2.431836697836818,-1.0836326604326365,8.786408074808364,0.33,-0.3033333333333333,-0.5788888888888889,1.0852041277039772,2.301020638519886,-34.9211720411767
1589996058.8875206,-2.469770559778853,-1.093180373185902,8.922262612301314,0.3351257006834063,-0.32090716424786914,-0.5942659909391077,1.2272546648237732,2.4758206634416036,-36.943037318590186
1589996058.8975205,-2.5579378771311707,-1.1059952213177824,9.011966549224477,0.3377777777777778,-0.33,-0.6022222222222222,1.2750298667638602,2.7374103997084194,-38.898984530028756
1589996058.9075205,-2.6222815928484358,-1.1181877285656237,8.990873628606257,0.3377777777777778,-0.33,-0.6022222222222222,1.3011733035351483,2.9148466070702965,-40.69670611540025
1589996058.9175205,-2.6364853999153617,-1.1405438002539143,8.930543800253915,0.3377777777777778,-0.33,-0.6022222222222222,1.5067975031739314,3.1942975031739316,-42.87525126957258
1589996058.9275205,-2.6350429290225885,-1.1700858580451772,8.960085858045177,0.3377777777777778,-0.33,-0.6022222222222222,1.655445080826464,3.4375,-45.54117733647361
1589996058.9375205,-2.5947136616960385,-1.1913215845759904,8.907731284832053,0.3553891315626517,-0.32622613847466986,-0.6059960837475523,1.5271200482000302,3.5082599035999396,-47.890418361198975
1589996058.9475205,-2.5648259848591057,-1.209651969718211,8.831044090845367,0.3688888888888889,-0.3233333333333333,-0.6088888888888889,1.5301624053694098,3.7434744322164586,-49.868184187929344
1589996058.9575205,-2.5744762454040804,-1.2423812270204022,8.741808809746955,0.3688888888888889,-0.3233333333333333,-0.6088888888888889,1.590476533775503,4.105359202653017,-51.89524908081609
1589996058.9675205,-2.599549315772724,-1.3156150701363558,8.683032877181816,0.3688888888888889,-0.3233333333333333,-0.6088888888888889,1.7471832235795246,4.271772258806825,-54.46619868295429
1589996058.9775205,-2.631516304347826,-1.3453790760869566,8.76530706521739,0.3688888888888889,-0.3233333333333333,-0.6088888888888889,1.7788807744565218,4.081903872282608,-56.56114979619565
1589996058.9875205,-2.669920913884007,-1.369920913884007,8.877810193321617,0.3711023237648897,-0.3153649677797305,-0.6062327670376879,1.7998022847100175,3.962401142355009,-58.60884226713532
1589996058.9975204,-2.7148596604633757,-1.4297193209267511,8.989625761235668,0.3744444444444445,-0.3033333333333333,-0.6022222222222222,2.215533885619025,4.309576259653659,-61.11447453475317
1589996059.0075204,-2.73,-1.472039615393156,8.945722692247907,0.3744444444444445,-0.3033333333333333,-0.6022222222222222,2.524876201896387,4.5873762018963875,-63.717328126040904
1589996059.0175204,-2.7244618399815543,-1.4966144800553378,8.906614480055339,0.3744444444444445,-0.3033333333333333,-0.6022222222222222,2.534613500115287,4.804794500807009,-66.21049400507263
1589996059.0275204,-2.7154619046662516,-1.5145380953337484,8.901847618665007,0.3744444444444445,-0.3033333333333333,-0.6022222222222222,2.3639583291485047,5.0567261916718556,-68.54366073760119
1589996059.0375204,-2.7047939017504237,-1.530412196499153,8.859175607001694,0.38832737310998183,-0.29986260116694896,-0.6242035259426564,2.0924618859401467,5.125,-71.4042913608131
1589996059.0475204,-2.6602332429653175,-1.5267444143217725,8.793605450126202,0.4011111111111111,-0.2966666666666667,-0.6444444444444445,1.979652589511078,5.125,-74.5108719150229
1589996059.0575204,-2.4401888162672476,-1.4467358992979908,8.663434035342531,0.4011111111111111,-0.2966666666666667,-0.6444444444444445,1.3963447107237958,5.458018639554587,-76.99846586782861
1589996059.0675204,-2.34,-1.4500229539499074,8.707198602449775,0.4011111111111111,-0.2966666666666667,-0.6444444444444445,1.196469560624835,5.48206087875033,-79.20615643218429
1589996059.0775204,-2.4197781920741908,-1.549805918064917,8.809916822027821,0.4011111111111111,-0.2966666666666667,-0.6444444444444445,1.769389271316347,5.395775570852654,-80.8317159838743
1589996059.0875204,-2.580137582068331,-1.6900786183247605,8.869980345418808,0.40115260411584586,-0.2966382767160587,-0.6444029514397097,2.814465458119015,5.4384827290595075,-82.00294818717852
1589996059.0975204,-2.656770158421033,-1.7536955544736152,8.890465712894647,0.4222222222222222,-0.2822222222222222,-0.6233333333333333,3.7913432549342723,6.064440470394367,-84.19817258716903
1589996059.1075203,-2.6725722947761192,-1.812861473880597,8.929421641791045,0.4222222222222222,-0.2822222222222222,-0.6233333333333333,3.62138526119403,6.2964231576492535,-86.02872842817165
1589996059.1175203,-2.6513757396449704,-1.8786242603550296,8.887174556213017,0.4222222222222222,-0.2822222222222222,-0.6233333333333333,3.106878698224852,6.25,-88.1979474852071
1589996059.1275203,-2.614693149674087,-1.9153068503259132,8.879590866232116,0.4222222222222222,-0.2822222222222222,-0.6233333333333333,2.9362214569753617,6.441335629073914,-89.54595324478333
1589996059.1375203,-2.6072146940080745,-1.9372146940080746,8.856392652995963,0.43665161023837123,-0.2681936505398551,-0.6337545580116631,2.852454081224767,6.602454081224767,-90.70091837550466
1589996059.1475203,-2.616904280784655,-1.9778614729381043,8.815947088631205,0.4622222222222222,-0.2433333333333333,-0.6522222222222223,2.754455264712283,6.581848245095906,-91.90631314701402
1589996059.1575203,-2.60191875345523,-2.0480812465447698,8.699593767276152,0.4622222222222222,-0.2433333333333333,-0.6522222222222223,2.650253895452405,6.549238313642785,-93.26707011814328
1589996059.1675203,-2.59,-2.076326063457748,8.656326063457747,0.4622222222222222,-0.2433333333333333,-0.6522222222222223,2.764028422458193,6.616066319069117,-94.29463263813824
1589996059.1775203,-2.59,-2.1092422591572735,8.72159016620773,0.4622222222222222,-0.2433333333333333,-0.6522222222222223,2.9616461795994375,6.9616461795994375,-95.47678737692902
1589996059.1875203,-2.594320810937135,-2.1632081093713484,8.808887298434213,0.47902537586663546,-0.2207690984394069,-0.6488615914933396,3.278540546856742,7.0625,-96.70908616207058
1589996059.1975203,-2.6190022589566575,-2.267505647391644,8.864750564739163,0.5011111111111111,-0.19111111111111112,-0.6444444444444445,3.621882059239555,7.210955148098887,-97.9657026516351
1589996059.2075202,-2.6273299206172567,-2.3326700793827433,8.844659841234513,0.5011111111111111,-0.19111111111111112,-0.6444444444444445,3.740291997428098,7.375,-99.21541997428098
1589996059.2175202,-2.5947036874451275,-2.395888937664618,8.825296312554872,0.5011111111111111,-0.19111111111111112,-0.6444444444444445,3.716898046532046,7.375,-100.57484635645302
1589996059.2275202,-2.5698339361357783,-2.4501660638642218,8.833222624090519,0.5011111111111111,-0.19111111111111112,-0.6444444444444445,3.6461792997171285,7.4808964985856425,-101.71698249292821
1589996059.2375202,-2.552125758194126,-2.467874241805874,8.821417172129417,0.5011111111111111,-0.19111111111111112,-0.6444444444444445,3.683071337095571,7.665356685477856,-102.63928342738927
1589996059.2475202,-2.462508619886311,-2.5069965520454756,8.773498276022737,0.52,-0.16444444444444445,-0.7033333333333334,3.2656788742894416,7.684407324573665,-104.92779097940546
1589996059.2575202,-2.406740170031881,-2.5851275239107334,8.710220510095644,0.52,-0.16444444444444445,-0.7033333333333334,3.178799149840595,7.6497243623804465,-106.91436968650372
1589996059.2675202,-2.3704540331669617,-2.66,8.653864917082595,0.52,-0.16444444444444445,-0.7033333333333334,3.4019934390597326,7.928986878119465,-108.58527209789084
1589996059.2775202,-2.342148405681931,-2.6733886957385518,8.71124029005662,0.52,-0.16444444444444445,-0.7033333333333334,3.416320651634052,8.097106883878018,-110.44836594814741
1589996059.2875202,-2.323069205435233,-2.7206920543523303,8.777622848917098,0.5360280728284392,-0.1412548922671281,-0.6961718539844562,3.3316825339702065,8.024134932059587,-112.2196585530764
1589996059.2975202,-2.323440020649158,-2.8031199587016844,8.843279989675422,0.5722222222222222,-0.08888888888888889,-0.68,3.456999741885526,8.06049961282829,-114.25949780602697
1589996059.3075202,-2.303182882141185,-2.840225676788222,8.788645939270667,0.5722222222222222,-0.08888888888888889,-0.68,3.8806419197055546,8.546838426396759,-116.34790829257268
1589996059.3175201,-2.289591754244139,-2.8612247372675825,8.672449474535165,0.5722222222222222,-0.08888888888888889,-0.68,4.352036176232821,9.002551535974131,-117.71430375909458
1589996059.3275201,-2.2656472986748217,-2.925881753312946,8.751529051987768,0.5722222222222222,-0.08888888888888889,-0.68,3.6106651376146788,9.107352191641182,-120.46285677879715
1589996059.3375201,-2.2267643633540373,-3.0032356366459627,8.785588121118012,0.5609474206349206,-0.07222179089026916,-0.6996083505866115,3.3878712150621118,9.242648486024844,-122.31435607531056
1589996059.34752,-2.204575857519789,-3.003727572559367,8.758303430079156,0.5466666666666666,-0.05111111111111112,-0.7244444444444444,3.4946982189973617,9.414202671503958,-124.00112137203166
1589996059.35752,-2.176142521676301,-3.032943460982659,8.677970556358382,0.5466666666666666,-0.05111111111111112,-0.7244444444444444,3.4076781520953756,9.410534456286127,-125.31375880599711
1589996059.36752,-2.0922006863093126,-3.0977844042125193,8.650014909478168,0.5466666666666666,-0.05111111111111112,-0.7244444444444444,3.3472118684179386,9.3125,-126.41682197373092
1589996059.37752,-2.02,-3.122894815186224,8.702894815186223,0.5466666666666666,-0.05111111111111112,-0.7244444444444444,3.3486851898278,9.4029629745695,-127.19079632879459
1589996059.38752,-2.02,-3.12946678992808,8.709466789928081,0.5466666666666666,-0.05111111111111112,-0.7244444444444444,3.4308348741010013,9.608337185252504,-127.76584411870701
1589996059.39752,-1.9560023282887078,-3.193428238815899,8.716856477631799,0.5688888888888889,-0.01,-0.7466666666666667,3.6875,10.064279477798104,-128.25
1589996059.40752,-1.91,-3.2390980226287405,8.686992175108385,0.5688888888888889,-0.01,-0.7466666666666667,3.85855384900074,10.211936264142963,-128.12781867928518
1589996059.41752,-1.9003099478500443,-3.3072675391124666,8.646647643412377,0.5688888888888889,-0.01,-0.7466666666666667,3.8978894027354127,10.265140706484306,-127.77095222867264
1589996059.42752,-1.8736121709454148,-3.3697338803995627,8.733612170945415,0.5688888888888889,-0.01,-0.7466666666666667,3.1875,10.3125,-126.84363076864084
1589996059.43752,-1.865847415914684,-3.446065393179421,8.735956404547053,0.5727078401500059,-0.00797820227352631,-0.7480145318176491,3.1369550568381577,10.29986376420954,-125.84700281260987
1589996059.44752,-1.8015495367070564,-3.4643663578047046,8.703099073414114,0.5877777777777777,0.0,-0.7533333333333333,2.831869208838204,10.179579472558803,-124.25705630791161
1589996059.45752,-1.7660294966335364,-3.460477877524848,8.64253687079192,0.5877777777777777,0.0,-0.7533333333333333,2.453355442449503,10.0,-122.30147483167681
1589996059.46752,-1.7373946271421954,-3.4826053728578046,8.61052107457156,0.5877777777777777,0.0,-0.7533333333333333,2.230459703566466,10.013026864289023,-120.86647464103751
1589996059.47752,-1.6927787989706375,-3.53,8.628336396911912,0.5877777777777777,0.0,-0.7533333333333333,1.7881625321675751,10.18053002573406,-117.864372712306
1589996059.48752,-1.6994829212154148,-3.53,8.648448763646245,0.5877777777777777,0.0,-0.7533333333333333,1.5786587120182856,10.012926969614629,-116.48164749932069
1589996059.49752,-1.6764849911427115,-3.5705450265718652,8.649210124002039,0.5788888888888889,0.03333333333333333,-0.7388888888888889,1.3276559732097357,9.849624778567788,-112.72427898031984
1589996059.50752,-1.6550438542613566,-3.6236513279119476,8.702609635653392,0.5788888888888889,0.03333333333333333,-0.7388888888888889,1.241844888583151,9.360334311967177,-110.0576339581849
1589996059.51752,-1.63,-3.6875687482755453,8.65513749655109,0.5788888888888889,0.03333333333333333,-0.7388888888888889,1.5321093534443115,8.741542984916766,-107.16873074358503
1589996059.52752,-1.5994661178349818,-3.7,8.673893223566996,0.5788888888888889,0.03333333333333333,-0.7388888888888889,1.8401694108250906,8.434163236468637,-104.17606515328377
1589996059.53752,-1.5324637592137593,-3.7147825552825555,8.669855036855036,0.5764251296751297,0.020467035217035218,-0.7408051460551461,2.1413045147420147,7.861413544226044,-101.12047374078624
1589996059.54752,-1.5117077305343334,-3.7721252583424283,8.675749483315142,0.5688888888888889,-0.01888888888888889,-0.7466666666666667,2.0,7.285934270719643,-97.4484084364768
1589996059.55752,-1.462480664896687,-3.79,8.636240332448343,0.5688888888888889,-0.01888888888888889,-0.7466666666666667,1.7415228558236178,6.804022855823618,-94.02762466812882
1589996059.56752,-1.4430762802358512,-3.793461859882074,8.602305120943406,0.5688888888888889,-0.01888888888888889,-0.7466666666666667,1.5721394911555784,6.439909872788895,-90.34602929569618
1589996059.57752,-1.4156302538536951,-3.8,8.552873949229262,0.5688888888888889,-0.01888888888888889,-0.7466666666666667,2.080462182682881,6.382878173171189,-86.64495812561273
1589996059.58752,-1.378399242829513,-3.8048022715114604,8.584011357557303,0.5617744125756142,-0.013730893561764719,-0.7315484045009579,2.125,5.997528393893256,-83.09969239948973
1589996059.5975199,-1.37,-3.8326467215326496,8.711890515380466,0.5244444444444445,0.013333333333333334,-0.6522222222222223,2.108457990420939,6.274689692390718,-79.52680619266054
1589996059.6075199,-1.3610630006494913,-3.888828750811864,8.708612253734575,0.5244444444444445,0.013333333333333334,-0.6522222222222223,1.8690327993072093,5.36835624594068,-74.50190788049362
1589996059.6175199,-1.333122887071794,-3.8539036088397425,8.547956600662813,0.5244444444444445,0.013333333333333334,-0.6522222222222223,2.4365663563541893,5.542981955801289,-71.57692724032842
1589996059.6275198,-1.2262182126020849,-3.8286546378062547,8.641091063010423,0.5244444444444445,0.013333333333333334,-0.6522222222222223,1.9009092191753536,4.794999294535556,-66.33249576721333
1589996059.6375198,-1.2471047739193946,-3.891314321758183,8.745523869596973,0.5244444444444445,0.013333333333333334,-0.6522222222222223,1.987936557997477,4.316348931013877,-63.46059358608326
1589996059.6475198,-1.2273954272468655,-3.815691181118955,8.854822463386366,0.5011111111111111,0.13666666666666666,-0.6311111111111111,7.177655146981351,-1.4164010641660516,-57.86454930987251
1589996059.6575198,-0.8802611153483781,-3.2401958365112833,7.1112452330746105,0.5011111111111111,0.13666666666666666,-0.6311111111111111,9.696460417694826,-3.4721948046121405,-53.08413903719323
1589996059.6675198,-0.910872519706442,-3.300872519706442,9.079499864093505,0.5011111111111111,0.13666666666666666,-0.6311111111111111,-5.930942511552052,8.104423756455558,-47.794889915737976
1589996059.6775198,-1.2935436370166409,-3.7034047647551778,10.828991978929725,0.5011111111111111,0.13666666666666666,-0.6311111111111111,-19.330405243625044,11.180331916676643,-44.61830330420208
1589996059.6875198,-0.9877073596486289,-3.745321527113013,8.912208739230813,0.5011111111111111,0.15428083413105093,-0.6268706633882037,10.371563362238865,4.694897657525762,-37.53273516245284
1589996059.6975198,-1.0418319451474851,-3.9310123786296076,9.266701026183792,0.5011111111111111,0.19666666666666666,-0.6166666666666667,2.7923559661313337,3.752755280474897,-33.855845336155724
1589996059.7075198,-1.1131830462262982,-3.9797627958854878,9.513849299789317,0.5011111111111111,0.19666666666666666,-0.6166666666666667,-5.385840872474904,-2.2271409096542323,-32.65098215392242
1589996059.7175198,-0.9948658821287341,-3.772331221115823,8.24792796226595,0.5011111111111111,0.19666666666666666,-0.6166666666666667,1.9410271451712802,2.2479185525751584,-27.461262446996045
1589996059.7275198,-1.1241541599388118,-4.144051839891222,9.088874479476502,0.5011111111111111,0.19666666666666666,-0.6166666666666667,2.7304739950709616,1.569875499277641,-24.389750998555282
1589996059.7375197,-1.0600139090851617,-4.030030347094898,8.540027818170323,0.5011126565650179,0.19667256749067458,-0.6166618898091365,-2.4368598659669973,0.8125553202250743,-22.874517923752926
1589996059.7475197,-1.1436825988210375,-4.209469977288387,8.66262561563784,0.5133333333333333,0.2433333333333333,-0.5788888888888889,2.164445479368158,1.0855162426314848,-18.240081213157424
1589996059.7575197,-1.0829086105143593,-4.078725831543077,8.39968145788577,0.5133333333333333,0.2433333333333333,-0.5788888888888889,1.137206151072919,0.5039817764278836,-14.969354211423068
1589996059.7675197,-1.11,-4.171777592956976,8.48183236302412,0.5133333333333333,0.2433333333333333,-0.5788888888888889,1.5954875550236323,0.17639004401890582,-11.888558127269407
1589996059.7775197,-1.1110906349472274,-4.2,8.623456190316636,0.5133333333333333,0.2433333333333333,-0.5788888888888889,1.3341011894789747,0.006816468420170883,-9.006910705310773
1589996059.7875197,-1.1174786396381304,-4.2,8.585128162171218,0.5133333333333333,0.2433333333333333,-0.5788888888888889,1.0945510135701122,0.046741497738314625,-6.850959122131011
1589996059.7975197,-1.118900035017612,-4.227341751292562,8.66036665499413,0.5222222222222223,0.27555555555555555,-0.6166666666666667,1.675469133005129,0.05848971100170968,-2.403698992728696
1589996059.8075197,-1.015224009722537,-3.976791356829464,8.694925330092486,0.5222222222222223,0.27555555555555555,-0.6166666666666667,0.5415126063402476,-0.3194957978865841,0.7821788679012092
1589996059.8175197,-1.0526464750171116,-4.0907128678986995,8.574453114305271,0.5222222222222223,0.27555555555555555,-0.6166666666666667,1.0814211156741957,-0.3854979466119096,5.859740759753594
1589996059.8275197,-1.10288620807666,-4.2127236481861745,8.631869952087612,0.5222222222222223,0.27555555555555555,-0.6166666666666667,-0.08485840177960302,-0.9237808008213553,8.282013603696099
1589996059.8375196,-1.1075254766973144,-4.231208161601522,8.570524027356312,0.5222222222222223,0.2764677345491694,-0.6166666666666667,0.7269832193487024,-0.975982551293084,13.090429537116718
1589996059.8475196,-1.2091110620933054,-4.515258997830962,8.843777434653138,0.5222222222222223,0.2888888888888889,-0.6166666666666667,-0.4300921841108783,-1.5148156317782435,16.993525054225948
1589996059.8575196,-1.1904879255295229,-4.3669919503530155,8.619024148940955,0.5222222222222223,0.2888888888888889,-0.6166666666666667,-0.20934984485317265,-2.1310990691190357,22.12044115663084
1589996059.8675196,-1.21,-4.377238416496945,8.599331084521385,0.5222222222222223,0.2888888888888889,-0.6166666666666667,-0.31903958757637474,-2.357740103105906,25.28323494781059
1589996059.8775196,-1.2051575168657547,-4.366771677910503,8.646771677910504,0.5222222222222223,0.2888888888888889,-0.6166666666666667,-0.4899114934703225,-2.35285402611871,27.9943368199542
1589996059.8875196,-1.1783642043482376,-4.353271591303525,8.633271591303526,0.5234036301929395,0.28911608272941147,-0.6169392992752938,-0.4477237228235146,-2.5625,30.644289782588118
1589996059.8975196,-1.147479436084544,-4.38761652885425,8.645178220600618,0.5511111111111111,0.29444444444444445,-0.6233333333333333,-0.6095892074526652,-2.624828634037868,32.99880043826507
1589996059.9075196,-1.1828949734158682,-4.282105668712917,8.51263272801993,0.5511111111111111,0.29444444444444445,-0.6233333333333333,-0.3980267382426219,-2.835526738242622,34.46217379857704
1589996059.9175196,-1.2311895645402038,-4.373392173405152,8.712908689726783,0.5511111111111111,0.29444444444444445,-0.6233333333333333,-0.6101304432474528,-2.896201083782205,35.26266305405932
1589996059.9275196,-1.2043021576436606,-4.359464746816053,8.470975535034356,0.5511111111111111,0.29444444444444445,-0.6233333333333333,-1.0,-2.75,35.760755394109154
1589996059.9375196,-1.2348964943761214,-4.426772287627467,8.691254759508075,0.5511111111111111,0.29444444444444445,-0.6233333333333333,-1.0,-2.75,35.837241235940304
1589996059.9475195,-1.2742063069908816,-4.379312310030396,8.703174772036474,0.6255230918608579,0.2827895558932793,-0.6403674012158055,-1.0504298062310031,-2.800429806231003,35.622850968844986
1589996059.9575195,-1.303054379057146,-4.379163137171438,8.765592635947643,0.6433333333333333,0.28,-0.6444444444444445,-1.139470043630946,-2.639470043630946,35.11514978184527
1589996059.9675195,-1.250591940955008,-4.220591940955008,8.352071793342528,0.6433333333333333,0.28,-0.6444444444444445,-1.2504624538711,-2.75,34.5592628229023
1589996059.9775195,-1.3131304282998473,-4.283130428299847,8.570956499049466,0.6433333333333333,0.28,-0.6444444444444445,-1.2993206471092555,-2.75,34.21725547023521
1589996059.9875195,-1.33,-4.237018095294049,8.576015510252041,0.6433333333333333,0.28,-0.6444444444444445,-1.14379846953763,-2.75,33.84383078256272
1589996059.9975195,-1.33,-4.289679761466824,8.674439582566944,0.8447525282838647,0.2534756615703004,-0.6552199569315099,-0.7520014908323491,-2.6567503727080872,33.765875186354045
1589996060.0075195,-1.3398365355083097,-4.250980786950142,8.591961573900283,0.9133333333333332,0.24444444444444444,-0.6588888888888889,-1.2397834692693581,-2.870913387707743,34.11887008156162
1589996060.0175195,-1.3727822378324135,-4.247217762167587,8.578871048670345,0.9133333333333332,0.24444444444444444,-0.6588888888888889,-0.901083479678876,-2.427166959357752,34.647806384846966
1589996060.0275195,-1.3944668267260056,-4.241911537936016,8.542756729324042,0.9133333333333332,0.24444444444444444,-0.6588888888888889,-1.081111778025024,-2.75,35.75792366926275
1589996060.0375195,-1.419027932306611,-4.307407819484296,8.722871503581816,0.9133333333333332,0.24444444444444444,-0.6588888888888889,-1.1834497179442134,-2.75,36.83247203841424
1589996060.0475194,-1.4585566925235187,-4.2565773229905925,8.681443307476481,1.5977777777777775,0.045555555555555564,-0.9866666666666668,-1.6661082686912032,-2.8552834626175936,38.851288372668755
1589996060.0575194,-1.4931688397425318,-4.242732464102987,8.646831160257468,1.5977777777777775,0.045555555555555564,-0.9866666666666668,-1.5795779006436705,-3.028344198712659,40.01944834131045
1589996060.0675194,-1.4881782511210762,-4.273643497757847,8.557326233183856,1.5977777777777775,0.045555555555555564,-0.9866666666666668,-1.352228139013453,-3.147771860986547,42.00073570627803
1589996060.0775194,-1.4864938595668886,-4.297792631480267,8.685195087653511,1.5977777777777775,0.045555555555555564,-0.9866666666666668,-1.2418826755413894,-3.274351973375832,43.81737719133777
1589996060.0875194,-1.5258141933064593,-4.34497703196775,8.716651354645167,1.5977777777777775,0.045555555555555564,-0.9866666666666668,-1.192732258366926,-3.421803224899222,44.603783866129184
1589996060.0975194,-1.4735875712289002,-4.253292979249544,8.6635875712289,1.039026102330693,0.003470092821560411,-0.7753439176193719,-1.4393411998709815,-3.4375,45.040077679819376
1589996060.1075194,-1.593549592544235,-4.296450407455765,8.661774796272118,0.9044444444444444,-0.006666666666666667,-0.7244444444444444,-1.1013236684525685,-3.4485924767007337,44.96821394804376
1589996060.1175194,-1.6332800993394614,-4.257729161995758,8.68050463066761,0.9044444444444444,-0.006666666666666667,-0.7244444444444444,-1.487384233309763,-3.5561921166548816,43.95742178742045
1589996060.1275194,-1.7273178345377094,-4.192626114550817,8.694971974544263,0.9044444444444444,-0.006666666666666667,-0.7244444444444444,-1.1257006363934257,-3.3753503181967126,42.73673964782781
1589996060.1375194,-1.7508456546464173,-4.215771726767913,8.672536963939251,0.9044444444444444,-0.006666666666666667,-0.7244444444444444,-1.1144293169197832,-3.2552853415401084,40.48163092928347
1589996060.1475194,-1.85,-4.047469966841218,8.551285038685245,0.6611111111111111,0.14555555555555555,-0.6944444444444444,-0.9056243091920492,-2.9686248618384097,38.91465690626755
1589996060.1575193,-1.85,-4.09306927105039,8.498085850441212,0.6611111111111111,0.14555555555555555,-0.6944444444444444,-1.8556098135498016,-3.1586219627099603,38.01217067712769
1589996060.1675193,-1.8272534640801537,-3.97110296312087,8.543075250479642,0.6611111111111111,0.14555555555555555,-0.6944444444444444,-0.7205073545086336,-2.950556917501599,37.211559369004476
1589996060.1775193,-1.6751706964414812,-4.329475459876295,8.915328942083702,0.6611111111111111,0.14555555555555555,-0.6944444444444444,-1.8604029440115673,-3.0872710659490723,37.80659340107639
1589996060.1875193,-1.6077869708410315,-4.043094626074383,8.292029480279542,0.6611111111111111,0.14555555555555555,-0.6944444444444444,0.08740787412643591,-2.560835709695558,38.59624643545666
1589996060.1975193,-1.8610727100666378,-4.162836638933796,8.839928236268285,0.6144444444444445,0.1988888888888889,-0.6888888888888889,-1.8280689345845984,-3.3637511829186546,37.79477100666377
1589996060.2075193,-1.8693419029218092,-4.030529553251054,8.376853436378692,0.6144444444444445,0.1988888888888889,-0.6888888888888889,-1.4662917471708528,-2.795244174125626,38.62169029218091
1589996060.2175193,-1.9822446750409612,-4.093323710696731,8.784489350081923,0.6144444444444445,0.1988888888888889,-0.6888888888888889,-0.7150171647031287,-3.246537801357572,40.607508582351564
1589996060.2275193,-1.8677089022392137,-4.142410470468909,8.555417804478427,0.6144444444444445,0.1988888888888889,-0.6888888888888889,-2.0444502418662713,-3.1954057599282204,41.272225120933136
1589996060.2375193,-1.8864766093151248,-4.232072370959031,8.73885965589075,0.6144444444444445,0.1988888888888889,-0.6888888888888889,-0.48316423629863947,-3.1305052979451173,42.28691523287812
1589996060.2475193,-1.8583688846003819,-4.22418444230019,8.728368884600382,0.6135658023500106,0.19273839422785205,-0.7170054359107717,-1.8446321521690037,-3.2732708534357102,41.78191658625716
1589996060.2575192,-1.797303661693996,-4.1914607323388,8.642921464677599,0.6133333333333333,0.19111111111111112,-0.7244444444444444,-0.599018308469979,-3.0,40.49577888053261
1589996060.2675192,-1.882866864536018,-4.203580178082416,8.66787366971123,0.6133333333333333,0.19111111111111112,-0.7244444444444444,-1.0446671613400456,-2.982167161340046,37.79054921043569
1589996060.2775192,-1.8140886804519292,-4.141679812406736,8.55095075676828,0.6133333333333333,0.19111111111111112,-0.7244444444444444,-0.8727217011298231,-2.810221701129823,35.1683809422298
1589996060.2875192,-1.8330809358204236,-4.206161871640847,8.65647518178944,0.6133333333333333,0.19111111111111112,-0.7244444444444444,-0.5432441511223522,-2.2114883022447045,30.48041811571293
1589996060.2975192,-1.777472025853363,-4.0944431427994346,8.759899818218543,0.5666666666666667,0.1288888888888889,-0.7244444444444444,-0.7070566552211675,-1.956430519087053,22.96457028883054
1589996060.3075192,-1.5826247222783276,-4.0012553019592,8.81920117148051,0.5666666666666667,0.1288888888888889,-0.7244444444444444,0.2989484447586346,-1.3210588769945466,17.51096369420319
1589996060.3175192,-1.41,-3.71,8.59,0.5666666666666667,0.1288888888888889,-0.7244444444444444,0.1875,-0.5,10.0
1589996060.3275192,-1.3229896907216494,-3.584318442153494,8.59966781214204,0.5666666666666667,0.1288888888888889,-0.7244444444444444,0.8219501718213058,-0.19788087056128295,6.253722794959908
1589996060.3375192,-1.2778453180476537,-3.5277486418274373,8.69970997133935,0.5666666666666667,0.1288888888888889,-0.7244444444444444,1.0514501433032468,0.38665408307310606,-2.833565042563203
1589996060.3475192,-11.820490179186766,-14.150322191592005,1.6499625258442459,0.5334266597748679,0.14329289187533503,-0.6092124205528755,0.5006999483115093,0.749475038766368,-14.85085178325293
1589996060.3575191,-5.5595288885608305,2.944918897971988,-3.3776477643889207,0.5333333333333333,0.14333333333333334,-0.6088888888888889,-36.303892712812086,115.46029552877785,-61.725099647542955
1589996060.3675191,3.4193093026274313,-1.9541224898481393,0.6053360775806123,0.5333333333333333,0.14333333333333334,-0.6088888888888889,-17.371242884426398,-127.28596841334297,-367.75707037696316
1589996060.3775191,0.7984064823570862,-1.72080769872615,0.47312436261148505,0.5333333333333333,0.14333333333333334,-0.6088888888888889,-9.448261435908847,-35.758520146112616,-393.1786611596299
1589996060.3875191,0.04703068783068787,-1.1947695767195765,-0.1542492063492064,0.5333333333333333,0.14333333333333334,-0.6088888888888889,-8.920808531746031,-29.24861441798942,-385.32257771164024
1589996060.397519,-0.10828139980824544,-1.1374424736337487,0.09870086289549376,0.52,0.2533333333333333,-0.6666666666666666,-3.1240412272291467,-16.318956735378716,-363.91272171620324
1589996060.407519,-0.24043701489659164,-1.0390155715181024,1.797857831557634,0.52,0.2533333333333333,-0.6666666666666666,-1.1715382900255502,-2.1726139541049996,-345.6814060767488
1589996060.417519,6.085983760149906,2.789369144284822,17.540643347907558,0.52,0.2533333333333333,-0.6666666666666666,73.89463616489694,102.79848532167395,-305.80422392254843
1589996060.427519,-2.859346517626827,-1.0961791604783866,8.38786758383491,0.52,0.2533333333333333,-0.6666666666666666,78.84738235753927,153.1889216759165,-270.1076907293051
1589996060.437519,-1.1462833190025796,-0.6125871570390058,2.797871883061049,0.52,0.2533333333333333,-0.6666666666666666,-8.44507250058625,82.44309998632065,-239.6270506820136
1589996060.447519,1.33,-1.74,9.11,0.44,0.4,-0.6311111111111111,23.1875,-40.5625,-190.1875
1589996060.457519,1.056079037111334,-1.628574523570712,7.9377111334001995,0.44,0.4,-0.6311111111111111,23.1875,-40.5625,-190.1875
1589996060.467519,1.1181481926504455,-2.282949033743867,8.549102232902774,0.44,0.4,-0.6311111111111111,18.50659482327025,-24.636005557224394,-182.19571067387605
1589996060.477519,1.1629898398484588,-2.347076976063372,9.390539349061477,0.44,0.4,-0.6311111111111111,5.508543568107457,15.100824436025487,-163.2498557775099
1589996060.487519,-0.054116198721258085,-2.6545665382629764,10.117305508121202,0.44,0.4,-0.6311111111111111,-3.069839363011795,17.827630455502163,-140.77113448631906
1589996060.497519,0.1045540252182347,-1.9978401551891367,6.5121117361784675,0.3975665050113159,0.45324987606423106,-0.6211267593490678,16.108717264791462,10.115024248302618,-118.48650096993211
1589996060.507519,0.48182732558139535,-2.537930813953488,7.78997034883721,0.38333333333333336,0.4711111111111111,-0.6177777777777778,3.304102470930232,6.1924309593023255,-108.80177688953488
1589996060.517519,0.16639957035445763,-3.194664416142397,10.072814792082248,0.38333333333333336,0.4711111111111111,-0.6177777777777778,-5.03089228172472,9.67563104189044,-98.10454580328371
1589996060.527519,0.2347537075201035,-3.1020935871014665,9.357290580676446,0.38333333333333336,0.4711111111111111,-0.6177777777777778,8.581820523699843,5.894242231381582,-90.89262587384329
1589996060.537519,0.13971206609532028,-2.2922186941241756,6.44716659473457,0.38333333333333336,0.4711111111111111,-0.6177777777777778,-0.6780492786238366,6.082174070534558,-81.04311301559899
1589996060.547519,0.2286733796851275,-3.3170654519299934,10.094231599136897,0.35613735048882494,0.5024276974169086,-0.6235466226235825,-0.05138156317429887,6.268216055302485,-73.05847918165108
1589996060.557519,0.23156736938588451,-3.126718606782768,8.714408799266728,0.3466666666666667,0.5133333333333333,-0.6255555555555555,3.8166819431714023,4.411377176901925,-61.51346241979835
1589996060.567519,0.2583891458657515,-3.4128175559013494,9.47435913286296,0.3466666666666667,0.5133333333333333,-0.6255555555555555,1.7491700061816555,3.9643475689041416,-53.18753597083964
1589996060.577519,0.2080361265309719,-2.8690180632654863,7.831162569389374,0.3466666666666667,0.5133333333333333,-0.6255555555555555,1.1752257908185744,3.016471715569654,-42.493688871266194
1589996060.587519,0.17847017358357564,-2.854235086791788,7.6981157811260905,0.3466666666666667,0.5133333333333333,-0.6255555555555555,0.9904385848973478,2.3235196933650544,-34.8712166270156
1589996060.597519,5.404427440873948,-26.17437772253518,3.8883029625744063,0.2822222222222222,0.5344444444444445,-0.6444444444444445,-19.418219889616164,-9.047798310032613,23.463697630396606
1589996060.607519,1.7311745387369712,-2.3843257235386695,7.9537521381166325,0.2822222222222222,0.5344444444444445,-0.6444444444444445,-34.60386828061213,-24.89109289118982,197.79972404041325
1589996060.617519,0.4151715808170515,-1.068839076376554,10.154010420367081,0.2822222222222222,0.5344444444444445,-0.6444444444444445,27.971466844286567,-8.068602723505034,224.08047365304915
1589996060.627519,-0.5591244403649103,-1.12437723619879,1.0864971994829815,0.2822222222222222,0.5344444444444445,-0.6444444444444445,33.02092075192477,5.6747361051271,225.92546316243
1589996060.637519,-1.0855431504411517,-2.5307794616263606,7.230667815596725,0.2822222222222222,0.5344444444444445,-0.6444444444444445,-12.647866596107377,-20.302455838000864,218.0193612666954
1589996060.6475189,-0.16442951856827137,-3.5057494475018416,11.283297222342593,0.30628080869360064,0.5404590910622891,-0.6594810609890559,-30.360039216535945,-25.119009186636045,215.40793322355591
1589996060.6575189,-0.17817541394500985,-3.4203467264165273,10.217732606714264,0.31777777777777777,0.5433333333333333,-0.6666666666666666,-12.79233204845815,-18.31791760025824,216.6320695826371
1589996060.6675189,-0.6524897038283852,-2.9957955807040793,7.694773484224474,0.31777777777777777,0.5433333333333333,-0.6666666666666666,3.2688599004404972,-12.24974259570963,218.6826563227447
1589996060.6775188,-0.03710894239300022,-3.7291207513690456,9.275049408021538,0.31777777777777777,0.5433333333333333,-0.6666666666666666,-16.9798505522073,-21.27071733410836,214.95113883195154
1589996060.6875188,12.133986525138244,-23.426498230894726,7.499949575202864,0.31777777777777777,0.5433333333333333,-0.6666666666666666,-24.66337475370241,-21.05674378694464,67.31982139452109
1589996060.6975188,1.463624216467018,-7.528191795489526,12.190161502598766,0.3943309018715564,0.47783788271976724,-0.6666666666666666,-2.4306057462803103,7.59319302237391,-76.75340878672287
1589996060.7075188,0.12915277690420757,-1.579079187370275,9.449954085162588,0.4177777777777778,0.4577777777777778,-0.6666666666666666,52.13573180703189,26.259179036417386,-97.17481052267438
1589996060.7175188,-0.2441947000553125,-1.0433966913058783,4.716916578669482,0.4177777777777778,0.4577777777777778,-0.6666666666666666,26.68488836928647,8.560815482475988,-91.9475662493086
1589996060.7275188,-0.25050674875680795,-2.175362301681269,7.27515036703765,0.4177777777777778,0.4577777777777778,-0.6666666666666666,-29.646644861472886,2.2837955837082644,-83.27629943168364
1589996060.7375188,-0.7171795132464469,-3.041587133765732,9.830716304414127,0.4177777777777778,0.4577777777777778,-0.6666666666666666,-10.172550728910398,5.048850720777505,-71.20261319968282
1589996060.7475188,-7.463099064250974,-14.360578799169488,5.557379902727609,0.4293273415057311,0.4409784123553002,-0.6750663493779054,10.216911032736995,9.522977758184249,-34.609724750419524
1589996060.7575188,-1.7139462737898823,-6.354445425603608,7.027845606859852,0.43,0.44,-0.6755555555555556,-7.4109956312597305,-8.9603153393907,65.98184823275162
1589996060.7675188,4.69714276331633,-7.438133415066664,6.657304551524838,0.43,0.44,-0.6755555555555556,3.8081378483700767,-7.020146901066182,95.27067096131532
1589996060.7775187,2.419747303088518,-7.714003251071376,9.187006058814836,0.43,0.44,-0.6755555555555556,-8.406531697945915,-9.199654573666322,42.03213203783065
1589996060.7875187,-0.386679410794341,-2.9110741941118246,10.376825353698061,0.43,0.44,-0.6755555555555556,2.0014203718438885,4.773549546839522,-16.015191064878607
1589996060.7975187,-0.5223338424119012,-1.6028958085864584,7.987460829232422,0.42068728749112255,0.4535457636492763,-0.6789419964678747,9.759078567792296,5.591964689744895,-33.10695952825386
1589996060.8075187,-0.1535136420159462,-5.905415112281473,7.937011923048789,0.4177777777777778,0.4577777777777778,-0.68,-3.9216589861751157,2.1990595969570625,-14.881953587886766
1589996060.8175187,0.978568882098294,-4.830376150460184,8.923917203244935,0.4177777777777778,0.4577777777777778,-0.68,-4.367112754192586,-4.939207501182291,11.689503073956857
1589996060.8275187,-0.5451420288313209,-3.9967852013404963,8.058389541996915,0.4177777777777778,0.4577777777777778,-0.68,3.6509937363689557,1.7946300335124192,-4.982653665088566
1589996060.8375187,-0.10017649030782283,-4.636658318707973,8.723745341247461,0.4177777777777778,0.4577777777777778,-0.68,-0.4395496046222709,-0.40581678531285137,-2.5345992486837177
1589996060.8475187,-0.18918598382749324,-4.560814016172507,8.643897574123988,0.4177777777777778,0.4516250374363582,-0.6758981731057203,0.7351415094339622,0.023820754716981085,0.5813679245283021
1589996060.8575187,-0.1566050317593074,-4.68238658197518,8.602201677253102,0.4177777777777778,0.4511111111111111,-0.6755555555555556,-0.23051493026515057,-0.09747903433621916,0.19380241415945199
1589996060.8675187,-0.1435223301649427,-4.60283495247414,8.52874563181437,0.4177777777777778,0.4511111111111111,-0.6755555555555556,-0.4154854364691082,-0.04402912706178362,0.08451456353089182
1589996060.8775187,-0.15588218139399243,-4.71676290463692,8.553528725575969,0.4177777777777778,0.4511111111111111,-0.6755555555555556,-0.09007728200641585,0.09926363371245261,0.11213181685622631
1589996060.8875186,-0.1532105578210932,-4.61063227206405,8.678631074862508,0.4177777777777778,0.4511111111111111,-0.6755555555555556,0.33947210894534025,-0.08717006809083766,0.04013197276366494
1589996060.8975186,-0.12047011857236489,-4.665501996067449,8.685705177858548,0.42105887571418166,0.45603275801571697,-0.6689933596827478,0.03859560269320145,-0.09521912053864029,-0.046140439730679855
1589996060.9075186,-0.12269167464114833,-4.652887464114833,8.625579138755981,0.4222222222222222,0.4577777777777778,-0.6666666666666666,-0.28364593301435403,0.01682296650717703,-0.022838516746411484
1589996060.9175186,-0.13,-4.679239095210319,8.503736470283233,0.4222222222222222,0.4577777777777778,-0.6666666666666666,-0.5601221725322445,-0.12262217253224447,0.04628054313306112
1589996060.9275186,-0.10614075792730085,-4.676140757927301,8.541577726218097,0.4222222222222222,0.4577777777777778,-0.6666666666666666,-0.1279324568187677,0.061033771590616154,0.0625
1589996060.9375186,-0.12721491497643928,-4.690411186232329,8.54639254251178,0.4222222222222222,0.4577777777777778,-0.6666666666666666,0.3401864372054907,0.125,0.019976695349313664
1589996060.9475186,-0.13182788360116648,-4.659139418005832,8.65440962958367,0.4285783127546483,0.44778963551253675,-0.6848269253307412,0.6021514549854191,0.022848545014580862,0.0
1589996060.9575186,-0.12161526653642199,-4.616461066145688,8.705154200390735,0.43,0.4455555555555555,-0.6888888888888889,0.3105724951158247,0.10480916829472509,-0.05240458414736254
1589996060.9675186,-0.12806405529953918,-4.634192165898617,8.621295391705068,0.43,0.4455555555555555,-0.6888888888888889,-0.10280241935483869,0.125,-0.012099654377880187
1589996060.9775186,-0.122696729521404,-4.698426163828768,8.512360754256848,0.43,0.4455555555555555,-0.6888888888888889,-0.1875,0.07935455950877499,0.09129088098245003
1589996060.9875185,-0.12,-4.72,8.531203372213882,0.43,0.4455555555555555,-0.6888888888888889,-0.15194210262924895,-0.008615794741502092,0.08944210262924895
1589996060.9975185,-0.13287384331675833,-4.64275694009945,8.66011690321731,0.41712615668324166,0.45342290424913007,-0.6652868428081653,0.0761538018243488,-0.0625,0.022269239635130243
1589996061.0075185,-0.1259796833119355,-4.628040633376129,8.731030475032098,0.41,0.4577777777777778,-0.6522222222222223,0.056059531049395234,-0.19394046895060477,0.04381348965020159
1589996061.0175185,-0.12,-4.6254042358211995,8.67675168855853,0.41,0.4577777777777778,-0.6522222222222223,-0.15203921019583883,-0.09796078980416117,0.0625
1589996061.0275185,-0.11536655961302089,-4.656334403869791,8.582199357678125,0.41,0.4577777777777778,-0.6522222222222223,-0.3125,0.0625,0.0625
1589996061.0375185,-0.1208614031733894,-4.693707895239916,8.56086140317339,0.41,0.4577777777777778,-0.6522222222222223,-0.10884869049894857,0.028558115083158093,0.09644188491684191
1589996061.0475185,-0.1363913983065859,-4.654434406773656,8.627522584759273,0.414971087571789,0.4577777777777778,-0.6614542419984019,0.22228495766464731,0.07989247883232366,0.04510752116767634
1589996061.0575185,-0.12839820988218104,-4.616796419764362,8.677402685176729,0.4177777777777778,0.4577777777777778,-0.6666666666666666,0.4575223764727372,0.1612555941181843,0.036255594118184305
1589996061.0675185,-0.12,-4.611923633389948,8.600572749575392,0.4177777777777778,0.4577777777777778,-0.6666666666666666,0.26440916525130526,0.11297729131282631,0.025238645656413157
1589996061.0775185,-0.12557611986052036,-4.636728359581562,8.562304479442082,0.4177777777777778,0.4577777777777778,-0.6666666666666666,-0.042052247384756866,-0.07690299651300916,0.0
1589996061.0875185,-0.12064854542298059,-4.65935145457702,8.59402718186553,0.4177777777777778,0.4577777777777778,-0.6666666666666666,-0.15422329555318567,-0.15827670444681433,0.029223295553185685
1589996061.0975184,-0.12345711468945121,-4.67,8.627942819585934,0.4177777777777778,0.4577777777777778,-0.6666666666666666,-0.07535737758790668,-0.04089303319093,0.09053565560302333
1589996061.1075184,-0.12893893431812187,-4.647877868636244,8.661061065681878,0.4177777777777778,0.4577777777777778,-0.6666666666666666,0.13163166051173833,-0.00663166051173833,0.05586833948826167
1589996061.1175184,-0.12,-4.63,8.629870756679255,0.4177777777777778,0.4577777777777778,-0.6666666666666666,0.08001095539086006,-0.0625,0.07165936307275994
1589996061.1275184,-0.12604947242972997,-4.65419788971892,8.58185158271081,0.4177777777777778,0.4577777777777778,-0.6666666666666666,-0.30247362148649826,-0.10030920268581228,0.01157239194256314
1589996061.1375184,-0.13,-4.67,8.60367487528704,0.4177777777777778,0.4577777777777778,-0.6666666666666666,-0.3246100245466783,-0.08992200490933566,0.00765599018132869
1589996061.1475184,-0.11788867797440451,-4.67,8.63,0.41306781921226843,0.4577777777777778,-0.6585924519829364,0.07743516930990141,-0.02465211867001408,0.02465211867001408
1589996061.1575184,-0.12403491825843375,-4.6559650817415665,8.658069836516868,0.41,0.4577777777777778,-0.6533333333333333,0.5131547173456328,0.08771823911521094,0.04385911955760547
1589996061.1675184,-0.13519248991051064,-4.644807510089489,8.618075100894893,0.41,0.4577777777777778,-0.6533333333333333,0.527640814177926,0.09254693805930865,0.03004693805930865
1589996061.1775184,-0.13489935474821155,-4.634899354748211,8.595503226258941,0.41,0.4577777777777778,-0.6533333333333333,0.21434677023425444,-0.0012580656473558799,0.0
1589996061.1875184,-0.13542618816682833,-4.646278564500485,8.62,0.41,0.4577777777777778,-0.6533333333333333,-0.16956838021338505,-0.0625,0.06782735208535402
1589996061.1975183,-0.12844859577947607,-4.665775702110262,8.643102808441048,0.41,0.4622699905302038,-0.6770778864532992,-0.204205585432588,-0.170794414567412,0.08890186181086265
1589996061.2075183,-0.1399150154834804,-4.67,8.633446646022026,0.41,0.4655555555555556,-0.6944444444444444,-0.000531153228247469,-0.16702076881883166,-0.02047923118116836
1589996061.2175183,-0.1158433301045625,-4.629011996125476,8.579011996125475,0.41,0.4655555555555556,-0.6944444444444444,0.10519583736929687,0.0030875121078906276,-0.01980416263070313
1589996061.2275183,-0.11903493706111269,-4.629034937061113,8.572689958040742,0.41,0.4655555555555556,-0.6944444444444444,-0.07328059438659043,0.1021561188773181,0.07931223775463618
1589996061.2375183,-0.12510879719735304,-4.644891202802647,8.604456014013236,0.41,0.4655555555555556,-0.6944444444444444,-0.1875,0.0944299824834566,0.06385996496691321
1589996061.2475183,-0.1133445007527406,-4.666638748118149,8.62334450075274,0.41258824970726754,0.46296730584828805,-0.6826124457826499,-0.1667015648523144,0.04170156485231441,0.020798435147685587
1589996061.2575183,-0.12062367115520907,-4.683501063075833,8.61412473423104,0.4177777777777778,0.4577777777777778,-0.6588888888888889,0.02967753366406803,0.05155917788802268,0.03672041105598866
1589996061.2675183,-0.14491139526562588,-4.6498227905312515,8.584379766859382,0.4177777777777778,0.4577777777777778,-0.6588888888888889,0.3136075591796765,0.2204113387695147,0.0
1589996061.2775183,-0.12911330725413492,-4.629113307254135,8.604433463729325,0.4177777777777778,0.4577777777777778,-0.6588888888888889,0.34097908516917164,0.10837451101502987,0.03402091483082836
1589996061.2875183,-0.12,-4.636028033028276,8.65,0.4177777777777778,0.4577777777777778,-0.6588888888888889,-0.02141735475573614,-0.029108264524426386,0.029108264524426386
1589996061.2975183,-0.13037381462220862,-4.655186907311105,8.644813092688896,0.4177777777777778,0.4577777777777778,-0.6744496108222018,-0.34491817069440195,0.0,0.0
1589996061.3075182,-0.12733650617254125,-4.6663317469137295,8.614673012345083,0.4177777777777778,0.4577777777777778,-0.6888888888888889,-0.25627974536757425,-0.03957341821080859,0.0
1589996061.3175182,-0.12577598860300465,-4.646896045587981,8.565344068381972,0.4177777777777778,0.4577777777777778,-0.6888888888888889,-0.07920021369366259,-0.02640007123122086,-0.03609992876877914
1589996061.3275182,-0.13,-4.641869810870315,8.563739621740629,0.4177777777777778,0.4577777777777778,-0.6888888888888889,0.0,0.0,0.04877947690920183
1589996061.3375182,-0.13,-4.65391902237927,8.611352179034158,0.4177777777777778,0.4577777777777778,-0.6888888888888889,0.0,-0.024493889870435808,0.07601222025912838
1589996061.3475182,-0.129759022556391,-4.660481954887218,8.659277067669173,0.4177777777777778,0.4577777777777778,-0.6888888888888889,-0.010542763157894737,-0.0625,0.0015061090225563908
1589996061.3575182,-0.12,-4.6749486458300415,8.63505135416996,0.4177777777777778,0.4577777777777778,-0.6888888888888889,-0.12179036437758745,0.03221289068672377,0.030929036437758746
1589996061.3675182,-0.13021253448342854,-4.659787465516572,8.588937327582856,0.4177777777777778,0.4577777777777778,-0.6888888888888889,0.2513283405214283,0.09308582973928585,0.0638283405214283
1589996061.3775182,-0.1354528675732161,-4.65,8.590018456694622,0.4177777777777778,0.4577777777777778,-0.6888888888888889,0.369339155334799,0.0909195776673995,0.06816084466520099
1589996061.3875182,-0.13,-4.641121538992829,8.663317691510755,0.4177777777777778,0.4577777777777778,-0.6888888888888889,0.2155384748207285,0.06950961870518213,0.0
1589996061.3975182,-0.12690159715871632,-4.633098402841283,8.673803194317433,0.4133023070070347,0.46018764665433176,-0.6820035492415918,-0.10123003551604602,0.0,0.0
1589996061.4075181,-0.12369428982912303,-4.647388579658246,8.652611420341755,0.4033333333333333,0.4655555555555556,-0.6666666666666666,-0.210589311432019,-0.06926793429605699,0.023089311432018995
1589996061.4175181,-0.13,-4.66,8.604684215039013,0.4033333333333333,0.4655555555555556,-0.6666666666666666,-0.16722862899768498,-0.049547714996141634,0.03490954299922833
1589996061.4275181,-0.1267337051237365,-4.653467410247473,8.563266294876264,0.4033333333333333,0.4655555555555556,-0.6666666666666666,-0.0012569710700592526,0.125,-0.020414342976646915
1589996061.4375181,-0.1155565157615634,-4.648886968476873,8.60999135814593,0.4033333333333333,0.4655555555555556,-0.6666666666666666,0.09722822350977119,0.06945644701954237,-0.034728223509771186
1589996061.447518,-0.1239367747643516,-4.650708816823766,8.664645591588117,0.41210833966644356,0.45626437237932116,-0.6666666666666666,-0.024604842277197392,0.05806989485146494,0.0
1589996061.457518,-0.12743383199079403,-4.652566168009206,8.619735327963175,0.4222222222222222,0.4455555555555555,-0.6666666666666666,-0.0857307249712313,0.125,0.039269275028768695
1589996061.467518,-0.12580069768972554,-4.66,8.560996511551371,0.4222222222222222,0.4455555555555555,-0.6666666666666666,0.04626308168235371,0.05249127887843086,0.02624563943921543
1589996061.477518,-0.13,-4.6492711960101625,8.561457607979674,0.4222222222222222,0.4455555555555555,-0.6666666666666666,0.15852751246824126,-0.033527512468241275,0.033527512468241275
1589996061.487518,-0.12282089359504132,-4.6364104467975205,8.608716425619836,0.4222222222222222,0.4455555555555555,-0.6666666666666666,0.20993470751549587,-0.0625,-0.004804122546487599
1589996061.497518,-0.11,-4.63,8.663410473166813,0.42118013319902925,0.44602923238427955,-0.666003519106453,0.21269794973797956,-0.07315772864629155,-0.10901340703056267
1589996061.507518,-0.12525554239295988,-4.655425903988267,8.68474445760704,0.41,0.4511111111111111,-0.6588888888888889,-0.1875,-0.12393524002933379,0.030717620014666894
1589996061.517518,-0.12974292467630263,-4.674871462338151,8.608457548057816,0.41,0.4511111111111111,-0.6588888888888889,-0.12339327922689146,-0.0625,-0.03205336038655427
1589996061.527518,-0.12521877797672337,-4.654343666069829,8.576093889883618,0.41,0.4511111111111111,-0.6588888888888889,0.002734724709042083,-0.0625,-0.02988263764547896
1589996061.537518,-0.13483380336477682,-4.635166196635223,8.62900282018866,0.41,0.4511111111111111,-0.6588888888888889,0.1531338130895653,-0.1229225420597102,0.0
1589996061.547518,-0.13092387883556256,-4.626974626278521,8.65697462627852,0.41235306845003933,0.4531280269254305,-0.6652757889675671,0.15545707120377655,-0.13077424272226593,-0.03781717151848938
1589996061.557518,-0.11252305537180435,-4.632615276859021,8.642430833884587,0.4177777777777778,0.4577777777777778,-0.68,-0.07826909607377719,0.03153819214755438,-0.09346180785244562
1589996061.567518,-0.12704962779156329,-4.662950372208437,8.595326302729529,0.4177777777777778,0.4577777777777778,-0.68,-0.10296991315136476,0.14703008684863522,0.0
1589996061.577518,-0.1399328646748682,-4.649932864674868,8.550335676625659,0.4177777777777778,0.4577777777777778,-0.68,-0.060821616871704745,0.1875,-0.00041959578207381373
1589996061.587518,-0.13316554085315074,-4.64,8.622158785972054,0.4177777777777778,0.4577777777777778,-0.68,0.1875,0.1875,-0.003146109003423714
1589996061.597518,-0.14,-4.632319747274529,8.67,0.4177777777777778,0.4552176935359542,-0.6748798315163529,0.1875,0.1875,0.125
1589996061.607518,-0.13602028295077234,-4.635918868196911,8.67,0.4177777777777778,0.4511111111111111,-0.6666666666666666,0.13775353688465425,0.1875,0.10012676844232712
1589996061.617518,-0.12723870511005278,-4.66,8.642387051100528,0.4177777777777778,0.4511111111111111,-0.6666666666666666,-0.023790465310850814,0.15298381387565968,0.010725720813489506
1589996061.627518,-0.12932444742772212,-4.66,8.583986671141583,0.4177777777777778,0.4511111111111111,-0.6666666666666666,-0.25,0.0625,-0.037583305365105235
1589996061.637518,-0.14,-4.66,8.607820747217806,0.4177777777777778,0.4511111111111111,-0.6666666666666666,-0.12780082472178061,0.0625,0.08693983505564387
1589996061.647518,-0.13496670452773882,-4.65748335226387,8.632583238680652,0.41218522725304313,0.4547462689521886,-0.6666666666666666,0.0625,0.0625,0.07781285494755127
1589996061.657518,-0.12302630146925449,-4.65,8.67,0.3955555555555556,0.4655555555555556,-0.6666666666666666,0.0625,0.024671231634318884,-0.043585615817159445
1589996061.667518,-0.13415774544789094,-4.645842254552109,8.62010705462531,0.3955555555555556,0.4655555555555556,-0.6666666666666666,0.0625,-0.03651409095068167,0.0
1589996061.677518,-0.1344031956199894,-4.64559680438001,8.558395206570017,0.3955555555555556,0.4655555555555556,-0.6666666666666666,0.04500998631246683,0.01749001368753317,0.0
1589996061.687518,-0.12329823272519488,-4.65340353454961,8.603087629076365,0.3955555555555556,0.4655555555555556,-0.6666666666666666,0.020613954532468063,0.04188604546753194,-0.020613954532468063
1589996061.6975179,-0.13,-4.638332509021633,8.653334981956734,0.40129913559215097,0.4642586181279373,-0.6688899879711552,0.09376545584436996,0.010421818614789984,-0.0625
1589996061.7075179,-0.13,-4.63064937443901,8.66870125112198,0.42776326582118746,0.45828284678589676,-0.6791341674146533,0.23782422926856076,0.05844140975618692,-0.0625
1589996061.7175179,-0.13592137044331315,-4.642039314778343,8.639606852216566,0.43,0.4577777777777778,-0.68,0.06127141317676786,-0.04975428263535357,0.012745717364646428
1589996061.7275178,-0.12033555051837538,-4.649832224740813,8.561677752591878,0.43,0.4577777777777778,-0.68,-0.1822570231503846,-0.0010485953699230777,0.06145140463007692
1589996061.7375178,-0.12206377220849511,-4.66412754441699,8.584446405459467,0.43,0.4577777777777778,-0.68,-0.32340569478762204,-0.1378985763030945,-0.036702847393811036
1589996061.7475178,-0.1291138453263409,-4.678227690652681,8.633796917284387,0.43,0.4577777777777778,-0.68,-0.14715386684147713,-0.18196153328963072,0.051423066579261434
1589996061.7575178,-0.12607974255025703,-4.644119613825386,8.66,0.4222222222222222,0.4511111111111111,-0.6588888888888889,-0.10049839093910645,-0.11274919546955323,0.10049839093910645
1589996061.7675178,-0.11268685616915808,-4.626717140422896,8.646565719154209,0.4222222222222222,0.4511111111111111,-0.6588888888888889,0.016792851057238014,-0.0625,0.0
1589996061.7775178,-0.12663037308426647,-4.663260746168533,8.573478507662934,0.4222222222222222,0.4511111111111111,-0.6588888888888889,0.01969915888332731,-0.020379663553330922,0.0
1589996061.7875178,-0.12258120091208512,-4.650860400304029,8.603441601216113,0.4222222222222222,0.4511111111111111,-0.6588888888888889,-0.1659899923992906,0.0625,0.00537750190017735
