time,acc_x,acc_y,acc_z,mag_x,mag_y,mag_z,gyr_x,gyr_y,gyr_z
1589995400.578092,-4.11,-0.78,8.81,0.3244444444444444,-0.3211111111111111,-0.6,-0.125,0.125,0.0
1589995400.588092,-4.100514067305952,-0.7894859326940474,8.876401528858333,0.3244444444444444,-0.3211111111111111,-0.6,-0.006425841324407447,0.3028612380133888,-0.05928707933779628
1589995400.598092,-4.1030596872616325,-0.7830596872616323,8.88041046910755,0.326372309093991,-0.3211111111111111,-0.5946019789812695,0.16837695461479787,-0.16837695461479787,-0.04081152269260106
1589995400.608092,-4.095658447417548,-0.7756584474175483,8.905658447417549,0.33,-0.3211111111111111,-0.5844444444444444,0.25,-0.28536529635967645,-0.03536529635967642
1589995400.618092,-4.094539939332659,-0.78,8.866319514661274,0.33,-0.3211111111111111,-0.5844444444444444,0.14762386248736098,-0.27837462082912035,-0.028374620829120324
1589995400.628092,-4.096385970394095,-0.78,8.874701792758662,0.33,-0.3211111111111111,-0.5844444444444444,0.10241231496309025,-0.05043842518454869,0.0
1589995400.638092,-4.1,-0.767720220878254,8.906139889560873,0.33,-0.3211111111111111,-0.5844444444444444,0.16337430975545622,0.02412569024454378,0.0
1589995400.648092,-4.093496594916697,-0.7534965949166971,8.929510215249909,0.3350582039536801,-0.3131625048981853,-0.5996190563054846,0.06556115468807006,0.04064628177064332,-0.04064628177064332
1589995400.658092,-4.09,-0.7653848486379946,8.90923030272401,0.3377777777777778,-0.3088888888888889,-0.6077777777777778,-0.09615530398746652,0.014422348006266739,-0.11057765199373326
1589995400.668092,-4.087533289168599,-0.7749334216628023,8.87533289168599,0.3377777777777778,-0.3088888888888889,-0.6077777777777778,-0.14041694269625704,-0.01541694269625704,-0.09416611460748592
1589995400.678092,-4.087667578522793,-0.7823324214772069,8.807667578522794,0.3377777777777778,-0.3088888888888889,-0.6077777777777778,-0.11561645134881492,-0.014577634232543275,-0.047922365767456725
1589995400.688092,-4.095782289581546,-0.772108855209227,8.828435420836907,0.3377777777777778,-0.3088888888888889,-0.6077777777777778,-0.03954103517300543,0.0625,-0.125
1589995400.698092,-4.08,-0.78,8.859778547270091,0.33748250747123354,-0.3091595533365545,-0.6074579016123548,-0.18334776131422129,0.0625,-0.12361592043807376
1589995400.708092,-4.091002617148554,-0.78,8.877506542871386,0.3244444444444444,-0.3211111111111111,-0.5933333333333334,0.0,0.0625,0.04064953576769692
1589995400.718092,-4.1,-0.763132589230958,8.871887648718262,0.3244444444444444,-0.3211111111111111,-0.5933333333333334,0.07028087820434196,0.09764043910217099,0.054719121795658035
1589995400.728092,-4.1,-0.7565214905174878,8.88260745258744,0.3244444444444444,-0.3211111111111111,-0.5933333333333334,0.08424068426570094,0.125,0.0
1589995400.738092,-4.094238041235196,-0.76,8.9,0.3244444444444444,-0.3211111111111111,-0.5933333333333334,0.09851224228002009,0.05297551543995983,-0.03601224228002008
1589995400.748092,-4.0980171673819745,-0.7720257510729613,8.904008583690988,0.3324616118264187,-0.3211111111111111,-0.5960057224606581,-0.00026824034334763103,0.0,-0.08755364806866953
1589995400.758092,-4.0961193096982536,-0.79,8.896119309698253,0.34444444444444444,-0.3211111111111111,-0.6,-0.24533620959061078,0.028918104795305394,-0.09608189520469461
1589995400.768092,-4.08,-0.785429050028494,8.838861450256445,0.34444444444444444,-0.3211111111111111,-0.6,-0.3410684373219127,0.17677374928765088,-0.03393156267808728
1589995400.778092,-4.088263195154566,-0.7882631951545662,8.79,0.34444444444444444,-0.3211111111111111,-0.6,-0.375,0.28667751514198064,-0.02582248485801935
1589995400.788092,-4.095946416249137,-0.7878392487474124,8.810267918754311,0.34444444444444444,-0.3211111111111111,-0.6,-0.349665101557109,0.25,-0.037165101557109
1589995400.798092,-4.090870699432892,-0.7708706994328922,8.84348279773157,0.3438639781558496,-0.3206273892039488,-0.5994195337114051,-0.3016162570888469,0.2608837429111531,0.005441871455576559
1589995400.8080919,-4.08959054749649,-0.7747952737482452,8.90081890500702,0.3377777777777778,-0.31555555555555553,-0.5933333333333334,-0.2850886172204024,0.34247046092653255,0.02997046092653252
1589995400.8180919,-4.093808069615977,-0.7838080696159772,8.857863686728104,0.3377777777777778,-0.31555555555555553,-0.5933333333333334,-0.375,0.3125,-0.12945065264978517
1589995400.8280919,-4.086637300021915,-0.7766373000219154,8.870088099934254,0.3377777777777778,-0.31555555555555553,-0.5933333333333334,-0.2914831251369713,0.22898312513697128,-0.14574156256848564
1589995400.8380919,-4.088095698405026,-0.7740478492025133,8.89,0.3377777777777778,-0.31555555555555553,-0.5933333333333334,-0.19940188496858385,0.2633971725471242,-0.125
1589995400.8480918,-4.1,-0.78,8.893923541247485,0.3358160071540353,-0.31555555555555553,-0.5924614352783367,-0.13726106639839034,0.36886946680080485,-0.11886946680080483
1589995400.8580918,-4.0943378912184745,-0.7856621087815254,8.93,0.31777777777777777,-0.31555555555555553,-0.5844444444444444,-0.32077635976906715,0.3125,0.008276359769067154
1589995400.8680918,-4.09,-0.7700851768319017,8.850340707327607,0.31777777777777777,-0.31555555555555553,-0.5844444444444444,-0.25053235519938577,0.5614352896012285,0.021010785066461923
1589995400.8780918,-4.102413670503533,-0.7786205057552998,8.841034176258832,0.31777777777777777,-0.31555555555555553,-0.5844444444444444,-0.38146360161770587,0.7262927203235412,-0.038792720323541176
1589995400.8880918,-4.105090693772821,-0.7998186124543571,8.869818612454358,0.31777777777777777,-0.31555555555555553,-0.5844444444444444,-0.4693168360801342,0.6886336721602684,-0.0625
1589995400.8980918,-4.106012135199523,-0.797975729600953,8.883006067599762,0.31777777777777777,-0.31555555555555553,-0.5871165045331216,-0.39992415500297795,0.5498483100059559,-0.02492415500297796
1589995400.9080918,-4.114904096798039,-0.7716986344006537,8.886602731198693,0.31777777777777777,-0.31555555555555553,-0.5933333333333334,-0.2912670699918297,0.32191767497957435,0.0625
1589995400.9180918,-4.093689129189344,-0.78,8.83310870810656,0.31777777777777777,-0.31555555555555553,-0.5933333333333334,-0.14138588513319966,0.03944294256659983,0.03944294256659983
1589995400.9280918,-4.0973987563155845,-0.78,8.783006218422075,0.31777777777777777,-0.31555555555555553,-0.5933333333333334,0.002531092110376984,0.0,0.0
1589995400.9380918,-4.09,-0.78,8.857135193291182,0.31777777777777777,-0.31555555555555553,-0.5933333333333334,0.14530091671456574,0.0,-0.02109954164271713
1589995400.9480917,-4.09,-0.78,8.925133159422852,0.31777777777777777,-0.31555555555555553,-0.5933333333333334,0.06803050065584886,0.0,-0.05973474967207557
1589995400.9580917,-4.105336080961526,-0.762331959519237,8.945336080961525,0.3244444444444444,-0.3288888888888889,-0.6077777777777778,0.0625,-0.10622424098569364,-0.014574746995231211
1589995400.9680917,-4.09,-0.7753743237008766,8.90044121964518,0.3244444444444444,-0.3288888888888889,-0.6077777777777778,0.07929476156523928,-0.25,-0.04570523843476072
1589995400.9780917,-4.081318809776834,-0.7986811902231669,8.841702975557917,0.3244444444444444,-0.3288888888888889,-0.6077777777777778,0.0978712805526036,-0.27712871944739637,-0.08138615834218917
1589995400.9880917,-4.077864696774871,-0.8073784344083764,8.875243131183247,0.3244444444444444,-0.3288888888888889,-0.6077777777777778,0.04611521505235258,-0.3125,-0.15473043010470516
1589995400.9980917,-4.102959522229595,-0.7970404777704048,8.895919044459191,0.3244444444444444,-0.3249428592494286,-0.6008722259087222,0.055491041804910414,-0.3125,-0.08099701393497014
1589995401.0080917,-4.103430344377109,-0.7867151721885547,8.887006205319883,0.3244444444444444,-0.31555555555555553,-0.5844444444444444,0.24909052146460064,-0.33303017382153355,-0.06340947853539936
1589995401.0180917,-4.100996786074554,-0.78,8.82350482088817,0.3244444444444444,-0.31555555555555553,-0.5844444444444444,0.4780948694489408,-0.375,0.02813504351701973
1589995401.0280917,-4.104461590886963,-0.78,8.837692045565184,0.3244444444444444,-0.31555555555555553,-0.5844444444444444,0.4932698860870412,-0.34038494304352057,0.03461505695647941
1589995401.0380917,-4.095396088829963,-0.7661882664898906,8.87381173351011,0.3244444444444444,-0.31555555555555553,-0.5844444444444444,0.49504888962545573,-0.3412744448127279,0.033725555187272126
1589995401.0480917,-4.09,-0.7590496025033829,8.899049602503384,0.32612029675988574,-0.31555555555555553,-0.5827685921290031,0.5436466614512855,-0.35614666145128554,-0.03770667709742896
1589995401.0580916,-4.096106106791794,-0.7708408398123096,8.910840839812309,0.33,-0.31555555555555553,-0.5788888888888889,0.4427552488269343,-0.3697447511730657,-0.08683683255128952
1589995401.0680916,-4.102979613003598,-0.7605305804946034,8.861918452014391,0.33,-0.31555555555555553,-0.5788888888888889,0.2905612906362428,-0.5658161280912715,0.02193870936375717
1589995401.0780916,-4.089332183341547,-0.78,8.81267126663381,0.33,-0.31555555555555553,-0.5788888888888889,0.2541738541153277,-0.6749784376540168,0.07084770823065549
1589995401.0880916,-4.087734144019243,-0.7774219519935858,8.860312192025656,0.33,-0.31555555555555553,-0.5788888888888889,0.2641615998797334,-0.4516615998797334,0.10693599979955569
1589995401.0980916,-4.108752234118964,-0.7704159219603455,8.88833631215862,0.33,-0.31555555555555553,-0.5788888888888889,0.13279853675647688,-0.3202985367564769,-0.11200243873920523
1589995401.1080916,-4.104233596515111,-0.7728832017424448,8.93423359651511,0.33,-0.3088888888888889,-0.5844444444444444,0.009580043561121701,-0.19593996732915872,-0.125
1589995401.1180916,-4.099021970754648,-0.7754890146226762,8.874890146226761,0.33,-0.3088888888888889,-0.5844444444444444,0.1875,-0.09069365860827394,-0.15319365860827394
1589995401.1280916,-4.106456148626583,-0.7735438513734171,8.827087702746834,0.33,-0.3088888888888889,-0.5844444444444444,0.2760962843354258,-0.14714907108385644,-0.16535092891614356
1589995401.1380916,-4.1,-0.78,8.850421527113783,0.33,-0.3088888888888889,-0.5844444444444444,0.42664424258981015,-0.17664424258981012,-0.11414424258981014
1589995401.1480916,-4.1,-0.78,8.909809405992494,0.33354228549728937,-0.3118862073865953,-0.5844444444444444,0.35967280313672867,-0.1556543937265427,-0.09315439372654268
1589995401.1580915,-4.097720354253728,-0.7822796457462715,8.928601771268642,0.34444444444444444,-0.3211111111111111,-0.5844444444444444,0.298252214085803,-0.23575221408580302,-0.15900442817160604
1589995401.1680915,-4.09,-0.7777517318854147,8.85733795169444,0.34444444444444444,-0.3211111111111111,-0.5844444444444444,0.25,-0.264051675716158,-0.0625
1589995401.1780915,-4.093151365520605,-0.7694540965618142,8.813151365520605,0.34444444444444444,-0.3211111111111111,-0.5844444444444444,0.25,-0.2568237929773226,-0.1215881035113387
1589995401.1880915,-4.1,-0.79,8.8507822410148,0.34444444444444444,-0.3211111111111111,-0.5844444444444444,0.25,-0.07214587737843552,-0.17785412262156447
1589995401.1980915,-4.096685276073619,-0.7866852760736197,8.90331472392638,0.3333953646898432,-0.3192695978186776,-0.5796565098841172,0.25,-0.1667829754601227,-0.0625
1589995401.2080915,-4.099366400148754,-0.7846832000743771,8.919366400148753,0.3111111111111111,-0.31555555555555553,-0.57,0.22072999953514316,-0.15427000046485684,-0.0625
1589995401.2180915,-4.105039800218511,-0.785039800218511,8.870477602622133,0.3111111111111111,-0.31555555555555553,-0.57,0.2805037459029187,-0.21850124863430623,-0.0004975027313875446
1589995401.2280915,-4.115390403018662,-0.790260268679108,8.840780806037325,0.3111111111111111,-0.31555555555555553,-0.57,0.3108733207555747,-0.28206333962221264,0.030436660377787375
1589995401.2380915,-4.124196130565141,-0.7941961305651412,8.867098065282569,0.3111111111111111,-0.31555555555555553,-0.57,0.3225483679357357,-0.29436290801606607,-0.018137091983933925
1589995401.2480915,-4.112332409345478,-0.7823324093454772,8.861166204672738,0.3111111111111111,-0.31555555555555553,-0.57,0.47084488318153533,-0.2572887792046162,-0.055211220795383834
1589995401.2580914,-4.083784689455946,-0.7518923447279731,8.878107655272027,0.31777777777777777,-0.3288888888888889,-0.5788888888888889,0.5625,-0.625,-0.125
1589995401.2680914,-4.099939913336542,-0.7599699566682716,8.870030043331727,0.31777777777777777,-0.3288888888888889,-0.5788888888888889,0.5625,-0.625,-0.125
1589995401.2780914,-4.092518159806295,-0.78,8.842590799031477,0.31777777777777777,-0.3288888888888889,-0.5788888888888889,0.2189769975786925,-0.3435230024213075,-0.015738498789346248
1589995401.2880914,-4.1,-0.78,8.88031744155115,0.31777777777777777,-0.3288888888888889,-0.5788888888888889,0.3125,-0.25,-0.0625
1589995401.2980914,-4.098283848688127,-0.7834323026237447,8.9,0.319875296047844,-0.3254565862651442,-0.5825118749917305,0.2695962172031914,-0.21782216290239353,-0.04104810860159568
1589995401.3080914,-4.09,-0.7998542961217057,8.900072851939148,0.33,-0.3088888888888889,-0.6,0.0625,-0.06341064923934005,0.062044675380329976
1589995401.3180914,-4.083859077884866,-0.78,8.876224928366762,0.33,-0.3088888888888889,-0.6,0.10088076321958844,-0.22588076321958844,-0.019190381609794218
1589995401.3280914,-4.0730206197998315,-0.7769793802001689,8.815103098999156,0.33,-0.3088888888888889,-0.6,0.1497422525021102,-0.29362112625105513,-0.024742252502110214
1589995401.3380914,-4.086379886940431,-0.7668100565297843,8.862759773880862,0.33,-0.3088888888888889,-0.6,0.0625,-0.23006285331115148,0.002688559933454432
1589995401.3480914,-4.098601393248105,-0.7606993033759474,8.891398606751896,0.3296114981244737,-0.3093550911395204,-0.6,0.06687064609967083,-0.19187064609967083,-0.12062935390032917
1589995401.3580914,-4.0882954465314185,-0.7741477232657091,8.922443169797127,0.3244444444444444,-0.31555555555555553,-0.6,0.15092327041068196,-0.25,-0.08842327041068196
1589995401.3680913,-4.091776368153204,-0.78,8.898881840766022,0.3244444444444444,-0.31555555555555553,-0.6,0.16180115047876317,-0.1472046019150527,-0.09930115047876317
1589995401.3780913,-4.08,-0.78,8.865183163338601,0.3244444444444444,-0.31555555555555553,-0.6,0.125,-0.1049298472441699,-0.01003507637791505
1589995401.3880913,-4.084656612010361,-0.78,8.904656612010362,0.3244444444444444,-0.31555555555555553,-0.6,0.16865573759713876,-0.25,0.03339617493524082
1589995401.3980913,-4.095686841724632,-0.78,8.915686841724632,0.3244444444444444,-0.31555555555555553,-0.6,0.2720641411684265,-0.25,-0.035542760778950966
1589995401.4080913,-4.1,-0.7700773085738705,8.890231925721611,0.3299570507922942,-0.30894042793813586,-0.6,0.06443271434676195,-0.3120168214133095,0.12355046423992852
1589995401.4180913,-4.092405068342812,-0.7824050683428115,8.830759453257507,0.33,-0.3088888888888889,-0.6,0.25237329142971165,-0.2650316771425721,-0.047468322857427914
1589995401.4280913,-4.099201473190403,-0.7876044195712111,8.775589687667173,0.33,-0.3088888888888889,-0.6,0.08246317023990782,-0.307509207440023,-0.004990792559976955
1589995401.4380913,-4.090571581416403,-0.7617147442492078,8.835998930085182,0.33,-0.3088888888888889,-0.6,0.29821046458993455,-0.25357238385251635,-0.05892761614748364
1589995401.4480913,-4.097916006339144,-0.7641679873217115,8.882083993660856,0.33,-0.31097288254974464,-0.6,0.25,-0.19401248019017434,0.11848751980982568
1589995401.4580913,-4.080423721744933,-0.7991525565101343,8.899576278255067,0.33,-0.328465167143956,-0.6,0.25,-0.24867586954708482,0.06382413045291517
1589995401.4680912,-4.09,-0.7839255333984103,8.904670199414307,0.33,-0.3288888888888889,-0.6,0.1384308325198717,-0.1384308325198717,-0.10046541625993585
1589995401.4780912,-4.099595507891542,-0.7836029947389721,8.86599251315257,0.33,-0.3288888888888889,-0.6,0.10248128288142452,-0.0625,-0.10248128288142452
1589995401.4880912,-4.116728393849537,-0.7732716061504625,8.901635803075232,0.33,-0.3288888888888889,-0.6,0.1977237692201952,-0.04205246155960961,-0.1670524615596096
1589995401.4980912,-4.100255287394694,-0.7897447126053061,8.909872356302653,0.33,-0.3288888888888889,-0.6,0.24920222689158142,0.060904453783162824,-0.06409554621683718
1589995401.5080912,-4.09,-0.7822601835056268,8.901918531954987,0.3377777777777778,-0.3211111111111111,-0.5788888888888889,0.20162614691016678,-0.2983738530898332,-0.07662614691016678
1589995401.5180912,-4.09,-0.7896467252522762,8.84282619798179,0.3377777777777778,-0.3211111111111111,-0.5788888888888889,0.2477920328267263,-0.2522079671732737,-0.12279203282672631
1589995401.5280912,-4.106648670067859,-0.7866756649660707,8.789946010203575,0.3377777777777778,-0.3211111111111111,-0.5788888888888889,0.18733128188617565,-0.29172290603794143,-0.041554187924117095
1589995401.5380912,-4.111630867736292,-0.7772102892454306,8.838369132263708,0.3377777777777778,-0.3211111111111111,-0.5788888888888889,0.24275723113576295,-0.2151286155678815,-0.10756430778394074
1589995401.5480912,-4.089354741292531,-0.77,8.861290517414938,0.33727590989419054,-0.3211111111111111,-0.5788888888888889,0.04636853231326757,-0.125,-0.054434266156633784
1589995401.5580912,-4.080910408697403,-0.77,8.878179182605194,0.3307080956535356,-0.3211111111111111,-0.5788888888888889,-0.16473978256492852,-0.125,0.05111989128246426
1589995401.5680912,-4.09,-0.78,8.900172127139363,0.33,-0.3211111111111111,-0.5788888888888889,-0.42200947432762836,0.39049052567237164,0.01602842298288508
1589995401.5780911,-4.092239359038557,-0.7844787180771157,8.864632949424136,0.33,-0.3211111111111111,-0.5788888888888889,-0.34700801201802706,0.4235040060090135,-0.06901602403605409
1589995401.5880911,-4.102886672383445,-0.8007216680958614,8.952165004287583,0.33,-0.3211111111111111,-0.5788888888888889,-0.2409791488017331,0.3659791488017331,0.12048957440086655
1589995401.5980911,-4.139017884711303,-0.8094107308267819,8.979214307769043,0.33,-0.3211111111111111,-0.5789980128098552,-0.1188617794456452,0.24263413533477424,0.060044711778258084
1589995401.608091,-4.089765561843169,-0.78,8.939296685529506,0.33,-0.3211111111111111,-0.5844444444444444,0.18896523848019403,-0.12206952303961197,-0.06103476151980598
1589995401.618091,-4.084175772321758,-0.78,8.880769593747695,0.33,-0.3211111111111111,-0.5844444444444444,0.2369507114945071,-0.06524644252746442,0.0
1589995401.628091,-4.096545602005456,-0.78,8.794180785961807,0.33,-0.3211111111111111,-0.5844444444444444,0.19829499373294993,-0.2585250313352503,0.0
1589995401.638091,-4.09857075120233,-0.7778561268034953,8.793573121994173,0.33,-0.3211111111111111,-0.5844444444444444,0.16963439002912686,-0.04463439002912687,-0.12053359750728172
1589995401.648091,-4.081032298723807,-0.7510322987238065,8.841806522766662,0.3302007247518513,-0.3207956865010591,-0.5843010696216935,-0.06895186702379076,0.1891129667559477,-0.057661099732156926
1589995401.658091,-4.12,-0.7919891047495355,8.91397820949907,0.3377777777777778,-0.3088888888888889,-0.5788888888888889,-0.32493190468459693,0.2997276187383877,0.10013619063080614
1589995401.668091,-4.12,-0.7995549903494057,8.929109980698811,0.3377777777777778,-0.3088888888888889,-0.5788888888888889,-0.3722186896837852,0.4888747587351408,0.005562620632429599
1589995401.678091,-4.106095849056604,-0.8,8.837808301886792,0.3377777777777778,-0.3088888888888889,-0.5788888888888889,0.09910141509433962,0.025898584905660375,0.05029952830188679
1589995401.688091,-4.090268301886792,-0.8,8.869463396226415,0.3377777777777778,-0.3088888888888889,-0.5788888888888889,0.24748466981132075,-0.12248466981132075,0.000838443396226414
1589995401.698091,-4.119373797820047,-0.7804174681199687,8.918956329700078,0.3377777777777778,-0.3088888888888889,-0.5788888888888889,0.31119541212509794,-0.002609175749804099,0.06119541212509795
1589995401.708091,-4.111388667533448,-0.7627773350668959,8.92,0.3310800747482373,-0.3146297771999236,-0.5913274802294641,0.09721668833619929,0.0,-0.09896248374785052
1589995401.718091,-4.08221774787605,-0.7522177478760497,8.863387025487404,0.33,-0.31555555555555553,-0.5933333333333334,-0.24294369690124246,0.5,-0.03477815154937877
1589995401.728091,-4.0970378593664165,-0.7646919062442776,8.781729765610693,0.33,-0.31555555555555553,-0.5933333333333334,-0.5108110350668376,0.529324414026735,0.018513378959897457
1589995401.738091,-4.116863381528474,-0.7862732369430511,8.829409855414577,0.33,-0.31555555555555553,-0.5933333333333334,-0.710792269105931,0.625,-0.11519806727648274
1589995401.748091,-4.101393110061965,-0.8172137798760696,8.875820669814106,0.33,-0.31555555555555553,-0.5933333333333334,-0.5174138757745648,0.625,-0.06685346894364119
1589995401.758091,-4.115279351416275,-0.8152793514162746,8.902919027124412,0.33,-0.3211111111111111,-0.5788888888888889,-0.2682439195275748,0.5,0.11024797317585827
1589995401.768091,-4.101111928441123,-0.7977761431177545,8.872216500912142,0.33,-0.3211111111111111,-0.5788888888888889,-0.1180504472429824,0.5069495527570176,0.0555504472429824
1589995401.778091,-4.107615167340636,-0.78,8.826693828615554,0.33,-0.3211111111111111,-0.5788888888888889,-0.017784387636910447,0.5326895917579403,0.0
1589995401.788091,-4.099077069261118,-0.78,8.880922930738883,0.33,-0.3211111111111111,-0.5788888888888889,0.11923168288198963,0.4778782198260726,-0.00576831711801037
1589995401.798091,-4.090413129247485,-0.78,8.889586870752515,0.33,-0.3211111111111111,-0.5788888888888889,0.06508205779678172,0.8569255954225279,-0.059917942203218284
1589995401.808091,-4.13,-0.7882513717776167,8.913005487110468,0.33,-0.3211111111111111,-0.5722222222222222,0.11407107361010457,0.5812842944404183,0.010928926389895434
1589995401.818091,-4.13,-0.7810140801325189,8.884056320530076,0.33,-0.3211111111111111,-0.5722222222222222,0.0688380008282431,0.4003520033129724,0.05616199917175691
1589995401.828091,-4.1116778703152885,-0.7816778703152886,8.760134443783462,0.33,-0.3211111111111111,-0.5722222222222222,-0.05243344735276621,0.17743344735276623,0.0625
1589995401.838091,-4.117915675193338,-0.7879156751933374,8.834988102320047,0.33,-0.3211111111111111,-0.5722222222222222,-0.2473648497917906,0.37236484979179063,0.0625
1589995401.848091,-4.129173865913346,-0.79,8.942564793220116,0.33,-0.3211111111111111,-0.5722222222222222,-0.08315335216634367,0.4375,0.0625
1589995401.8580909,-4.087511099616362,-0.7815022199232726,8.941502219923272,0.33,-0.31639012217959583,-0.5901619801619802,-0.0625,0.4375,0.48738900383637224
1589995401.8680909,-4.038041712250646,-0.77,8.926825027350388,0.33,-0.31555555555555553,-0.5933333333333334,0.00914928656223086,0.5533507134377691,1.7180378715579248
1589995401.8780909,-3.889499958329861,-0.7685357113092758,8.85,0.33,-0.31555555555555553,-0.5933333333333334,0.05334819568297358,0.4725445870489208,2.7897324777064756
1589995401.8880908,-3.7400034382640586,-0.7535721653422983,8.862855669315403,0.33,-0.31555555555555553,-0.5933333333333334,0.0,0.25893471118581907,3.977652477460269
1589995401.8980908,-3.620566415371272,-0.7278437520848622,8.909191407031823,0.3296705732351873,-0.31570529499410677,-0.5930937502316515,-0.0033691373674027618,0.06081543131629862,4.822607412102208
1589995401.9080908,-3.28,-0.65,8.88,0.31777777777777777,-0.3211111111111111,-0.5844444444444444,-0.125,0.0,5.1875
1589995401.9180908,-3.199108628832746,-0.6050603493515256,8.848542244546069,0.31777777777777777,-0.3211111111111111,-0.5844444444444444,-0.3777855348976685,-0.056174563310593,4.710016211859959
1589995401.9280908,-2.8218701350675337,-0.5936282141070536,8.788185892946473,0.31777777777777777,-0.3211111111111111,-0.5844444444444444,-0.9942608804402202,-0.7726063031515757,2.591195597798899
1589995401.9380908,-2.252951894488069,-0.9084310436837691,8.931196920027446,0.31777777777777777,-0.3211111111111111,-0.5844444444444444,0.03224822749104228,-0.21343009072196395,-0.7482560798963176
1589995401.9480908,-2.2264980293933476,-0.7912711333750783,8.726238719658182,0.31777777777777777,-0.3211111111111111,-0.5844444444444444,1.7062253674168477,1.3535178551696194,-2.8268479041585324
1589995401.9580908,-2.2888308233913555,-0.7671390573049091,8.836093878349304,0.32366499337201465,-0.3279795293043875,-0.5981812808309972,0.05690885976921578,0.013064736945042066,-5.9357837864267555
1589995401.9680908,-2.2294289490563473,-1.0601411106143948,9.256140449765788,0.3244444444444444,-0.3288888888888889,-0.6,-0.060715465801084556,0.5544592703453906,-8.000881941339967
1589995401.9780908,-2.2834873024738,-0.93686142777358,8.77418476296856,0.3244444444444444,-0.3288888888888889,-0.6,4.535637874108874,4.053074386477874,-11.206351227044252
1589995401.9880908,-2.3523841124872695,-0.8748542987614573,8.856860934984724,0.3244444444444444,-0.3288888888888889,-0.6,2.7701571175137163,2.632077679950064,-14.048344640099872
1589995401.9980907,-2.448495502861815,-0.8756858135731806,9.121172322158626,0.3244444444444444,-0.3288888888888889,-0.6,-0.4525692457072772,-0.1314965760425184,-19.147396259198693
1589995402.0080907,-2.5308861211780918,-0.8891138788219081,9.170948394671022,0.31777777777777777,-0.33555555555555555,-0.5844444444444444,0.5719973457199734,1.319228217038436,-23.32872556275841
1589995402.0180907,-2.5510024967675777,-0.8720049935351554,8.761002496767578,0.31777777777777777,-0.33555555555555555,-0.5844444444444444,2.0059535088501494,2.781171976013197,-26.769733102233715
1589995402.0280907,-2.5612552566849165,-0.8904184188949721,8.771255256684915,0.31777777777777777,-0.33555555555555555,-0.5844444444444444,0.924424409532122,2.4843092914385463,-30.464176849427385
1589995402.0380907,-2.592306698950767,-0.9023066989507668,8.791926553672317,0.31777777777777777,-0.33555555555555555,-0.5844444444444444,0.7187096448748991,2.211501210653753,-34.34838075060533
1589995402.0480907,-2.609232849071832,-0.9192328490718321,8.732685028248587,0.31777777777777777,-0.33555555555555555,-0.5844444444444444,1.4063344935431799,2.8462318401937043,-37.363351240920096
1589995402.0580907,-2.614452505142521,-0.9414841683808404,8.814841683808405,0.3388888888888889,-0.3211111111111111,-0.5866666666666667,1.6943436857184837,2.8564478952394947,-41.413011038054655
1589995402.0680907,-2.6375624449015573,-0.9491874816338525,8.891874816338525,0.3388888888888889,-0.3211111111111111,-0.5866666666666667,1.405469438730532,2.760156479576844,-44.205462092271524
1589995402.0780907,-2.680097530357531,-0.9600975303575308,8.780682712502715,0.3388888888888889,-0.3211111111111111,-0.5866666666666667,1.8125,3.0637191294691357,-47.89145824783333
1589995402.0880907,-2.700883702902838,-0.9802945676342791,8.920883702902838,0.3388888888888889,-0.3211111111111111,-0.5866666666666667,1.814341047714245,3.3180231431427347,-51.29878776442749
1589995402.0980906,-2.752220476938455,-0.9974068256461517,8.972220476938455,0.3388888888888889,-0.3211111111111111,-0.5866666666666667,1.9212926602884477,3.6388779808653435,-54.133005497643865
1589995402.1080906,-2.76,-1.0,8.994622891541512,0.35351178043040066,-0.3267977911550323,-0.5915409638471706,2.0745896082016726,3.915982680336121,-56.93871987549566
1589995402.1180906,-2.720178409494145,-1.0341327918621614,8.994311201356307,0.3588888888888889,-0.3288888888888889,-0.5933333333333334,2.125,3.9288900169538303,-59.48358460158499
1589995402.1280906,-2.719913198971799,-1.1123480982006482,8.840434005141004,0.3588888888888889,-0.3288888888888889,-0.5933333333333334,1.9847818798196923,4.248914987147487,-62.993489922884926
1589995402.1380906,-2.711141968689685,-1.13,8.745997926942598,0.3588888888888889,-0.3288888888888889,-0.5933333333333334,2.094650260919294,4.61072539137894,-65.36079017442276
1589995402.1480906,-2.7204092589615816,-1.1572123452821088,8.733606172641055,0.3588888888888889,-0.3288888888888889,-0.5933333333333334,2.1024614209934094,4.83503857900659,-67.97075229062851
1589995402.1580906,-2.84,-1.23,8.81547651190546,0.37666666666666665,-0.2888888888888889,-0.6,2.1363087202363484,4.954463080354523,-71.28897644342705
1589995402.1680906,-2.84,-1.23,8.77444522705484,0.37666666666666665,-0.2888888888888889,-0.6,2.2388869323628966,5.108330398544345,-72.776360519262
1589995402.1780906,-2.8681972857501887,-1.286394571500377,8.760600904749937,0.37666666666666665,-0.2888888888888889,-0.6,2.5437217265644634,5.007511309374214,-74.75857470469967
1589995402.1880906,-2.87,-1.2802932731244019,8.827947088129187,0.37666666666666665,-0.2888888888888889,-0.6,2.6838340859449774,5.364002257834932,-76.69501128917466
1589995402.1980906,-2.8776997789157424,-1.3338984524101964,8.876198673494454,0.37666666666666665,-0.2888888888888889,-0.6,2.9762417093403375,5.423123618223389,-77.85684321913796
1589995402.2080905,-2.9073481215861237,-1.393712629779427,8.93893924863445,0.4155555555555556,-0.2855555555555556,-0.5933333333333334,2.9308703039653086,5.621685151982654,-79.83618604845098
1589995402.2180905,-2.863626527123379,-1.4549228620272694,8.921450610849352,0.4155555555555556,-0.2855555555555556,-0.5933333333333334,2.821566317808448,5.5670331589042235,-81.25713786849018
1589995402.2280905,-2.879029808286951,-1.46,8.83436586270872,0.4155555555555556,-0.2855555555555556,-0.5933333333333334,2.574627396413111,5.5625,-82.74276747062461
1589995402.2380905,-2.840185222067317,-1.5197221668990242,8.780231527584146,0.4155555555555556,-0.2855555555555556,-0.5933333333333334,2.500289409480183,5.6247105905198165,-84.42997535351523
1589995402.2480905,-2.8560551358209816,-1.5521102716419632,8.755917296268528,0.4155555555555556,-0.2855555555555556,-0.5933333333333334,2.5,5.775516898321703,-85.49111828825191
1589995402.2580905,-2.8462698533076205,-1.5805952200385691,8.756865073346189,0.42547177261116287,-0.2710626229358218,-0.6078262659530671,2.585813416827371,6.027033542068428,-86.69394758510109
1589995402.2680905,-2.852014868262818,-1.6440669071826828,8.753992565868591,0.43,-0.2644444444444444,-0.6144444444444445,2.6625464633213074,6.049907073357385,-87.76328987646222
1589995402.2780905,-2.866345417035072,-1.6926908340701443,8.730963748894784,0.43,-0.2644444444444444,-0.6144444444444445,3.0047708517536105,6.0,-88.78238284703802
1589995402.2880905,-2.8789224803757762,-1.7,8.782457362630433,0.43,-0.2644444444444444,-0.6144444444444445,3.5220930140916114,6.334593014091611,-90.18454454462344
1589995402.2980905,-2.863844928083197,-1.7403876797920073,8.822310143833606,0.43,-0.2644444444444444,-0.6144444444444445,3.512015400259991,6.32451540025999,-91.4231611942802
1589995402.3080904,-2.8697079383886255,-1.8276635071090048,8.907663507109005,0.47961835176408635,-0.23316330963665088,-0.6004218667719853,3.2573015402843604,6.1304761552132705,-92.77964306872038
1589995402.3180904,-2.827085228106205,-1.855748863136277,8.884251136863723,0.4811111111111111,-0.23222222222222225,-0.6,3.3572869297344874,6.339573859468975,-93.61715197300866
1589995402.3280904,-2.82,-1.9048889928547124,8.76777751786322,0.4811111111111111,-0.23222222222222225,-0.6,3.328240632443008,6.468518735113984,-94.35787177824089
1589995402.3380904,-2.7838893887589227,-1.947082958430808,8.793193569671885,0.4811111111111111,-0.23222222222222225,-0.6,2.9739630196149003,6.612845660128366,-94.95745981044928
1589995402.3480904,-2.78,-1.9647761678407116,8.777835748238932,0.4811111111111111,-0.23222222222222225,-0.6,2.845148950995552,6.578824475497776,-95.27705314701335
1589995402.3580904,-2.760455739972337,-2.0188606500691564,8.730911479944675,0.514770670047641,-0.19204790994313817,-0.6217158444751806,2.8735758125864455,6.745727437759336,-95.68037906293223
1589995402.3680904,-2.774536363796412,-2.05634090949103,8.759072727592823,0.5155555555555555,-0.19111111111111112,-0.6222222222222222,2.875,6.840852273727576,-95.64207386313622
1589995402.3780904,-2.763499734632075,-2.111250663419812,8.7039989385283,0.5155555555555555,-0.19111111111111112,-0.6222222222222222,3.2359433049233557,6.46249336580188,-95.625
1589995402.3880904,-2.768612737313645,-2.1802891611955157,8.715838211940936,0.5155555555555555,-0.19111111111111112,-0.6222222222222222,3.3663296082102816,6.536488824630846,-95.57117039178972
1589995402.3980904,-2.7626549302940875,-2.1973450697059125,8.771415487941386,0.5155555555555555,-0.19111111111111112,-0.6222222222222222,3.558626742647807,6.746126742647807,-95.47068662867609
1589995402.4080904,-2.7189643338934513,-2.2752320545286726,8.8173571107377,0.5246745924681219,-0.15235520423270407,-0.6465396539890659,3.5395090289446904,6.641518057889381,-95.4375
1589995402.4180903,-2.69092933972142,-2.30092933972142,8.81185867944284,0.5288888888888889,-0.13444444444444445,-0.6577777777777778,3.386616746517752,6.675883253482247,-95.6642665069645
1589995402.4280903,-2.6655091023226616,-2.3489817953546765,8.744690939527098,0.5288888888888889,-0.13444444444444445,-0.6577777777777778,3.2729545930110904,6.6875,-95.94261351747228
1589995402.4380903,-2.6421178056341827,-2.395764388731635,8.756823291548725,0.5288888888888889,-0.13444444444444445,-0.6577777777777778,3.19411814260682,6.79926371478636,-96.50293671653861
1589995402.4480903,-2.6031787450843646,-2.444185505898762,8.73790724705062,0.5288888888888889,-0.13444444444444445,-0.6577777777777778,3.049420294066368,6.858526568644544,-96.97673911780089
1589995402.4580903,-2.5991236034643745,-2.5147416207862454,8.757370810393123,0.5582871667185393,-0.11011483520611309,-0.6912309904804833,2.8289324350429825,6.989045043304678,-98.03736034643742
1589995402.4680903,-2.5506115681665547,-2.52,8.727074378777704,0.5611111111111111,-0.10777777777777778,-0.6944444444444444,2.9668388494795166,7.154338849479516,-98.94814053055742
1589995402.4780903,-2.54,-2.5337332513829134,8.665066994468347,0.5611111111111111,-0.10777777777777778,-0.6944444444444444,3.214582052858021,7.144583589428396,-99.85457897971727
1589995402.4880903,-2.531637955379836,-2.615258401581474,8.70689635696131,0.5611111111111111,-0.10777777777777778,-0.6944444444444444,3.5738138943801188,7.177262778876024,-101.44180669302457
1589995402.4980903,-2.53,-2.6669935816256043,8.741139189500345,0.5611111111111111,-0.10777777777777778,-0.6944444444444444,3.558940032811421,7.385679901565738,-102.28203970469721
1589995402.5080903,-2.5069984545340627,-2.707667181821979,8.76,0.5611111111111111,-0.08051668685518566,-0.6910368080791204,3.5958397727747378,7.5864599431936846,-103.29169886387369
1589995402.5180902,-2.4753019662921347,-2.7677176966292136,8.754698033707864,0.5611111111111111,-0.03666666666666667,-0.6855555555555556,3.5843135533707864,7.691274578651686,-104.36073560393258
1589995402.5280902,-2.465695634761714,-2.81,8.692782539046856,0.5611111111111111,-0.03666666666666667,-0.6855555555555556,3.3033965758910693,7.973505706848218,-105.20611483780537
1589995402.5380902,-2.4187239891927765,-2.8512760108072235,8.67,0.5611111111111111,-0.03666666666666667,-0.6855555555555556,3.25,8.11409501350903,-106.15983018912641
1589995402.5480902,-2.3960501421973013,-2.846050142197301,8.704874644506747,0.5611111111111111,-0.03666666666666667,-0.6855555555555556,3.1192200830996994,8.037813388733133,-106.61765313943404
1589995402.5580902,-2.3729404440317405,-2.879805630592605,8.73705955596826,0.5655339589547339,-0.010761415011161759,-0.7108289718048286,2.920337033597839,8.0,-106.96324444960324
1589995402.5680902,-2.3046262507357267,-2.91,8.71044732195409,0.5688888888888889,0.008888888888888889,-0.73,2.8125,8.197763390229547,-107.22388169511477
1589995402.5780902,-2.249351880912882,-2.9262592476348477,8.594314890373493,0.5688888888888889,0.008888888888888889,-0.73,3.0665507442944895,8.351620297717796,-107.1991898511411
1589995402.5880902,-2.2315907498248073,-3.02250175192712,8.654092501751927,0.5688888888888889,0.008888888888888889,-0.73,2.809653118430273,8.322442186405045,-107.02982655921514
1589995402.5980902,-2.1952436761402483,-3.060853794315851,8.67,0.5688888888888889,0.008888888888888889,-0.73,2.92378161929876,8.573172428948139,-106.52210054692841
1589995402.6080902,-2.160135023006714,-3.1792573734630762,8.72959493097986,0.5876502560492151,0.013303328220730349,-0.73,3.0,8.6875,-105.31925115033567
1589995402.6180902,-2.16,-3.18,8.73,0.5877777777777777,0.013333333333333334,-0.73,3.0,8.6875,-105.3125
1589995402.6280901,-2.142183609306225,-3.2503135610983023,8.70155648710962,0.5877777777777777,0.013333333333333334,-0.73,2.519526828757074,8.62695975686439,-103.56634877384197
1589995402.6380901,-2.085739233387598,-3.262130383306201,8.613608850081397,0.5877777777777777,0.013333333333333334,-0.73,2.31453723915939,8.577852134823146,-101.8360010914607
1589995402.6480901,-2.0971902000434515,-3.2628097999565484,8.65,0.5877777777777777,0.013333333333333334,-0.73,1.8581291675719036,8.3125,-100.09194875244414
1589995402.65809,-2.0598692810457515,-3.2828758169934638,8.661503267973856,0.5861801016702977,0.013333333333333334,-0.7424618736383443,1.4640522875816993,8.3125,-98.60375816993464
1589995402.66809,-2.0145082996507475,-3.321558097555233,8.658441902444766,0.5822222222222222,0.013333333333333334,-0.7733333333333333,1.3468231271828277,8.227969381548483,-96.46719381548483
1589995402.67809,-2.009363518560866,-3.36,8.545544629926061,0.5822222222222222,0.013333333333333334,-0.7733333333333333,1.179543982010824,8.158239004497293,-94.30737384709201
1589995402.68809,-2.005612239105342,-3.388061195526709,8.564183586580128,0.5822222222222222,0.013333333333333334,-0.7733333333333333,0.8169645391412947,7.626276089465817,-92.04974620129809
1589995402.69809,-1.9791377324337665,-3.446005978827272,8.619712577477923,0.5822222222222222,0.013333333333333334,-0.7733333333333333,0.7214445861444791,6.994610827711042,-89.7122757939773
1589995402.70809,-1.925693511182429,-3.4508322134189147,8.63430648881757,0.6065287110397932,0.01603405431306344,-0.7862967940360378,1.0555648881757096,6.782116888978036,-87.07026000401163
1589995402.71809,-1.9061819283496175,-3.506546996894645,8.715637355146558,0.6322222222222222,0.01888888888888889,-0.8,1.1965888434446716,6.324992425963796,-83.77042149511475
1589995402.72809,-1.9210270476058628,-3.59859466662052,8.656270095350166,0.6322222222222222,0.01888888888888889,-0.8,1.5729738089881806,6.028040476231679,-80.8675642878156
1589995402.73809,-1.893480144404332,-3.636086642599278,8.616519855595667,0.6322222222222222,0.01888888888888889,-0.8,1.709250902527076,5.619584837545126,-77.57346570397112
1589995402.74809,-1.8394026531559406,-3.603283183787129,8.658358408106436,0.6322222222222222,0.01888888888888889,-0.8,1.5625,5.336753316444926,-74.27143240447091
1589995402.75809,-1.7979527664863775,-3.5946981556757485,8.684698155675749,0.5562817512308559,-0.008874294054191257,-0.724876093212842,1.286909581079719,4.945046108106292,-70.82464012161118
1589995402.76809,-1.79,-3.6127335277840102,8.619965597187944,0.5288888888888889,-0.01888888888888889,-0.6977777777777778,1.3466690973001272,4.454369531074714,-67.91371718644828
1589995402.77809,-1.7773377207784904,-3.6579868376645295,8.573668860389246,0.5288888888888889,-0.01888888888888889,-0.6977777777777778,1.358360754865564,4.2104303774327825,-64.47160113623579
1589995402.78809,-1.747649849184047,-3.702350150815953,8.584900100543969,0.5288888888888889,-0.01888888888888889,-0.6977777777777778,1.4987512567996082,4.001248743200392,-60.71967084740519
1589995402.79809,-1.7265391830220902,-3.7144869389926365,8.621408572948456,0.5288888888888889,-0.01888888888888889,-0.6977777777777778,1.6466301061119355,3.9094566312960217,-58.33261472128118
1589995402.80809,-1.7040767866779738,-3.72,8.66394880888135,0.5273532409905858,-0.009016866685512126,-0.6880154447099941,1.737659972245779,3.850319944491558,-56.10431925063603
1589995402.81809,-1.646562783549062,-3.72,8.696562783549062,0.5133333333333333,0.0811111111111111,-0.5988888888888889,1.625,3.582034794363276,-51.85947424217173
1589995402.82809,-1.64,-3.73446013566107,8.649029615626969,0.5133333333333333,0.0811111111111111,-0.5988888888888889,1.5948747173727713,3.4096241521183144,-48.76418001037844
1589995402.83809,-1.6139205442838052,-3.7669602721419024,9.211105576479163,0.5133333333333333,0.0811111111111111,-0.5988888888888889,1.2826712023650426,2.717508504434455,-45.00035941359899
1589995402.84809,-1.244852936490233,-3.119923520601638,8.93028233644562,0.5133333333333333,0.0811111111111111,-0.5988888888888889,1.3630759854689143,2.6902205952646505,-41.89476713616519
1589995402.85809,-1.0890166812993853,-2.8676265730172665,7.839338601112087,0.5287890612297987,0.11042369850095925,-0.5844990732611453,4.780399473222125,9.098405033655254,-37.15455809189348
1589995402.86809,-1.292938482437415,-3.2503101106151755,7.255983698816224,0.5455555555555556,0.14222222222222222,-0.5688888888888889,8.444585678245682,1.8521856200271678,-35.037366582573256
1589995402.87809,-1.2611577531113354,-3.157026067944837,7.653755970400269,0.5455555555555556,0.14222222222222222,-0.5688888888888889,-4.969480533131517,-6.577966279852001,-35.78305898923646
1589995402.88809,-1.4074282306163022,-3.4836389662027836,8.687565009940357,0.5455555555555556,0.14222222222222222,-0.5688888888888889,-7.24948310139165,-3.3193389662027832,-32.973066600397615
1589995402.89809,-1.4589838950689025,-3.5605746720903206,8.227084924456252,0.5455555555555556,0.14222222222222222,-0.5688888888888889,4.097931886103271,3.470259837290387,-27.29971178191931
1589995402.9080899,-1.5356937942026099,-3.738299631437394,9.255237573463493,0.5455555555555556,0.19552080220473486,-0.5887629356620292,0.1055384002390678,0.14059542783145762,-25.12092837932065
1589995402.9180899,-1.56,-3.8,9.56,0.5455555555555556,0.20777777777777776,-0.5933333333333334,-1.25,-1.25,-25.0625
1589995402.9280899,-1.5673105160872383,-3.8511736126106673,9.143300583027424,0.5455555555555556,0.20777777777777776,-0.5933333333333334,1.537134258259555,1.080227002807169,-20.584808896566617
1589995402.9380898,-1.397544490382887,-3.5969454431062378,8.558861225957218,0.5455555555555556,0.20777777777777776,-0.5933333333333334,1.260101620079094,0.32072959733956496,-17.455460464227933
1589995402.9480898,-1.3921130864406064,-3.645282716101516,8.501803555593092,0.5455555555555556,0.20777777777777776,-0.5933333333333334,1.409951543431443,-0.0019345677969680453,-15.205710801908703
1589995402.9580898,-1.4365963938211204,-3.7268072123577594,8.642560332032323,0.558015410551005,0.2297657571815122,-0.5838052089250484,1.771272538617998,0.35240984552800836,-12.249809315045901
1589995402.9680898,-1.4802523716581182,-3.760252371658118,8.814174572193728,0.5644444444444444,0.2411111111111111,-0.5788888888888889,1.0371975852208253,-0.2753024147791747,-9.824395170441651
1589995402.9780898,-1.4292970326791772,-3.6268102374715507,8.449890282131662,0.5644444444444444,0.2411111111111111,-0.5788888888888889,1.0557446214626185,-0.2567553785373814,-7.431074741271955
1589995402.9880898,-1.3677127774186597,-3.53843083387201,8.18686166774402,0.5644444444444444,0.2411111111111111,-0.5788888888888889,1.0437170060331824,-0.23038542340012927,-4.9060850301659125
1589995402.9980898,-1.4115661166280893,-3.7201681848726946,8.612215709699097,0.5644444444444444,0.2411111111111111,-0.5788888888888889,0.9072288228925558,-0.3427711771074442,-3.1600929590084372
1589995403.0080898,-1.437408906882591,-3.8272874493927125,8.820566801619433,0.5719748088169141,0.2478047683310841,-0.5809806567701304,0.7963056680161943,-0.43016194331983804,-1.7241902834008096
1589995403.0180898,-1.4207875180739096,-3.776378156629342,8.649134469888025,0.5844444444444444,0.2588888888888889,-0.5844444444444444,0.6274609939809678,-0.5600390060190322,-0.29527304213322575
1589995403.0280898,-1.4354068550931613,-3.7594754060247766,8.56627420372646,0.5844444444444444,0.2588888888888889,-0.5844444444444444,0.5726713773290378,-0.5574143113354811,0.5556073350161082
1589995403.0380898,-1.4520385157350868,-3.7477501174260217,8.55201972757163,0.5844444444444444,0.2588888888888889,-0.5844444444444444,0.46045678722404887,-0.6020432127759512,1.2461542977923907
1589995403.0480897,-1.4606283587474602,-3.7565708968686504,8.684607964148041,0.5844444444444444,0.2588888888888889,-0.5844444444444444,0.591786378914187,-0.654286378914187,1.746072757828374
1589995403.0580897,-1.43,-3.6887983409276788,8.530386727421428,0.5795564772624009,0.2588888888888889,-0.594709175526736,0.6600051846010048,-0.75,2.074974076994976
1589995403.0680897,-1.43,-3.772669627895843,8.68661382557119,0.5733333333333334,0.2588888888888889,-0.6077777777777778,0.776395058116339,-0.7121512354709152,2.590638880761763
1589995403.0780897,-1.43,-3.7628229339956416,8.67917594132946,0.5733333333333334,0.2588888888888889,-0.6077777777777778,0.3191118582909628,-0.7272062958363598,3.0904440708545184
1589995403.0880897,-1.4359253768223375,-3.7892537682233756,8.590746231776626,0.5733333333333334,0.2588888888888889,-0.6077777777777778,0.2222016308376575,-0.8611008154188288,3.435168025698048
1589995403.0980897,-1.44,-3.8250599759266177,8.574700120366911,0.5733333333333334,0.2588888888888889,-0.6077777777777778,0.43675030091727884,-0.7522490972481634,3.8712515045863944
1589995403.1080897,-1.4564408313568842,-3.8364408313568843,8.75344775933092,0.5976901205287175,0.2686316037670426,-0.6077777777777778,0.12323094807140184,-0.5625,4.050493072025964
1589995403.1180897,-1.450747838279972,-3.760156578639869,8.636139284879645,0.6177777777777778,0.2766666666666667,-0.6077777777777778,0.05315202150035053,-0.6427173405001169,3.8572826594998832
1589995403.1280897,-1.4455203385260014,-3.759683046734012,8.505520338526,0.6177777777777778,0.2766666666666667,-0.6077777777777778,0.04949153684996577,-0.6875,3.5709851894874403
1589995403.1380897,-1.4224056092003905,-3.777924487360312,8.532075512639688,0.6177777777777778,0.2766666666666667,-0.6077777777777778,0.1789509194965824,-0.7219929884995118,3.099056092003906
1589995403.1480896,-1.4428581062096093,-3.8314301770160157,8.673812306827761,0.6177777777777778,0.2766666666666667,-0.6077777777777778,0.07737426243326778,-0.630949704973307,2.696424557459961
1589995403.1580896,-1.471650533223954,-3.8411894995898277,8.78247579983593,0.6993309634490931,0.29246759639048403,-0.6240884149120408,-0.020631665299425728,-0.6720262510254307,1.9265791632485643
1589995403.1680896,-1.438750276291941,-3.810623756686265,8.699376243313734,0.7955555555555556,0.3111111111111111,-0.6433333333333333,0.25,-0.875,1.25
1589995403.1780896,-1.4263504695996045,-3.8427009391992093,8.608906574394464,0.7955555555555556,0.3111111111111111,-0.6433333333333333,0.13595217498764212,-0.7609521749876421,1.295619130004943
1589995403.1880896,-1.422418340145726,-3.836045850364315,8.53209170072863,0.7955555555555556,0.3111111111111111,-0.6433333333333333,-0.07005731295539364,-0.5700573129553936,1.4279011906877555
1589995403.1980896,-1.4427184128638897,-3.8718447614083304,8.617281587136109,0.7955555555555556,0.3111111111111111,-0.6433333333333333,-0.09101983920137738,-0.6080099196006887,1.9993908843924244
1589995403.2080896,-1.4493435372537868,-3.851969388238639,8.610656462746212,0.7955555555555556,0.3111111111111111,-0.6433333333333333,-0.008205784327662724,-0.5666028921638313,2.4548681861978547
1589995403.2180896,-1.4389260102568466,-3.895083523077905,8.726778030770541,1.4433333333333334,0.4222222222222222,-1.1266666666666667,-0.26730310897367693,-0.5346062179473539,3.8499404166578
1589995403.2280896,-1.4158973884052601,-3.853589553621041,8.6105130579737,1.4433333333333334,0.4222222222222222,-1.1266666666666667,-0.3125,-0.5881413224671236,4.677081403963697
1589995403.2380896,-1.4352868682206323,-3.9152868682206323,8.555860604661897,1.4433333333333334,0.4222222222222222,-1.1266666666666667,-0.27945707362104777,-0.6652146318947612,5.514343411031618
1589995403.2480896,-1.4443106659989984,-3.9415533299949925,8.604485327991988,1.4433333333333334,0.4222222222222222,-1.1266666666666667,-0.14223335002503756,-0.8394416624937406,5.803883324987481
1589995403.2580895,-1.4471263928685132,-3.967126392868513,8.670115249920409,1.3140210124164278,0.23575704835685735,-1.0637665994552337,0.05388013371537727,-0.8570399554282075,5.749279687997453
1589995403.2680895,-1.44,-3.938583808688021,8.735297279508556,0.9933333333333332,-0.22666666666666666,-0.9077777777777778,0.14925680122860904,-0.7933784006143045,5.112432810443177
1589995403.2780895,-1.4252807692307692,-3.850748717948718,8.622807692307692,0.9933333333333332,-0.22666666666666666,-0.9077777777777778,0.1851602564102564,-0.8113301282051282,3.6390384615384614
1589995403.2880895,-1.4244201667286145,-3.81,8.570941167100303,0.9933333333333332,-0.22666666666666666,-0.9077777777777778,0.3425420140179472,-0.7247899299102639,2.1239496495513195
1589995403.2980895,-1.4264491130350547,-3.81,8.666449113035055,0.9933333333333332,-0.22666666666666666,-0.9077777777777778,0.375,-0.5342689854896975,0.5784936227321346
1589995403.3080895,-1.4067386313465784,-3.816522737306843,8.66956821192053,0.8838962962962962,-0.10237228354181997,-0.8331286730439048,0.3953835540838852,-0.4388493377483444,-0.8628559602649006
1589995403.3180895,-1.3852821554030101,-3.8042437719552677,8.684243771955268,0.6577777777777778,0.15444444444444444,-0.6788888888888889,0.34551347126881304,-0.2665067356344065,-2.6439057011183085
1589995403.3280895,-1.3808318044715322,-3.815551478590752,8.646943934823845,0.6577777777777778,0.15444444444444444,-0.6788888888888889,0.25259938897353773,-0.14410040735097485,-4.249095315463789
1589995403.3380895,-1.419958953947573,-3.9198905438601948,8.659986317982524,0.6577777777777778,0.15444444444444444,-0.6788888888888889,0.3748717310861656,-0.06258551260922293,-5.186516604993937
1589995403.3480895,-1.3832908529424557,-3.8080648949588967,8.677161063024661,0.6577777777777778,0.15444444444444444,-0.6788888888888889,0.33951328780827283,0.0774188813013788,-6.902809795137228
1589995403.3580894,-1.3407233265190728,-3.777659518942195,8.695404288634682,0.6577777777777778,0.15444444444444444,-0.6788888888888889,0.5675536079335393,0.11542560132225653,-7.928991235700926
1589995403.3680894,-1.3740320197044336,-3.780752052545156,8.647472085385878,0.6044444444444445,0.24,-0.6622222222222223,0.22110016420361248,0.20430008210180625,-9.651200738916256
1589995403.3780894,-1.3806297733817452,-3.856456742206085,8.67929072242394,0.6044444444444445,0.24,-0.6622222222222223,0.5585639163640916,0.3730319581820458,-10.988191749092275
1589995403.3880894,-1.3538083663374751,-3.87,8.5652334653499,0.6044444444444445,0.24,-0.6622222222222223,0.6183198483792558,0.4784244275976951,-12.375691599666842
1589995403.3980894,-1.3751162060301507,-3.877814070351759,8.67488379396985,0.6044444444444445,0.24,-0.6622222222222223,0.3110474246231156,0.4680237123115578,-13.684594849246231
1589995403.4080894,-1.33,-3.967383669885865,8.729657594381036,0.5995083406496927,0.24536533021168666,-0.6690898448931812,0.838784021071115,0.737928007023705,-15.19880377524144
1589995403.4180894,-1.33,-4.037898492518633,8.768832495843684,0.5794856132354498,0.2671291643576029,-0.696947552599954,0.6918781405861805,0.6889593801953935,-16.76579983374741
1589995403.4280894,-1.3726790165809035,-3.8885678673527733,8.594641966838193,0.5788888888888889,0.2677777777777778,-0.6977777777777778,0.8292438536306461,0.9709877072612921,-20.07376643796455
1589995403.4380894,-1.397326277839158,-3.83,8.58,0.5788888888888889,0.2677777777777778,-0.6977777777777778,0.9291446182473687,1.1346928243298249,-22.263705152061405
1589995403.4480894,-1.390753783000644,-3.8827638039278813,8.61869345621378,0.5788888888888889,0.2677777777777778,-0.6977777777777778,1.0625,1.3784547549098518,-24.078517385705087
1589995403.4580894,-1.2670706113330175,-4.0096364498002846,8.680121183399905,0.5814500635629876,0.24838602667388804,-0.7032660092222749,1.2888895470855055,1.644066075418049,-25.848359962087876
1589995403.4680893,-1.2156637763227747,-4.015176782870289,8.656084055919306,0.5866666666666667,0.2088888888888889,-0.7144444444444444,1.5786774464696514,1.8151267474783224,-27.08172115554769
1589995403.4780893,-1.2056216918330898,-4.028223737619744,8.662277967202469,0.5866666666666667,0.2088888888888889,-0.7144444444444444,1.4506271310277643,1.6863898360123397,-27.699516967040104
1589995403.4880893,-1.1334073053770024,-4.072286501377411,8.623640444852565,0.5866666666666667,0.2088888888888889,-0.7144444444444444,1.875,1.875,-29.23716648811346
1589995403.4980893,0.28804112615419486,-5.086036556581506,7.081958873845805,0.5866666666666667,0.2088888888888889,-0.7144444444444444,-5.921469910685625,11.747153458335694,-38.07178312468136
1589995403.5080893,1.901481489398085,-6.327679334815322,2.524871109781122,0.5735342329761361,0.22375579495364037,-0.6839672870117038,-35.74492080625855,32.772855035909714,-188.07560544203147
1589995403.5180893,-0.03747821034282396,-4.677697810014226,-4.4793670480274095,0.5277777777777778,0.27555555555555555,-0.5777777777777777,-100.84943096435512,48.65131539401711,-701.8777262117053
1589995403.5280893,-0.7686170830912262,-9.610784227293674,6.101136869101766,0.5277777777777778,0.27555555555555555,-0.5777777777777777,-109.09575302049731,-2.7174933378749344,-935.8211557534713
1589995403.5380893,-3.831940816175928,-10.284684709615528,-1.3204241384399675,0.5277777777777778,0.27555555555555555,-0.5777777777777777,-71.24162654047672,132.63371130359383,-870.8591040329127
1589995403.5480893,-11.609320115963715,-17.443983914710557,-2.327265500794913,0.5277777777777778,0.27555555555555555,-0.5777777777777777,-59.52071058948221,168.37445447177282,-740.1749489541445
1589995403.5580893,-3.7547203922169445,-2.725864869005669,8.183267197793779,0.4996370631394379,0.32546550227261123,-0.5788396915377151,-13.942254289872837,62.97290581430979,-241.88022828251877
1589995403.5680892,-0.6502976560879487,-0.4184125008642744,1.3567396114222499,0.41,0.4844444444444445,-0.5822222222222222,21.33445688999516,6.611558373089954,-158.48508262462838
1589995403.5780892,-0.4764719995916075,-1.500876001837766,12.032555515850731,0.41,0.4844444444444445,-0.5822222222222222,85.74528115268774,18.179389580887232,-133.2726083516259
1589995403.5880892,2.0093659469800498,2.282107133096474,11.14975676414321,0.41,0.4844444444444445,-0.5822222222222222,184.00620046460782,14.156463514621482,-113.4782044274392
1589995403.5980892,3.8078425727113023,4.055967532045026,15.600294423840197,0.41,0.4844444444444445,-0.5822222222222222,202.59691078632312,3.3187504066627627,-98.14758909981131
1589995403.6080892,0.31831911990448575,1.3433387344362955,-2.567860310421286,0.4089485852900487,0.4852537570830254,-0.5821115469895958,166.93630607197682,-4.487159943714822,-82.88585195292512
1589995403.6180892,-0.22793371996686002,0.6946947567759498,-0.824112439341934,0.2411111111111111,0.6144444444444445,-0.5644444444444444,26.366630666351046,4.124823943661972,-44.788868505148535
1589995403.6280892,0.8558623473609851,0.5797830255323444,7.800520738722373,0.2411111111111111,0.6144444444444445,-0.5644444444444444,-43.84698884852155,7.696008678978707,-23.669057170249268
1589995403.6380892,2.9356251798147186,-0.7529165467901874,20.08381494907647,0.2411111111111111,0.6144444444444445,-0.5644444444444444,-96.849311669256,-0.18200486218999942,-6.5792958935113255
1589995403.6480892,1.5088231382978723,-1.6748503989361703,9.139690824468087,0.2411111111111111,0.6144444444444445,-0.5644444444444444,-93.38260472074468,0.4657787566489362,3.046833444148936
1589995403.6580892,0.24225517481301095,-0.841701165420073,4.437062097756131,0.23316794225082624,0.6076360139927717,-0.573295404031619,16.47516687684815,1.2632196903809358,8.606882718733694
1589995403.6680892,0.27987305797650625,-1.1076774662119488,4.6049223190602495,0.20222222222222225,0.5811111111111111,-0.6077777777777778,44.92495184413288,21.51298629531388,20.674101222053807
1589995403.6780891,0.7330055817947617,-1.9007227708601686,7.174309908878394,0.20222222222222225,0.5811111111111111,-0.6077777777777778,4.180108296359908,-9.245497590763799,32.92714147702877
1589995403.6880891,1.2180380032904847,-3.2288588165102783,13.256621467700818,0.20222222222222225,0.5811111111111111,-0.6077777777777778,-29.287130950443853,-10.823823470918985,45.79732896711323
1589995403.6980891,1.0298070748527235,-3.237075969511684,9.081480861043637,0.20222222222222225,0.5811111111111111,-0.6077777777777778,-28.66983380796828,-2.2298070748527237,57.228604782645114
1589995403.708089,8.433945913994386,-14.843259937934093,7.9516447465642095,0.2027738535047535,0.5849725300888298,-0.6130182749618245,4.102737549874391,-10.595232377715384,91.4570489138466
1589995403.718089,-1.714737186247627,-0.6053366378401182,10.12161379455811,0.20444444444444448,0.5966666666666667,-0.6288888888888889,1.1978169162623917,-5.2057042290655975,150.0287927125079
1589995403.728089,-1.3887279258459142,-2.1560363234444475,9.540998015524128,0.20444444444444448,0.5966666666666667,-0.6288888888888889,11.16313836067221,-9.079322515009169,164.43545900424527
1589995403.738089,-0.3810072933549433,-1.7663237439222041,6.262260129659643,0.20444444444444448,0.5966666666666667,-0.6288888888888889,-5.684217990275527,-11.555558650729335,168.65499898703405
1589995403.748089,0.5429554981049672,-2.7291953013227577,10.754662533570944,0.20444444444444448,0.5966666666666667,-0.6288888888888889,-19.229573492131223,-15.602626691097111,171.8453414823925
1589995403.758089,-0.1738151515151515,-2.4714138047138046,7.650734343434344,0.21885114104002995,0.597548709315376,-0.6327110736999626,-3.1932765151515152,-13.382306397306397,175.87652988215487
1589995403.768089,-0.1563404314351113,-3.006448220850385,9.1211744468336,0.2588888888888889,0.6,-0.6433333333333333,-3.373350905181383,-13.55828015537213,179.2188119927863
1589995403.778089,0.018215995005895824,-3.186823194839426,9.749577582021224,0.2588888888888889,0.6,-0.6433333333333333,-8.06455486578345,-13.158255011444822,181.1098399458972
1589995403.788089,-0.16982346715903718,-2.929823467159037,8.024897885658959,0.2588888888888889,0.6,-0.6433333333333333,-2.1115222017067845,-13.866519555965864,184.0562262164779
1589995403.798089,-0.03277769912506725,-2.8149992921256053,7.709937423903503,0.2588888888888889,0.6,-0.6433333333333333,-7.914352507291106,-13.756751352040094,185.73958185859502
1589995403.808089,-0.2057040158156439,-4.427183936737425,9.671551810212273,0.2693901835617593,0.5944311316128718,-0.6399920123010564,-7.010297891247479,-14.411249176268546,193.79703256984243
1589995403.818089,-0.18057691155620345,-4.527692353775186,9.97307706132556,0.3308119939737249,0.5618589594247082,-0.6204487089881582,-10.360578459172874,-15.719952523114404,221.4891953891008
1589995403.828089,3.051635388739946,-6.349180390654922,7.11390654921486,0.3322222222222222,0.5611111111111111,-0.62,-3.6653700689391036,-19.943364611260055,249.4612337227116
1589995403.838089,7.501844473170608,-10.028928598585658,4.531970699313106,0.3322222222222222,0.5611111111111111,-0.62,-15.560191873875244,-20.69981687070692,149.05925563328518
1589995403.848089,-3.258537183383992,-1.1019702127659579,7.717344072948329,0.3322222222222222,0.5611111111111111,-0.62,-14.26161600810537,-5.177659574468084,-62.56484675785208
1589995403.858089,-6.178658598384356,-4.857709780308225,12.274848123528184,0.3500264968220374,0.5470160603862574,-0.6279130109332511,24.231682415715266,29.385742391271947,-104.14660774435866
1589995403.868089,-2.2450243365985783,-1.2630297537828645,4.427788729812843,0.4122222222222222,0.4977777777777778,-0.6555555555555556,29.841563906482293,14.40867156792864,-39.01290527055373
1589995403.878089,-0.7464872741890907,-0.6887799301525088,8.214193110725862,0.4122222222222222,0.4977777777777778,-0.6555555555555556,-8.927638438732696,-3.3720855003643124,1.354163526042059
1589995403.888089,-1.2525721428571428,-4.769970714285714,9.495491428571428,0.4122222222222222,0.4977777777777778,-0.6555555555555556,-20.367575892857143,-9.191107142857144,15.266468750000001
1589995403.898089,-1.1851637499999998,-4.53778625,9.55541,0.4122222222222222,0.4977777777777778,-0.6555555555555556,-9.4605234375,-5.8206875,33.9442109375
1589995403.908089,-0.6223335806299318,-2.38862750387806,8.37858299049032,0.41307157363068875,0.4982024534820111,-0.654706204147089,6.749414075672759,-4.672776016726242,67.61116965670736
1589995403.918089,0.07703664023998291,-3.505890293550461,8.082647228494668,0.4188888888888889,0.5011111111111111,-0.6488888888888888,-6.533841332761946,-5.364129897315027,55.731005134248655
1589995403.928089,-1.8102635526033855,-1.7983329762159848,9.838596858466152,0.4188888888888889,0.5011111111111111,-0.6488888888888888,-11.02741322048425,-6.314693181256284,8.202840937185812
1589995403.938089,-2.1305087108013936,-2.732801393728223,7.473128919860627,0.4188888888888889,0.5011111111111111,-0.6488888888888888,14.305705574912892,7.760975609756097,-16.710844947735193
1589995403.948089,-0.8917740169238426,-2.6144952712792433,7.514884021901443,0.4188888888888889,0.5011111111111111,-0.6488888888888888,4.34537394225983,-0.1550958188153313,5.080098929815826
1589995403.9580889,-0.41050354345393514,-5.963846112857675,9.014450897852614,0.42289023877610227,0.49811009869570105,-0.6477218285051183,-10.277375179836948,-4.768439947780679,10.599190067671977
1589995403.9680889,-0.42681290322580645,-3.6850088709677418,8.297967741935484,0.4455555555555555,0.4811111111111111,-0.6411111111111111,2.3125,0.5049798387096774,-2.561381048387097
1589995403.9780889,-0.29062702702702703,-4.548745945945946,8.623902702702702,0.4455555555555555,0.4811111111111111,-0.6411111111111111,1.6919594594594596,0.3393918918918919,-0.9966216216216216
1589995403.9880888,-0.23566486486486488,-4.65867027027027,8.720086486486487,0.4455555555555555,0.4811111111111111,-0.6411111111111111,-0.06854729729729714,-0.6482094594594594,0.07685810810810811
1589995403.9980888,-0.28381249381249385,-4.437237501237502,8.66,0.4455555555555555,0.4811111111111111,-0.6411111111111111,0.48273438273438274,-0.21546876546876548,-0.0517968517968518
1589995404.0080888,-0.3136067372416452,-4.4603679981021855,8.658401684310412,0.44449001176249636,0.4811111111111111,-0.6423542455363468,0.2776684310411292,-0.15496841917978826,-0.16752105388014116
1589995404.0180888,-0.28,-4.590279713338495,8.625683401822405,0.4388888888888889,0.4811111111111111,-0.6488888888888888,-0.4274077879022492,-0.26184042046334344,-0.04561347348778115
1589995404.0280888,-0.2837616189000775,-4.5150154918667695,8.562507745933386,0.4388888888888889,0.4811111111111111,-0.6488888888888888,0.008030354376452359,-0.125,0.0
1589995404.0380888,-0.3077643551024334,-4.535468308165817,8.584471289795133,0.4388888888888889,0.4811111111111111,-0.6488888888888888,0.5,-0.11801360969510435,0.006986390304895644
1589995404.0480888,-0.2916277772434356,-4.430580552082331,8.616744445513127,0.4388888888888889,0.4811111111111111,-0.6488888888888888,0.5,-0.06758680388573626,0.05741319611426374
1589995404.0580888,-0.2634988639291654,-4.517170832259727,8.628833712023612,0.4388888888888889,0.4811111111111111,-0.6488888888888888,0.003103698671851174,-0.0625,0.0625
1589995404.0680888,-0.28903850977375717,-4.515768941357456,8.58,0.4122222222222222,0.4888888888888889,-0.6488888888888888,-0.4314906860859823,-0.1370186278280354,-0.0625
1589995404.0780888,-0.2820249820243132,-4.557850107854121,8.58,0.4122222222222222,0.4888888888888889,-0.6488888888888888,-0.3876561376519573,-0.2246877246960855,-0.0625
1589995404.0880888,-0.3091465566952662,-4.507439670085798,8.527254268090237,0.4122222222222222,0.4888888888888889,-0.6488888888888888,0.3883350516364653,-0.19816804130917223,-0.11699896901812082
1589995404.0980887,-0.29448809128558195,-4.463464273856746,8.651851224072553,0.4122222222222222,0.4888888888888889,-0.6488888888888888,0.6173735736627816,-0.38139885893022524,0.020424144197668942
1589995404.1080887,-0.29964056184986415,-4.478921685549593,8.632156628900816,0.4122222222222222,0.4888888888888889,-0.6488888888888888,0.3259789306300934,-0.3772464884383489,0.0022464884383489106
1589995404.1180887,-0.3162347518575913,-4.488117375928796,8.654352127786387,0.4293589047385686,0.49881012613519465,-0.6425753742776034,0.05883200222513607,-0.22279920133508166,0.0
1589995404.1280887,-0.2916217771639042,-4.538378222836096,8.610269337016573,0.43333333333333335,0.5011111111111111,-0.6411111111111111,-0.23141114180478822,-0.17568053637200737,0.11486389272559852
1589995404.1380887,-0.30138388625592416,-4.527232227488152,8.561383886255925,0.43333333333333335,0.5011111111111111,-0.6411111111111111,0.23074644549763035,-0.4115521327014218,0.0365521327014218
1589995404.1480887,-0.31,-4.501378288871507,8.583548403201917,0.43333333333333335,0.5011111111111111,-0.6411111111111111,0.4846040872705487,-0.24230204363527436,-0.11730204363527434
1589995404.1580887,-0.31,-4.452517266055351,8.660330010484447,0.43333333333333335,0.5011111111111111,-0.6411111111111111,0.3973522608131272,-0.1986761304065636,-0.0736761304065636
1589995404.1680887,-0.2810639875146313,-4.517872024970737,8.658404018728053,0.4188888888888889,0.4811111111111111,-0.6411111111111111,-0.019949765899336714,-0.13164992196644557,-0.11502511705033164
1589995404.1780887,-0.2974287943815841,-4.485142411236832,8.633856808427625,0.4188888888888889,0.4811111111111111,-0.6411111111111111,-0.32678989465470154,-0.23392996488490053,0.03839494732735077
1589995404.1880887,-0.2886850259779595,-4.570795181845717,8.444464714242445,0.4188888888888889,0.4811111111111111,-0.6411111111111111,-0.0970955359847161,-0.24178141236224693,-0.00821858763775308
1589995404.1980886,-0.281292628196249,-4.51,8.54581682688312,0.4188888888888889,0.4811111111111111,-0.6411111111111111,0.5080789262265563,-0.17134214754688756,-0.05846053688672189
1589995404.2080886,-0.2929121533645455,-4.51,8.598104690140454,0.4188888888888889,0.4811111111111111,-0.6411111111111111,0.5807009585284095,-0.02609808294318086,-0.022149520735795215
1589995404.2180886,-0.3,-4.477752237511336,8.681596419981863,0.43178799388435474,0.47681140944595585,-0.6411111111111111,0.46376118755667706,-0.21966792177581518,-0.08061940622166147
1589995404.2280886,-0.2935260820000786,-4.50531742599945,8.671156492000472,0.4388888888888889,0.4744444444444445,-0.6411111111111111,0.09176608750343956,-0.33453801250049137,-0.16546198749950863
1589995404.2380886,-0.29931612652823597,-4.53,8.538206481661168,0.4388888888888889,0.4744444444444445,-0.6411111111111111,-0.004274209198525135,-0.2542742091985251,0.10362895400737437
1589995404.2480886,-0.3,-4.53,8.54306784181085,0.4388888888888889,0.4744444444444445,-0.6411111111111111,0.12251101697671392,-0.20916299434109537,0.043325988682190716
1589995404.2580886,-0.3080124295979802,-4.497950281608079,8.654161584773743,0.4388888888888889,0.4744444444444445,-0.6411111111111111,0.48796610992425715,-0.2876553699747524,-0.15023305496212858
1589995404.2680886,-0.29131086807582024,-4.452621736151641,8.66131086807582,0.4274677527130013,0.48794215083412984,-0.6411111111111111,0.2704823136846913,-0.25409646273693826,-0.12909646273693826
1589995404.2780886,-0.3008459776158642,-4.511691955231728,8.582386201457222,0.4266666666666667,0.4888888888888889,-0.6411111111111111,-0.09951152069405844,-0.1927873600991512,-0.11442527980169759
1589995404.2880886,-0.30872230150980245,-4.527444603019605,8.511499286411778,0.4266666666666667,0.4888888888888889,-0.6411111111111111,-0.44410069105385713,-0.2420143844362653,-0.015971231127469385
1589995404.2980886,-0.29815004373639054,-4.536300087472781,8.56369991252722,0.4266666666666667,0.4888888888888889,-0.6411111111111111,-0.027813320057322587,-0.1875,0.0625
1589995404.3080885,-0.28253782732500793,-4.505075654650016,8.594924345349984,0.4266666666666667,0.4888888888888889,-0.6411111111111111,0.2649157376561017,-0.1875,0.0625
1589995404.3180885,-0.30781336661120356,-4.491093316694398,8.674533416528009,0.43333333333333335,0.4744444444444445,-0.6411111111111111,0.46583385330005544,-0.1318332293399889,-0.06933322933998891
1589995404.3280885,-0.2891996424034254,-4.501600715193149,8.621996424034254,0.43333333333333335,0.4744444444444445,-0.6411111111111111,0.1624888251070437,-0.1875,-0.11999776502140874
1589995404.3380885,-0.28066729345398994,-4.51933270654601,8.53533834763192,0.43333333333333335,0.4744444444444445,-0.6411111111111111,-0.12917058408743684,-0.18332941591256316,-0.06667058408743683
1589995404.3480885,-0.2904368116847614,-4.509126376630477,8.611310435054284,0.43333333333333335,0.4744444444444445,-0.6411111111111111,-0.1656594157619308,-0.13319021908927595,-0.125
1589995404.3580885,-0.29862688432398654,-4.492746231352027,8.63588065297196,0.43333333333333335,0.4744444444444445,-0.6411111111111111,0.24384421619932828,-0.2867540810747481,-0.125
1589995404.3680885,-0.2903097676742443,-4.480309767674245,8.630309767674245,0.41287617620118244,0.4744444444444445,-0.6411111111111111,0.43362790407194607,-0.13080814389208095,-0.125
1589995404.3780885,-0.2834214724222942,-4.486578527577706,8.669471165466234,0.4122222222222222,0.4744444444444445,-0.6411111111111111,0.27303681055735485,-0.0016526079180161496,-0.042768405278677424
1589995404.3880885,-0.2953394318728936,-4.505339431872893,8.54427539720751,0.4122222222222222,0.4744444444444445,-0.6411111111111111,-0.10011434761675492,-0.08130717380837746,-0.04793572460279249
1589995404.3980885,-0.3,-4.51968303547178,8.548415177358901,0.4122222222222222,0.4744444444444445,-0.6411111111111111,-0.06646205660274865,-0.1855189716986257,-0.001981028301374324
1589995404.4080884,-0.2916308854316325,-4.528369114568368,8.591845572841837,0.4122222222222222,0.4744444444444445,-0.6411111111111111,0.04211393210459341,-0.1351930339477033,0.0
1589995404.4180884,-0.29962869604622183,-4.4818565197688915,8.657772176277332,0.4068729466409879,0.4883525609556537,-0.6411111111111111,0.3633967514444319,-0.3055380508666591,0.06017935028888637
1589995404.4280884,-0.30813828189156167,-4.463723436216877,8.676276563783123,0.4066666666666667,0.4888888888888889,-0.6411111111111111,0.3241357381777395,-0.3125,0.011635738177739503
1589995404.4380884,-0.3034282091024376,-4.453428209102438,8.587994927434126,0.4066666666666667,0.4888888888888889,-0.6411111111111111,0.23035261378047062,-0.23035261378047062,-0.08214738621952938
1589995404.4480884,-0.30998196898665703,-4.5298557518932565,8.54,0.4066666666666667,0.4888888888888889,-0.6411111111111111,-0.1868238369996394,-0.0003380815001803039,-0.00022538766678686928
1589995404.4580884,-0.31,-4.505623218199096,8.580627969668173,0.4066666666666667,0.4888888888888889,-0.6411111111111111,-0.035145113744351586,-0.15235488625564841,0.0
1589995404.4680884,-0.31,-4.51,8.650059971975713,0.43333333333333335,0.4744444444444445,-0.6555555555555556,0.25112447454460535,-0.24962517515179822,-0.06287482484820177
1589995404.4780884,-0.31,-4.51,8.657896123306866,0.43333333333333335,0.4744444444444445,-0.6555555555555556,0.3980523120037366,-0.20064922933208781,-0.11185077066791219
1589995404.4880884,-0.3004193518899401,-4.490838703779881,8.57958064811006,0.43333333333333335,0.4744444444444445,-0.6555555555555556,0.05201620275149687,-0.12237905068787422,-0.0625
1589995404.4980884,-0.30999229761996455,-4.51,8.570011553570053,0.43333333333333335,0.4744444444444445,-0.6555555555555556,-0.18740372024955712,-0.06257220981283217,-0.0625
1589995404.5080884,-0.2938392513286605,-4.51,8.59424112300701,0.43333333333333335,0.4744444444444445,-0.6555555555555556,0.014509358391743027,-0.2140070187938073,-0.0625
1589995404.5180883,-0.29,-4.51,8.627495646565624,0.4234043498513025,0.4790270522053818,-0.6456265720735247,0.19138584327636246,-0.25,-0.0625
1589995404.5280883,-0.2801204211133545,-4.490240842226709,8.590602105566772,0.4188888888888889,0.4811111111111111,-0.6411111111111111,0.4352421041246034,-0.12650526391693107,-0.0007526319584655397
1589995404.5380883,-0.3080529024428613,-4.499350967480954,8.571298065038093,0.4188888888888889,0.4811111111111111,-0.6411111111111111,0.32061290648807783,-0.18344354675596108,0.2337741870238443
1589995404.5480883,-0.2910757116898849,-4.490537855844942,8.588924288310116,0.4188888888888889,0.4811111111111111,-0.6411111111111111,-0.10146880678376746,-0.1875,0.013446396123561466
1589995404.5580883,-0.2978058126510641,-4.497805812651064,8.597805812651064,0.4188888888888889,0.4811111111111111,-0.6411111111111111,-0.125,-0.2362863290691505,0.0
1589995404.5680883,-0.309000175459118,-4.509000175459118,8.64500087729559,0.43688923980712496,0.488111247579314,-0.6601114815248048,0.04375328985846297,-0.08124671014153703,0.0
1589995404.5780883,-0.29419074195666445,-4.51,8.65,0.4388888888888889,0.4888888888888889,-0.6622222222222223,0.40832751969796455,-0.0625,0.0
1589995404.5880883,-0.28200971998388397,-4.502009719983884,8.562106919822723,0.4388888888888889,0.4888888888888889,-0.6622222222222223,0.40012149979854955,-0.16237850020145045,0.04993925010072522
1589995404.5980883,-0.3053246172201233,-4.508441539073374,8.573766156293498,0.4388888888888889,0.4888888888888889,-0.6622222222222223,0.21672114237422946,-0.1875,0.0625
1589995404.6080883,-0.31,-4.515536706503181,8.591073413006363,0.4388888888888889,0.4888888888888889,-0.6622222222222223,0.01447792177557039,-0.15289558435511408,0.02789558435511407
1589995404.6180882,-0.2992411879895561,-4.52,8.605379406005222,0.4424751595590368,0.48470490644038294,-0.6664062046707282,-0.02413613740208878,-0.125,0.03362128753263707
1589995404.6280882,-0.3067293821943756,-4.52,8.637882303657292,0.4455555555555555,0.4811111111111111,-0.67,0.23676439785807954,-0.15985287957161592,0.13220575914323182
1589995404.6380882,-0.3129387298032315,-4.484693649016157,8.589387298032316,0.4455555555555555,0.4811111111111111,-0.67,0.5073988161894096,-0.14336706127019677,0.055101183810590315
1589995404.6480882,-0.29601911535896863,-4.490971326961547,8.573980884641031,0.4455555555555555,0.4811111111111111,-0.67,0.4314292064903312,-0.16869026450322294,0.08738052900644588
1589995404.6580882,-0.29,-4.513135364817288,8.606270729634575,0.4455555555555555,0.4811111111111111,-0.67,0.1287119096758529,-0.14645198494597547,0.0018559548379264434
1589995404.6680882,-0.3023238859219536,-4.526161942960977,8.626161942960977,0.4455555555555555,0.4770031491371266,-0.652198831446067,0.0,-0.163512143506105,-0.10101214350610499
1589995404.6780882,-0.2939511161805442,-4.521975558090272,8.613951116180544,0.4455555555555555,0.4744444444444445,-0.6411111111111111,0.0,-0.23765276193579926,0.12576380967899625
1589995404.6880882,-0.3082567990434274,-4.52,8.527844404304576,0.4455555555555555,0.4744444444444445,-0.6411111111111111,0.22820998804284226,0.03526248505355284,-0.04070998804284226
1589995404.6980882,-0.2841513992349507,-4.49415139923495,8.571697201530098,0.4455555555555555,0.4744444444444445,-0.6411111111111111,0.08844624521844172,-0.09905375478155828,-0.0625
1589995404.7080882,-0.30077164378521776,-4.5038477625234785,8.628467168832175,0.4455555555555555,0.4744444444444445,-0.6411111111111111,0.019225742114129696,-0.2115485157717406,-0.0625
1589995404.7180882,-0.3023856696180708,-4.502385669618071,8.642385669618072,0.440479335300936,0.47021426089892826,-0.6571858085840728,-0.0951791297741153,-0.10723130533882705,-0.1576791297741153
1589995404.7280881,-0.3,-4.506763781261889,8.64,0.4388888888888889,0.4688888888888889,-0.6622222222222223,0.04409453154722573,-0.10477363288680644,-0.06067910133958071
1589995404.7380881,-0.3,-4.496292535091451,8.585170140365802,0.4388888888888889,0.4688888888888889,-0.6622222222222223,0.25350748351765207,0.003507483517652066,0.042835827839217355
1589995404.7480881,-0.28458292795330026,-4.482291463976651,8.61395975216345,0.4388888888888889,0.4688888888888889,-0.6622222222222223,0.3125,-0.033856700291873626,0.014321649854063187
1589995404.758088,-0.2850731924839315,-4.4952195774517945,8.624926807516069,0.4388888888888889,0.4688888888888889,-0.6622222222222223,0.15396273487714118,-0.12591490604914352,0.031707453024571765
1589995404.768088,-0.2938162407985509,-4.517632481597102,8.62,0.4287122467594198,0.47906553101835797,-0.6486533660495969,0.0,-0.2590545149728292,-0.00905451497282922
1589995404.778088,-0.3,-4.524941006407251,8.594705032036256,0.4122222222222222,0.4955555555555556,-0.6266666666666667,0.09485612986404127,-0.28014387013595876,-0.09338129004531959
1589995404.788088,-0.3,-4.513646632322076,8.53823316161038,0.4122222222222222,0.4955555555555556,-0.6266666666666667,0.1875,-0.2669170959740508,-0.022791452012974618
1589995404.798088,-0.30802214406023976,-4.50197785593976,8.576155008421678,0.4122222222222222,0.4955555555555556,-0.6266666666666667,0.23763840037649855,-0.2122231992470029,-0.10027680075299712
1589995404.808088,-0.30329569011470653,-4.5,8.616817239541174,0.4122222222222222,0.4955555555555556,-0.6266666666666667,0.25,-0.22940193678308424,-0.125
1589995404.818088,-0.2946056229704324,-4.4946056229704325,8.640788754059136,0.42660722763440245,0.48776367762395795,-0.6344585445982643,0.21628514356520254,-0.18257028713040507,-0.09128514356520254
1589995404.828088,-0.29729233741146166,-4.504584674822923,8.635415325177076,0.4388888888888889,0.4811111111111111,-0.6411111111111111,0.23307710882163554,-0.125,-0.0625
1589995404.838088,-0.3121244400550245,-4.497875559944975,8.569377799724878,0.4388888888888889,0.4811111111111111,-0.6411111111111111,0.2121111248280484,-0.1628888751719516,0.013277750343903216
1589995404.848088,-0.31297884525897557,-4.49,8.59319039266922,0.4388888888888889,0.4811111111111111,-0.6411111111111111,0.2313822171314028,-0.1875,-0.06914665139420839
1589995404.858088,-0.3035691742698112,-4.502861651460377,8.62643082573019,0.4388888888888889,0.4811111111111111,-0.6411111111111111,0.2901926608136799,-0.22769266081367992,-0.04461467837264016
1589995404.868088,-0.3,-4.517210814828579,8.658843259314319,0.43007567076506964,0.47229789298729186,-0.630695489692052,0.1772972219641364,-0.25,-0.045067592678621204
1589995404.878088,-0.3,-4.52,8.654081869366648,0.4266666666666667,0.4688888888888889,-0.6266666666666667,-0.07397663291689824,-0.15051168354155087,-0.01275584177077544
1589995404.888088,-0.3,-4.502949709864604,8.539173114119922,0.4266666666666667,0.4688888888888889,-0.6266666666666667,-0.33812862669245647,-0.07171784332688588,0.0
1589995404.898088,-0.29267962737950587,-4.485359254759012,8.55660186310247,0.4266666666666667,0.4688888888888889,-0.6266666666666667,-0.1919906844876468,-0.1082523288780883,0.0457523288780883
1589995404.908088,-0.294446905396196,-4.50223452698098,8.59223452698098,0.4266666666666667,0.4688888888888889,-0.6266666666666667,-0.013827365095099436,-0.013827365095099436,0.006913682547549718
1589995404.918088,-0.30217912477188963,-4.521283500912442,8.62217912477189,0.4281194165145931,0.47155226361008734,-0.6315091661597548,0.0841414105270691,0.0977609403513794,-0.0488804701756897
1589995404.928088,-0.29866286617373144,-4.49,8.63,0.43333333333333335,0.4811111111111111,-0.6488888888888888,-0.08611902880472616,0.047238057609452315,0.0
1589995404.938088,-0.2768735033103254,-4.49625299337935,8.601861529792929,0.43333333333333335,0.4811111111111111,-0.6488888888888888,-0.06637818706860121,0.125,0.03908120862093253
1589995404.948088,-0.27,-4.51,8.548612743403618,0.43333333333333335,0.4811111111111111,-0.6488888888888888,0.008670353727387954,0.09808517686369397,-0.009574115681530132
1589995404.958088,-0.2823537095963825,-4.514117903198794,8.592943225590354,0.43333333333333335,0.4811111111111111,-0.6488888888888888,0.014710684977390712,0.03676310500753643,-0.11028931502260929
1589995404.968088,-0.29528859345713127,-4.510577186914262,8.649422813085739,0.43019239563808753,0.4779701734158653,-0.6551707642793806,0.0955537091070704,-0.02944629089292961,-0.02944629089292961
1589995404.978088,-0.29,-4.512409741144414,8.66,0.4266666666666667,0.4744444444444445,-0.6622222222222223,-0.0926217643051771,0.01506088215258855,0.01506088215258855
1589995404.988088,-0.29,-4.514368840999761,8.598057250997375,0.4266666666666667,0.4744444444444445,-0.6622222222222223,-0.32827897500596714,0.0625,-0.007889487502983586
1589995404.998088,-0.2964926590538336,-4.51,8.562985318107668,0.4266666666666667,0.4744444444444445,-0.6622222222222223,-0.23460440456769982,0.0625,-0.14365823817292006
1589995405.0080879,-0.28855642681957927,-4.487112853639158,8.604330719541263,0.4266666666666667,0.4744444444444445,-0.6622222222222223,-0.125,0.026738833811185192,-0.1517388338111852
1589995405.0180879,-0.286183120904443,-4.488549362713329,8.642366241808887,0.4266666666666667,0.4785665250474065,-0.6759624908987623,-0.009066483041693663,-0.03864450565276877,-0.08635549434723122
1589995405.0280879,-0.29727834285448884,-4.507278342854489,8.591773257164089,0.4266666666666667,0.4811111111111111,-0.6844444444444444,0.15347928568111097,-0.10798964284055548,-0.10798964284055548
1589995405.0380878,-0.2850857410742925,-4.51,8.540171482148585,0.4266666666666667,0.4811111111111111,-0.6844444444444444,-0.04553529571417997,0.15464235485701594,-0.171607059142836
1589995405.0480878,-0.2947347585114806,-4.50263262074426,8.574204275534441,0.4266666666666667,0.4811111111111111,-0.6844444444444444,-0.03290775930324624,0.06581551860649248,-0.09540775930324624
1589995405.0580878,-0.30420447372032383,-4.5,8.594204473720323,0.4266666666666667,0.4811111111111111,-0.6844444444444444,-0.05255592150404831,0.0,-0.08877796075202415
1589995405.0680878,-0.30996034033209824,-4.5,8.599960340332098,0.4266666666666667,0.4811111111111111,-0.6844444444444444,-0.12450425415122822,0.0,-0.12475212707561412
1589995405.0780878,-0.30456990456604865,-4.5,8.643709713698147,0.4533333333333333,0.4744444444444445,-0.6488888888888888,-0.03931428938658783,-0.02856190353780405,0.09106190353780405
1589995405.0880878,-0.3056102892068568,-4.505610289206857,8.568286818724575,0.4533333333333333,0.4744444444444445,-0.6488888888888888,-0.19512861508570967,0.03506430754285483,0.027435692457145167
1589995405.0980878,-0.301951597520267,-4.51,8.536096804959465,0.4533333333333333,0.4744444444444445,-0.6488888888888888,-0.17454622675250359,0.08765125774916548,-0.05030251549833095
1589995405.1080878,-0.29,-4.51,8.584083490360923,0.4533333333333333,0.4744444444444445,-0.6488888888888888,0.0020093491810407316,0.038987534425279025,-0.06049065081895927
1589995405.1180878,-0.29,-4.51,8.634079064070617,0.4533333333333333,0.4744444444444445,-0.6516082649359669,0.125,-0.09950584955864342,0.03700584955864341
1589995405.1280878,-0.29,-4.504507209164527,8.650985581670946,0.4533333333333333,0.4744444444444445,-0.6555555555555556,-0.04664971360853251,-0.028170057278293505,0.034329942721706495
1589995405.1380877,-0.3008344126465944,-4.505417206323297,8.594993524120433,0.4533333333333333,0.4744444444444445,-0.6555555555555556,-0.11978492095878501,0.0,-0.03907261856182247
1589995405.1480877,-0.2929082101690121,-4.515697263276996,8.551394526553992,0.4533333333333333,0.4744444444444445,-0.6555555555555556,-0.09810789548122481,0.0,-0.05378420903755039
1589995405.1580877,-0.28578427944204843,-4.514215720557951,8.577352838326146,0.4533333333333333,0.4744444444444445,-0.6555555555555556,-0.05269650697439485,0.03615174651280258,-0.03615174651280258
1589995405.1680877,-0.3027744296847884,-4.503612785157606,8.621936074211972,0.4533333333333333,0.4787025876727073,-0.6555555555555556,-0.1596803710598555,0.0625,0.01734018552992775
1589995405.1780877,-0.30358730626064645,-4.506412693739353,8.62076191878194,0.4533333333333333,0.4811111111111111,-0.6555555555555556,-0.08968265651616161,0.0625,-0.05773800761287881
1589995405.1880877,-0.3,-4.51,8.55309398582209,0.4533333333333333,0.4811111111111111,-0.6555555555555556,0.0,-0.05605419620397897,-0.16451806540132632
1589995405.1980877,-0.3064866587957497,-4.490540023612751,8.532973317591498,0.4533333333333333,0.4811111111111111,-0.6555555555555556,-0.12162485242030696,-0.08445838252656435,-0.10641676505312869
1589995405.2080877,-0.299210006976976,-4.4961849895345365,8.583159972092096,0.4533333333333333,0.4811111111111111,-0.6555555555555556,-0.12006254360609987,0.038656184590850184,0.07237491278780026
1589995405.2180877,-0.27847548854705034,-4.51,8.63152451145295,0.4418088218803837,0.47726960729346124,-0.6472322972839808,0.009528196580935192,0.05297180341906481,0.0794577051285972
1589995405.2280877,-0.27703733400150343,-4.51,8.654074668003007,0.43333333333333335,0.4744444444444445,-0.6411111111111111,-0.06945001252818842,0.0,0.04398333750939614
1589995405.2380877,-0.28630368354960234,-4.51,8.596963164503977,0.43333333333333335,0.4744444444444445,-0.6411111111111111,-0.046203955629970705,-0.03939802218501465,0.0625
1589995405.2480876,-0.29623943263869257,-4.51,8.572478865277386,0.43333333333333335,0.4744444444444445,-0.6411111111111111,-0.11698936197548628,0.1324822699591438,-0.01549290798365753
1589995405.2580876,-0.3051960802968319,-4.515196080296832,8.595588240890496,0.43333333333333335,0.4744444444444445,-0.6411111111111111,-0.09007349443440205,0.25,-0.03002449814480069
1589995405.2680876,-0.31,-4.516555181876328,8.627224090618359,0.4310367879175522,0.4767409898602257,-0.6483835049277515,0.021530113272948605,0.14234943363525698,-0.021530113272948605
1589995405.2780876,-0.30216815522020324,-4.506084077610102,8.640420388050508,0.4266666666666667,0.4811111111111111,-0.6622222222222223,0.0135509701262704,-0.0625,-0.0135509701262704
1589995405.2880876,-0.2941013289818461,-4.495898671018154,8.581290697127077,0.4266666666666667,0.4811111111111111,-0.6622222222222223,-0.0625,-0.08813330613653837,0.03686669386346163
1589995405.2980876,-0.30155110920893075,-4.49,8.544653327626792,0.4266666666666667,0.4811111111111111,-0.6622222222222223,-0.0721944325558171,-0.10561113488836579,0.009694432555817105
1589995405.3080876,-0.30391513050435015,-4.493042434747825,8.5821697389913,0.4266666666666667,0.4811111111111111,-0.6622222222222223,-0.1059847828260942,0.019015217173905797,-0.013560868695623188
1589995405.3180876,-0.29,-4.50007217205237,8.61036086026185,0.4265624181465766,0.48106299640953104,-0.6622783560407324,-0.06295107532731295,0.0615978493453741,-0.18614677401806115
1589995405.3280876,-0.29,-4.51,8.653734167688107,0.4122222222222222,0.4744444444444445,-0.67,-0.0662578220759951,-0.0625,0.0
1589995405.3380876,-0.2970945562801247,-4.513547278140062,8.611621774879502,0.4122222222222222,0.4744444444444445,-0.67,0.040329511624610154,0.004011465126169553,0.02217048837538985
1589995405.3480875,-0.30429093707908406,-4.508581874158168,8.582836251683664,0.4122222222222222,0.4744444444444445,-0.67,-0.035681643255724454,0.08931835674427555,0.026818356744275546
1589995405.3580875,-0.3044713848437065,-4.5,8.604471384843706,0.4122222222222222,0.4744444444444445,-0.67,-0.034553844726834246,0.006607689453668492,-0.027946155273165754
1589995405.3680875,-0.30717736498267967,-4.5,8.621290540069282,0.4197492489350765,0.47632620112265806,-0.6659228605305373,0.017641468858252157,-0.04485853114174784,-0.0625
1589995405.3780875,-0.30374475713705856,-4.503744757137058,8.646255242862942,0.4388888888888889,0.4811111111111111,-0.6555555555555556,0.03909526789338384,0.023404732106616154,-0.08590473210661616
1589995405.3880875,-0.3039469812343512,-4.497893962468702,8.585522831109161,0.4388888888888889,0.4811111111111111,-0.6555555555555556,0.07566273457060994,0.10033136728530498,-0.049337265429390056
1589995405.3980875,-0.2938262682418346,-4.5023474635163305,8.574694927032661,0.4388888888888889,0.4811111111111111,-0.6555555555555556,0.009242529534398886,0.04782835302293259,-0.07717164697706741
1589995405.4080875,-0.3041320660330165,-4.51,8.604132066033015,0.4388888888888889,0.4811111111111111,-0.6555555555555556,-0.09194180423545106,0.05888360847090211,-0.06611639152909789
1589995405.4180875,-0.3116058279805734,-4.51,8.632591258029139,0.4337591170992393,0.4811111111111111,-0.6527574982157467,-0.02007284975716747,0.04630463731787561,0.026231787560708132
1589995405.4280875,-0.3,-4.505442020665901,8.631768082663605,0.4266666666666667,0.4811111111111111,-0.6488888888888888,0.0965126291618829,-0.0625,-0.05144948335246842
1589995405.4380875,-0.3,-4.495399275839368,8.573194206714943,0.4266666666666667,0.4811111111111111,-0.6488888888888888,0.12000905200789994,-0.03374547399605003,-0.12999094799210006
1589995405.4480875,-0.3,-4.495371414149912,8.546114242449734,0.4266666666666667,0.4811111111111111,-0.6488888888888888,0.15392866156305207,-0.06714267687389586,-0.09607133843694793
1589995405.4580874,-0.29411782062819963,-4.5029410896859,8.5776465381154,0.4266666666666667,0.4811111111111111,-0.6488888888888888,0.125,-0.125,-0.051472757852495526
1589995405.4680874,-0.2817417860462372,-4.509129106976881,8.614774641861288,0.4266666666666667,0.4811111111111111,-0.6488888888888888,0.125,-0.125,0.10322767442203568
1589995405.4780874,-0.3,-4.5,8.632268464364136,0.43333333333333335,0.4888888888888889,-0.6555555555555556,-0.15914419544829567,-0.019966293172443514,0.03414419544829568
1589995405.4880874,-0.3,-4.4982680680112,8.622680680112,0.43333333333333335,0.4888888888888889,-0.6555555555555556,-0.05167542506999959,0.11417542506999959,-0.04085085013999919
1589995405.4980874,-0.29252978664449986,-4.4974702133555,8.56614574674425,0.43333333333333335,0.4888888888888889,-0.6555555555555556,0.023344416735937935,0.1325332502078138,-0.007533250207813799
1589995405.5080874,-0.283473887115234,-4.511736943557617,8.61521083067285,0.43333333333333335,0.4888888888888889,-0.6555555555555556,0.02993230829468104,0.20657641105957472,-0.11414410276489369
1589995405.5180874,-0.30291518476098617,-4.508339260956055,8.631254445717042,0.4368963369300942,0.4888888888888889,-0.6513447331230199,-0.10678009524383628,0.0,-0.026060190487672552
1589995405.5280874,-0.3019327325394271,-4.488067267460573,8.604621821692952,0.4455555555555555,0.4888888888888889,-0.6411111111111111,-0.045693192790473125,-0.016806807209526875,0.0625
1589995405.5380874,-0.28,-4.499027165508805,8.551595079280817,0.4455555555555555,0.4888888888888889,-0.6411111111111111,0.03429010778498396,0.07466043113993584,0.0625
1589995405.5480874,-0.2953454736553489,-4.495115157885117,8.550690947310697,0.4455555555555555,0.4888888888888889,-0.6411111111111111,0.0625,0.12356052643604624,0.0625
1589995405.5580873,-0.30599212613771465,-4.504007873862285,8.600039369311427,0.4455555555555555,0.4888888888888889,-0.6411111111111111,0.0625,0.01240157672143289,0.01240157672143289
1589995405.5680873,-0.2925109513459288,-4.5062554756729645,8.637489048654071,0.4455555555555555,0.4888888888888889,-0.6411111111111111,0.039096722956027424,-0.039096722956027424,-0.10930655408794515
1589995405.5780873,-0.2900767596166356,-4.494961620191682,8.644961620191683,0.4455555555555555,0.4888888888888889,-0.6411111111111111,0.06297974760397242,-0.09446962140595863,-0.12452025239602758
1589995405.5880873,-0.2952036939181198,-4.49959261216376,8.577648020935557,0.4455555555555555,0.4888888888888889,-0.6411111111111111,0.21493073903525325,-0.1875,-0.002546173976497826
