time,acc_x,acc_y,acc_z,mag_x,mag_y,mag_z,gyr_x,gyr_y,gyr_z
1589996268.8282347,-4.09,-0.54,8.86,0.3,-0.3411111111111111,-0.5866666666666667,0.4375,-0.3125,0.5
1589996268.8382347,-4.0656187874207985,-0.5339046968551997,8.914857728303202,0.3,-0.3411111111111111,-0.5866666666666667,0.5517869339650061,-0.23630871068999593,0.5761912893100041
1589996268.8482347,-4.067576275797738,-0.53,8.955858758599247,0.31236849037618597,-0.34501695017727513,-0.5821098544228087,0.625,-0.1875,0.4785310350188503
1589996268.8582346,-4.059754545650627,-0.5367484847831245,8.980245454349374,0.3211111111111111,-0.3477777777777778,-0.5788888888888889,0.2875757608437763,-0.1875,0.2906439402109441
1589996268.8682346,-4.05,-0.5122600406098359,8.842053549919125,0.3211111111111111,-0.3477777777777778,-0.5788888888888889,0.067208417937158,-0.1875,0.19220841793715798
1589996268.8782346,-4.068594447952478,-0.5192972239762389,8.895080567833674,0.3211111111111111,-0.3477777777777778,-0.5788888888888889,-0.2861458991089595,-0.013177050445520255,0.013177050445520255
1589996268.8882346,-4.085865862602885,-0.5279329313014425,8.892067068698559,0.3211111111111111,-0.3477777777777778,-0.5788888888888889,-0.36208082063401514,-0.04958082063401516,0.04958082063401516
1589996268.8982346,-4.082427302388721,-0.5375726976112791,8.89757269761128,0.3101727701170412,-0.33683943678370787,-0.567950547894819,-0.2803412798590107,-0.20448808021148396,0.015170639929505347
1589996268.9082346,-4.0605552006388494,-0.5503701337592334,8.878704531842684,0.30666666666666664,-0.3333333333333333,-0.5644444444444444,0.0034700039928129366,-0.3726866640047914,0.0011566679976043122
1589996268.9182346,-4.085675783589538,-0.5671171890596926,8.820089838291077,0.30666666666666664,-0.3333333333333333,-0.5644444444444444,0.1604736474346177,-0.26801756837692153,0.053491215811539226
1589996268.9282346,-4.071210497835498,-0.5512104978354979,8.838184253246753,0.30666666666666664,-0.3333333333333333,-0.5644444444444444,0.4810859713203463,-0.25,0.003782805735930733
1589996268.9382346,-4.062299367751445,-0.5422993677514449,8.940108219231217,0.30666666666666664,-0.3333333333333333,-0.5644444444444444,0.6925158062138784,-0.3943868546604088,0.048128951553469614
1589996268.9482346,-4.050029277606874,-0.5100585552137478,9.009970722393126,0.30666666666666664,-0.3411111111111111,-0.5722222222222222,0.8748170149570383,-0.3117680598281532,-0.0625
1589996268.9582345,-4.058927760687387,-0.5278555213747746,9.001072239312613,0.30666666666666664,-0.3411111111111111,-0.5722222222222222,0.8192014957038294,-0.08930598281531771,-0.0625
1589996268.9682345,-4.06,-0.5392949832438835,8.869870234585632,0.30666666666666664,-0.3411111111111111,-0.5722222222222222,0.4058444830801018,0.05368729054854235,-0.17868729054854235
1589996268.9782345,-4.069189182844668,-0.54,8.924324279912673,0.30666666666666664,-0.3411111111111111,-0.5722222222222222,-0.027026749454212518,0.0625,-0.1875
1589996268.9882345,-4.064250309974455,-0.5285006199489103,8.901251549872276,0.30666666666666664,-0.3411111111111111,-0.5722222222222222,-0.09843556265965551,0.13437112531931103,-0.1875
1589996268.9982345,-4.049567335575919,-0.5356489966361211,8.900865328848163,0.30666666666666664,-0.3411111111111111,-0.5722222222222222,-0.09239792367474771,0.2527041526505046,-0.28530622897575686
1589996269.0082345,-4.06871249635887,-0.5270300029129041,8.86257500728226,0.30666666666666664,-0.3411111111111111,-0.5722222222222222,0.11695310224293623,0.16893751820565103,-0.5185624817943489
1589996269.0182345,-4.105529439143589,-0.5721177565743542,8.827764719571794,0.30666666666666664,-0.3411111111111111,-0.5722222222222222,0.2985294973237142,-0.13161798929485685,-0.5279410053525716
1589996269.0282345,-4.070762056250452,-0.5507620562504519,8.849618971874774,0.30666666666666664,-0.3411111111111111,-0.5722222222222222,0.8438471549417974,-0.3509914322897838,-0.45912714192755405
1589996269.0382345,-4.05635902156026,-0.54271804312052,8.88543608624104,0.30666666666666664,-0.3411111111111111,-0.5722222222222222,1.4032071932613728,-0.556731654254874,-0.3182683457451259
1589996269.0482345,-4.073848661345605,-0.5292270079815921,8.920772992018408,0.30666666666666664,-0.34572733155964624,-0.5722222222222222,1.3028375997699,-0.49516879988495,0.009662400230099955
1589996269.0582345,-4.061709600402111,-0.5291451997989445,8.957435599396835,0.30666666666666664,-0.3477777777777778,-0.5722222222222222,0.5016100150791656,-0.38034250125659713,0.582259989947223
1589996269.0682344,-4.045011750769055,-0.5225058753845272,8.870070504614327,0.30666666666666664,-0.3477777777777778,-0.5722222222222222,0.20330860576647497,-0.18764688461317997,0.81235311538682
1589996269.0782344,-4.058273905739913,-0.5017260942600869,8.876547811479828,0.30666666666666664,-0.3477777777777778,-0.5722222222222222,-0.33184764349782897,-0.010788089125542757,1.331847643497829
1589996269.0882344,-4.06,-0.51506289006241,8.932720115218435,0.30666666666666664,-0.3477777777777778,-0.5722222222222222,-0.4691430628900624,0.18828612578012482,1.3279284685549688
1589996269.0982344,-4.050859728506787,-0.52,8.922579185520362,0.30666666666666664,-0.3416842634489693,-0.5854248366013072,-0.5571266968325792,0.19287330316742082,1.2553733031674208
1589996269.1082344,-4.059141931121318,-0.5565677244852754,8.947425793363955,0.30666666666666664,-0.3411111111111111,-0.5866666666666667,-0.16254051344230186,0.1875,1.4785482780329704
1589996269.1182344,-4.037291089657355,-0.544860726438237,8.821316174725013,0.30666666666666664,-0.3411111111111111,-0.5866666666666667,0.11155114940254807,-0.09636137928305771,1.5473102298805097
1589996269.1282344,-4.046374779151943,-0.5318126104240283,8.861873895759718,0.30666666666666664,-0.3411111111111111,-0.5866666666666667,0.1875,-0.13632881515017667,1.8695271090989398
1589996269.1382344,-4.06832372237569,-0.5116762776243095,8.898323722375691,0.30666666666666664,-0.3411111111111111,-0.5866666666666667,0.2256744216160221,-0.0486511567679558,2.013848843232044
1589996269.1482344,-4.072319569262441,-0.46927827704976444,8.925360861475118,0.2861855180331763,-0.34623139826948374,-0.5644787556470521,0.10599192367077082,0.04800269210974306,2.206508076329229
1589996269.1582344,-4.0781837975142885,-0.46,8.946367595028576,0.28,-0.3477777777777778,-0.5577777777777778,-0.24439240678581148,0.21594620339290574,2.352297468928604
1589996269.1682343,-4.066297470271143,-0.480553794593285,8.874636086491288,0.28,-0.3477777777777778,-0.5577777777777778,-0.4837816216107085,0.16435918919464576,2.246538783791969
1589996269.1782343,-4.06,-0.46545844071164655,8.864541559288353,0.28,-0.3477777777777778,-0.5577777777777778,-0.7670129940696122,0.2272564970348061,1.5739610177911634
1589996269.1882343,-4.094692523652027,-0.5016310283824321,8.918569533112837,0.28,-0.3477777777777778,-0.5577777777777778,-0.8558656545650335,0.25,1.0472091089146989
1589996269.1982343,-4.093882316506659,-0.5146274388355528,8.945372561164447,0.2907451223288944,-0.3477777777777778,-0.5577777777777778,-0.841421492722205,0.08210746361102508,0.6399504490554351
1589996269.2082343,-4.087845263919016,-0.5021547360809834,8.97353579175705,0.3,-0.3477777777777778,-0.5577777777777778,-0.6163684020245842,-0.11153289949385395,0.09426970354302239
1589996269.2182343,-4.0713391490664215,-0.5,8.91779716355474,0.3,-0.3477777777777778,-0.5577777777777778,-0.2903625905519845,-0.20275354555657585,0.07775354555657585
1589996269.2282343,-4.075252388504236,-0.5,8.872373805747882,0.3,-0.3477777777777778,-0.5577777777777778,0.017991142227207685,-0.05934514369705646,0.07733628592426411
1589996269.2382343,-4.052482852696498,-0.49312071317412437,8.87,0.3,-0.3477777777777778,-0.5577777777777778,0.23448217064689045,-0.08599108532344522,-0.023491085323445224
1589996269.2482343,-4.062575544624034,-0.4824748184586554,8.877525181541346,0.2908025558939122,-0.3277106270008589,-0.5686474844486088,0.07733807683298197,-0.125,-0.0625
1589996269.2582343,-4.07,-0.48784314184679517,8.840784290766024,0.2877777777777778,-0.3211111111111111,-0.5722222222222222,-0.1470589096274092,0.07107854616987894,0.03553927308493947
1589996269.2682343,-4.078713928229155,-0.49871392822915556,8.803858215312534,0.2877777777777778,-0.3211111111111111,-0.5722222222222222,-0.5142723085933341,0.016075897135555323,0.008037948567777661
1589996269.2782342,-4.088347466204818,-0.5,8.891822128252997,0.2877777777777778,-0.3211111111111111,-0.5722222222222222,-0.5625,0.0,0.0
1589996269.2882342,-4.079542349313827,-0.5209153013723475,8.930915301372346,0.2877777777777778,-0.3211111111111111,-0.5722222222222222,-0.529819841605707,-0.09804047518287891,0.0
1589996269.2982342,-4.065850331973442,-0.54,8.974898008159347,0.2928495942546819,-0.3261829275880152,-0.5749886675732608,-0.5,-0.1875,-0.02593542516598672
1589996269.3082342,-4.06,-0.5473647883526558,8.987905634942033,0.3,-0.3333333333333333,-0.5788888888888889,-0.2698503639795093,-0.14147007279590185,0.02955985440819628
1589996269.3182342,-4.066504701243555,-0.5434952987564453,8.908448286320898,0.3,-0.3333333333333333,-0.5788888888888889,0.01577191386108584,-0.003036851683348496,0.0625
1589996269.3282342,-4.062483767718335,-0.5099350708733424,8.854967535436671,0.3,-0.3333333333333333,-0.5788888888888889,0.21895290352080476,0.10947645176040238,0.0625
1589996269.3382342,-4.06,-0.4809010247908974,8.862732650139401,0.3,-0.3333333333333333,-0.5788888888888889,0.36936859505689096,0.08521046831436968,0.10228953168563032
1589996269.3482342,-4.064374287976211,-0.48312286392863346,8.856877136071367,0.297569840013216,-0.3333333333333333,-0.5696542809391097,0.4375,-0.019517899553959342,0.125
1589996269.3582342,-4.07,-0.5,8.8633603268403,0.29444444444444445,-0.3333333333333333,-0.5577777777777778,0.2622975486977457,-0.008198365798497115,0.06659918289924856
1589996269.3682342,-4.064790471653168,-0.5104190566936636,8.853533301572178,0.29444444444444445,-0.3333333333333333,-0.5577777777777778,0.0625,-0.005238208670795608,0.0
1589996269.3782341,-4.053176465811272,-0.5268235341887283,8.874588273509827,0.29444444444444445,-0.3333333333333333,-0.5577777777777778,-0.06544126603865519,0.002941266038655188,0.04264708867955173
1589996269.3882341,-4.067805455051489,-0.5359351516838297,8.953416365154467,0.29444444444444445,-0.3333333333333333,-0.5577777777777778,-0.27337879209574173,-0.04878409407180628,-0.011689396047870865
1589996269.3982341,-4.073053737706144,-0.5191612131184324,9.017785049175423,0.29444444444444445,-0.33873598178411013,-0.5531469362485405,-0.2447575819902023,-0.125,0.024328278673198464
1589996269.4082341,-4.062239454094293,-0.51,8.97567617866005,0.29444444444444445,-0.3411111111111111,-0.5511111111111111,0.05501705955334987,-0.027993176178660054,0.11100341191066998
1589996269.418234,-4.067455021186931,-0.5174550211869313,8.885449788130687,0.29444444444444445,-0.3411111111111111,-0.5511111111111111,0.17159388241832033,0.09318776483664065,0.125
1589996269.428234,-4.062776999906656,-0.52,8.838330999719966,0.29444444444444445,-0.3411111111111111,-0.5511111111111111,0.27778750116680667,0.125,0.07985624941659666
1589996269.438234,-4.06,-0.5106553654743391,8.844016951788491,0.29444444444444445,-0.3411111111111111,-0.5511111111111111,0.3125,0.125,0.0625
1589996269.448234,-4.06,-0.49694040842323156,8.866119183153536,0.29818394526049474,-0.3411111111111111,-0.5551905665468023,0.19776531587118346,0.10587755264519724,0.04337755264519724
1589996269.458234,-4.0672769381513705,-0.5045538763027406,8.901830814454112,0.30666666666666664,-0.3411111111111111,-0.5644444444444444,-0.1079808634460643,-0.028461726892128628,0.045480863446064314
1589996269.468234,-4.062053153568224,-0.5179468464317758,8.822584689250467,0.30666666666666664,-0.3411111111111111,-0.5644444444444444,-0.1746677901985984,0.036835580397196824,0.0625
1589996269.478234,-4.067262077792481,-0.5127379222075189,8.879882855717293,0.30666666666666664,-0.3411111111111111,-0.5644444444444444,-0.2328879862030067,0.0625,0.0625
1589996269.488234,-4.0641681417689295,-0.51,8.944991149386425,0.30666666666666664,-0.3411111111111111,-0.5644444444444444,-0.3593473418325742,0.09894911394419141,0.09894911394419141
1589996269.498234,-4.06,-0.5140925135045535,8.974092513504553,0.3098497327257639,-0.3438394534474801,-0.5617161021080754,-0.386343581193081,0.0994217905965405,0.176156418806919
1589996269.508234,-4.068368651677321,-0.511631348322678,8.954894044968034,0.3144444444444445,-0.3477777777777778,-0.5577777777777778,-0.33865203649163134,0.1148040729832627,0.1976959270167373
1589996269.518234,-4.075425866387197,-0.509148267225607,8.887981064710376,0.3144444444444445,-0.3477777777777778,-0.5577777777777778,-0.375,0.10173499475993392,0.21076500524006608
1589996269.528234,-4.07,-0.52,8.833951842855635,0.3144444444444445,-0.3477777777777778,-0.5577777777777778,-0.29977426338578517,-0.0250752455380716,0.2623495089238568
1589996269.538234,-4.074313742452292,-0.52,8.83588245471375,0.3144444444444445,-0.3477777777777778,-0.5577777777777778,-0.16053910967317775,-0.0625,0.1875
1589996269.548234,-4.08,-0.52,8.876498657597995,0.3119171887118907,-0.34308430284589225,-0.5693309468408807,-0.04376678002505817,-0.12342491498120638,0.1875
1589996269.558234,-4.05575487055611,-0.507877435278055,8.896061282360973,0.30666666666666664,-0.3333333333333333,-0.5933333333333334,-0.02653205902431338,-0.1742339704878433,0.3011490442682351
1589996269.568234,-4.04,-0.5137343562817016,8.851929753014044,0.30666666666666664,-0.3333333333333333,-0.5933333333333334,-0.33959931690158796,-0.16791986338031759,0.28916027323936483
1589996269.578234,-4.045175411037805,-0.504473766886585,8.876578699340245,0.30666666666666664,-0.3333333333333333,-0.5933333333333334,-0.40515368101371874,-0.05811472405487486,0.2176536810137187
1589996269.588234,-4.056390794324656,-0.4995861914869847,8.93917238297397,0.30666666666666664,-0.3333333333333333,-0.5933333333333334,-0.375,0.04252876773544856,0.1875
1589996269.598234,-4.07,-0.52,8.983082805624129,0.2970757158360464,-0.337786274790407,-0.5823722466697674,-0.31719739454760115,-0.03853507030159923,0.22603507030159922
1589996269.608234,-4.075269265875603,-0.5252692658756031,9.00580779762681,0.27555555555555555,-0.3477777777777778,-0.5577777777777778,-0.25336582344503844,-0.22379873516755772,0.3125
1589996269.618234,-4.08,-0.5442339724463586,8.891894247982773,0.27555555555555555,-0.3477777777777778,-0.5577777777777778,-0.26801883610512933,-0.13457534442051733,0.49042465557948267
1589996269.628234,-4.065626908463672,-0.5212538169273444,8.854373091536328,0.27555555555555555,-0.3477777777777778,-0.5577777777777778,-0.20508408894897556,-0.0625,0.6074159110510244
1589996269.638234,-4.06,-0.5156683933891197,8.87133678677824,0.27555555555555555,-0.3477777777777778,-0.5577777777777778,-0.08121762395400467,-0.1333549173639969,0.625
1589996269.648234,-4.06,-0.5150354517829779,8.889929096434045,0.2948621319550858,-0.3406067636865237,-0.5682584906803799,0.0,-0.12544314728722436,0.5629431472872244
1589996269.658234,-4.0720261263663025,-0.49797387363369766,8.875947747267395,0.3144444444444445,-0.3333333333333333,-0.5788888888888889,0.0,-0.024918355105305254,0.46241835510530527
1589996269.6682339,-4.075799859933079,-0.49,8.843199439732317,0.3144444444444445,-0.3333333333333333,-0.5788888888888889,-0.02625087541825539,-0.02625087541825539,0.4375
1589996269.6782339,-4.07,-0.4948080614203455,8.832821497120921,0.3144444444444445,-0.3333333333333333,-0.5788888888888889,-0.10256717850287908,-0.08253358925143954,0.4675503838771593
1589996269.6882339,-4.07,-0.5286671856366768,8.917334371273354,0.3144444444444445,-0.3333333333333333,-0.5788888888888889,-0.2583300897707698,-0.15138672651384655,0.5708300897707699
1589996269.6982338,-4.07,-0.5495080826818604,8.959016165363721,0.3144444444444445,-0.3333333333333333,-0.5788888888888889,-0.12807448323837284,-0.06454965549224859,0.44057448323837284
1589996269.7082338,-4.060811800263931,-0.5245940998680346,8.995405900131965,0.2877777777777778,-0.3333333333333333,-0.5644444444444444,-0.07431968626282406,-0.17568031373717594,0.516893437912392
1589996269.7182338,-4.087141471060193,-0.5128585289398067,8.969980594842706,0.2877777777777778,-0.3333333333333333,-0.5644444444444444,0.13396322349516737,-0.24103677650483263,0.5267683882524163
1589996269.7282338,-4.071702685003275,-0.5117026850032744,8.87,0.2877777777777778,-0.3333333333333333,-0.5644444444444444,0.26064178127046495,-0.036570890635232486,0.33378356254092995
1589996269.7382338,-4.062720670080142,-0.5027206700801424,8.875441340160284,0.2877777777777778,-0.3333333333333333,-0.5644444444444444,0.15349162399821906,-0.01700418800089047,0.17049581199910951
1589996269.7482338,-4.07,-0.5134283976628511,8.893428397662852,0.2877777777777778,-0.33828546329078485,-0.5644444444444444,0.1267824561784574,-0.0625,0.125
1589996269.7582338,-4.061188510686419,-0.52,8.882377021372838,0.2877777777777778,-0.3477777777777778,-0.5644444444444444,0.22246409589505822,-0.034964095895058236,0.125
1589996269.7682338,-4.05,-0.5021057728283117,8.824211545656624,0.2877777777777778,-0.3477777777777778,-0.5644444444444444,0.07566108017694831,-0.11183891982305169,0.125
1589996269.7782338,-4.0686021590103225,-0.5086021590103222,8.862007196701075,0.2877777777777778,-0.3477777777777778,-0.5644444444444444,-0.03875449793817141,-0.1875,-0.06877248969085703
1589996269.7882338,-4.08,-0.5149140244692468,8.920343902123012,0.2877777777777778,-0.3477777777777778,-0.5644444444444444,-0.030712652932792864,-0.060350611731171455,-0.09213795879837859
1589996269.7982337,-4.08,-0.51,8.961303036173922,0.2906181826009675,-0.34162356732753346,-0.5705986548946888,0.07988638565221001,-0.07064397608701667,-0.026628795217403335
1589996269.8082337,-4.074960790836937,-0.5150392091630626,8.969843163347749,0.29444444444444445,-0.3333333333333333,-0.5788888888888889,0.1875,-0.1870098854617176,-0.0625
1589996269.8182337,-4.0646949208028005,-0.5146949208028002,8.886339049633602,0.29444444444444445,-0.3333333333333333,-0.5788888888888889,0.08802976505250434,-0.025529765052504344,-0.02934325501750145
1589996269.8282337,-4.069477109560902,-0.5194771095609022,8.848954219121804,0.29444444444444445,-0.3333333333333333,-0.5788888888888889,-0.02961596737781936,-0.055963869511277436,0.0
1589996269.8382337,-4.08,-0.5244737837373217,8.875526216262678,0.29444444444444445,-0.3333333333333333,-0.5788888888888889,-0.07976942582086986,-0.13569172253739042,0.017269425820869863
1589996269.8482337,-4.08,-0.5100529482551144,8.889947051744887,0.29444444444444445,-0.3333333333333333,-0.5788888888888889,-0.12483453670276774,-0.000496389891696758,0.06233453670276774
1589996269.8582337,-4.0694969987995195,-0.52,8.9237424969988,0.30666666666666664,-0.3333333333333333,-0.5955555555555555,0.0328218787515006,-0.1875,0.0328218787515006
1589996269.8682337,-4.074092128477173,-0.52,8.890921284771732,0.30666666666666664,-0.3333333333333333,-0.5955555555555555,0.03692419701766682,-0.29827259105300047,0.0
1589996269.8782337,-4.065861093183736,-0.5158610931837363,8.866555627265054,0.30666666666666664,-0.3333333333333333,-0.5955555555555555,0.08836816760164821,-0.32326366479670354,-0.02586816760164822
1589996269.8882337,-4.058215799403899,-0.5153526017883022,8.893568401192201,0.30666666666666664,-0.3333333333333333,-0.5955555555555555,0.125,-0.19424373137185202,-0.040197492548740804
1589996269.8982337,-4.054701070849962,-0.5329483937250563,8.919402141699925,0.30039857220005006,-0.3333333333333333,-0.5882427786778361,0.11030915359386731,0.07719084640613269,0.04780915359386731
1589996269.9082336,-4.068852161537094,-0.5054086461483722,8.940817292296744,0.28,-0.3333333333333333,-0.5644444444444444,0.0911959615726739,0.11782600960683152,0.01434798078633695
1589996269.9182336,-4.063472174178451,-0.4838886967138061,8.852639129107741,0.28,-0.3333333333333333,-0.5644444444444444,0.20399455692338997,0.0625,0.125
1589996269.9282336,-4.059284705371048,-0.5064282351236826,8.823571764876318,0.28,-0.3333333333333333,-0.5644444444444444,-0.044647060953967616,0.04017646952301619,0.10267646952301619
1589996269.9382336,-4.061611433675748,-0.5086445734702992,8.873222867351496,0.28,-0.3333333333333333,-0.5644444444444444,-0.15201429209468512,0.027014292094685127,0.03548570790531487
1589996269.9482336,-4.075326691213631,-0.5089950184102231,8.937336654393183,0.28529869483952225,-0.3406699877265179,-0.5672975878195717,-0.2792081799148076,0.1083540899574038,0.0
1589996269.9582336,-4.06057368170198,-0.5111473634039603,8.96057368170198,0.29444444444444445,-0.3533333333333333,-0.5722222222222222,-0.5366282659560639,0.05532897872524806,0.033042755318687986
1589996269.9682336,-4.074908339411622,-0.5398166788232434,8.935641624118649,0.29444444444444445,-0.3533333333333333,-0.5722222222222222,-0.5943228786773644,0.06020848529054218,0.12385424264527109
1589996269.9782336,-4.075179055139801,-0.5210743308388045,8.9048209448602,0.29444444444444445,-0.3533333333333333,-0.5722222222222222,-0.4419763784950186,0.15736909462375465,0.21763090537624535
1589996269.9882336,-4.059015118239653,-0.4954924408801734,8.920984881760347,0.29444444444444445,-0.3533333333333333,-0.5722222222222222,-0.26100836674837413,0.2108193887527098,0.25
1589996269.9982336,-4.0352436346118425,-0.5073781826940789,8.944756365388157,0.29444444444444445,-0.3533333333333333,-0.5722222222222222,-0.14957953724301118,0.39653410459498134,0.25
1589996270.0082335,-4.034141421167959,-0.4441414211679594,8.90414142116796,0.29444444444444445,-0.3477777777777778,-0.5644444444444444,-0.30492417655038084,0.03661611770025391,0.7790402942506347
1589996270.0182335,-4.009604905615006,-0.4248024528075027,8.85361716965252,0.29444444444444445,-0.3477777777777778,-0.5644444444444444,-0.5024693399062162,0.027545990140675713,1.357331369484189
1589996270.0282335,-3.99375777720958,-0.39815222023352936,8.83560555697605,0.29444444444444445,-0.3477777777777778,-0.5644444444444444,-0.5625,-0.14052778488025228,2.233694494161766
1589996270.0382335,-3.981841813687889,-0.356446347907611,8.865395465780278,0.29444444444444445,-0.3477777777777778,-0.5644444444444444,-0.5625,-0.2894773289013892,3.2763413023097243
1589996270.0482335,-4.046097366575273,-0.40512370082254673,8.962928967672001,0.29444444444444445,-0.3477777777777778,-0.5674798259970102,-0.3993914589045463,-0.42378291780909266,6.315592520563667
1589996270.0582335,-4.030588963127938,-0.4788220737441228,9.020588963127938,0.29444444444444445,-0.3477777777777778,-0.5722222222222222,-0.2316335684236575,-0.5,8.599194196980946
1589996270.0682335,-4.028548084838082,-0.5113974464507768,8.984355745485752,0.29444444444444445,-0.3477777777777778,-0.5722222222222222,0.08904255039669336,-0.5712340403173547,9.998978711666112
1589996270.0782335,-4.048396433322547,-0.5420044583468163,8.921603566677453,0.29444444444444445,-0.3477777777777778,-0.5722222222222222,0.3275334376011218,-0.7600222917340812,10.980094739869845
1589996270.0882335,-4.003736004108886,-0.6056599897277863,8.94747200821777,0.29444444444444445,-0.3477777777777778,-0.5722222222222222,0.7657999486389317,-1.0391499743194659,12.215324858757063
1589996270.0982335,-3.9818382282445435,-0.6372794094148477,8.925441181170305,0.29595588365841796,-0.3477777777777778,-0.5761519641785533,1.0565258381004123,-1.125,12.806525838100413
1589996270.1082335,-3.853061779629985,-0.6400254581596889,8.966734555092504,0.3,-0.3477777777777778,-0.5866666666666667,1.5003182269961115,-1.2085454846640744,13.25031822699611
1589996270.1182334,-3.5809075572255664,-0.6326156972508723,8.978202906330278,0.3,-0.3477777777777778,-0.5866666666666667,1.957183869483532,-1.5461518921820483,13.346864096468694
1589996270.1282334,-3.060506947700965,-0.3101922649751956,8.536293654515388,0.3,-0.3477777777777778,-0.5866666666666667,3.4901661648197053,-2.8651661648197053,11.378168423131031
1589996270.1382334,-2.578534357676997,-0.18698165854384463,8.404387626027754,0.3,-0.3477777777777778,-0.5866666666666667,2.2953839428550165,-1.3278093493061496,9.418033129952752
1589996270.1482334,-2.0674050150451353,-0.35630170511534603,8.607041925777331,0.297736498384041,-0.3477777777777778,-0.5786415245737212,-1.046351554663992,2.882018555667001,7.326344032096289
1589996270.1582334,-1.8779600477271852,-0.7616404295446673,8.968580501135445,0.2877777777777778,-0.3477777777777778,-0.5433333333333333,-4.989321523420961,8.260384992879413,3.627629325276163
1589996270.1682334,-1.9347557382665297,-0.4278963115222108,8.712133607399794,0.2877777777777778,-0.3477777777777778,-0.5433333333333333,1.7186565033687335,1.3982428343039854,-1.5151421719767044
1589996270.1782334,-2.153446809700971,-0.5652916165487146,8.925679599429355,0.2877777777777778,-0.3477777777777778,-0.5433333333333333,0.4059449215362668,2.0094023609052,-6.7712453495202665
1589996270.1882334,-2.3208778250900752,-0.7049842970270322,8.949184986801797,0.2877777777777778,-0.3477777777777778,-0.5433333333333333,-0.010187664977553412,0.520767904279301,-12.100119699042407
1589996270.1982334,-2.4094642373951474,-0.6559523165268634,8.940833107844021,0.28504628376911234,-0.3477777777777778,-0.550747388499711,0.7414445596945372,1.0115356573765069,-16.04836933646012
1589996270.2082334,-2.4303259664131813,-0.6420977899239544,8.902423756337136,0.28,-0.3477777777777778,-0.5644444444444444,1.288314916032953,2.1118888129752853,-20.150334927519012
1589996270.2182333,-2.497001422812426,-0.656499288593787,8.92048790609438,0.28,-0.3477777777777778,-0.5644444444444444,1.3281027685558453,2.065638338866493,-23.987802347640503
1589996270.2282333,-2.5387064391223286,-0.6547844065203882,8.805215593479613,0.28,-0.3477777777777778,-0.5644444444444444,1.184805081504852,2.277207622257278,-28.60395752665041
1589996270.2382333,-2.5773198857745685,-0.66,8.829279543098275,0.28,-0.3477777777777778,-0.5644444444444444,1.2957492860910529,2.5579971443642116,-32.066102511868166
1589996270.2482333,-2.6039250622297914,-0.6669625311148959,8.886962531114897,0.28180510065941744,-0.34906713539164735,-0.5644444444444444,1.375,2.918515819468099,-35.46182693567405
1589996270.2582333,-2.668052605039283,-0.6990263025196415,8.913008767506547,0.2877777777777778,-0.3533333333333333,-0.5644444444444444,1.3561952030840803,3.0436952030840803,-39.73503098719846
1589996270.2682333,-2.7089879141792865,-0.7194939570896433,8.919831319029882,0.2877777777777778,-0.3533333333333333,-0.5644444444444444,1.3135542560632432,3.0010542560632434,-42.67725633163622
1589996270.2782333,-2.7581117580312133,-0.7454078386874756,8.880815677374951,0.2877777777777778,-0.3533333333333333,-0.5644444444444444,1.2550979835934448,3.396997479491806,-47.62207025800331
1589996270.2882333,-2.78,-0.76,8.91,0.2877777777777778,-0.3533333333333333,-0.5644444444444444,1.4645427912402567,3.6475356593668806,-50.56489938490906
1589996270.2982333,-2.782869597553921,-0.7686087926617635,8.914304396330882,0.2925604403676464,-0.3515796903837148,-0.5665169315667208,1.8304349847120072,3.9733699694240143,-54.3057120795802
1589996270.3082333,-2.799473416987017,-0.8205265830129832,8.938771306303039,0.3211111111111111,-0.3411111111111111,-0.5788888888888889,1.9364029520562849,4.18969409588743,-57.30704649307319
1589996270.3182333,-2.7665217900381704,-0.8569564199236588,8.838696110343534,0.3211111111111111,-0.3411111111111111,-0.5788888888888889,1.983694061307168,4.377716436784301,-61.63041823759455
1589996270.3282332,-2.7687054729646254,-0.8816072972861673,8.800312770250793,0.3211111111111111,-0.3411111111111111,-0.5788888888888889,2.241909206028909,4.608818412057818,-64.65682010048182
1589996270.3382332,-2.7916966861244235,-0.9133933722488473,8.853393372248847,0.3211111111111111,-0.3411111111111111,-0.5788888888888889,2.3962085765552956,4.9598343062211825,-67.37340154904945
1589996270.3482332,-2.8129978883861235,-0.9348742081447964,8.87,0.32544374057315234,-0.3411111111111111,-0.5788888888888889,2.489845399698341,5.375,-70.37100301659125
1589996270.3582332,-2.8962733845977273,-0.9654244615325758,8.880848923065152,0.3477777777777778,-0.3411111111111111,-0.5788888888888889,2.4205485577107004,5.408902884578599,-74.04671778759707
1589996270.3682332,-2.9484847147114004,-0.9863635360335503,8.89939410661075,0.3477777777777778,-0.3411111111111111,-0.5788888888888889,2.394886050104845,5.513257366736563,-76.50567680167752
1589996270.3782332,-3.02,-1.045863474378405,8.827590423135215,0.3477777777777778,-0.3411111111111111,-0.5788888888888889,2.5625,5.673862286486708,-79.78606300946217
1589996270.3882332,-3.023849214962738,-1.070641535827123,8.901283071654246,0.3477777777777778,-0.3411111111111111,-0.5788888888888889,2.558490401080481,5.879009598919518,-82.43444155029786
1589996270.3982332,-3.07899106741212,-1.0850446629394,8.91394640447272,0.350468264678791,-0.3371874843804668,-0.5805704432020221,2.5189174860227492,5.969029143371249,-85.35831566094724
1589996270.4082332,-3.067612728920504,-1.1419363553974795,8.857612728920504,0.3744444444444445,-0.3022222222222222,-0.5955555555555555,2.7322613327405483,6.309681776987397,-87.94479510439288
1589996270.4182332,-3.060440655939536,-1.1777967203023203,8.850440655939536,0.3744444444444445,-0.3022222222222222,-0.5955555555555555,2.8667377011337014,6.4889836015116025,-89.46886061284862
1589996270.4282331,-3.0453406270111243,-1.2393187459777513,8.759318745977751,0.3744444444444445,-0.3022222222222222,-0.5955555555555555,2.8270605405902365,6.495742162360945,-91.94107405534615
1589996270.4382331,-3.030058963484018,-1.2706485983241957,8.790176890452052,0.3744444444444445,-0.3022222222222222,-0.5955555555555555,2.8761055653253336,6.688237043550222,-93.19708156615289
1589996270.4482331,-3.037084417070684,-1.382915582929316,8.822186687196988,0.376793108470838,-0.3002785002693449,-0.5938547988467878,3.071611196654113,6.817055598327056,-94.90816756486818
1589996270.458233,-3.002174826775422,-1.4178251732245781,8.848368879918434,0.4049147228753546,-0.2770054400725035,-0.5734908711745517,3.1807036663268065,6.871601833163403,-96.05363849643147
1589996270.468233,-3.04,-1.4845391629133253,8.869290343842689,0.4066666666666667,-0.27555555555555555,-0.5722222222222222,2.9215437218499396,6.739804185433374,-97.74645721190817
1589996270.478233,-3.0356590296495956,-1.5265114555256065,8.778681940700809,0.4066666666666667,-0.27555555555555555,-0.5722222222222222,3.2010655323450137,6.779548517520215,-98.63565532345014
1589996270.488233,-3.0230982466879452,-1.5623929867517818,8.822392986751781,0.4066666666666667,-0.27555555555555555,-0.5722222222222222,3.2596820208998296,7.533453937300512,-99.26054829259762
1589996270.498233,-3.0369754317087385,-1.6350409471521026,8.88596724227832,0.41137155067529574,-0.2742113029816615,-0.5736784958439407,3.2998976321197437,7.343494080299359,-100.07561420728153
1589996270.508233,-3.0046567082072655,-1.6933582294818357,8.825955186932696,0.4533333333333333,-0.26222222222222225,-0.5866666666666667,3.270988934261473,7.112593360556883,-100.88358229481835
1589996270.518233,-2.9882322914650667,-1.7406062512095994,8.751161457325335,0.4533333333333333,-0.26222222222222225,-0.5866666666666667,3.4779036433133346,7.261048178343333,-101.36048178343333
1589996270.528233,-2.9754817591870135,-1.7975304013549775,8.716024321083983,0.4533333333333333,-0.26222222222222225,-0.5866666666666667,3.365586998306278,7.3125,-101.9597170152435
1589996270.538233,-2.9515357679791427,-1.8374403867014293,8.747952309361143,0.4533333333333333,-0.26222222222222225,-0.5866666666666667,3.3156995166232135,7.3125,-102.40870435039108
1589996270.548233,-2.943204120498615,-1.86718351800554,8.770387638504154,0.4533333333333333,-0.26222222222222225,-0.5866666666666667,3.3125,7.270025753116344,-102.81976822195291
1589996270.558233,-2.8875195939389413,-1.9412271404045682,8.832480406061059,0.48248911447836584,-0.23889759730619625,-0.6061038540966883,3.3125,7.359334179293872,-103.60133798611629
1589996270.568233,-2.776563492390811,-1.957956654431476,8.832043345568524,0.4866666666666667,-0.23555555555555555,-0.6088888888888889,3.3622290901967253,7.325270909803274,-104.0853327215738
1589996270.578233,-2.848878521471992,-2.028971828224067,8.758971828224066,0.4866666666666667,-0.23555555555555555,-0.6088888888888889,3.2710277224001567,7.118573926400418,-105.11214785280083
1589996270.588233,-2.8420246421334725,-2.083802862932218,8.813802862932217,0.4866666666666667,-0.23555555555555555,-0.6088888888888889,3.3995379599973856,7.461267893326362,-105.79753578665272
1589996270.598233,-2.8496364656865922,-2.131272370096928,8.780727068626815,0.48721196813677875,-0.2344043635630968,-0.6095351721127255,3.8738639552706,7.8125,-106.7022685814822
1589996270.608233,-2.8315275349178592,-2.1946536277874924,8.816944930164281,0.5143753642898776,-0.1770594161287769,-0.6417288268126945,3.8172735466183108,7.8125,-107.43794389396196
1589996270.618233,-2.8057576537589086,-2.232207725349507,8.81337682395148,0.5166666666666667,-0.17222222222222222,-0.6444444444444445,3.450216380572403,7.75,-108.66531294744124
1589996270.628233,-2.758523785775189,-2.27269389790698,8.691918306279058,0.5166666666666667,-0.17222222222222222,-0.6444444444444445,3.492389476986438,7.75,-109.2135632008237
1589996270.638233,-2.668282722513089,-2.336869109947644,8.742020942408377,0.5166666666666667,-0.17222222222222222,-0.6444444444444445,3.4785340314136124,7.864267015706806,-111.03979057591623
1589996270.648233,-2.6601495055264692,-2.3694019778941247,8.798953461314719,0.5166666666666667,-0.17222222222222222,-0.6444444444444445,3.376868819080861,7.813434409540431,-112.41227094240838
1589996270.658233,-2.59472402956668,-2.4605519408666403,8.78944805913336,0.5433333333333333,-0.13111111111111112,-0.6377777777777778,3.625,8.1875,-115.3125
1589996270.668233,-2.567477269447251,-2.496261365276375,8.749564391206043,0.5433333333333333,-0.13111111111111112,-0.6377777777777778,3.6510890219848946,8.291856087939578,-115.69079081878097
1589996270.678233,-2.5178538043607204,-2.5328771738356783,8.712146195639281,0.5433333333333333,-0.13111111111111112,-0.6377777777777778,3.763413722745498,8.727741168236495,-117.90299591923889
1589996270.688233,-2.5031434333249307,-2.5937131333501386,8.728570708343836,0.5433333333333333,-0.13111111111111112,-0.6377777777777778,3.8125,8.917853541719182,-121.07140156289387
1589996270.698233,-2.4706111962149273,-2.6587776075701464,8.76923600473134,0.5433333333333333,-0.13111111111111112,-0.6377777777777778,3.8125,9.121180023656706,-122.5963501774253
1589996270.7082329,-2.4181605978692957,-2.7173576085228177,8.808963587215773,0.5633333333333334,-0.0811111111111111,-0.6588888888888889,3.8469887899507076,9.289507473366195,-124.84990658292256
1589996270.7182329,-2.41149133407537,-2.744034663698521,8.768948004452218,0.5633333333333334,-0.0811111111111111,-0.6588888888888889,3.972037486086818,9.20614167594212,-125.89197905072349
1589996270.7282329,-2.3735055529461673,-2.8243296313692214,8.655412039211527,0.5633333333333334,-0.0811111111111111,-0.6588888888888889,3.8327951470432264,9.194265049014408,-128.086331078317
1589996270.7382329,-2.3353761306646867,-2.849749246223542,8.687186557779427,0.5633333333333334,-0.0811111111111111,-0.6588888888888889,3.9519495916728533,9.233983197224285,-128.96013033893425
1589996270.7482328,-2.283287128712871,-2.878356435643564,8.736712871287128,0.5633333333333334,-0.0811111111111111,-0.6588888888888889,3.59845297029703,9.479455445544554,-130.3450495049505
1589996270.7582328,-2.200660416570452,-2.896226388953032,8.728443402761743,0.57,-0.022222222222222227,-0.6666666666666666,3.654186198217337,9.741744792869348,-131.5153298619129
1589996270.7682328,-2.15,-2.9375846628470694,8.708623005729397,0.57,-0.022222222222222227,-0.6666666666666666,3.836202071397091,10.351297928602909,-131.96712758924636
1589996270.7782328,-2.15,-2.9967374173644776,8.619893873953282,0.57,-0.022222222222222227,-0.6666666666666666,4.021054429263993,10.166445570736007,-132.19819303658
1589996270.7882328,-2.189962061089389,-3.064461306182494,8.712230653091249,0.57,-0.022222222222222227,-0.6666666666666666,3.5348539545507336,10.173558418179706,-132.43029209089852
1589996270.7982328,-2.1168934613448958,-3.0969362394022686,8.728468119701136,0.57,-0.022222222222222227,-0.6666666666666666,3.7885643703302234,10.07207425186791,-131.92287125933956
1589996270.8082328,-2.0454741506067795,-3.16,8.736982767071186,0.57,0.027777777777777776,-0.7022222222222222,3.6155711470974574,10.231142294194914,-130.59563638324153
1589996270.8182328,-2.0208051836022505,-3.16,8.720536789068168,0.57,0.027777777777777776,-0.7022222222222222,3.5641774658380223,10.128354931676045,-129.4135817142745
1589996270.8282328,-1.9633211700663995,-3.212021893880481,8.62801459592032,0.57,0.027777777777777776,-0.7022222222222222,3.1457573129149967,10.008348537417001,-127.44945265298797
1589996270.8382328,-1.9215044565412454,-3.2872919782257584,8.678194652150506,0.57,0.027777777777777776,-0.7022222222222222,2.884402853382784,10.060619429323443,-125.56770054435604
1589996270.8482327,-1.8522681152483969,-3.2609720493921697,8.689675983535944,0.57,0.027777777777777776,-0.7022222222222222,2.7540502058007084,10.0625,-123.44385349861204
1589996270.8582327,-1.8149543462775488,-3.3125684805836766,8.75132989401429,0.6040721633412721,0.06379692188140824,-0.7285064625140607,2.5309646642346797,10.0625,-121.12988780840547
1589996270.8682327,-1.773012841018142,-3.323974317963716,8.705544943563497,0.6088888888888889,0.06888888888888889,-0.7322222222222222,2.570412820454234,9.80949538454508,-117.39162820454234
1589996270.8782327,-1.7360275655021833,-3.3860275655021836,8.596620724163028,0.6088888888888889,0.06888888888888889,-0.7322222222222222,2.229740947962154,9.450344568777293,-114.4400842658297
1589996270.8882327,-1.7077447137087194,-3.3622552862912807,8.643007048388375,0.6088888888888889,0.06888888888888889,-0.7322222222222222,1.6499118951453235,9.129698513106835,-111.73688326601726
1589996270.8982327,-1.682832026609646,-3.387167973390354,8.676223964520473,0.6088888888888889,0.06888888888888889,-0.7322222222222222,1.2347004434941,9.181599944563237,-108.8304031044587
1589996270.9082327,-1.6298495863624967,-3.4000902481825017,8.689759338179995,0.6266666666666667,0.06666666666666668,-0.7466666666666667,1.2490599147656054,9.185995863624969,-104.80121897718726
1589996270.9182327,-1.5860384808222612,-3.4263769115066434,8.619661569315618,0.6266666666666667,0.06666666666666668,-0.7466666666666667,0.9752405051391326,8.747884808222611,-101.51538606166959
1589996270.9282327,-1.5733658661872352,-3.4167317323744704,8.570195197123411,0.6266666666666667,0.06666666666666668,-0.7466666666666667,0.6472566456915372,8.107013291383074,-98.61616315654295
1589996270.9382327,-1.545444706535313,-3.4427403912862498,8.607295684750936,0.6266666666666667,0.06666666666666668,-0.7466666666666667,0.44884313861523517,7.403245108921881,-93.99864714860553
1589996270.9482327,-1.5338940172646076,-3.492741879147747,8.650529913676962,0.6266666666666667,0.06666666666666668,-0.7466666666666667,0.6664743525772168,6.930876079037972,-90.5786325532658
1589996270.9582326,-1.5237010095516503,-3.538896971345049,8.695195961793399,0.616868237080345,0.05686823708034491,-0.764163862356527,0.8912373806043713,6.254444406675958,-86.19792905945137
1589996270.9682326,-1.4853465898946616,-3.5361386359578644,8.703069317978931,0.6111111111111112,0.05111111111111112,-0.7744444444444445,1.1974005757900374,5.826732949473309,-81.41955956525621
1589996270.9782326,-1.486622216295506,-3.560562963950749,8.584503711605992,0.6111111111111112,0.05111111111111112,-0.7744444444444445,1.4929629506156377,5.5413888518469125,-74.79509212339423
1589996270.9882326,-1.4306907587678357,-3.569884873538694,8.659078988309552,0.6111111111111112,0.05111111111111112,-0.7744444444444445,1.3764390807663245,5.191817242298973,-70.36718506912032
1589996270.9982326,-1.4211996515975527,-3.596401045207342,8.677600696804895,0.6111111111111112,0.05111111111111112,-0.7744444444444445,1.2099934674541128,4.967491289938817,-66.13233450883753
1589996271.0082326,-1.396966620129458,-3.6076777932901805,8.703033379870542,0.5676036158000874,0.041727141534223654,-0.6806047486755699,1.0915275838727418,4.361665503236451,-61.867561979100564
1589996271.0182326,-1.3788114875910238,-3.633565537226928,8.635840206568584,0.5544444444444444,0.03888888888888889,-0.6522222222222223,1.1361423038341507,3.918929493609749,-55.71772830286818
1589996271.0282326,-1.3632285629365435,-3.68031431119037,8.581299970277902,0.5544444444444444,0.03888888888888889,-0.6522222222222223,1.2822322224699063,3.6754462958834893,-52.01678369742904
1589996271.0382326,-1.328686200192455,-3.64,8.641313799807545,0.5544444444444444,0.03888888888888889,-0.6522222222222223,1.244525834135229,3.111314585338073,-46.04745586300348
1589996271.0482326,-1.3039755700005893,-3.64,8.66602442999941,0.5544444444444444,0.03888888888888889,-0.6522222222222223,1.1415648750024547,2.853912187506137,-42.237900375090824
1589996271.0582325,-1.2700332147652589,-3.6699003557042236,8.719900355704224,0.5366666666666666,0.13777777777777778,-0.5788888888888889,0.9991696308685307,2.374169630868531,-37.17213817106782
1589996271.0682325,-1.2799135473840428,-3.6402593578478717,8.690259357847872,0.5366666666666666,0.13777777777777778,-0.5788888888888889,0.7521613153989306,2.1271613153989306,-32.60248433488022
1589996271.0782325,-1.250180918398451,-3.662364311201162,8.593087984794966,0.5366666666666666,0.13777777777777778,-0.5788888888888889,0.9363692600096825,1.892038424987897,-29.301037949830558
1589996271.0882325,-1.2135178469173507,-3.678827384360883,8.639446459247948,0.5366666666666666,0.13777777777777778,-0.5788888888888889,0.7241442387224025,1.6469865432334414,-24.71171740790227
1589996271.0982325,-1.191331977878985,-3.580437215354587,8.494433148991542,0.5366666666666666,0.13777777777777778,-0.5788888888888889,0.454149723487313,1.5472165744957709,-21.8387138093689
1589996271.1082325,-1.1949718078937897,-3.4376550565841564,9.268364857839805,0.5258536942989297,0.1843567356695681,-0.5847112586253627,-1.839697384732275,0.0963930099572119,-18.222802615267724
1589996271.1182325,-1.19,-3.6149407861582397,8.734703930791198,0.5222222222222223,0.2,-0.5866666666666667,5.6778541281706705,2.6988571938518393,-11.877220519066016
1589996271.1282325,-1.19,-3.6589763564589286,8.954881782294642,0.5222222222222223,0.2,-0.5866666666666667,-1.0926148055602214,-1.099210744582563,-10.22588663279019
1589996271.1382325,-1.2484047330529617,-3.623497041841899,8.97460118326324,0.5222222222222223,0.2,-0.5866666666666667,-1.3412573953952527,-0.5943269299308576,-7.769179022025804
1589996271.1482325,-1.1892045591605354,-3.569602279580268,8.374034193704016,0.5222222222222223,0.2,-0.5866666666666667,1.2508518272825953,0.07947435472198766,-3.5421880653720907
1589996271.1582325,-1.206682546556951,-3.6407016024252923,8.582152446946731,0.5368952408450027,0.2432038881670757,-0.5760694865502141,-0.3259527934170636,-0.4085913815504547,-0.8241663057600694
1589996271.1682324,-1.2397923607526629,-3.770207639247337,8.551661113978698,0.5422222222222223,0.2588888888888889,-0.5722222222222222,1.3542360752662943,-0.2655729435502792,3.6950782459762563
1589996271.1782324,-1.2299055955272444,-3.7802360111818887,8.630188808945512,0.5422222222222223,0.2588888888888889,-0.5722222222222222,0.37736011181889006,-0.9994099720452775,7.015045712845424
1589996271.1882324,-1.2106842032904084,-3.828289491773979,8.668631593419184,0.5422222222222223,0.2588888888888889,-0.5722222222222222,0.8578949177397919,-0.879276270565052,10.078455100591174
1589996271.1982324,-1.2343772599437526,-3.83,8.67,0.5422222222222223,0.2588888888888889,-0.5722222222222222,0.7734280835676979,-1.4336455403776616,12.676011952591402
1589996271.2082324,-1.2585332727169405,-3.783666818207649,8.707066545433882,0.5422222222222223,0.2588888888888889,-0.5783999797945357,0.5762505682786838,-1.8520823862021936,16.609155679945445
1589996271.2182324,-1.2788154875717017,-3.7988154875717015,8.71,0.5422222222222223,0.2588888888888889,-0.5788888888888889,0.26850800669216063,-1.875,19.814919933078393
1589996271.2282324,-1.2711525355333364,-3.808847464466664,8.656915213200019,0.5422222222222223,0.2588888888888889,-0.5788888888888889,-0.026483264583239907,-2.15148326458324,22.654239339999105
1589996271.2382324,-1.2978093750787134,-3.7821906249212867,8.659269791692905,0.5422222222222223,0.2588888888888889,-0.5788888888888889,-0.12043619808065288,-2.303372396161306,25.37538412130677
1589996271.2482324,-1.2035199300499915,-3.7206276492615333,8.630313824630766,0.5422222222222223,0.2588888888888889,-0.5788888888888889,-0.26415394704328155,-2.4516539470432814,27.04680876846167
1589996271.2582324,-1.2875640405993234,-3.817564040599323,8.71797003383277,0.5291595510445196,0.2665087804092154,-0.5723575533000376,-0.5574250845819236,-2.622462542290962,28.8483566940551
1589996271.2682323,-1.3082068327903495,-3.8017931672096505,8.665379501628951,0.5288888888888889,0.26666666666666666,-0.5722222222222222,-0.6004309016465615,-2.625,29.55775622963811
1589996271.2782323,-1.3371979726151753,-3.8014653150767836,8.641465315076784,0.5288888888888889,0.26666666666666666,-0.5722222222222222,-0.5891708903850518,-2.6608291096149483,30.42994931537938
1589996271.2882323,-1.3264463222584983,-3.7805579028231224,8.602892644516997,0.5288888888888889,0.26666666666666666,-0.5722222222222222,-0.5256973785289034,-2.5402895141156137,30.86040786441329
1589996271.2982323,-1.348160193272626,-3.8108802576968346,8.67176051539367,0.5288888888888889,0.26666666666666666,-0.5722222222222222,-0.5,-2.63625100662826,30.977250201325653
1589996271.3082323,-1.3818654326082258,-3.834067283695887,8.741865432608225,0.5532789448057973,0.2739177643716935,-0.5676078873190233,-0.46292052309929455,-2.6387615692978836,31.0
1589996271.3182323,-1.3811019433740994,-3.83,8.687713603618697,0.57,0.2788888888888889,-0.5644444444444444,-0.5487257078237561,-2.618112853911878,30.888774292176244
1589996271.3282323,-1.429837728194726,-3.7303245436105477,8.613549695740364,0.57,0.2788888888888889,-0.5644444444444444,-0.45867139959432046,-2.67691430020284,30.82308569979716
1589996271.3382323,-1.4218358496627048,-3.782656601349181,8.699902826855125,0.57,0.2788888888888889,-0.5644444444444444,-0.8348407886283329,-2.6307370301959523,30.58544812078381
1589996271.3482323,-1.390345902870012,-3.6862106600450426,8.665518854305018,0.57,0.2788888888888889,-0.5644444444444444,-0.828665473234394,-2.5323309464687878,30.608834526765605
1589996271.3582323,-1.4233485401459853,-3.7453667883211677,8.667339416058395,0.6268347526358475,0.2605861719383617,-0.5837104622871047,-0.9750570255474452,-2.229071624087591,30.95011405109489
1589996271.3682323,-1.4593691369606003,-3.826080558161351,8.750765126641651,0.6355555555555555,0.2577777777777778,-0.5866666666666667,-1.1376678295028142,-2.4169463825046904,30.954110723499063
1589996271.3782322,-1.441854426294623,-3.7725996723102133,8.66741770517849,0.6355555555555555,0.2577777777777778,-0.5866666666666667,-0.9236352465120898,-2.368067623256045,31.201364753487912
1589996271.3882322,-1.48008584714439,-3.7972409681650174,8.662930726123763,0.6355555555555555,0.2577777777777778,-0.5866666666666667,-1.2149755574102779,-2.536097531894599,31.49137802551568
1589996271.3982322,-1.4683546261312714,-3.798903084087514,8.64835462613127,0.6355555555555555,0.2577777777777778,-0.5866666666666667,-1.0123967577541517,-2.657963931113259,31.85917538001933
1589996271.4082322,-1.4638308989431184,-3.78,8.673619522622017,0.7533861114409743,0.24917217538165165,-0.621089076251171,-0.9481504571903574,-2.6875,32.23670733879587
1589996271.4182322,-1.5447458170582407,-3.816997609747566,8.599007170757302,0.8333333333333334,0.2433333333333333,-0.6444444444444445,-0.8937649390777124,-2.5718824695388562,32.774970121844575
1589996271.4282322,-1.5423178394411272,-3.804635678882254,8.651457284470983,0.8333333333333334,0.2433333333333333,-0.6444444444444445,-1.4991755454084221,-2.5625,33.00455401397182
1589996271.4382322,-1.4977857343442853,-3.7746714406065713,8.610900028082,0.8333333333333334,0.2433333333333333,-0.6444444444444445,-1.107053847233923,-2.72080349620893,33.4318748244875
1589996271.4482322,-1.5041143167364666,-3.7911714751047,8.649400108577632,0.8333333333333334,0.2433333333333333,-0.6444444444444445,-1.3087506786102063,-2.573571040794168,33.455892760198545
1589996271.4582322,-1.5154098029307732,-3.7837705912076807,8.67,1.216227162989164,0.18442659030935937,-0.8488147773847621,-1.471311268317332,-2.398566195048004,32.89651970692269
1589996271.4682322,-1.5277630676084764,-3.8088153380423813,8.693289202825428,1.5411111111111107,0.13444444444444445,-1.022222222222222,-1.4029616548940465,-2.263980827447023,31.515635721493442
1589996271.4782321,-1.541871117126225,-3.8318711171262247,8.640644414368875,1.5411111111111107,0.13444444444444445,-1.022222222222222,-1.3008055179610938,-2.1016110359221876,30.248374492474767
1589996271.4882321,-1.5815585475316198,-3.896805385556916,8.625246838025296,1.5411111111111107,0.13444444444444445,-1.022222222222222,-1.0527590779273766,-2.0788963688290494,28.260709914320685
1589996271.4982321,-1.6,-3.8822413168162724,8.660468007078741,1.5411111111111107,0.13444444444444445,-1.022222222222222,-0.7669332743438306,-2.1676416814140422,25.922257787680433
1589996271.508232,-1.632542270894759,-3.84372886455262,8.694406703171069,1.05749680753622,-0.07888822031008683,-0.7844828542966216,-0.6875,-2.136652701726939,23.306149963896743
1589996271.518232,-1.6314926936075014,-3.8910438383549906,8.657463468037507,0.9466666666666668,-0.12777777777777774,-0.73,-0.527988005140654,-1.7528053453281927,21.014026726640964
1589996271.528232,-1.6139366852047825,-3.9,8.601810055614347,0.9466666666666668,-0.12777777777777774,-0.73,-0.3494064237948349,-1.5369064237948349,19.131366379213294
1589996271.538232,-1.6407183434799504,-3.9061436686959903,8.59614366869599,0.9466666666666668,-0.12777777777777774,-0.73,-0.42769378804981406,-1.576795858699876,17.482868331452046
1589996271.548232,-1.6719516339128957,-3.9020322440580695,8.647806535651583,0.9466666666666668,-0.12777777777777774,-0.73,-0.4751007626814672,-1.625,15.990321355081083
1589996271.558232,-1.7191413577951324,-3.852532539977687,8.72,0.8365770927739442,-0.018613326354741985,-0.7003960809700241,-0.38546186108012065,-1.4168474443204826,14.365080471881328
1589996271.568232,-1.783238283534293,-3.7690156219542756,8.696761716465707,0.6822222222222222,0.13444444444444445,-0.6588888888888889,-0.6513916348751079,-1.076586909303556,12.933129820946228
1589996271.578232,-1.7624972577696527,-3.7324972577696527,8.57998903107861,0.6822222222222222,0.13444444444444445,-0.6588888888888889,-0.5781078610603291,-1.1484460694698355,12.707026965265083
1589996271.588232,-1.7807742215785662,-3.743080666183925,8.599241998551774,0.6822222222222222,0.13444444444444445,-0.6588888888888889,-0.6923388848660391,-1.3317541636495294,12.83175416364953
1589996271.598232,-1.7701127606859284,-3.7234836809145713,8.659774478628142,0.6822222222222222,0.13444444444444445,-0.6588888888888889,-0.3771142628611561,-1.250704754287052,13.289317485709827
1589996271.608232,-1.777939737784809,-3.7055150655537976,8.693454803338607,0.643352790355136,0.16235070322081396,-0.6588888888888889,-0.46780840288764025,-1.243561680577528,13.976524284908988
1589996271.618232,-1.7955185985491589,-3.6865557956474766,8.732407007254206,0.5955555555555555,0.19666666666666666,-0.6588888888888889,-0.6444474455934558,-1.4525437953387867,15.038648904151875
1589996271.628232,-1.7945118587075397,-3.6654881412924603,8.728416989047222,0.5955555555555555,0.19666666666666666,-0.6588888888888889,-0.4656991169221226,-1.5122035323115095,15.906991169221227
1589996271.638232,-1.7885476378901008,-3.66,8.661369094725252,0.5955555555555555,0.19666666666666666,-0.6588888888888889,-0.5,-1.3928943157967175,16.32157726318687
1589996271.648232,-1.818766515753488,-3.620822322831008,8.625259909452092,0.5955555555555555,0.19666666666666666,-0.6588888888888889,-0.52448604823062,-1.4375,16.18168137300194
1589996271.658232,-1.8941171555477374,-3.5282343110954746,8.648234311095475,0.6061441185237306,0.20240213827442816,-0.6730069728464556,-0.5128661110866792,-1.4375,15.488964444346717
1589996271.668232,-1.9043893882920413,-3.5831681648761236,8.710046042534533,0.6222222222222222,0.2111111111111111,-0.6944444444444444,-0.3085397939048454,-1.4375,15.1875
1589996271.678232,-1.8851574238001818,-3.6090944542801093,8.585787119000909,0.6222222222222222,0.2111111111111111,-0.6944444444444444,-0.25,-1.1761806785013638,15.448819321498636
1589996271.688232,-1.8805389738973897,-3.6316169216921694,8.610120252025203,0.6222222222222222,0.2111111111111111,-0.6944444444444444,-0.41467146714671466,-1.3589086408640865,15.957711521152115
1589996271.698232,-1.8129926807952808,-3.634330893598427,8.691443631199474,0.6222222222222222,0.2111111111111111,-0.6944444444444444,-0.3218521274852524,-1.5180453899934454,16.767057092527857
1589996271.708232,-1.6565223067859758,-3.5799458650447407,8.733477693214024,0.5910269011807082,0.16580362102700733,-0.6803322754018547,0.041779447823456356,-1.5421177912938253,17.876353373881475
1589996271.718232,-1.576966418119639,-3.5258053484330323,8.715805348433033,0.5755555555555556,0.14333333333333334,-0.6733333333333333,0.0625,-1.348783427706453,17.18586365420194
1589996271.728232,-1.5445841457674983,-3.5708317084650036,8.62528048589166,0.5755555555555556,0.14333333333333334,-0.6733333333333333,0.0625,-1.3654496963177123,15.315160021515497
1589996271.738232,-14.059266710642042,-12.044599824098505,-2.7894063324538276,0.5755555555555556,0.14333333333333334,-0.6733333333333333,-2.254452506596306,1.3763811015831138,11.283222020668426
1589996271.748232,-2.4925440003332557,-5.230254316719085,-0.24834496261273475,0.5755555555555556,0.14333333333333334,-0.6733333333333333,-58.24495558309554,99.89048473266543,-184.8072616171294
1589996271.7582319,3.4991872499421355,-1.6473091293853122,0.02691730317759511,0.5427398810376689,0.21552781727268386,-0.5758239004801846,-17.70032734847733,-76.98882179347285,-485.96463851139106
1589996271.7682319,0.5483292935525101,-2.0850372394341368,-0.14553743775065003,0.5366666666666666,0.2288888888888889,-0.5577777777777778,-19.94523709840906,-63.30361156405623,-511.711711140981
1589996271.7782319,-0.06563355547550433,-1.8663394572526417,-0.16633750600384248,0.5366666666666666,0.2288888888888889,-0.5577777777777778,-24.517598763208454,-40.22453057456772,-500.15497887397936
1589996271.7882318,-0.175,-1.6497222222222223,-0.2202777777777778,0.5366666666666666,0.2288888888888889,-0.5577777777777778,-26.359375,-25.51215277777778,-483.8645833333333
1589996271.7982318,-0.909951525378863,-3.977478657931308,4.732652703328701,0.5366666666666666,0.2288888888888889,-0.5577777777777778,-21.18454064919595,-6.527630947654027,-460.34606722751636
1589996271.8082318,-1.502981945717588,-5.712494519947391,9.250957315372045,0.521060539635726,0.27733290821410067,-0.5769603089199757,16.99764108644534,49.563737993702915,-431.02798812323147
1589996271.8182318,2.3145433021345863,-0.4653142688024863,11.566173282527467,0.4833333333333333,0.3944444444444444,-0.6233333333333333,99.1317723169694,155.48462644741224,-382.4089494469313
1589996271.8282318,2.502733634070969,1.029109153553795,13.703303377970375,0.4833333333333333,0.3944444444444444,-0.6233333333333333,80.35956425602956,160.06743064682271,-349.4493615245267
1589996271.8382318,-1.3291508320322913,-0.4013571455770915,8.300186398080804,0.4833333333333333,0.3944444444444444,-0.6233333333333333,20.745362657553027,93.4468520334336,-303.80912760367085
1589996271.8482318,0.7937732048222642,-0.8974311215793225,12.080009607338766,0.4833333333333333,0.3944444444444444,-0.6233333333333333,12.191863978677906,2.4705523445005753,-271.9264496234543
1589996271.8582318,0.813446598902131,-1.3989077664836884,7.662863225564067,0.4190757167804192,0.45001859930101873,-0.5903361788872423,15.755262361461877,-35.92121068230678,-249.7258536661727
1589996271.8682318,1.278457594531083,-2.531406394645019,10.523023570462152,0.36,0.5011111111111111,-0.56,11.624189987894324,-12.2544951221249,-227.98701755322938
1589996271.8782318,1.2097140941097573,-1.818175924891025,9.642819492567341,0.36,0.5011111111111111,-0.56,11.02644322119146,42.61072566223315,-205.73597574606012
1589996271.8882318,-0.06109670220679386,-2.4728956112075378,12.410531366228614,0.36,0.5011111111111111,-0.56,-18.475719067691546,47.79484409868584,-185.24797607240268
1589996271.8982317,-0.17530331857963988,-1.7562912819691174,7.429012837716048,0.36,0.5011111111111111,-0.56,-9.838065280086518,15.083625403056217,-168.31694238048507
1589996271.9082317,0.23113511609475443,-1.683126779581413,5.997268030645493,0.2958854283878501,0.5389618823038261,-0.564634788309312,10.067592905157484,11.594853523938122,-143.92669041888044
1589996271.9182317,0.49840971272229817,-2.368483242134063,8.86861320109439,0.2677777777777778,0.5555555555555556,-0.5666666666666667,1.4342830882352953,11.934635772913817,-123.01117903556772
1589996271.9282317,0.6690913811007269,-2.771576670128072,10.120122879889236,0.2677777777777778,0.5555555555555556,-0.5666666666666667,0.8038140359986157,7.928781585323641,-105.76623615437867
1589996271.9382317,0.4101268130957314,-2.162553667633651,7.774241193535019,0.2677777777777778,0.5555555555555556,-0.5666666666666667,4.46545793617903,5.642167426440116,-91.45404579361791
1589996271.9482317,0.21007578419838346,-1.696805604363703,6.050265244694343,0.2677777777777778,0.5555555555555556,-0.5666666666666667,3.452254809087992,5.441052384299225,-79.7500716206512
1589996271.9582317,0.24852679185319868,-1.7672991183975308,6.184843771486196,0.2677777777777778,0.5555555555555556,-0.5666666666666667,0.36816357010802303,7.2434433681186885,-69.21609764855079
1589996271.9682317,0.6156605170605294,-2.726416980317147,9.735852409452706,0.19666666666666666,0.6166666666666667,-0.5877777777777777,3.27237073486765,2.9917666748935643,-50.31003193064725
1589996271.9782317,5.040169811320755,-7.481135220125786,8.226342767295598,0.19666666666666666,0.6166666666666667,-0.5877777777777777,-1.8128734276729561,-0.5046383647798747,-34.004540094339625
1589996271.9882317,6.15215573223281,-7.999470170540754,7.073202039206166,0.19666666666666666,0.6166666666666667,-0.5877777777777777,-25.18401408023305,-4.808737179098136,33.6222613339807
1589996271.9982316,-2.1389814203715924,-1.0010497790044202,11.711242375152496,0.19666666666666666,0.6166666666666667,-0.5877777777777777,-2.7994540109197814,-1.8462930741385177,83.86430646387072
1589996272.0082316,-2.046737286538244,-1.1984762694613036,8.211941795152109,0.1796859384358913,0.6144323603205121,-0.5962681418931655,30.074076648320577,2.5428231141855466,101.11210629735741
1589996272.0182316,-0.3108798389241346,-1.2517064924210766,6.076951335334118,0.15444444444444444,0.6111111111111112,-0.6088888888888889,21.127690137902217,0.23004359305550182,107.38939805493295
1589996272.0282316,0.610365634038528,-2.6484288650792207,11.855482327688138,0.15444444444444444,0.6111111111111112,-0.6088888888888889,-23.149888354283014,-16.883300665781384,109.26963918650974
1589996272.0382316,-0.055616824034334766,-2.374797253218884,8.556730300429184,0.15444444444444444,0.6111111111111112,-0.6088888888888889,-16.033656652360513,-10.197422746781116,115.1927296137339
1589996272.0482316,-0.25561230412071967,-2.4575217643644804,7.807878699941962,0.15444444444444444,0.6111111111111112,-0.6088888888888889,3.151878990133488,-7.775192251886245,124.11807167730703
1589996272.0582316,0.10187393847895826,-3.092940806441467,8.818877775680946,0.17809163853417487,0.6043547699426167,-0.6102401571225878,-8.561082672831352,-9.828357944895263,134.31215402277158
1589996272.0682316,2.129907557282112,-7.883954893708861,7.569162260350347,0.19333333333333333,0.6,-0.6111111111111112,-6.111915938275603,-11.083430002517895,143.140408618395
1589996272.0782316,2.3513952045658986,-8.718308570365085,8.082476503613636,0.19333333333333333,0.6,-0.6111111111111112,-4.729363116101616,-12.247336300753746,161.89126329910977
1589996272.0882316,0.00912745361656353,-3.905573406829793,8.438294568432374,0.19333333333333333,0.6,-0.6111111111111112,-6.629537510083356,-14.30374848749664,194.75909602715785
1589996272.0982316,-0.3852070818842871,-2.9270199177995573,8.233243755927917,0.19333333333333333,0.6,-0.6111111111111112,-3.9744822952892824,-14.046328643692696,212.0459927284224
1589996272.1082315,-0.08524914399948959,-3.1352491439994896,9.204551157993237,0.2220155533343258,0.5983610159999433,-0.6078331431109977,-7.453285500095702,-15.791531975074967,217.40594096254864
1589996272.1182315,-0.1432316245394014,-3.173414571077639,8.79073178615295,0.27111111111111114,0.5955555555555555,-0.6022222222222222,-8.967228812463638,-17.865093089404617,221.32355032645938
1589996272.1282315,-0.19049353185257506,-3.2586419331217966,8.601851598730779,0.27111111111111114,0.5955555555555555,-0.6022222222222222,-6.156643580668782,-16.262348974859652,225.04475835977544
1589996272.1382315,-0.17479010935478995,-3.3110774218474406,8.696585812433858,0.27111111111111114,0.5955555555555555,-0.6022222222222222,-7.673653222690699,-17.0138467773093,226.60852958962556
1589996272.1482315,-0.23775588691721206,-3.3798029822549087,8.817991363605694,0.27111111111111114,0.5955555555555555,-0.6022222222222222,-7.492371466162877,-17.068897172930303,227.57898842858106
1589996272.1582315,4.841818264227569,-10.845567380386896,7.311077832369418,0.30127323418202184,0.5753202071662104,-0.6045130163795066,-7.593619123592654,-16.960904780898165,228.69328575702087
1589996272.1682315,11.17068271385519,-20.978212657445326,5.720732941812843,0.3588888888888889,0.5366666666666666,-0.6088888888888889,-10.093189765087706,-17.36059568425933,220.0682882891585
1589996272.1782315,-1.2659022989556852,-3.5639764434771473,8.851591528430601,0.3588888888888889,0.5366666666666666,-0.6088888888888889,-22.54307684218227,-15.521159491193739,92.43698447244728
1589996272.1882315,-1.5902984022556392,0.044142387218045115,11.972359022556391,0.3588888888888889,0.5366666666666666,-0.6088888888888889,-9.062588110902254,-0.9157219219924801,-62.57799283364662
1589996272.1982315,-2.2559072444834554,-2.2254947028924863,11.398211639347608,0.3588888888888889,0.5366666666666666,-0.6088888888888889,45.07183372797975,21.30234976219151,-71.93295561248443
1589996272.2082314,-2.5029545026670847,-3.483514590524004,9.926845309068089,0.4000048112122163,0.5058297249241711,-0.6268771049053447,21.175458895513025,8.198338955130216,-38.158160103545654
1589996272.2182314,-1.240427041361022,-2.9147511795295657,10.36823810999759,0.43,0.4833333333333333,-0.64,-5.780493422185487,-7.975811034197748,1.3546983159417287
1589996272.2282314,-0.9467186692840169,-2.8040086785824982,8.42302200640562,0.43,0.4833333333333333,-0.64,-6.653192478561834,-14.746751988841822,32.23018906911871
1589996272.2382314,1.554244946492271,-5.003995243757432,7.675044589774079,0.43,0.4833333333333333,-0.64,-4.714681183115339,-9.423231272294888,54.924810493460164
1589996272.2482314,3.225866186026221,-9.009953849332996,8.034752141069502,0.43,0.4833333333333333,-0.64,-3.495624583840378,-3.9385217436227125,69.11212918742682
1589996272.2582314,0.4709138197956446,-8.575573949840024,9.039026731344824,0.42826286395798213,0.47881677962408686,-0.6327040286235249,-4.503502683455465,-5.084254050985654,48.66794689854474
1589996272.2682314,-2.09958439850997,-2.1009758235337084,9.902649916003213,0.4244444444444445,0.4688888888888889,-0.6166666666666667,2.9204039149806444,2.924151815060989,-12.525997918340515
1589996272.2782314,0.5794563485830959,-5.270613430860015,8.956817967645673,0.4244444444444445,0.4688888888888889,-0.6166666666666667,4.35972593057955,1.252712086876529,-1.3365652134891945
1589996272.2882314,0.20489454418685726,-5.68302622077243,8.671119051769217,0.4244444444444445,0.4688888888888889,-0.6166666666666667,-6.157030491297094,-3.525786560920342,10.810249570457431
1589996272.2982314,-0.5079895679052095,-4.193136711958272,8.477937407431257,0.4244444444444445,0.4688888888888889,-0.6166666666666667,-0.8467262863030456,-0.7621305299761736,2.1717914868954855
1589996272.3082314,-0.3507468694096601,-4.153250447227191,8.374564400715563,0.4244444444444445,0.4688888888888889,-0.628994931425164,1.4701755366726297,0.6130702146690519,-1.605981663685152
1589996272.3182313,-0.3306115595737811,-4.556870519857927,8.497553761704875,0.4244444444444445,0.4688888888888889,-0.64,-0.6057394252502422,-0.30867775266386827,-0.10941233451727478
1589996272.3282313,-0.25739057940808674,-4.491173405585661,8.553957899124635,0.4244444444444445,0.4688888888888889,-0.64,0.046738224260108374,-0.027309556065027094,0.035190443934972906
1589996272.3382313,-0.17,-4.43,8.72,0.4244444444444445,0.4688888888888889,-0.64,-0.0625,0.0,0.0625
1589996272.3482313,-0.2594976455525899,-4.46150706334223,8.64,0.4244444444444445,0.4688888888888889,-0.64,0.7779631317405551,0.23430142351843414,-0.0625
1589996272.3582313,-0.250396024564373,-4.488811926306881,8.64,0.4244444444444445,0.4688888888888889,-0.64,0.15222668880064227,-0.0501242323633444,-0.0625
1589996272.3682313,-0.27235724057064686,-4.52,8.638857924565174,0.4177777777777778,0.4744444444444445,-0.6466666666666666,-0.07366376783271447,0.125,-0.1580344928669142
1589996272.3782313,-0.27892861191942864,-4.518928611919428,8.683929178791429,0.4177777777777778,0.4744444444444445,-0.6466666666666666,-0.24553824496428706,0.11160764899285741,-0.0625
1589996272.3882313,-0.2773726579323392,-4.51368632896617,8.579490631729357,0.4177777777777778,0.4744444444444445,-0.6466666666666666,0.22034177584576062,0.023039556038559846,-0.039460443961440154
1589996272.3982313,-0.2831832251407936,-4.513183225140794,8.63908903314561,0.4177777777777778,0.4744444444444445,-0.6466666666666666,-0.008508071450066643,0.04829838570998667,-0.028403228580026654
1589996272.4082313,-0.26122325657357504,-4.49244651314715,8.6651069737057,0.4192728691454806,0.4744444444444445,-0.6484335928284972,-0.26529070716968806,-0.015290707169688061,-0.11735464641515597
1589996272.4182312,-0.26978584844030706,-4.509571696880614,8.630856606238773,0.42973825920481973,0.4744444444444445,-0.6608017810804435,-0.37232310550383796,-0.12232310550383799,-0.063838447248081
1589996272.4282312,-0.26,-4.557546457860757,8.562453542139243,0.43,0.4744444444444445,-0.6611111111111111,-0.34316927674053394,-0.125,-0.01572178720991101
1589996272.4382312,-0.26430692789791654,-4.558465360510417,8.552920783693748,0.43,0.4744444444444445,-0.6611111111111111,0.018254898085935292,-0.07116340127604313,-0.04904085031901079
1589996272.4482312,-0.2742207699377106,-4.488668845093434,8.623116920249156,0.43,0.4744444444444445,-0.6611111111111111,0.33056009394465435,0.10693990605534566,0.018060093944654344
1589996272.4582312,-0.2645831323751648,-4.505416867624835,8.673125301437253,0.43,0.4759721552361661,-0.6544910310136508,0.3033885566380502,0.01953313398283013,0.0625
1589996272.4682312,-0.28,-4.511291966190062,8.646451338968323,0.43,0.4811111111111111,-0.6322222222222222,-0.09275392013587172,-0.08064173710403666,0.04032086855201833
1589996272.4782312,-0.28,-4.54433284457478,8.60883064516129,0.43,0.4811111111111111,-0.6322222222222222,-0.3218704178885631,-0.05312958211143695,-0.01770986070381232
1589996272.4882312,-0.28,-4.53,8.571868841318382,0.43,0.4811111111111111,-0.6322222222222222,-0.16133197417601086,-0.056659870880054364,-0.036331974176010876
1589996272.4982312,-0.27716190775023536,-4.521485723250706,8.627161907750235,0.43,0.4811111111111111,-0.6322222222222222,-0.08952384687794163,0.10726192343897081,0.017738076561029183
1589996272.5082312,-0.2703390098383974,-4.500339009838397,8.62271207870718,0.4293219803232052,0.4808851045521795,-0.6322222222222222,-0.004237622979967601,0.0603811885100162,0.0561435655300486
1589996272.5182312,-0.27350560629687387,-4.503505606296874,8.654539244078116,0.41,0.4744444444444445,-0.6322222222222222,-0.18588494096680774,-0.02029498032226925,-0.14529498032226926
1589996272.5282311,-0.26364821914217373,-4.500944657426522,8.55452767128674,0.41,0.4744444444444445,-0.6322222222222222,-0.3125,-0.0396986303614142,-0.1418972607228284
1589996272.5382311,-0.28,-4.552758951043273,8.53827685312982,0.41,0.4744444444444445,-0.6322222222222222,-0.1917958918567833,0.02801311195908094,0.0625
1589996272.5482311,-0.28,-4.559569538036859,8.558708614110579,0.41,0.4744444444444445,-0.6322222222222222,0.10616728911260859,-0.057119225460745326,0.0625
1589996272.558231,-0.2616933780063595,-4.501128918670906,8.670564459335454,0.41081533015121013,0.4744444444444445,-0.6322222222222222,0.25,0.0035278708465823,-0.0070557416931646
1589996272.568231,-0.2885460637230841,-4.519030709148723,8.679515354574361,0.4237444010518554,0.4744444444444445,-0.6322222222222222,0.25,0.05947096608975864,-0.11894193217951728
1589996272.578231,-0.27,-4.511521064408248,8.632338137285567,0.4244444444444445,0.4744444444444445,-0.6322222222222222,-0.033626663137887064,0.17068666843105645,-0.016813331568943532
1589996272.588231,-0.2730520063357973,-4.551687961985216,8.557468057022174,0.4244444444444445,0.4744444444444445,-0.6322222222222222,-0.16315007919746569,0.10592496040126716,-0.0625
1589996272.598231,-0.27417514819371436,-4.512912425903142,8.622912425903143,0.4244444444444445,0.4744444444444445,-0.6322222222222222,-0.12258136673750139,0.04429733810535734,-0.09890532378928532
1589996272.608231,-0.25882365294611787,-4.517647305892235,8.63470538821553,0.42509797058549015,0.4744444444444445,-0.6314379908529675,0.15073915456618264,0.00735216908676347,-0.18014783091323652
1589996272.618231,-0.2548883427925029,-4.507332514188755,8.66755582860375,0.43,0.4744444444444445,-0.6255555555555555,-0.125,0.0625,-0.125
1589996272.628231,-0.27,-4.528091662196794,8.645687466475952,0.43,0.4744444444444445,-0.6255555555555555,-0.13096355563501996,0.05653644436498004,-0.11307288872996007
1589996272.638231,-0.27658576787541206,-4.516585767875412,8.520976279792354,0.43,0.4744444444444445,-0.6255555555555555,-0.11889825129779091,-0.013720349740441817,0.013720349740441817
1589996272.648231,-0.29946872484492637,-4.5392916331265685,8.561593825465222,0.43,0.4744444444444445,-0.6255555555555555,0.12832046971921018,-0.06139317676026327,0.0625
1589996272.658231,-0.27,-4.500803961239485,8.65048237674369,0.43,0.4744444444444445,-0.6260022006886026,0.3094851453519327,0.001004951549355766,0.0594851453519327
1589996272.668231,-0.27,-4.536270241571542,8.659405362357314,0.43,0.4744444444444445,-0.6533333333333333,0.01773626227767454,-0.06621648526679055,-0.08209450491106982
1589996272.678231,-0.2730142845448592,-4.51,8.598900008185986,0.43,0.4744444444444445,-0.6533333333333333,-0.22517855681074,-0.23714288637852,-0.018839278405370006
1589996272.688231,-0.2785797180536608,-4.514260845839018,8.55,0.43,0.4744444444444445,-0.6533333333333333,-0.3036232378353797,-0.07137676216462029,-0.053623237835379714
1589996272.698231,-0.27095025011368806,-4.537149249658936,8.55,0.43,0.4744444444444445,-0.6533333333333333,-0.25593906321055027,-0.11906093678944975,-0.005939063210550252
1589996272.708231,-0.2884064301939542,-4.511593569806045,8.661593569806046,0.42902615178519427,0.4734705962296387,-0.6516512318713961,-0.004979905643893063,-0.004979905643893063,-0.11504018871221387
1589996272.718231,-0.26754189545746276,-4.522625686372389,8.677541895457463,0.4177777777777778,0.4622222222222222,-0.6322222222222222,-0.09322630678171576,-0.0625,0.0
1589996272.728231,-0.2618391156401347,-4.5036782312802695,8.651608843598654,0.4177777777777778,0.4622222222222222,-0.6322222222222222,-0.1875,-0.0625,0.0
1589996272.738231,-0.26939056226707236,-4.5187811245341445,8.576094377329277,0.4177777777777778,0.4622222222222222,-0.6322222222222222,-0.1875,-0.0625,0.0
1589996272.748231,-0.26,-4.517712273716034,8.586863178851896,0.4177777777777778,0.4622222222222222,-0.6322222222222222,0.13399144637392618,0.0,0.0
1589996272.758231,-0.26007722286374135,-4.51003861143187,8.610154445727481,0.4177777777777778,0.4622694139722864,-0.6322222222222222,0.37403471420323325,0.0004826428983833718,0.0002413214491916859
1589996272.768231,-0.27324746273577133,-4.523376268632114,8.636494925471542,0.4177777777777778,0.4744444444444445,-0.6322222222222222,0.10389832104928533,0.10389832104928533,0.020296642098570655
1589996272.778231,-0.2665988344320245,-4.520101748351964,8.583604662271902,0.4177777777777778,0.4744444444444445,-0.6322222222222222,-0.04060678800038216,0.02125728479984714,-0.0625
1589996272.788231,-0.2736728697355534,-4.50949069539667,8.552144955925563,0.4177777777777778,0.4744444444444445,-0.6322222222222222,-0.1906831537708129,-0.0822722820763957,-0.0822722820763957
1589996272.798231,-0.2621517731519896,-4.53215177315199,8.59784822684801,0.4177777777777778,0.4744444444444445,-0.6322222222222222,-0.0625,-0.13844858219993506,-0.13844858219993506
1589996272.8082309,-0.26971752227713847,-4.539717522277138,8.59028247772286,0.4177777777777778,0.4744444444444445,-0.6322222222222222,-0.0625,-0.18573451423211515,-0.18573451423211515
1589996272.8182309,-0.26085603641551736,-4.5217120728310345,8.644863781506896,0.4350497089929116,0.4744444444444445,-0.6322222222222222,-0.0625,0.041099089612066014,-0.07320045519396699
1589996272.8282309,-0.2734377841081278,-4.53,8.630313352324384,0.43666666666666665,0.4744444444444445,-0.6322222222222222,-0.15234256621613432,-0.07617128310806716,0.0625
1589996272.8382308,-0.25088161616161614,-4.53,8.56264484848485,0.43666666666666665,0.4744444444444445,-0.6322222222222222,-0.23346969696969697,-0.10295959595959596,0.068010101010101
1589996272.8482308,-0.2616293119072072,-4.531629311907207,8.596517247628828,0.43666666666666665,0.4744444444444445,-0.6322222222222222,-0.04213360115991059,0.16573279768017882,0.09445040173986588
1589996272.8582308,-0.27,-4.539926762103783,8.630146475792435,0.4364713656100879,0.4743874816362757,-0.6322222222222222,0.06295773685135636,0.3736267894459309,-0.06341547370271274
1589996272.8682308,-0.27,-4.531735249887702,8.646529500224597,0.41462733303387167,0.4680163054682126,-0.6322222222222222,0.11415468820186317,0.2200359353944105,-0.16580937640372634
1589996272.8782308,-0.26130537361786044,-4.51130537361786,8.663030142967814,0.41,0.4666666666666667,-0.6322222222222222,0.10052424466511727,0.008158585111627578,0.07065858511162758
1589996272.8882308,-0.26869022466370873,-4.518690224663708,8.567027079371787,0.41,0.4666666666666667,-0.6322222222222222,-0.03794171244453834,0.054313904148179444,0.11681390414817944
1589996272.8982308,-0.28,-4.528753885334991,8.602492229330018,0.41,0.4666666666666667,-0.6322222222222222,-0.35942356668738845,-0.10163535003108268,-0.007788216656305774
1589996272.9082308,-0.28,-4.520342912146309,8.61931417570738,0.41,0.4666666666666667,-0.6322222222222222,-0.25428640182886475,0.05607039725670282,-0.06035679908556761
1589996272.9182308,-0.2726794702293972,-4.53,8.63,0.4177777777777778,0.4744444444444445,-0.6255555555555555,-0.18301324426507087,-0.0625,-0.04575331106626772
1589996272.9282308,-0.28233287643529653,-4.523001370694111,8.609004112082332,0.4177777777777778,0.4744444444444445,-0.6255555555555555,-0.014580477720603105,-0.10624143316180931,0.0
1589996272.9382308,-0.2881278123504069,-4.503744375299186,8.543744375299186,0.4177777777777778,0.4744444444444445,-0.6255555555555555,-0.07420117280995692,-0.22659765438008617,0.0
1589996272.9482307,-0.27846521998193247,-4.523069560036134,8.572278240144541,0.4177777777777778,0.4744444444444445,-0.6255555555555555,-0.10581524977415573,-0.08663049954831145,-0.009592375112922137
1589996272.9582307,-0.2704034443654257,-4.539193111269149,8.636772445076595,0.4177777777777778,0.4744444444444445,-0.6255555555555555,-0.005043054567820546,0.11491389086435891,-0.05997847271608973
1589996272.9682307,-0.27,-4.52212271452608,8.657877285473921,0.4237368729357513,0.4873558172867202,-0.631514650713529,0.055866517106001115,0.125,-0.0625
1589996272.9782307,-0.26753775652520423,-4.518768878262602,8.658919904363419,0.4244444444444445,0.4888888888888889,-0.6322222222222222,-0.0625,0.0076945108587368,-0.0701945108587368
1589996272.9882307,-0.2508240685395497,-4.510412034269774,8.583708308427974,0.4244444444444445,0.4888888888888889,-0.6322222222222222,-0.0625,0.05992478581390715,-0.12242478581390714
1589996272.9982307,-0.28710161154876634,-4.511449194225617,8.62565241732315,0.4244444444444445,0.4888888888888889,-0.6322222222222222,-0.1612298556404207,0.0625,-0.00905746391010517
1589996273.0082307,-0.2703291078498021,-4.519835446075098,8.600493661774703,0.4244444444444445,0.4888888888888889,-0.6322222222222222,-0.3708861518774743,0.0625,-0.06147153796936858
1589996273.0182307,-0.26821256441820196,-4.53,8.634637693254605,0.43,0.4622222222222222,-0.6466666666666666,-0.07367147238623797,0.0625,0.051328527613762026
1589996273.0282307,-0.26,-4.5304813861533875,8.607593069233065,0.43,0.4622222222222222,-0.6466666666666666,-0.11898267308266189,0.0625,-0.006017326917338108
1589996273.0382307,-0.26,-4.538304237541032,8.568478812294838,0.43,0.4622222222222222,-0.6466666666666666,-0.021197030737093406,0.0625,-0.1038029692629066
1589996273.0482306,-0.27,-4.52,8.592922179049536,0.43,0.4622222222222222,-0.6466666666666666,-0.0625,0.12043409523509888,0.10673638094039548
1589996273.0582306,-0.27,-4.52,8.619314288411019,0.43,0.4622222222222222,-0.6466666666666666,-0.0625,0.07919642435778446,-0.058214302568862175
1589996273.0682306,-0.2794449069169063,-4.529444906916907,8.667779627667626,0.43629660461127084,0.4874086406673057,-0.6267274187309755,0.055561336461328895,-0.1736226729226578,0.05209200469199332
1589996273.0782306,-0.2787164208749193,-4.53,8.639731366999355,0.43666666666666665,0.4888888888888889,-0.6255555555555555,0.0625,-0.04645526093649138,-0.1330223695317543
1589996273.0882306,-0.2712693136235329,-4.527461372752934,8.576346568117664,0.43666666666666665,0.4888888888888889,-0.6255555555555555,0.0625,0.0625,-0.15576715941167732
1589996273.0982306,-0.2790584608527708,-4.511883078294458,8.615292304263853,0.43666666666666665,0.4888888888888889,-0.6255555555555555,0.0625,0.0625,0.03896152131926908
1589996273.1082306,-0.2711001424054452,-4.52779971518911,8.655599430378219,0.43666666666666665,0.4888888888888889,-0.6255555555555555,-0.15999643986387005,-0.21562054982983758,0.006875890034032488
1589996273.1182306,-0.28,-4.53,8.65066784229752,0.43,0.4744444444444445,-0.6466666666666666,-0.4166299282025444,0.11665197128101776,-0.05415197128101776
1589996273.1282306,-0.28,-4.528994231045598,8.647930772547168,0.43,0.4744444444444445,-0.6466666666666666,-0.09985577613993307,-0.006286055965016732,0.05621394403498327
1589996273.1382306,-0.28,-4.520383296721345,8.54459956065614,0.43,0.4744444444444445,-0.6466666666666666,0.11541758196637172,-0.06010439549159293,0.002395604508407069
1589996273.1482306,-0.27125172852480783,-4.528748271475193,8.613755185574423,0.43,0.4744444444444445,-0.6466666666666666,0.10935339343990265,0.007823303280048675,-0.0625
1589996273.1582305,-0.27898501023286687,-4.521014989767132,8.636955030698601,0.43,0.4744444444444445,-0.6466666666666666,0.012687372089164234,0.05615631395541788,-0.0625
1589996273.1682305,-0.2896828547687194,-4.529894284922907,8.649577139691626,0.4177777777777778,0.4888888888888889,-0.6255555555555555,0.1848571230726618,-0.001321438463669098,-0.125
1589996273.1782305,-0.2606391376604192,-4.520213045886806,8.610852183547225,0.4177777777777778,0.4888888888888889,-0.6255555555555555,-0.05717385282984028,-0.12233692641492014,-0.125
1589996273.1882305,-0.26833333333333337,-4.52,8.56,0.4177777777777778,0.4888888888888889,-0.6255555555555555,0.25,-0.02083333333333333,0.03125
1589996273.1982305,-0.2620987892951906,-4.529475302676203,8.583672881266583,0.4177777777777778,0.4888888888888889,-0.6255555555555555,0.18422064172626473,0.11844128345252948,-0.0625
1589996273.2082305,-0.2915795392644397,-4.52210511518389,8.63526419371277,0.4177777777777778,0.4888888888888889,-0.6255555555555555,0.13815696989931295,0.026313939798625882,-0.0625
1589996273.2182305,-0.2776345450473987,-4.534910303301734,8.657455151650867,0.4426282832806681,0.48309043760488113,-0.6238988551886961,-0.20116288472543603,0.04659469781791944,-0.0625
1589996273.2282305,-0.27,-4.546814421692701,8.6668144216927,0.4511111111111111,0.4811111111111111,-0.6233333333333333,-0.14213945768247352,0.01990986442061838,-0.0625
1589996273.2382305,-0.2893706693335238,-4.540314665333238,8.573146653332381,0.4511111111111111,0.4811111111111111,-0.6233333333333333,-0.0625,0.1210666833345239,-0.18356668333452392
1589996273.2482305,-0.28228099857132116,-4.54,8.600876005714715,0.4511111111111111,0.4811111111111111,-0.6233333333333333,0.0822312767877284,-0.019731276787728402,-0.1875
1589996273.2582304,-0.2885803517457759,-4.522839296508448,8.627160703491553,0.4511111111111111,0.4811111111111111,-0.6233333333333333,0.125,-0.0625,0.027008793644397122
1589996273.2682304,-0.29,-4.51255880815473,8.659764767381077,0.43126793285705994,0.4811111111111111,-0.6125849451123889,0.031985101934134855,0.12352979613173029,0.10900744903293258
1589996273.2782304,-0.2789281050428436,-4.529464052521422,8.607856210085687,0.4244444444444445,0.4811111111111111,-0.6088888888888889,0.05915032825888625,-0.003349671741113755,-0.003349671741113755
1589996273.2882304,-0.26392193341800685,-4.5219609667090035,8.577843866836014,0.4244444444444445,0.4811111111111111,-0.6088888888888889,0.012256041931271354,-0.050243958068728646,-0.050243958068728646
1589996273.2982304,-0.26950716543406883,-4.510492834565931,8.57950716543407,0.4244444444444445,0.4811111111111111,-0.6088888888888889,0.05941978396293,0.11575935188879,-0.12191978396293
1589996273.3082304,-0.27,-4.493443336206543,8.6379483232771,0.4244444444444445,0.4811111111111111,-0.6088888888888889,0.0625,0.02152085129089193,-0.07326042564544596
1589996273.3182304,-0.28,-4.500789047851437,8.669473968099043,0.43,0.4811111111111111,-0.6466666666666666,-0.0016438496904939255,-0.06085615030950607,-0.18256845092851823
1589996273.3282304,-0.27935491092845494,-4.5306450890715455,8.64354910928455,0.43,0.4811111111111111,-0.6466666666666666,-0.0705636133943135,0.0,-0.004031806697156747
1589996273.3382304,-0.2726476796622638,-4.537352320337736,8.576476796622638,0.43,0.4811111111111111,-0.6466666666666666,-0.1544040042217034,0.0,-0.045952002110851695
1589996273.3482304,-0.2600337625628141,-4.530033762562814,8.599831187185929,0.43,0.4811111111111111,-0.6466666666666666,-0.0006330480527638183,0.06228898398241206,-0.0625
