time,acc_x,acc_y,acc_z,mag_x,mag_y,mag_z,gyr_x,gyr_y,gyr_z
1589996303.0757728,-3.88,-0.95,8.84,0.3555555555555556,-0.2977777777777777,-0.5455555555555556,-0.0625,-0.0625,0.0
1589996303.0857728,-3.8875184182694893,-0.95,8.84,0.3555555555555556,-0.2977777777777777,-0.5455555555555556,-0.0625,-0.015509885815691828,0.0
1589996303.0957727,-3.8752560604470565,-0.9426280302235281,8.862115909329415,0.36456574083791,-0.30760707081307354,-0.5504702020732034,-0.016425188897051107,-0.04607481110294889,0.09214962220589779
1589996303.1057727,-3.879609607801824,-0.949609607801824,8.802732745387232,0.36777777777777776,-0.3111111111111111,-0.5522222222222222,-0.06006004876140023,-0.0625,0.06493995123859977
1589996303.1157727,-3.8736182506162566,-0.95,8.78085475184877,0.36777777777777776,-0.3111111111111111,-0.5522222222222222,-0.0625,0.017271867296792323,-0.05715780094518848
1589996303.1257727,-3.87,-0.95,8.831114075511358,0.36777777777777776,-0.3111111111111111,-0.5522222222222222,-0.1579907429864985,-0.03299074298649851,0.06598148597299702
1589996303.1357727,-3.862991886015995,-0.95,8.87803245593602,0.36777777777777776,-0.3111111111111111,-0.5522222222222222,-0.09989857519993789,-0.10630071240003106,0.03739857519993789
1589996303.1457727,-3.86,-0.95,8.976209137583675,0.34478867442213124,-0.2996165594332878,-0.5589273773676192,-0.008619289010203424,-0.28664213296938973,-0.053880710989796576
1589996303.1557727,-3.8685332397745538,-0.95,9.007066479549106,0.3411111111111111,-0.2977777777777777,-0.56,0.0,-0.205834502818081,0.09749824577287852
1589996303.1657727,-3.87,-0.9412592428275658,8.878888642413486,0.3411111111111111,-0.2977777777777777,-0.56,0.10925946465542738,-0.07824053534457262,0.07037026767228631
1589996303.1757727,-3.8841094001378993,-0.9470547000689497,8.8882188002758,0.3411111111111111,-0.2977777777777777,-0.56,0.16909187543093543,0.06977562629280626,0.15068375086187086
1589996303.1857727,-3.879746608255978,-0.95,8.889746608255978,0.3411111111111111,-0.2977777777777777,-0.56,0.09137445239979157,0.18908369840013894,-0.0047510952004168605
1589996303.1957726,-3.87,-0.9566857600640897,8.85994271980773,0.335911075505708,-0.3066921245298974,-0.5644571733760598,0.04178600040056078,0.25,-0.06214199879831764
1589996303.2057726,-3.8609737004369853,-0.9419474008739711,8.859026299563014,0.3333333333333333,-0.3111111111111111,-0.5666666666666667,0.11891437226883998,0.19358562773116,-0.16924311680651993
1589996303.2157726,-3.8820914542728637,-0.94,8.793725637181408,0.3333333333333333,-0.3111111111111111,-0.5666666666666667,0.07897613693153424,0.2795477261369315,-0.09545227386306847
1589996303.2257726,-3.89,-0.94,8.834156368078638,0.3333333333333333,-0.3111111111111111,-0.5666666666666667,0.012377837438563598,0.2122556748771272,0.037744325122872804
1589996303.2357726,-3.862382531785517,-0.9330956329463792,8.877617468214483,0.3333333333333333,-0.3111111111111111,-0.5666666666666667,0.12945688225538973,0.1443477059148701,0.0625
1589996303.2457726,-3.8607781015307587,-0.9407781015307588,8.933112406123035,0.3411175177722147,-0.3039257100906052,-0.5588824822277852,0.2211815672836213,0.25972626913448515,-0.004863134567242591
1589996303.2557726,-3.87,-0.95,8.93279140869831,0.3477777777777778,-0.2977777777777777,-0.5522222222222222,0.25,0.281978521745777,-0.0625
1589996303.2657726,-3.887416374326795,-0.9558054581089316,8.879361793237479,0.3477777777777778,-0.2977777777777777,-0.5522222222222222,0.25,0.25,-0.026215886819177497
1589996303.2757726,-3.8807729712907495,-0.96,8.8628180191395,0.3477777777777778,-0.2977777777777777,-0.5522222222222222,0.2900563098109391,0.16988738037812184,0.0
1589996303.2857726,-3.8581267467605533,-0.9481267467605531,8.881873253239446,0.3477777777777778,-0.2977777777777777,-0.5522222222222222,0.16408433450691443,0.0878960836267286,0.0
1589996303.2957726,-3.8568414975507346,-0.94,8.896841497550735,0.3477777777777778,-0.2977777777777777,-0.5621043853510613,0.0625,0.10525935969209238,-0.04275935969209237
1589996303.3057725,-3.8666104349921677,-0.9466104349921677,8.893389565007833,0.3477777777777778,-0.2977777777777777,-0.5666666666666667,0.021184781298951676,0.08368478129895168,0.02013043740209665
1589996303.3157725,-3.87,-0.95,8.814952593233308,0.3477777777777778,-0.2977777777777777,-0.5666666666666667,-0.10423250939818356,0.010383745300908222,0.010383745300908222
1589996303.3257725,-3.8638997853722965,-0.95,8.842701502393924,0.3477777777777778,-0.2977777777777777,-0.5666666666666667,0.027505365692587075,-0.03812634142314677,0.0
1589996303.3357725,-3.8637911769574576,-0.95,8.877582353914914,0.3477777777777778,-0.2977777777777777,-0.5666666666666667,0.053915432047674225,-0.08619485598410859,0.0
1589996303.3457725,-3.8738007450568346,-0.9538007450568344,8.901402235170504,0.3507339128219824,-0.302845437853557,-0.564132836628777,-0.014990686789569198,-0.125,-0.0475093132104308
1589996303.3557725,-3.8729730152277915,-0.9529730152277914,8.927026984772208,0.3555555555555556,-0.3111111111111111,-0.56,-0.02533730965260625,-0.125,-0.125
1589996303.3657725,-3.87,-0.95,8.890580526241163,0.3555555555555556,-0.3111111111111111,-0.56,-0.10356195183212137,-0.20712390366424274,-0.125
1589996303.3757725,-3.894016325224072,-0.9580054417413572,8.853989116517285,0.3555555555555556,-0.3111111111111111,-0.56,-0.1750340108834827,-0.09989796734955186,-0.125
1589996303.3857725,-3.8806648619382784,-0.9471099079588522,8.869335138061722,0.3555555555555556,-0.3111111111111111,-0.56,-0.1069369247428262,-0.1833446128857607,-0.0847184623714131
1589996303.3957725,-3.859505837952589,-0.9504941620474112,8.88,0.3555555555555556,-0.3081960660979413,-0.5669961080316075,-0.12808851279632033,-0.21720574360183983,-0.02970574360183984
1589996303.4057724,-3.870909236279903,-0.9530302545733657,8.88,0.3555555555555556,-0.3055555555555556,-0.5733333333333334,-0.23106090891646414,-0.05681727325060765,-0.04356090891646412
1589996303.4157724,-3.874741598510001,-0.95,8.822157583610009,0.3555555555555556,-0.3055555555555556,-0.5733333333333334,-0.18426998137501013,-0.06573001862498987,-0.0625
1589996303.4257724,-3.865486905398183,-0.9454869053981827,8.815130946018172,0.3555555555555556,-0.3055555555555556,-0.5733333333333334,-0.09679315873864244,-0.15320684126135756,-0.034293158738642436
1589996303.4357724,-3.86416428728311,-0.94416428728311,8.89498572369866,0.3555555555555556,-0.3055555555555556,-0.5733333333333334,-0.036473204480562266,-0.13544640896112453,-0.026026795519437734
1589996303.4457724,-3.8717940186774547,-0.9482059813225452,8.931794018677454,0.3577482450502225,-0.304160207695313,-0.5683499481181813,0.0,-0.0625,-0.08492523346818405
1589996303.4557724,-3.88,-0.9445530009898316,8.949106001979663,0.36777777777777776,-0.2977777777777777,-0.5455555555555556,-0.05691251237289661,-0.0909562561864483,-0.10213123144065508
1589996303.4657724,-3.88,-0.95,8.891132258691007,0.36777777777777776,-0.2977777777777777,-0.5455555555555556,-0.08195766168187998,-0.125,-0.08608467663624005
1589996303.4757724,-3.88583456577816,-0.9558345657781598,8.86583456577816,0.36777777777777776,-0.2977777777777777,-0.5455555555555556,-0.13543207222699916,-0.08853396388650042,-0.05206792777300086
1589996303.4857724,-3.8763932328325357,-0.9554644109441786,8.883606767167464,0.36777777777777776,-0.2977777777777777,-0.5455555555555556,-0.1875,-0.09084743159888409,-0.028347431598884084
1589996303.4957724,-3.8665543142684364,-0.9434456857315636,8.906554314268437,0.3626799777912162,-0.2977777777777777,-0.5499250984011798,-0.1055710716445463,-0.0021066074668194407,-0.10346446417772685
1589996303.5057724,-3.8780752063113093,-0.94,8.869623968443452,0.36,-0.2977777777777777,-0.5522222222222222,-0.0625,-0.13938015778273732,0.02641011833705298
1589996303.5157723,-3.872571059709521,-0.9548578805809574,8.807997417966648,0.36,-0.2977777777777777,-0.5522222222222222,-0.016069123184507796,-0.0017764927380311824,-0.12322350726196882
1589996303.5257723,-3.8779572345731417,-0.9520427654268584,8.813871703719425,0.36,-0.2977777777777777,-0.5522222222222222,0.04973271608213509,0.012767283917864913,-0.03830185175359474
1589996303.5357723,-3.88,-0.9436157876092995,8.858305274344204,0.36,-0.2977777777777777,-0.5522222222222222,0.0625,0.03990132744187781,-0.07980265488375562
1589996303.5457723,-3.875422731055762,-0.944577268944238,8.893731806832715,0.3579656582470053,-0.30133787584551847,-0.5522222222222222,0.005284138197024141,0.0625,-0.03917620729553621
1589996303.5557723,-3.8583235576001536,-0.95,8.915838221199923,0.3555555555555556,-0.3055555555555556,-0.5522222222222222,-0.026011117500479207,0.0625,0.026011117500479207
1589996303.5657723,-3.8724336091600113,-0.9350442605599923,8.837743433079957,0.3555555555555556,-0.3055555555555556,-0.5522222222222222,0.0,-0.0309733715000481,-0.04673668575002405
1589996303.5757723,-3.866834627215468,-0.9365826863922659,8.856078804745863,0.3555555555555556,-0.3055555555555556,-0.5522222222222222,-0.08228357990332504,-0.021358210048337482,-0.021358210048337482
1589996303.5857723,-3.863944312686728,-0.9478886253734561,8.887888625373456,0.3555555555555556,-0.3055555555555556,-0.5522222222222222,-0.10034804570794961,-0.04930390858410078,-0.04930390858410078
1589996303.5957723,-3.8689677444763895,-0.9589677444763892,8.903096766570833,0.3568172011955243,-0.3047526901483028,-0.5544014283276226,-0.0754031940451341,-0.1379031940451341,-0.1120968059548659
1589996303.6057723,-3.864745557150636,-0.9452544428493639,8.896781099945548,0.36777777777777776,-0.2977777777777777,-0.5733333333333334,-0.12818053561704867,-0.19068053561704867,0.02965973219147567
1589996303.6157722,-3.888223994838558,-0.9521493298923722,8.811402680430511,0.36777777777777776,-0.2977777777777777,-0.5733333333333334,-0.21436662365465262,-0.011100032259010531,0.024533344086336846
1589996303.6257722,-3.8796464970422635,-0.9549116242605659,8.815618630176038,0.36777777777777776,-0.2977777777777777,-0.5733333333333334,-0.12168590977122087,-0.03290704511438956,-0.06360469674292638
1589996303.6357722,-3.867955400619743,-0.9460222996901283,8.85,0.36777777777777776,-0.2977777777777777,-0.5733333333333334,0.012778746126604693,-0.10013937306330234,-0.050418119189907046
1589996303.6457722,-3.8758837090686526,-0.9441162909313475,8.878814036519433,0.35954519591508266,-0.30097933739104804,-0.5618991918573679,-0.03677318167907783,-0.1396804549627665,0.03677318167907783
1589996303.6557722,-3.87,-0.9455702792238523,8.911140558447705,0.3477777777777778,-0.3055555555555556,-0.5455555555555556,-0.02768575485092286,-0.13925698059630856,0.0
1589996303.6657722,-3.8831323810014955,-0.9334338094992523,8.834338094992523,0.3477777777777778,-0.3055555555555556,-0.5455555555555556,-0.10353869062967355,-0.16415476251869424,-0.04103869062967356
1589996303.6757722,-3.868549805175342,-0.9514501948246578,8.857200519532421,0.3477777777777778,-0.3055555555555556,-0.5455555555555556,-0.08031209411529625,-0.25,-0.0625
1589996303.6857722,-3.86,-0.9549089605495714,8.900364157801715,0.3477777777777778,-0.3055555555555556,-0.5455555555555556,-0.1261379931303565,-0.21818100343482175,-0.09431899656517825
1589996303.6957722,-3.864897367596365,-0.9451026324036351,8.934692102789095,0.3477777777777778,-0.3082763153313138,-0.552629530972527,-0.12628290504544032,-0.15689145252272016,-0.0637829050454403
1589996303.7057722,-3.8647267355982273,-0.9452732644017725,8.944726735598227,0.3477777777777778,-0.3111111111111111,-0.56,-0.0625,-0.22387370753323488,0.0
1589996303.7157722,-3.8659419268708746,-0.9440580731291255,8.850871096936883,0.3477777777777778,-0.3111111111111111,-0.56,-0.17391112882889564,-0.23822591411406957,0.07427408588593043
1589996303.7257721,-3.877416267942584,-0.9474162679425837,8.827081339712919,0.3477777777777778,-0.3111111111111111,-0.56,-0.25,-0.1411483253588517,-0.014055023923444987
1589996303.7357721,-3.87592192962929,-0.95,8.84407807037071,0.3477777777777778,-0.3111111111111111,-0.56,-0.14804824073225348,-0.125,-0.0625
1589996303.7457721,-3.870429635837469,-0.95,8.849570364162531,0.3477777777777778,-0.3111111111111111,-0.56,-0.010740895936726585,-0.125,-0.0625
1589996303.755772,-3.865795156347028,-0.9642048436529717,8.902897578173514,0.3555555555555556,-0.3055555555555556,-0.5455555555555556,0.03621972716892691,0.044390136415536546,-0.008170409246609639
1589996303.765772,-3.8748257158809922,-0.9474128579404961,8.881541437345458,0.3555555555555556,-0.3055555555555556,-0.5455555555555556,0.060321448512403286,0.048508913615697535,0.09266072425620164
1589996303.775772,-3.876304647550568,-0.94,8.816304647550568,0.3555555555555556,-0.3055555555555556,-0.5455555555555556,-0.09952398820223739,0.034643929213424324,0.0
1589996303.785772,-3.895419016806482,-0.9422904915967589,8.86061442437083,0.3555555555555556,-0.3055555555555556,-0.5455555555555556,-0.0625,-0.13023771008102614,0.0
1589996303.795772,-3.883023152808536,-0.95,8.933023152808536,0.3555555555555556,-0.3032042144822495,-0.5519377670402434,-0.0625,0.024710589893295755,-0.018894705053352123
1589996303.805772,-3.8871542906223158,-0.9471542906223158,8.937154290622315,0.3555555555555556,-0.2977777777777777,-0.5666666666666667,-0.0625,-0.044714316389474505,-0.08028568361052549
1589996303.815772,-3.874125314031291,-0.9576240579061264,8.871253140312913,0.3555555555555556,-0.2977777777777777,-0.5666666666666667,0.010933574608860033,0.11015036191329006,-0.05156642539113997
1589996303.825772,-3.876597289070427,-0.9502081327887192,8.816805421859147,0.3555555555555556,-0.2977777777777777,-0.5666666666666667,0.02126694330983167,0.26996611338033666,0.0
1589996303.835772,-3.88,-0.9453758474260597,8.831503389704238,0.3555555555555556,-0.2977777777777777,-0.5666666666666667,0.0,0.11090572152275946,0.0
1589996303.845772,-3.885469623853504,-0.9445303761464957,8.882817743121025,0.35798649949044636,-0.2941313618754416,-0.5587660988782717,0.03418514908440126,0.0058702981688025235,-0.1025554472532038
1589996303.855772,-3.8753193401713015,-0.94,8.895319340171302,0.36,-0.2911111111111111,-0.5522222222222222,-0.05983883190581932,0.0013305840470903413,-0.06516116809418068
1589996303.865772,-3.86,-0.9494857728037451,8.856285567990637,0.36,-0.2911111111111111,-0.5522222222222222,-0.09857087996488918,-0.0625,0.032856959988296394
1589996303.875772,-3.86,-0.9549718214813329,8.840056357037334,0.36,-0.2911111111111111,-0.5522222222222222,0.03142611574166956,-0.15677834722500866,0.0
1589996303.885772,-3.8622226427090114,-0.9477773572909886,8.856667928127035,0.36,-0.2911111111111111,-0.5522222222222222,0.0625,-0.1388678645494316,0.0
1589996303.895772,-3.8685717745719868,-0.9414282254280134,8.87571532371596,0.36,-0.2911111111111111,-0.5522222222222222,0.0625,0.17858872859932484,0.0
1589996303.905772,-3.8729676745930783,-0.94,8.9,0.3555555555555556,-0.3111111111111111,-0.5733333333333334,-0.05322601689663046,0.3032260168966305,-0.1689520337932609
1589996303.915772,-3.88314843259849,-0.94685156740151,8.862316379291695,0.3555555555555556,-0.3111111111111111,-0.5733333333333334,-0.06423344438915692,0.20717770374056205,-0.10532229625943795
1589996303.925772,-3.872439153104089,-0.96,8.802195765520443,0.3555555555555556,-0.3111111111111111,-0.5733333333333334,-0.15701058619888966,0.09451058619888966,-0.1417658792983345
1589996303.935772,-3.88,-0.9581445578746478,8.847421768501409,0.3555555555555556,-0.3111111111111111,-0.5733333333333334,-0.050903486716549026,-0.02319302656690194,-0.04638605313380388
1589996303.945772,-3.8717121993284773,-0.9527626002238408,8.888287800671524,0.35156513301000764,-0.31233893343281816,-0.5675011773052248,0.0,-0.09046749720198888,-0.21546749720198888
1589996303.955772,-3.8519867918523234,-0.9590066040738383,8.91596037555697,0.3411111111111111,-0.31555555555555553,-0.5522222222222222,0.012417449077021005,0.012417449077021005,-0.112582550922979
1589996303.965772,-3.8749113344358226,-0.95,8.90615265233431,0.3411111111111111,-0.31555555555555553,-0.5522222222222222,0.1556958402238901,0.1556958402238901,-0.06139168044778018
1589996303.975772,-3.88,-0.9390727091633466,8.85639093625498,0.3411111111111111,-0.31555555555555553,-0.5522222222222222,0.0850566484063745,0.11920443227091633,-0.125
1589996303.985772,-3.88,-0.9389990138067061,8.88349852071006,0.3411111111111111,-0.31555555555555553,-0.5522222222222222,0.0,0.0625,-0.0968780818540434
1589996303.995772,-3.8709103680809216,-0.9454551840404608,8.90454481595954,0.3411111111111111,-0.3135356373513159,-0.5557570790796416,0.0,-0.05112039898847992,-0.00568980050576004
1589996304.0057719,-3.868739431842623,-0.9487394318426233,8.888151420393442,0.3411111111111111,-0.3111111111111111,-0.56,-0.027310724508198075,-0.0782571019672077,0.035189275491801925
1589996304.0157719,-3.88,-0.9567355610561056,8.83062004950495,0.3411111111111111,-0.3111111111111111,-0.56,-0.0012917698019801957,0.0625,-0.020402743399339934
1589996304.0257719,-3.867984708834635,-0.95,8.800038227913413,0.3411111111111111,-0.3111111111111111,-0.56,0.125,0.17514335467529724,-0.024952215108234248
1589996304.0357718,-3.86,-0.9453803088445211,8.86157722039931,0.3411111111111111,-0.3111111111111111,-0.56,0.09612693027825668,0.13450772111302672,0.057746139443486645
1589996304.0457718,-3.86278352292313,-0.94278352292313,8.91278352292313,0.34513175533340995,-0.30956470948715004,-0.5578350377264545,0.04510298173043778,0.03479403653912444,0.10760298173043778
1589996304.0557718,-3.8672752491855102,-0.9472752491855101,8.928174252443469,0.3555555555555556,-0.3055555555555556,-0.5522222222222222,-0.03405938518112319,0.125,0.0625
1589996304.0657718,-3.8748624064184787,-0.9449541354728261,8.915321051690217,0.3555555555555556,-0.3055555555555556,-0.5522222222222222,-0.125,0.125,0.0005733065896721817
1589996304.0757718,-3.879395857719596,-0.95,8.890604142280404,0.3555555555555556,-0.3055555555555556,-0.5522222222222222,-0.02558616612121066,0.125,-0.029362055373736894
1589996304.0857718,-3.878281412639405,-0.95,8.9,0.3555555555555556,-0.3055555555555556,-0.5522222222222222,0.03662058550185873,0.125,-0.025879414498141264
1589996304.0957718,-3.89,-0.9467732945220326,8.896773294522033,0.3508947587540472,-0.3055555555555556,-0.554731882038419,0.0,0.08466618152540799,-0.042333090762703994
1589996304.1057718,-3.8819129646418857,-0.9359564823209429,8.865738893925657,0.3411111111111111,-0.3055555555555556,-0.56,-0.02527198549410698,0.02527198549410698,0.02527198549410698
1589996304.1157718,-3.8779565468920745,-0.9339782734460371,8.80215208587774,0.3411111111111111,-0.3055555555555556,-0.56,-0.0873642090377322,0.012771581924535584,0.11222841807546441
1589996304.1257718,-3.8852029848278145,-0.9447970151721856,8.788782091033115,0.3411111111111111,-0.3055555555555556,-0.56,-0.1849626896523213,-0.1224626896523213,0.09755596552151805
1589996304.1357718,-3.88,-0.952896618424234,8.837379710545404,0.3411111111111111,-0.3055555555555556,-0.56,-0.19568840454561154,-0.11508453939414873,-0.018103865151462818
1589996304.1457717,-3.8796912736386417,-0.959691273638642,8.881852358168148,0.3411111111111111,-0.3055555555555556,-0.56,-0.05671138072453862,0.06057046024151287,-0.06442953975848713
1589996304.1557717,-3.87,-0.9530880030086498,8.94,0.3411111111111111,-0.3055555555555556,-0.56,0.14430001880406168,-0.019300018804061677,-0.125
1589996304.1657717,-3.871828150342007,-0.9581718496579931,8.923546646921938,0.3411111111111111,-0.3055555555555556,-0.56,0.14179624144982722,-0.0739259396375432,-0.09072218108737043
1589996304.1757717,-3.88,-0.95,8.88163824662813,0.3411111111111111,-0.3055555555555556,-0.56,-0.0060031310211946035,-0.0967515655105973,0.0907484344894027
1589996304.1857717,-3.88,-0.9462172018845979,8.92,0.3411111111111111,-0.3055555555555556,-0.56,0.015215023557474325,-0.08614248822126283,0.05407253533621148
1589996304.1957717,-3.8769377244099124,-0.94,8.910813173229737,0.34553439807457115,-0.307256819772271,-0.5620415170600584,-0.005082332685855555,-0.0867215551239037,-0.08163922243804815
1589996304.2057717,-3.874426826035617,-0.944426826035617,8.89,0.3555555555555556,-0.3111111111111111,-0.5666666666666667,0.04199701183218063,-0.027667662722606453,-0.04199701183218063
1589996304.2157717,-3.88,-0.945542394162659,8.827593518277226,0.3555555555555556,-0.3111111111111111,-0.5666666666666667,-0.0903600364833811,-0.0903600364833811,0.034639963516618896
1589996304.2257717,-3.88,-0.9448125372979425,8.793312835681482,0.3555555555555556,-0.3111111111111111,-0.5666666666666667,-0.06484328377571937,-0.125,-0.030078358112140317
1589996304.2357717,-3.8759899154137054,-0.9540100845862944,8.860050422931472,0.3555555555555556,-0.3111111111111111,-0.5666666666666667,0.050126057328680786,-0.02474788534263843,-0.0625
1589996304.2457716,-3.87,-0.9571711928816387,8.898486421355084,0.3533553722412746,-0.3123683587192717,-0.5685525380789075,0.16036008897951617,0.10731995551024191,-0.0625
1589996304.2557716,-3.87,-0.95,8.912696791297906,0.3477777777777778,-0.31555555555555553,-0.5733333333333334,0.1587098912238294,0.016854945611914696,-0.08532252719404265
1589996304.2657716,-3.8672177550959854,-0.95,8.883306530575913,0.3477777777777778,-0.31555555555555553,-0.5733333333333334,-0.05216709195027149,-0.0798890306500905,-0.1423890306500905
1589996304.2757716,-3.863549524500322,-0.9535495245003224,8.857747622501613,0.3477777777777778,-0.31555555555555553,-0.5733333333333334,-0.16531547187298518,-0.03626188749194069,-0.1875
1589996304.2857716,-3.8649241623777226,-0.9583080541259075,8.898459729370463,0.3477777777777778,-0.31555555555555553,-0.5733333333333334,-0.1038506765738437,0.11442533828692185,-0.15577601486076553
1589996304.2957716,-3.843480179965234,-0.9511600599884112,8.934199700057944,0.3477777777777778,-0.31555555555555553,-0.5733333333333334,-0.014500749855141631,0.06975037492757082,-0.021751124782712433
1589996304.3057716,-3.88,-0.94,8.922731598741269,0.36,-0.3055555555555556,-0.5522222222222222,-0.07158550157341316,0.13408550157341315,-0.05341449842658685
1589996304.3157716,-3.88,-0.94,8.882491557295266,0.36,-0.3055555555555556,-0.5522222222222222,-0.12188555338091948,0.1843855533809195,-0.003114446619080516
1589996304.3257716,-3.86,-0.942375888382489,8.791879441912444,0.36,-0.3055555555555556,-0.5522222222222222,-0.07734930239055651,0.1398493023905565,-0.0625
1589996304.3357716,-3.86,-0.9497000017462063,8.828500008731032,0.36,-0.3055555555555556,-0.5522222222222222,-0.12312501091378979,0.1856250109137898,-0.0625
1589996304.3457716,-3.851568526670987,-0.95,8.886274106683949,0.3593028770351169,-0.3055555555555556,-0.5522222222222222,0.0625,0.125,-0.009803291693669133
1589996304.3557715,-3.861404754759761,-0.95,8.917190490480477,0.3555555555555556,-0.3055555555555556,-0.5522222222222222,0.08883915174552366,0.11622028275149211,-0.044940565502984225
1589996304.3657715,-3.87,-0.95,8.867283348666053,0.3555555555555556,-0.3055555555555556,-0.5522222222222222,0.19423298068077277,0.0625,0.08108900643974241
1589996304.3757715,-3.8687270941300005,-0.9487270941300003,8.802729058699995,0.3555555555555556,-0.3055555555555556,-0.5522222222222222,0.03863301493750635,0.07841132337499576,0.11704433831250212
1589996304.3857715,-3.862510123970148,-0.9425101239701478,8.895020247940296,0.3555555555555556,-0.3055555555555556,-0.5522222222222222,-0.0936234503731517,0.17181172518657584,0.04681172518657585
1589996304.3957715,-3.8690178585281845,-0.9490178585281842,8.908035717056368,0.3555555555555556,-0.3055555555555556,-0.5522222222222222,-0.01227676839769748,0.13113838419884874,0.00613838419884874
1589996304.4057715,-3.878302265439123,-0.95,8.923209061756491,0.36,-0.2977777777777777,-0.5455555555555556,0.17688915899451743,0.24055420502741284,0.0625
1589996304.4157715,-3.8694074025677043,-0.95,8.882888830812453,0.36,-0.2977777777777777,-0.5455555555555556,0.125,0.5074074679036947,0.05879626604815263
1589996304.4257715,-3.870034859163889,-0.95,8.790069718327779,0.36,-0.2977777777777777,-0.5455555555555556,0.10409404340856467,0.562282130225694,0.0
1589996304.4357715,-3.89,-0.9473111705298295,8.840755317880681,0.36,-0.2977777777777777,-0.5455555555555556,0.096110368377131,0.42069481581143453,0.0
1589996304.4457715,-3.89,-0.9401679241105642,8.869328303557742,0.36,-0.2977777777777777,-0.5455555555555556,0.1854009486179471,0.37604952569102645,0.0
1589996304.4557714,-3.89,-0.94,8.919355940034912,0.36,-0.3055555555555556,-0.5666666666666667,0.1680084582606017,0.3904661669575932,0.09745770869699147
1589996304.4657714,-3.873572110792741,-0.9465711556829035,8.913715377268385,0.36,-0.3055555555555556,-0.5666666666666667,0.022325692454632284,0.521430276981853,0.3330348615090735
1589996304.4757714,-3.845674749400881,-0.9571626252995593,8.865674749400881,0.36,-0.3055555555555556,-0.5666666666666667,-0.24070077563326203,0.508434367511016,0.35726640812224597
1589996304.4857714,-3.8678124252185917,-0.9526041417395306,8.893020708697653,0.36,-0.3055555555555556,-0.5666666666666667,-0.39127588587206624,0.6875,0.2636723423838012
1589996304.4957714,-3.889507175964707,-0.9595071759647065,8.930985648070587,0.3597809670954251,-0.30582934668627415,-0.5659548097267983,-0.4344198497794159,0.6659389484559111,0.12191984977941588
1589996304.5057714,-3.8776629759014742,-0.9476629759014743,8.931303807211794,0.3555555555555556,-0.3111111111111111,-0.5522222222222222,-0.36039359938421456,0.19157439753685832,0.04789359938421458
1589996304.5157714,-3.8611582366759656,-0.94,8.837580201145206,0.3555555555555556,-0.3111111111111111,-0.5522222222222222,-0.27565931948318895,0.0,0.0
1589996304.5257714,-3.841178482795627,-0.94,8.76,0.3555555555555556,-0.3111111111111111,-0.5522222222222222,-0.2316931048360051,0.051558622308672614,0.0073655174726675165
1589996304.5357714,-3.8357635728070494,-0.9343054291228198,8.77708371263154,0.3555555555555556,-0.3111111111111111,-0.5522222222222222,-0.6514776699559407,0.686637475876634,0.00911339802643557
1589996304.5457714,-3.8016945800236064,-0.9225418700354101,8.826778320094427,0.3548965522130419,-0.3099813910953733,-0.5534460855726048,-0.9173645005901682,1.4184112514754204,-0.14618225029508405
1589996304.5557714,-3.826102131970346,-0.9530510659851729,8.92135746189621,0.3477777777777778,-0.2977777777777777,-0.5666666666666667,-1.5084841368513147,2.8676065985172907,-0.5275532992586454
1589996304.5657713,-3.8460326742068682,-0.96,8.942852966069093,0.3477777777777778,-0.2977777777777777,-0.5666666666666667,-1.887908427585853,3.6190563206893898,-1.0446689620681695
1589996304.5757713,-3.8346245553519456,-0.9536561388379864,8.908547375229062,0.3477777777777778,-0.2977777777777777,-0.5666666666666667,-2.1219736983938775,3.7103508677374153,-1.477149132262585
1589996304.5857713,-3.7425663699838867,-0.9360596178930407,8.956208662625643,0.3477777777777778,-0.2977777777777777,-0.5666666666666667,-2.2746273881684953,3.5388041414102664,-1.6486958585897338
1589996304.5957713,-3.589734283862605,-0.9198173201555412,8.899850534672716,0.34779807553827324,-0.2977777777777777,-0.566642678404263,-2.3764531351263773,3.189575907323396,-2.0029062702527543
1589996304.6057713,-3.453820479585224,-0.8263765797148412,8.823399019766688,0.3581803800316843,-0.2977777777777777,-0.5543726821847771,-3.1197317522683083,4.251402503240441,-3.4894635045366167
1589996304.6157713,-3.0635903736971444,-0.7220616896873147,8.73671807473943,0.36,-0.2977777777777777,-0.5522222222222222,-5.127849334802136,7.048168587407847,-6.040060164392848
1589996304.6257713,-2.83,-0.7943995541933687,8.878935636667595,0.36,-0.2977777777777777,-0.5522222222222222,-8.406659236556143,11.271628587350238,-12.758393702981332
1589996304.6357713,-2.7574168479335577,-0.7149713268736405,9.089919715246193,0.36,-0.2977777777777777,-0.5522222222222222,-5.920065008898556,5.3892092643859995,-21.89265003954914
1589996304.6457713,-2.4991504580488457,-0.6877862566221049,8.899268651863753,0.36,-0.29837724694687223,-0.5522222222222222,-1.0140821332262322,1.7982947482165739,-27.659581970661925
1589996304.6557713,-2.0740009945110636,-1.1851309120813969,9.099810851645726,0.36,-0.3046163376067559,-0.5522222222222222,0.7907976648115211,2.9514123969629162,-32.57286586532025
1589996304.6657712,-1.9013927116168217,-1.3235384792803875,8.760364419158915,0.36,-0.3055555555555556,-0.5522222222222222,5.467611190128393,5.1843622664719,-36.43036441915891
1589996304.6757712,-1.909454332282617,-1.170367686630276,8.357283385869147,0.36,-0.3055555555555556,-0.5522222222222222,6.727239419158915,5.889754074728992,-36.02728338586915
1589996304.6857712,-2.198564681762434,-1.1255807355067822,9.019726152775998,0.36,-0.3055555555555556,-0.5522222222222222,1.288302687217412,2.4920326200369765,-34.050401343608705
1589996304.6957712,-2.2808683822039537,-1.169565808898023,9.184789706776275,0.3598070261768991,-0.30492839063047766,-0.5522222222222222,-0.49737133470344747,0.7499149709091961,-33.0191659188931
1589996304.7057712,-2.288658269162119,-1.1463899229945433,9.024633076648477,0.3555555555555556,-0.2911111111111111,-0.5522222222222222,1.221043270947014,2.266771635473507,-30.205476439390075
1589996304.7157712,-2.2642725553290264,-1.108563533197416,8.858581955736778,0.3555555555555556,-0.2911111111111111,-0.5522222222222222,1.812845422613053,2.553752364225885,-28.205686116774338
1589996304.7257712,-2.3115387377682017,-1.1271153155579494,8.835769368884101,0.3555555555555556,-0.2911111111111111,-0.5522222222222222,0.7127365001346619,1.954324333423108,-26.93388516698088
1589996304.7357712,-2.355236111369427,-1.1276180556847137,8.846190972157643,0.3555555555555556,-0.2911111111111111,-0.5522222222222222,0.3839192720441907,1.8660481801104767,-25.773838971860062
1589996304.7457712,-2.4176431640225418,-1.1588215820112708,8.830589208994365,0.3555555555555556,-0.2911111111111111,-0.5522222222222222,0.6764523313556643,2.5973808283891606,-24.847484284040398
1589996304.7557712,-2.4423595567867036,-1.152546814404432,8.718202216066482,0.37874324407510007,-0.2911111111111111,-0.5580191443521084,1.1533240997229917,2.857912049861496,-24.34667590027701
1589996304.7657712,-2.4956177226324683,-1.1434831824810758,8.699550452556773,0.38666666666666666,-0.2911111111111111,-0.56,1.1088494525336234,2.3265483576008705,-23.57654835760087
1589996304.7757711,-2.6045956358354125,-1.1610212524078694,8.705106262039346,0.38666666666666666,-0.2911111111111111,-0.56,0.584839896422143,1.9375,-22.661968689803267
1589996304.7857711,-2.7147742680755975,-1.186756618566072,8.842791917585123,0.38666666666666666,-0.2911111111111111,-0.56,1.0140762886793167,1.9234237113206833,-22.173423711320684
1589996304.7957711,-2.7981584123010905,-1.2107366350795636,8.98963168246022,0.38666666666666666,-0.29086556608458985,-0.5594679857758706,1.05559404612909,1.8726980153763633,-22.125
1589996304.805771,-2.7340303049649917,-1.2172242439719934,8.964030304964991,0.38666666666666666,-0.28444444444444444,-0.5455555555555556,0.8550378812062398,1.732651524824959,-22.26473483155632
1589996304.815771,-2.6891072962714198,-1.1962244021306174,8.909770693075494,0.38666666666666666,-0.28444444444444444,-0.5455555555555556,0.8125,1.5819512566581797,-22.659756283290896
1589996304.825771,-2.643245755166435,-1.2224309970477514,8.824599259594809,0.38666666666666666,-0.28444444444444444,-0.5455555555555556,0.8125,1.6638468657742234,-23.069234328871115
1589996304.835771,-2.74,-1.2633357661429725,8.809166058464257,0.38666666666666666,-0.28444444444444444,-0.5455555555555556,0.6041970767871547,1.9322878654016056,-24.203182018975916
1589996304.845771,-2.74,-1.2955587139399993,8.801110321515,0.38666666666666666,-0.28444444444444444,-0.5455555555555556,1.0069839242499905,1.8819395094687512,-24.95840735796873
1589996304.855771,-2.7124983065936408,-1.3,8.752501016043816,0.3977777777777778,-0.27111111111111114,-0.56,0.9218771167579494,2.2421885583789747,-26.24217162431538
1589996304.865771,-2.793671498519479,-1.3,8.703797100888313,0.3977777777777778,-0.27111111111111114,-0.56,0.8204106268506512,2.1914553134253256,-27.003170298620116
1589996304.875771,-2.8024239892132097,-1.331211994606605,8.67696792449247,0.3977777777777778,-0.27111111111111114,-0.56,1.0302998651651252,2.227275101126156,-28.86172422469947
1589996304.885771,-2.8183546347114343,-1.3391773173557173,8.788482442980042,0.3977777777777778,-0.27111111111111114,-0.56,1.2294329338929297,2.077925299580303,-30.006739369884347
1589996304.895771,-2.82,-1.3669085662501193,8.880725698750359,0.3977777777777778,-0.27111111111111114,-0.56,1.4181785390632453,2.510976104168654,-31.582547338548125
1589996304.905771,-2.82,-1.4039495115843617,8.940924267376541,0.41003732362768613,-0.282427614972565,-0.56,1.4905461118505652,2.6685922237011304,-33.28833724366639
1589996304.915771,-2.883380627665219,-1.4188967712775364,8.892348340440584,0.4122222222222222,-0.28444444444444444,-0.56,1.375,2.8331855385461906,-36.123226462554285
1589996304.925771,-2.833926346611119,-1.410654391101853,8.76047025762965,0.4122222222222222,-0.28444444444444444,-0.56,1.375,2.987730166840254,-37.97776200208305
1589996304.935771,-2.86,-1.4531565067633023,8.79,0.4122222222222222,-0.28444444444444444,-0.56,1.11842394424312,3.20065211151376,-40.927498564816474
1589996304.945771,-2.86,-1.4757299702199418,8.79,0.4122222222222222,-0.28444444444444444,-0.56,1.071395895375121,3.294708209249758,-43.09078881274443
1589996304.955771,-2.85,-1.4678265582655827,8.777826558265582,0.4444444444444444,-0.27111111111111114,-0.5666666666666667,1.4293360433604336,3.388584010840108,-47.21995257452574
1589996304.965771,-2.8585487687462265,-1.469973563537264,8.760026436462736,0.4444444444444444,-0.27111111111111114,-0.5666666666666667,1.6160950325560144,3.473119869775943,-50.2488434047553
1589996304.975771,-2.8996163449142447,-1.5178857357332856,8.712114264266713,0.4444444444444444,-0.27111111111111114,-0.5666666666666667,1.573316307380995,3.6442347704760194,-52.34500093833124
1589996304.985771,-2.9193101822970817,-1.5341389062175088,8.792759270811672,0.4444444444444444,-0.27111111111111114,-0.5666666666666667,1.9633681638594302,4.316811360643238,-56.02375667151868
1589996304.995771,-2.913495667845013,-1.569025992929923,8.816017328619948,0.4444444444444444,-0.27111111111111114,-0.5666666666666667,2.181412455812019,4.35315207596867,-57.804451722464826
1589996305.005771,-2.930767702685925,-1.6246128378098745,8.878457972933825,0.4444444444444444,-0.2526509309458447,-0.5712817117079833,2.3125,4.418266047262343,-60.778706079543106
1589996305.015771,-2.914151091801191,-1.6852355893479156,8.893537772950298,0.4444444444444444,-0.24444444444444444,-0.5733333333333334,2.272111080939361,4.518277838121278,-63.40211243866811
1589996305.025771,-2.857323755924171,-1.7356057464454977,8.753436018957347,0.4444444444444444,-0.24444444444444444,-0.5733333333333334,2.3033453050947865,4.829226525473934,-66.66884811907583
1589996305.035771,-2.8727726155506264,-1.7627726155506265,8.752772615550626,0.4444444444444444,-0.24444444444444444,-0.5733333333333334,2.21761410187239,5.112214745319026,-68.67556026816938
1589996305.045771,-2.8967654895801194,-1.8202964687403584,8.785148234370178,0.4444444444444444,-0.24444444444444444,-0.5733333333333334,2.292284309875747,5.135107845062127,-71.33557835245281
1589996305.0557709,-2.8628824410563682,-1.8374235117887263,8.760305952845094,0.4931096883927615,-0.22464841300784089,-0.5997280419154715,2.4516908460386184,5.125,-73.5130840498225
1589996305.0657709,-2.83,-1.85315314993024,8.73842342503488,0.51,-0.21777777777777774,-0.6088888888888889,2.5493618752906664,5.641422655886667,-76.71030390298
1589996305.0757709,-2.83,-1.8981676385361141,8.715916180731943,0.51,-0.21777777777777774,-0.6088888888888889,2.3618015060995243,5.875873117375595,-78.82035805638036
1589996305.0857708,-2.780544208253264,-1.954353666026111,8.772721041266319,0.51,-0.21777777777777774,-0.6088888888888889,2.714710412663193,5.724914317411891,-81.95195336489887
1589996305.0957708,-2.788853537254591,-2.0208282980367294,8.814267686272956,0.51,-0.21777777777777774,-0.6088888888888889,3.13017686272956,6.296180686253145,-84.081218921489
1589996305.1057708,-2.84061822759768,-2.1055640483791196,8.84752708960928,0.5244444444444445,-0.2,-0.6177777777777778,3.0740917674564994,6.730680387572502,-87.30274043433299
1589996305.1157708,-2.849921927033227,-2.19,8.809609635166137,0.5244444444444445,-0.2,-0.6177777777777778,3.2497560219788353,6.439207846148154,-90.01146696699475
1589996305.1257708,-2.834402427292237,-2.19,8.732012136461186,0.5244444444444445,-0.2,-0.6177777777777778,3.201257585288241,6.778696902982313,-92.29089349145268
1589996305.1357708,-2.733030596436871,-2.219090821068939,8.690606119287374,0.5244444444444445,-0.2,-0.6177777777777778,3.2481058772269558,7.056817631680867,-95.48294684353215
1589996305.1457708,-2.71779679176215,-2.2566096247135503,8.732711228832475,0.5244444444444445,-0.2,-0.6177777777777778,3.059324871283593,6.948094922770156,-97.50738631290736
1589996305.1557708,-2.6854205206260002,-2.3168692190609996,8.7661448698435,0.5319548409198332,-0.17610328394194452,-0.6314330440966667,3.01431087304375,7.0286217460875,-100.51665008000624
1589996305.1657708,-2.6194737651650613,-2.3831574090096326,8.735263886485551,0.5366666666666666,-0.16111111111111112,-0.64,3.565788967718367,7.631577935436734,-104.64471457960816
1589996305.1757708,-2.6114095095268306,-2.4315429428390147,8.662685585741478,0.5366666666666666,-0.16111111111111112,-0.64,3.616190565457307,7.732381130914614,-106.86238488012151
1589996305.1857708,-2.61,-2.5333336329520684,8.735555830206062,0.5366666666666666,-0.16111111111111112,-0.64,3.625,7.895833801487607,-109.63195209096425
1589996305.1957707,-2.627011091652072,-2.5855166374781087,8.768505545826036,0.5366666666666666,-0.16111111111111112,-0.64,3.5718403385872737,7.990659661412726,-112.49204611792177
1589996305.2057707,-2.622556933483653,-2.6272153325817365,8.79977226606539,0.5565148440435926,-0.1164527120130277,-0.64,3.7950958286358514,8.32563416009019,-114.68924746335964
1589996305.2157707,-2.6172196669310073,-2.691668199841396,8.805273433782713,0.5633333333333334,-0.10111111111111112,-0.64,4.057286875495638,8.753475416336242,-118.00353291038859
1589996305.2257707,-2.5506962727993656,-2.7315822363203806,8.692183663758922,0.5633333333333334,-0.10111111111111112,-0.64,3.9325555114988107,8.836629659000794,-119.58346352101506
1589996305.2357707,-2.480313081977582,-2.7817495344179344,8.6876243016269,0.5633333333333334,-0.10111111111111112,-0.64,3.676565409887909,9.073434590112091,-122.0488026634808
1589996305.2457707,-2.4282865006128724,-2.823370799509702,8.666629200490299,0.5633333333333334,-0.10111111111111112,-0.64,3.7292837484678185,9.020716251532182,-124.27282372395291
1589996305.2557707,-2.3850001064713275,-2.878999808351611,8.718000042588532,0.5777777777777777,-0.04444444444444445,-0.6677777777777778,3.1687490683758863,9.456249600732523,-126.99999600732522
1589996305.2657707,-2.3403428376738145,-2.959382892187134,8.700137135069525,0.5777777777777777,-0.04444444444444445,-0.6677777777777778,3.5595001703541236,9.623714358723197,-128.67464358723197
1589996305.2757707,-2.3097335319133667,-2.990710581564356,8.61,0.5777777777777777,-0.04444444444444445,-0.6677777777777778,4.188055141847153,9.939165425541459,-130.26221312063737
1589996305.2857707,-2.287154802705952,-3.0509205261174612,8.61,0.5777777777777777,-0.04444444444444445,-0.6677777777777778,4.2350941610292665,10.0802824830878,-131.29707154264386
1589996305.2957706,-2.28,-3.1656486904798036,8.740430032472458,0.5777777777777777,-0.04444444444444445,-0.6677777777777778,4.1413083062729505,9.961962459409426,-132.82060863099755
1589996305.3057706,-2.2362066892874455,-3.2091955404750365,8.738103344643722,0.5826437011902839,-0.012004955027737386,-0.6888634458986373,3.988145904023267,10.119972127968976,-133.8211245758604
1589996305.3157706,-2.1831384676119354,-3.2568615323880645,8.720784616902984,0.5844444444444444,0.0,-0.6966666666666667,4.110288433069053,10.590673010494458,-134.8161537322762
1589996305.3257706,-2.148280009622324,-3.275859995188838,8.656560019244647,0.5844444444444444,0.0,-0.6966666666666667,3.8276250902092857,10.327625090209285,-135.32106236468607
1589996305.3357706,-2.123215183153424,-3.31916457264201,8.645594938948859,0.5844444444444444,0.0,-0.6966666666666667,3.6800632631392673,10.145094894708901,-135.57737347372145
1589996305.3457706,-2.0731855477184395,-3.300914063624586,8.619321289765367,0.5844444444444444,0.0,-0.6966666666666667,3.548303224413416,10.330938714553044,-135.45740967324025
1589996305.3557706,-1.9631355985102266,-3.288533530305237,8.661201181831423,0.6044444444444445,0.006666666666666667,-0.7055555555555556,3.3383382576309275,10.66458641101933,-134.22084564407731
1589996305.3657706,-1.7624138074530284,-3.2710794615176546,8.55647676910593,0.6044444444444445,0.006666666666666667,-0.7055555555555556,2.901986537941366,10.391866586213354,-133.12996634485341
1589996305.3757706,-1.7692237041379648,-3.3276711124138942,8.569223704137965,0.6044444444444445,0.006666666666666667,-0.7055555555555556,3.1953950689660786,10.33495061637924,-132.3816604784471
1589996305.3857706,-1.78,-3.332779850107799,8.627635262311351,0.6044444444444445,0.006666666666666667,-0.7055555555555556,3.0772796105540534,10.482625936826254,-130.9367128948359
1589996305.3957705,-1.7303342254716365,-3.2490488935309094,8.571953782884,0.6044444444444445,0.006666666666666667,-0.7055555555555556,2.9818444415431817,10.518155558456819,-128.92978898753182
1589996305.4057705,-1.5794226563639016,-3.342309374544394,8.711732030908296,0.6022222222222222,0.01888888888888889,-0.6966666666666667,1.510825193176848,11.30283204548768,-125.6753808864266
1589996305.4157705,-1.5706868972986483,-3.377252410805407,8.737939308104055,0.6022222222222222,0.01888888888888889,-0.6966666666666667,1.6746206756503446,10.210862162331036,-123.60063810842897
1589996305.4257705,-1.5225082337904932,-3.3610032935161973,8.559531288403875,0.6022222222222222,0.01888888888888889,-0.6966666666666667,1.7468647077618837,10.659282369856953,-120.46926461190581
1589996305.4357705,-1.4923766008999655,-3.4083409484250606,8.750269643475251,0.6022222222222222,0.01888888888888889,-0.6966666666666667,1.5773537556247836,9.910591900311527,-118.37022975077882
1589996305.4457705,-1.3274692140528794,-3.2484157310153328,8.556728540383919,0.6022222222222222,0.01888888888888889,-0.6966666666666667,1.3184157310153326,8.97235112579983,-115.13940450319933
1589996305.4557705,-1.3858742227033558,-3.395194985020518,8.532767301930969,0.6141774991678066,0.04739762622066693,-0.7270146773746884,2.594968656378238,8.698270436293145,-111.30141486870924
1589996305.4657705,-1.3919129090440607,-3.4942612728678175,8.776088636949241,0.6166666666666667,0.05333333333333334,-0.7333333333333333,0.5575914712702912,7.670101133728421,-107.97443635660912
1589996305.4757705,-1.3487556907674716,-3.4917511381534942,8.527787559065313,0.6166666666666667,0.05333333333333334,-0.7333333333333333,1.0342754115692494,6.995390748052733,-104.33639987485705
1589996305.4857705,-1.2869477481245262,-3.463473874062263,8.584946545730192,0.6166666666666667,0.05333333333333334,-0.7333333333333333,2.9006456334788404,7.7592041979245625,-99.64608110933946
1589996305.4957705,-1.2576019504428302,-3.4525339834809436,8.614932033038112,0.6166666666666667,0.05333333333333334,-0.7333333333333333,2.4717235545825456,6.988410538362026,-96.27858120210966
1589996305.5057704,-1.25,-3.4764121884324424,8.708040628108142,0.5569946853933713,0.03865989531530989,-0.6697484352552316,1.8648222520268845,6.6875,-91.46072252026885
1589996305.5157704,-1.2345733552698392,-3.526279934190482,8.673720065809519,0.5488888888888889,0.03666666666666667,-0.6611111111111111,1.9089165295635042,6.301833881745983,-87.75575452440437
1589996305.5257704,-1.2192350330649546,-3.556147450402568,8.611557648792296,0.5488888888888889,0.03666666666666667,-0.6611111111111111,2.03842156501605,6.120218956655966,-84.05397722289463
1589996305.5357704,-1.2211092144101852,-3.6033276432305557,8.614436857640742,0.5488888888888889,0.03666666666666667,-0.6611111111111111,2.125,5.784769639745368,-79.39622452789928
1589996305.5457704,-1.1125099760574622,-3.547065865452326,8.850424158490211,0.5488888888888889,0.03666666666666667,-0.6611111111111111,2.2545845852307402,5.130551382564199,-74.27969050748791
1589996305.5557704,-0.8135954550568119,-3.0380897738778265,8.358426988412644,0.5366666666666666,0.14,-0.5722222222222222,2.2169939672629093,4.91853871357858,-68.0056196563168
1589996305.5657704,-0.9079660254246822,-3.250423557205535,8.317139863876701,0.5366666666666666,0.14,-0.5722222222222222,2.991127552311846,6.061307339127011,-64.8722218120711
1589996305.5757704,-0.993057917535697,-3.6148146959730467,9.033617840526231,0.5366666666666666,0.14,-0.5722222222222222,1.6625721963741376,3.678064334991176,-61.04712818867319
1589996305.5857704,-0.888868381346714,-3.35053335204744,7.873145373521878,0.5366666666666666,0.14,-0.5722222222222222,3.4784400329836136,-1.7565276413207482,-58.201442375171055
1589996305.5957704,-1.0145546230340645,-3.4375936243740743,8.788882149657946,0.5366666666666666,0.14,-0.5722222222222222,4.515088334861415,-1.3256356231045916,-53.91464930531067
1589996305.6057703,-0.8766452299092236,-3.168088253481412,9.04721511786094,0.5243351719475294,0.20823427077922615,-0.5574244285592574,-8.555721140765291,12.944450456355588,-46.64700153355265
1589996305.6157703,-0.77,-3.153181804876621,7.380909170740274,0.52,0.23222222222222225,-0.5522222222222222,-0.561148025641776,-1.8432075637385452,-44.12757039779879
1589996305.6257703,-0.8454797256647816,-3.434179039826736,8.308411262182648,0.52,0.23222222222222225,-0.5522222222222222,12.706486884851403,6.524651064853808,-36.8683386475755
1589996305.6357703,-0.8931026975245477,-3.518964316039276,9.30101826653023,0.52,0.23222222222222225,-0.5522222222222222,-0.7863901831007389,2.0604330408656466,-34.98278395854651
1589996305.6457703,-0.7969088382327395,-3.3306904205832963,8.838325773514255,0.52,0.23222222222222225,-0.5522222222222222,-2.3752255882182634,0.5627255882182632,-32.43044886023664
1589996305.6557703,-0.7798815926943466,-3.3794474325736177,8.799052741554775,0.5288538052427694,0.2709576201593382,-0.5455818682901452,4.785364992454436,2.4911194520759974,-26.270227914715782
1589996305.6657703,-0.78,-3.38,8.8,0.5288888888888889,0.27111111111111114,-0.5455555555555556,4.8125,2.5,-26.25
1589996305.6757703,-0.8,-3.487448055594553,8.509703425522954,0.5288888888888889,0.27111111111111114,-0.5455555555555556,0.46420486452337495,1.3067505791099256,-21.39744270321494
1589996305.6857703,-0.8661118673926971,-3.6021728859705315,8.656467809096734,0.5288888888888889,0.27111111111111114,-0.5455555555555556,1.7503178050928891,1.0243008287956439,-17.87182194907111
1589996305.6957703,-0.9023326367119471,-3.6738336816440267,8.77482741205155,0.5288888888888889,0.27111111111111114,-0.5455555555555556,1.5395528561476837,0.9177235719261582,-15.187369383490072
1589996305.7057703,-0.887670373538637,-3.675340747077274,8.65369261477046,0.53070082058106,0.2773234483414124,-0.5471086398631309,1.2475228115198176,1.0273381807812945,-12.030510407755918
1589996305.7157702,-0.9023026689381034,-3.7046053378762065,8.649065871663828,0.5366666666666666,0.2977777777777777,-0.5522222222222222,1.6722032935831914,0.3606083191368541,-7.800326519023282
1589996305.7257702,-0.9016037541960678,-3.7145660067137083,8.53394327601562,0.5366666666666666,0.2977777777777777,-0.5522222222222222,1.3294812290196616,0.1875,-3.9767674864698224
1589996305.7357702,-0.9103654748757593,-3.760974599668691,8.642923799006075,0.5366666666666666,0.2977777777777777,-0.5522222222222222,0.868147346079514,-0.0022842179734952894,-0.5712885232606293
1589996305.7457702,-0.9231349708787034,-3.7936211699164346,8.681835907824766,0.5366666666666666,0.2977777777777777,-0.5522222222222222,0.49696125601418084,-0.37196125601418084,2.7256900481134467
1589996305.7557702,-0.9301541401273885,-3.7752312101910825,8.636156050955414,0.5428091766926162,0.3106212078320358,-0.5594815522528898,0.27884156050955416,-0.6564105626326964,6.414759819532909
1589996305.7657702,-0.9536530682207748,-3.794612272883099,8.644204319506342,0.5488888888888889,0.3233333333333333,-0.5666666666666667,0.0901782653411039,-0.9651782653411038,10.363262769969147
1589996305.7757702,-0.95,-3.84116715542522,8.695855571847508,0.5488888888888889,0.3233333333333333,-0.5666666666666667,-0.1800815615835777,-1.3161473607038123,14.602497250733137
1589996305.7857702,-0.9287657728706624,-3.789219242902208,8.502267350157728,0.5488888888888889,0.3233333333333333,-0.5666666666666667,0.12987973186119872,-1.4192379731861198,17.977326498422713
1589996305.7957702,-0.9475365806700039,-3.826087793608009,8.521160954948016,0.5488888888888889,0.3233333333333333,-0.5666666666666667,0.0027134674624566535,-1.7128658067000386,21.030822824412784
1589996305.8057702,-0.9849329909317069,-3.8949329909317068,8.717064441056095,0.566310711642547,0.3233333333333333,-0.5666666666666667,-0.1566688066768317,-1.8441688066768318,25.347439009710296
1589996305.8157701,-0.9686443827296157,-3.8572887654592316,8.685933148188848,0.5722222222222222,0.3233333333333333,-0.5666666666666667,-0.3474543465665022,-2.3463904317596054,29.052924766737927
1589996305.8257701,-1.0063439101253338,-3.8532411171786665,8.587173855517333,0.5722222222222222,0.3233333333333333,-0.5666666666666667,-0.4375,-2.6452569823666674,32.50469550626669
1589996305.8357701,-1.0192818719741796,-3.801050295857988,8.614308768154922,0.5722222222222222,0.3233333333333333,-0.5666666666666667,-0.6384649004841312,-2.888464900484131,35.496184104357184
1589996305.8457701,-1.0052275410539873,-3.8120419662981644,8.712952130514115,0.5722222222222222,0.3233333333333333,-0.5666666666666667,-0.9616393420628958,-3.1221557368251585,38.25561473650317
1589996305.85577,-1.0,-3.8666668645375757,8.662223673275555,0.5919750154998878,0.32234569366945004,-0.5696295856583166,-1.1527773655467173,-3.2430547310934346,40.75692671850884
1589996305.86577,-1.008197619422986,-3.85,8.55366269903831,0.6166666666666667,0.3211111111111111,-0.5733333333333334,-1.1875,-3.3125,42.25
1589996305.87577,-1.0179261025029798,-3.817802940007946,8.567864521255462,0.6166666666666667,0.3211111111111111,-0.5733333333333334,-1.1875,-3.325076976559396,42.37576976559396
1589996305.88577,-1.039657457780298,-3.7403081639524376,8.561267034077014,0.6166666666666667,0.3211111111111111,-0.5733333333333334,-1.3084330864241285,-3.3266267654303485,42.99593308642413
1589996305.89577,-1.1339531329597554,-3.82,8.639184921039226,0.6166666666666667,0.3211111111111111,-0.5733333333333334,-1.4164225674987265,-3.233284513499745,43.25436194600102
1589996305.90577,-1.0836336835960305,-3.781802101576182,8.595494746059545,0.7560182590646689,0.2921090030485827,-0.5931396510345722,-1.1079210449503794,-3.2670789550496204,43.87518425277291
1589996305.91577,-1.1105840142685304,-3.8089344228296484,8.60106557717035,0.8355555555555556,0.27555555555555555,-0.6044444444444445,-1.3683401426853044,-3.3125,44.583760214027954
1589996305.92577,-1.1388571428571428,-3.8488571428571428,8.618714285714285,0.8355555555555556,0.27555555555555555,-0.6044444444444445,-1.4794642857142857,-3.367857142857143,45.34553571428572
1589996305.93577,-1.1828168495470948,-3.8928168495470947,8.698752485455483,0.8355555555555556,0.27555555555555555,-0.6044444444444445,-1.4043007585241918,-3.3788984829516164,46.670018963104795
1589996305.94577,-1.1997732326295092,-3.894603157101641,8.669433081573773,0.8355555555555556,0.27555555555555555,-0.6044444444444445,-1.5955216200819597,-3.4705216200819597,48.700964312622894
1589996305.95577,-1.1977456647398843,-3.8777456647398845,8.608169556840076,1.2759109398415758,0.1868272318561336,-0.7536394776279169,-1.8239402697495184,-3.772880539499037,51.095014450867055
1589996305.96577,-1.252600155253299,-3.916625097033312,8.669225252286612,1.58,0.12555555555555556,-0.8566666666666667,-2.00812548516656,-3.875,53.06906662391576
1589996305.97577,-1.3109242524428772,-3.9243068106678423,8.672458305782088,1.58,0.12555555555555556,-0.8566666666666667,-2.0923058555580045,-3.9730824333259864,54.74907703328191
1589996305.98577,-1.2889195962079483,-3.87576633017329,8.599459798103974,1.58,0.12555555555555556,-0.8566666666666667,-1.5489949525993523,-4.148084174566774,56.10246548381758
1589996305.99577,-1.2423489608506524,-3.7881072982116963,8.59,1.58,0.12555555555555556,-0.8566666666666667,-1.5544465925567907,-4.152936201063316,56.29924480425326
1589996306.00577,-1.2660820956422394,-3.7261598253631467,8.666803492737065,1.323988357543115,0.09270072810692201,-0.7896769535571151,-1.725998908519667,-4.149001091480333,55.77948144483434
1589996306.01577,-1.3354093492996817,-3.722295325350159,8.755570119747611,0.9133333333333332,0.04,-0.6822222222222222,-1.6014252993690297,-4.173154216561505,54.99588794905355
1589996306.02577,-1.3295556970082751,-3.7321234882240613,8.634691279439847,0.9133333333333332,0.04,-0.6822222222222222,-1.3523154042011458,-4.131635900700191,54.43641788669637
1589996306.03577,-1.406230978898536,-3.704771746782433,8.574923915594145,0.9133333333333332,0.04,-0.6822222222222222,-1.5932744724634018,-4.163943618115851,52.99809788985361
1589996306.04577,-1.4071667149338738,-3.6228332850661262,8.576277954757538,0.9133333333333332,0.04,-0.6822222222222222,-1.4972226244489493,-4.110069343887763,52.076386877755255
1589996306.05577,-1.413268382823792,-3.5698830890828255,8.68342426404669,0.8337651983175887,0.09540024353899978,-0.6680933010512021,-1.64567095705948,-4.04158547852974,50.74853861353532
1589996306.06577,-1.3818932500339534,-3.51,8.71864049979628,0.6755555555555556,0.20555555555555555,-0.64,-1.597998438136629,-3.9645015618633708,49.846173434741274
1589996306.07577,-1.401197165640623,-3.5361267198281205,8.655070445812504,0.6755555555555556,0.20555555555555555,-0.64,-1.4700708589844234,-3.7658451431640705,48.930898287402385
1589996306.08577,-1.4243683180243938,-3.562526727902424,8.664946544195152,0.6755555555555556,0.20555555555555555,-0.64,-1.3276238518295438,-3.6875,48.03586620990815
1589996306.09577,-1.4353338736459238,-3.523998379062228,8.688664505416305,0.6755555555555556,0.20555555555555555,-0.64,-1.5499797382778524,-3.520816448564877,46.90411263540761
1589996306.1057699,-1.476231559536354,-3.44961406743941,8.688115779768177,0.6332854027631425,0.21561987764898724,-0.6567738701557195,-1.4127412078503687,-3.4882236235511064,45.569452219441516
1589996306.1157699,-1.4685132944569588,-3.391107976674175,8.63072924780531,0.6055555555555555,0.2222222222222222,-0.6677777777777778,-1.201349708427191,-3.405066472284794,44.016040451779965
1589996306.1257699,-1.4802051294771306,-3.3981230776862783,8.644369233058836,0.6055555555555555,0.2222222222222222,-0.6677777777777778,-1.2512820592320666,-3.2369871763071734,42.0027563498363
1589996306.1357698,-1.4897871504097797,-3.4253192743853305,8.644255026434228,0.6055555555555555,0.2222222222222222,-0.6677777777777778,-0.9920181403667381,-3.251330309938877,39.8178089561919
1589996306.1457698,-1.484076926756925,-3.44,8.614076926756924,0.6055555555555555,0.2222222222222222,-0.6677777777777778,-0.726923168923121,-3.1596152466153185,37.29999880399943
1589996306.1557698,-1.4102441741713863,-3.3761953393371087,8.651902330331446,0.6026016360804217,0.20981576042666006,-0.6878644302086879,-0.7088420295237211,-2.5719524649521865,33.3478727601894
1589996306.1657698,-1.3663265907305577,-3.3397449430479185,8.706326590730558,0.6,0.1988888888888889,-0.7055555555555556,-0.43909410595051057,-2.044323509917518,28.353946754713277
1589996306.1757698,-1.38,-3.300275306697429,8.645412960046142,0.6,0.1988888888888889,-0.7055555555555556,-0.4138474166426337,-1.7821103334294652,23.424317002018768
1589996306.1857698,-1.3538550672430354,-3.202770172910663,8.61867495196926,0.6,0.1988888888888889,-0.7055555555555556,-0.13403203049951973,-1.3140009606147935,19.429942663304516
1589996306.1957698,-1.3099200944695926,-3.09,8.650239716591223,0.6,0.1988888888888889,-0.7055555555555556,0.37649822869513877,-0.681507085219445,16.018052548710884
1589996306.2057698,-1.3110290532973188,-3.1341162131892744,8.674485473351341,0.5681382904744128,0.16641445418011727,-0.6497975638857779,0.4246368337835167,-0.2821579155412083,7.5014761347914884
1589996306.2157698,-8.807584176632934,-9.678928549524684,3.5161330880098127,0.5422222222222223,0.14,-0.6044444444444445,-41.99698328733517,90.86072907083717,-70.11012342839621
1589996306.2257698,-7.308470816204568,-9.07333689490936,-0.01730690523189482,0.5422222222222223,0.14,-0.6044444444444445,-54.21186321737083,50.57923789818723,-252.70423223890327
1589996306.2357697,2.331914682539683,-1.0765228174603174,0.06241071428571432,0.5422222222222223,0.14,-0.6044444444444445,-24.275855654761905,-90.76410590277777,-456.3941902281746
1589996306.2457697,-0.6642114091200605,-2.1217153146634655,-0.282496094456595,0.5422222222222223,0.14,-0.6044444444444445,-22.780683182318988,-22.24512012629294,-450.78529275131143
1589996306.2557697,0.06485326438267615,-1.8203818142641672,0.16290627020038784,0.5511980655510068,0.15640896358543419,-0.6033224640283463,-22.47633322559793,-21.85965578539108,-434.2437082525318
1589996306.2657697,-0.15457309588109763,-1.2040918962814677,-0.3704377632150479,0.6133333333333333,0.27,-0.5955555555555555,-25.38142221110083,-5.082330834167438,-405.481140582803
1589996306.2757697,-0.5634656514967987,-1.427643536944108,0.6042630212839591,0.6133333333333333,0.27,-0.5955555555555555,-31.241938484166813,-4.219724433292957,-387.63919579512026
1589996306.2857697,-0.5607567688429953,-2.5228331571672493,2.7553687291649727,0.6133333333333333,0.27,-0.5955555555555555,17.754126351735913,62.5857894950809,-352.7074292117245
1589996306.2957697,-0.7132780062428776,-1.608375860873012,12.10562602189962,0.6133333333333333,0.27,-0.5955555555555555,101.92711068721201,159.7290077045038,-314.1663869345489
1589996306.3057697,-0.3161773265501078,0.8339770732899384,14.479418612400863,0.5390047566505478,0.3363171133277547,-0.5866539296055213,144.4007522826739,109.26061498900317,-277.16331948548196
1589996306.3157697,0.42473092086284825,0.1482422513542101,-0.6980698099298055,0.42777777777777776,0.4355555555555555,-0.5733333333333334,90.55052645918138,-33.11810474694702,-228.67751370236226
1589996306.3257697,-0.28840301777687427,-0.17517268640870998,-0.7419319644914277,0.42777777777777776,0.4355555555555555,-0.5733333333333334,5.448325371010366,-30.99633224910212,-188.11334733798648
1589996306.3357697,0.8677441819240801,-2.3053095798830054,6.3508100990149154,0.42777777777777776,0.4355555555555555,-0.5733333333333334,-42.74988287877636,12.719277836865963,-159.83235837828255
1589996306.3457696,2.770201397451706,-3.034698686708551,16.957309024719628,0.42777777777777776,0.4355555555555555,-0.5733333333333334,-35.9507050868025,86.1713872252559,-134.41285254340124
1589996306.3557696,1.4704514295268352,-0.6976107674301957,8.968935295101153,0.3893515762878746,0.45786754351743486,-0.5875882145312007,-1.1474544390570145,92.19013542885804,-114.84975338572146
1589996306.3657696,-0.63,0.43,-1.75,0.3588888888888889,0.4755555555555556,-0.5988888888888889,5.375,58.5,-109.875
1589996306.3757696,1.5832658092889984,-4.297354567868328,16.463533017924966,0.3588888888888889,0.4755555555555556,-0.5988888888888889,3.365329512893983,-17.61677467181982,-99.6240587725728
1589996306.3857696,0.22446842314312193,-1.874896067787634,6.5799232093208,0.3588888888888889,0.4755555555555556,-0.5988888888888889,-3.8276429895405797,-53.35922812127632,-85.92230736131339
1589996306.3957696,0.39438677381109205,-2.8736055855618496,9.978623369780003,0.3588888888888889,0.4755555555555556,-0.5988888888888889,4.889066822553024,-13.701175734422343,-69.94898975760769
1589996306.4057696,0.6890725859570543,-2.1921446449743116,7.7868976419444085,0.3588888888888889,0.4755555555555556,-0.5988888888888889,23.940044131208012,47.30799631142142,-48.94111447767092
1589996306.4157696,0.38055766383608736,-2.7802317785000765,10.137255245647772,0.31777777777777777,0.5377777777777778,-0.5844444444444444,-16.088486802920205,19.043764783962697,-37.93549831526641
1589996306.4257696,0.6868801249511909,-3.8700999609527527,13.304355329949239,0.31777777777777777,0.5377777777777778,-0.5844444444444444,-15.553162827020696,-18.460406091370558,-36.9537924638813
1589996306.4357696,0.3039560259399592,-2.731381339259691,8.499827127659575,0.31777777777777777,0.5377777777777778,-0.5844444444444444,7.183870409501603,4.775900111119207,-21.034638225007285
1589996306.4457695,0.3482739134293914,-3.057560874582088,9.071482588242256,0.31777777777777777,0.5377777777777778,-0.5844444444444444,3.195815704606645,7.860326858782804,-11.57187527737507
1589996306.4557695,0.29947147147147146,-2.8863123123123122,9.156822822822823,0.3168128128128128,0.5461408074741408,-0.5850877544210877,-5.929204204204204,-5.358370870870871,-1.8254504504504503
1589996306.4657695,0.19431802961529876,-2.690226207307091,8.099653992112508,0.3144444444444445,0.5666666666666667,-0.5866666666666667,-1.3025197187290722,1.0013719398764789,10.305472877446238
1589996306.4757695,0.19925837320574163,-2.778732057416268,8.093755980861244,0.3144444444444445,0.5666666666666667,-0.5866666666666667,0.3820275119617227,-2.4551435406698565,22.093301435406698
1589996306.4857695,0.23206956584817381,-3.0986260926335643,8.891391316963476,0.3144444444444445,0.5666666666666667,-0.5866666666666667,-2.099021616916325,-1.1143479561858474,31.798044140582498
1589996306.4957695,0.24,-3.0662810196499177,8.57129701376885,0.3144444444444445,0.5666666666666667,-0.5866666666666667,-0.7120946831972343,-3.323446285589398,44.213921340724404
1589996306.5057695,0.23561876920770558,-3.019530769807361,8.384510156659921,0.3144444444444445,0.570561094037595,-0.5910478974589611,-2.224486545236489,-4.0232038452889585,54.89314425455363
1589996306.5157695,0.1662257453857075,-2.980272555177903,8.148172137847954,0.3144444444444445,0.5755555555555556,-0.5966666666666667,-2.353114378522566,-4.79085504237835,66.41268876651034
1589996306.5257695,3.829541937409593,-15.434659610130185,6.265781002456777,0.3144444444444445,0.5755555555555556,-0.5966666666666667,-7.713400913829127,-10.548527081946133,87.83039199366289
1589996306.5357695,5.1272074538885715,-17.423139380110285,6.448794067313178,0.3144444444444445,0.5755555555555556,-0.5966666666666667,-24.31728940863282,-19.51441576345313,171.35565221525005
1589996306.5457695,0.9998842750170184,-2.6331508028670965,9.067362151123213,0.3144444444444445,0.5755555555555556,-0.5966666666666667,-27.8757708324991,-24.32428647939775,280.73028370640293
1589996306.5557694,-1.861826359328568,-3.6886675769014534,10.49447996144888,0.3156903952382228,0.5755555555555556,-0.597912617460445,21.998363585254197,-16.522829491607098,306.74899606457313
1589996306.5657694,-0.852455426084515,-2.0157293275305346,3.6056416615970175,0.3288888888888889,0.5755555555555556,-0.6111111111111112,14.674729358728378,-9.761290693683996,305.10663909557456
1589996306.5757694,-1.3824105011933174,-3.252291169451074,8.820137894457703,0.3288888888888889,0.5755555555555556,-0.6111111111111112,-21.555224078493765,-29.184798461946432,298.64576703792096
1589996306.5857694,2.229581202302852,-9.758915517472218,10.64190547596733,0.3288888888888889,0.5755555555555556,-0.6111111111111112,-26.754988954344626,-28.150584080867585,284.64443533270855
1589996306.5957694,4.0387650141952385,-13.879548373007205,7.558187377156584,0.3288888888888889,0.5755555555555556,-0.6111111111111112,-10.121231436994979,-19.737949060930333,159.54691390041495
1589996306.6057694,-2.101751883964022,0.9366712584069362,8.725905518191395,0.3538895641448109,0.5485885350547858,-0.6074593270849652,-7.494064500445669,-5.372194311644112,-39.950865002836075
1589996306.6157694,-2.7063789441161705,-0.6940138261306145,13.384379562043796,0.42777777777777776,0.4688888888888889,-0.5966666666666667,31.65828360946974,28.14489195921678,-76.83161230834588
1589996306.6257694,-0.904531547889242,-1.5095147526100772,6.363234453018611,0.42777777777777776,0.4688888888888889,-0.5966666666666667,20.28816670449387,2.251049704947799,-52.20302570358602
1589996306.6357694,-1.513189658440426,-2.2791879904469465,9.805546457409303,0.42777777777777776,0.4688888888888889,-0.5966666666666667,-21.239563194207513,-2.0976605443724177,-39.20018764926646
1589996306.6457694,-1.6972755222703981,-2.7464461962948366,11.400171330968336,0.42777777777777776,0.4688888888888889,-0.5966666666666667,-29.485649060570225,3.2567254631454476,-28.508310340296937
1589996306.6557693,-0.7288828330558986,-2.6274719432959244,8.49555442195135,0.436415841820449,0.46492977620266457,-0.6135828754168978,6.483911024002578,1.547473218600655,-11.559189241797778
1589996306.6657693,0.9302384132166,-8.436352574565959,7.15463768115942,0.4544444444444444,0.4566666666666666,-0.6488888888888888,5.302545506257109,1.404501780679626,-3.408418657565415
1589996306.6757693,1.4079653868528212,-11.63485577855342,8.963002472367656,0.4544444444444444,0.4566666666666666,-0.6488888888888888,-11.711634368334304,-2.79733099427962,-36.994620479445416
1589996306.6857693,-1.4056968009173667,-5.9502040673047665,8.046274133533032,0.4544444444444444,0.4566666666666666,-0.6488888888888888,0.36523250099459403,6.621416536004306,-82.90137868292341
1589996306.6957693,-1.7988341485552921,-5.162693762291362,7.635700838754139,0.4544444444444444,0.4566666666666666,-0.6488888888888888,12.696495806229304,12.090006387306069,-58.90100831190224
1589996306.7057693,0.6968206615565223,-0.21376424280091155,9.612965264829777,0.4539925112599651,0.456928312194523,-0.6480801663482417,2.5928889579448935,-3.634365720599406,9.870243767695602
1589996306.7157693,2.1350034545723733,-5.275263041010709,8.467047080886346,0.43333333333333335,0.4688888888888889,-0.6111111111111112,-1.2452576740857721,-3.6429853674184476,33.21890113754133
1589996306.7257693,0.23596860014451826,-6.596251067463706,8.98767588517375,0.43333333333333335,0.4688888888888889,-0.6111111111111112,-2.196893680614859,-0.14063834329632785,-0.804383170202982
1589996306.7357693,-1.7152367643535893,-5.835387686656552,8.224725704703346,0.43333333333333335,0.4688888888888889,-0.6111111111111112,3.3711021720035137,4.204159346801885,-21.020088038010062
1589996306.7457693,0.37944420845536453,-4.792801091014778,8.916859308278745,0.43333333333333335,0.4688888888888889,-0.6111111111111112,-0.9121361421002034,0.33348051599633344,-1.5147778845938875
1589996306.7557693,0.07203060843598358,-4.337839990046037,8.585788229438844,0.43664026101502773,0.47168705846570724,-0.6126373854257393,0.16266175189747417,-1.5044559537140723,6.578029737464227
1589996306.7657692,-0.4423878846051299,-4.591321566327165,8.73489503901598,0.4474090861511541,0.4807991412731987,-0.6176076124116437,0.48883289784745554,0.3127832880072523,-1.7160365452638686
1589996306.7757692,-0.14,-4.53146236236424,8.630896062726267,0.4477777777777778,0.4811111111111111,-0.6177777777777778,-0.6155167320065278,0.11060334640130555,0.0337066928026111
1589996306.7857692,-0.13935479306685533,-4.666128758401132,8.403548638132296,0.4477777777777778,0.4811111111111111,-0.6177777777777778,-0.3528210116731518,0.06048372833392289,-0.05846745666784577
1589996306.7957692,-0.12818064540253524,-4.56090752720338,8.51,0.4477777777777778,0.4811111111111111,-0.6177777777777778,0.38067204502112706,0.0,0.07954301125528176
1589996306.8057692,-0.1470229978796281,-4.577099657478389,8.534808351003099,0.4477777777777778,0.4804495550843618,-0.6200932238714003,0.512883297993802,0.018606263252324257,0.1125958244984505
1589996306.8157692,-0.13650047210003916,-4.5161016051401335,8.697298206019852,0.4477777777777778,0.4744444444444445,-0.6411111111111111,0.0625,0.14624881974990211,0.02062559012504894
1589996306.8257692,-0.16034657184354187,-4.607475334301597,8.550693143687084,0.4477777777777778,0.4744444444444445,-0.6411111111111111,0.04238869134071217,0.10272261731857565,0.0625
1589996306.8357692,-0.14959718394764038,-4.5823934292111606,8.51,0.4477777777777778,0.4744444444444445,-0.6411111111111111,0.09997066612125388,0.1875,0.02251173355149845
1589996306.8457692,-0.16784780394520776,-4.595564863123324,8.553043921095846,0.4477777777777778,0.4744444444444445,-0.6411111111111111,0.33940245068490305,0.16059754931509695,-0.0625
1589996306.8557692,-0.1575475068076011,-4.4847149591543936,8.702642520422804,0.4477777777777778,0.4737631963354448,-0.6393398660277119,0.38385171141627383,0.054835958773753406,-0.054835958773753406
1589996306.8657691,-0.14284729485594752,-4.575763525720262,8.63861082057621,0.4477777777777778,0.4688888888888889,-0.6266666666666667,-0.10677355709803175,-0.01779559284967196,-0.05338677854901588
1589996306.8757691,-0.15,-4.563852294070298,8.562295411859404,0.4477777777777778,0.4688888888888889,-0.6266666666666667,-0.4246922793131205,-0.0625,-0.13780772068687952
1589996306.8857691,-0.14755280407865987,-4.6128696285506186,8.464260742898762,0.4477777777777778,0.4688888888888889,-0.6266666666666667,-0.45543517844136927,-0.0625,0.045884923525127456
1589996306.8957691,-0.14,-4.56,8.577837230215827,0.4477777777777778,0.4688888888888889,-0.6266666666666667,-0.027034622302158265,-0.0625,0.13851731115107913
1589996306.905769,-0.1406226906385617,-4.55626385616863,8.606849597024178,0.4477777777777778,0.4701342701660123,-0.6275661087001447,0.2694590824550527,-0.046932734035957845,-0.019459082455052696
1589996306.915769,-0.14893414904876223,-4.506395105707426,8.698275639536385,0.4477777777777778,0.4888888888888889,-0.6411111111111111,0.5358537262190557,0.18083843155476392,-0.2525458839928754
1589996306.925769,-0.1413065478841871,-4.56,8.592160712694877,0.4477777777777778,0.4888888888888889,-0.6411111111111111,0.27983630289532296,0.11683407572383074,0.21733630289532294
1589996306.935769,-0.14877968819599108,-4.56,8.547321870824053,0.4477777777777778,0.4888888888888889,-0.6411111111111111,0.09300779510022272,0.07012694877505568,0.030507795100222723
1589996306.945769,-0.13400064724919095,-4.591998705501618,8.567336138079828,0.4477777777777778,0.4888888888888889,-0.6411111111111111,-0.037495954692556635,0.21666127292340884,0.16249595469255662
1589996306.955769,-0.15946625748412913,-4.541067485031742,8.677331287420646,0.4470068163659643,0.4878214038571471,-0.6403401496992976,0.11832821855161417,0.0033358907241929176,0.0033358907241929176
1589996306.965769,-0.15489296636085625,-4.56,8.637339449541285,0.43333333333333335,0.4688888888888889,-0.6266666666666667,-0.04587155963302752,0.0625,0.09308103975535167
1589996306.975769,-0.16531235482530135,-4.567031467762048,8.620155016015062,0.43333333333333335,0.4688888888888889,-0.6266666666666667,-0.23144667351279982,0.09179778234186656,0.12890443531626689
1589996306.985769,-0.15,-4.59,8.510069857453034,0.43333333333333335,0.4688888888888889,-0.6266666666666667,-0.3906795761351836,0.15614084772963277,-0.046820423864816385
1589996306.995769,-0.15,-4.59,8.56234116035062,0.43333333333333335,0.4688888888888889,-0.6266666666666667,-0.35373144133490997,0.07446693695215571,0.011966936952155715
1589996307.005769,-0.15,-4.59,8.530850648497475,0.43333333333333335,0.4688888888888889,-0.6266666666666667,-0.009303967941137858,0.12367086172269459,0.06117086172269459
1589996307.015769,-0.14474222241890516,-4.555257777581095,8.625773332743284,0.4477777777777778,0.4688888888888889,-0.6266666666666667,0.2828611098818427,0.07731944505907865,0.1578611098818427
1589996307.025769,-0.16,-4.543434157561817,8.574848763657274,0.4477777777777778,0.4688888888888889,-0.6266666666666667,0.1875,0.125,0.0625
1589996307.035769,-0.15842022579614443,-4.564739322611566,8.548420225796145,0.4477777777777778,0.4688888888888889,-0.6266666666666667,0.14800564490361062,0.10525282245180531,0.07237358877409734
1589996307.045769,-0.15,-4.588036791142732,8.555705670858142,0.4477777777777778,0.4688888888888889,-0.6266666666666667,-0.07477005535792418,0.0,0.08818983392622748
1589996307.055769,-0.15,-4.580057830958586,8.61953735233131,0.4477777777777778,0.4688888888888889,-0.6266666666666667,-0.12463855650883635,0.0,-0.06141566952650904
1589996307.065769,-0.15232112377173962,-4.570715504913042,8.641605618858698,0.44,0.4744444444444445,-0.6411111111111111,0.1919719057065092,0.0625,0.0
1589996307.075769,-0.15727796130250118,-4.545444077394998,8.659584709768758,0.44,0.4744444444444445,-0.6411111111111111,0.0,0.0625,-0.008506370929683812
1589996307.085769,-0.1440821142048136,-4.571835771590373,8.560615856536101,0.44,0.4744444444444445,-0.6411111111111111,0.0,0.0625,-0.049743393109957526
1589996307.095769,-0.12168672812935338,-4.572108410161692,8.569578317967663,0.44,0.4744444444444445,-0.6411111111111111,-0.30722897459577064,-0.12236448729788534,0.125
1589996307.105769,-0.1479474697512796,-4.6049343371891,8.56301313256218,0.44,0.4744444444444445,-0.6411111111111111,-0.22516415702725123,-0.08133207851362562,0.125
1589996307.115769,-0.13327300565326633,-4.566546011306532,8.613453988693466,0.45286855283361244,0.4694950010469012,-0.6331920016750419,-0.020456285332914576,0.21590619111180903,0.125
1589996307.125769,-0.13843542689756183,-4.551564573102438,8.603129146204877,0.4544444444444444,0.4688888888888889,-0.6322222222222222,0.15816425432928405,0.09183574567071595,0.07227858189023864
1589996307.135769,-0.15,-4.543177776550506,8.55,0.4544444444444444,0.4688888888888889,-0.6322222222222222,0.34189816093223613,0.125,-0.006620367813552769
1589996307.145769,-0.15,-4.566341746285967,8.55,0.4544444444444444,0.4688888888888889,-0.6322222222222222,0.10060680952117962,0.125,-0.054878638095764064
1589996307.1557689,-0.14046231535740328,-4.560462315357403,8.588150738570388,0.4544444444444444,0.4688888888888889,-0.6322222222222222,0.002889470983770355,0.18461052901622965,-0.0625
1589996307.1657689,-0.12296812158672368,-4.577031878413276,8.615547817619914,0.43646635056376387,0.4688888888888889,-0.6397919459614562,-0.21289848016595403,0.2407246200414885,-0.0625
1589996307.1757689,-0.15,-4.561388969101935,8.616110308980653,0.43333333333333335,0.4688888888888889,-0.6411111111111111,0.053818943112907885,-0.02604317066127635,0.053818943112907885
1589996307.1857688,-0.1500542525665637,-4.569891494866873,8.530271262832818,0.43333333333333335,0.4688888888888889,-0.6411111111111111,-0.00033907854102328686,-0.18716092145897673,0.0
1589996307.1957688,-0.1576294340489037,-4.554741131902192,8.582370565951097,0.43333333333333335,0.4688888888888889,-0.6411111111111111,-0.06990801859717598,-0.125,0.007408018597175984
1589996307.2057688,-0.14157961198484675,-4.586840776030306,8.598420388015153,0.43333333333333335,0.4688888888888889,-0.6411111111111111,-0.12006371254735392,-0.125,0.057563712547353915
1589996307.2157688,-0.14221136746259455,-4.587788632537405,8.592211367462594,0.44,0.4744444444444445,-0.6177777777777778,-0.2223579067175681,-0.027947383396960145,0.17367895335878406
1589996307.2257688,-0.15913030683512516,-4.569130306835126,8.603912147845875,0.44,0.4744444444444445,-0.6177777777777778,0.03261349368280625,0.23369325315859688,0.07337116456093541
1589996307.2357688,-0.15090167150592482,-4.560901671505924,8.546311700541473,0.44,0.4744444444444445,-0.6177777777777778,0.3411873185278192,0.0794063407360904,0.17622910617593973
1589996307.2457688,-0.15084746476500646,-4.54254239429502,8.62,0.44,0.4744444444444445,-0.6177777777777778,0.23411003565612892,0.13029665478129035,-0.005296654781290359
1589996307.2557688,-0.15673535852658768,-4.560206075579763,8.62,0.44,0.4744444444444445,-0.6177777777777778,0.12371202762648098,0.167095990791173,-0.042095990791173
1589996307.2657688,-0.1445695883737253,-4.562284794186862,8.62,0.4348565294579084,0.4701582189927015,-0.6357799246750983,-0.130380145328434,0.1875,0.0821601089963255
1589996307.2757688,-0.14,-4.57,8.586381013832318,0.43333333333333335,0.4688888888888889,-0.6411111111111111,-0.05684533411299754,0.05684533411299754,0.05684533411299754
1589996307.2857687,-0.14,-4.57,8.55255192160342,0.43333333333333335,0.4688888888888889,-0.6411111111111111,-0.0039873775053433855,0.0039873775053433855,0.0039873775053433855
1589996307.2957687,-0.13208769459917163,-4.562087694599171,8.565824610801657,0.43333333333333335,0.4688888888888889,-0.6411111111111111,0.0,-0.04945190875517741,-0.04945190875517741
1589996307.3057687,-0.13822572695909316,-4.551774273040906,8.611128634795465,0.43333333333333335,0.4688888888888889,-0.6411111111111111,-0.05141079349433218,0.040321586988664365,0.040321586988664365
1589996307.3157687,-0.1328049930310732,-4.585975034844633,8.62,0.4437261211773387,0.48327890282674246,-0.6515038989551165,-0.19740638066737723,0.1074687935557924,-0.02743758711158481
1589996307.3257687,-0.15972983492861062,-4.560090055023796,8.599459669857222,0.4477777777777778,0.4888888888888889,-0.6555555555555556,-0.12049724881017675,0.0011256877974558128,-0.06081146830381628
1589996307.3357687,-0.1374674899594841,-4.567510836680172,8.554934979918967,0.4477777777777778,0.4888888888888889,-0.6555555555555556,0.2505418340085986,0.09388545850214965,0.07832818775322445
1589996307.3457687,-0.13814743364901205,-4.545557699052964,8.605179469192096,0.4477777777777778,0.4888888888888889,-0.6555555555555556,0.375,0.22684292061265054,0.02315707938734947
1589996307.3557687,-0.14,-4.548541646674983,8.628541646674984,0.4477777777777778,0.4888888888888889,-0.6555555555555556,0.32161470828135497,0.19661470828135497,0.10677058343729008
1589996307.3657687,-0.1405360573543883,-4.571072114708777,8.617855770582446,0.44,0.4633333333333333,-0.6266666666666667,0.11159856614029333,0.07590143385970667,-0.0033503584649266674
1589996307.3757687,-0.1503693195365028,-4.5892613609269945,8.578153402317486,0.44,0.4633333333333333,-0.6266666666666667,-0.125,0.30788350579371515,-0.0625
1589996307.3857687,-0.15935322345086586,-4.569676611725433,8.531293553098267,0.44,0.4633333333333333,-0.6266666666666667,-0.12095764656791154,0.1875,-0.05845764656791154
1589996307.3957686,-0.14185145003129565,-4.560925725015648,8.566297099937408,0.44,0.4633333333333333,-0.6266666666666667,-0.011571562695597754,0.1875,0.050928437304402246
1589996307.4057686,-0.14,-4.56,8.597561323319763,0.44,0.4633333333333333,-0.6266666666666667,0.0,0.08414503755088842,0.09695165414970386
1589996307.4157686,-0.13484500677812924,-4.565154993221871,8.625154993221871,0.44400943917256613,0.47249776572777025,-0.6266666666666667,0.0,0.0,0.09278129236330773
1589996307.4257686,-0.1401406129176672,-4.589718774164665,8.588734483740994,0.4477777777777778,0.4811111111111111,-0.6266666666666667,-0.05986350779374059,0.0633788307354198,-0.061621169264580195
1589996307.4357686,-0.14867567457571934,-4.572648650848562,8.511918928818526,0.4477777777777778,0.4811111111111111,-0.6266666666666667,0.10016889829473768,0.1167229660982459,-0.008277033901754105
1589996307.4457686,-0.14201194770063122,-4.562011947700631,8.531952209197474,0.4477777777777778,0.4811111111111111,-0.6266666666666667,0.274775980613165,0.174925326871055,0.0
1589996307.4557686,-0.14734549499443828,-4.552654505005561,8.606109454949944,0.4477777777777778,0.4811111111111111,-0.6266666666666667,0.26659065628476086,0.09568131256952168,-0.09181868743047832
1589996307.4657686,-0.15,-4.556099176912915,8.642198353825831,0.4477777777777778,0.47365656155088126,-0.6266666666666667,0.09752057717711615,0.13873971141144192,-0.010640432882837114
1589996307.4757686,-0.15851544076361596,-4.542969118472768,8.641484559236385,0.4477777777777778,0.4688888888888889,-0.6266666666666667,0.0,-0.02538601909039867,0.11572150477259967
1589996307.4857686,-0.14709647826308547,-4.559355282605372,8.569030630446969,0.4477777777777778,0.4688888888888889,-0.6266666666666667,-0.20161752713928954,0.05847051628357372,0.1653235054278579
1589996307.4957685,-0.13246969209312306,-4.585060615813754,8.560121231627507,0.4477777777777778,0.4688888888888889,-0.6266666666666667,-0.1242423023280764,0.0779355755820191,0.0933711511640382
1589996307.5057685,-0.14473845830266063,-4.560523083394679,8.60684614575665,0.4477777777777778,0.4688888888888889,-0.6266666666666667,-0.016442317804185508,0.0625,0.016442317804185508
1589996307.5157685,-0.16,-4.571453590608812,8.61806187918825,0.44,0.4811111111111111,-0.6411111111111111,0.04735843115821491,-0.0625,-0.11591505869492895
1589996307.5257685,-0.15954440821024363,-4.599088816420487,8.575899673892193,0.44,0.4811111111111111,-0.6411111111111111,-0.23576275657011317,-0.05965255131402263,0.053957653942067904
1589996307.5357685,-0.15,-4.579236534960916,8.49229039511725,0.44,0.4811111111111111,-0.6411111111111111,0.0625,0.0023858282471356674,-0.117842515258593
1589996307.5457685,-0.15,-4.564265981368455,8.537202055894635,0.44,0.4811111111111111,-0.6411111111111111,0.0625,0.04916880822357854,0.02250642467073563
1589996307.5557685,-0.1547412852738914,-4.555258714726108,8.587930282191133,0.44,0.4811111111111111,-0.6411111111111111,0.1513990988854636,0.0625,0.12176606592364239
1589996307.5657685,-0.16,-4.55,8.637084030526875,0.44511624426940916,0.4811111111111111,-0.6304850653207997,0.2942751907929641,0.018224809207035876,0.1210872138105538
1589996307.5757685,-0.14047320840003769,-4.550473208400038,8.63432149919955,0.4544444444444444,0.4811111111111111,-0.6111111111111112,0.04475468499858744,-0.05362734249929372,0.059542447499764575
1589996307.5857685,-0.1502693240458781,-4.560538648091756,8.52134662022939,0.4544444444444444,0.4811111111111111,-0.6111111111111112,-0.30913344942652393,0.12163344942652395,0.0016832752867380243
1589996307.5957685,-0.15791743403657849,-4.575834868073157,8.559587170182892,0.4544444444444444,0.4811111111111111,-0.6111111111111112,-0.2135320745427691,0.026032074542769096,0.04948396272861545
1589996307.6057684,-0.1380974022867531,-4.5726991340955845,8.606504329522078,0.4544444444444444,0.4811111111111111,-0.6111111111111112,-0.1418695880974023,-0.045630411902597715,0.0625
1589996307.6157684,-0.14718810734040963,-4.56427063088653,8.62,0.4423491096493414,0.47729153170213123,-0.6244796390425409,-0.08919144304081328,0.04492567087756018,-0.009117113918373443
1589996307.6257684,-0.15232068868417875,-4.56,8.566244820789251,0.43333333333333335,0.4744444444444445,-0.6344444444444445,0.0814870871716481,0.02900860855223461,0.0814870871716481
1589996307.6357684,-0.14022086453461655,-4.569779135465383,8.520662593603848,0.43333333333333335,0.4744444444444445,-0.6344444444444445,-0.0583587899759401,-0.0611195966586467,0.125
1589996307.6457684,-0.14,-4.579296322249599,8.557185288998395,0.43333333333333335,0.4744444444444445,-0.6344444444444445,0.05370402811998462,0.11180604217997694,-0.049306042179976944
1589996307.6557684,-0.14778093940365503,-4.572219060596345,8.598904697018275,0.43333333333333335,0.4744444444444445,-0.6344444444444445,0.1597617425456877,-0.02089261381853158,-0.013869128727156142
1589996307.6657684,-0.1582880923613908,-4.561711907638609,8.651440461806954,0.4287288375770051,0.4744444444444445,-0.6224727554779911,0.3429017317760773,0.041101154517384886,-0.10360115451738489
1589996307.6757684,-0.14660401875670892,-4.5533020093783545,8.639906028135064,0.42777777777777776,0.4744444444444445,-0.62,0.20755023445886142,0.0625,0.000587324155853941
1589996307.6857684,-0.1571033178012122,-4.567103317801212,8.518828434292121,0.42777777777777776,0.4744444444444445,-0.62,-0.03534360438636444,-0.0443957362575763,0.11594786812878816
1589996307.6957684,-0.13369259671583633,-4.583153701642082,8.526307403284163,0.42777777777777776,0.4744444444444445,-0.62,-0.14471063526301142,-0.0625,0.04278936473698859
1589996307.7057683,-0.146687443811807,-4.583328139047048,8.593374887623613,0.42777777777777776,0.4744444444444445,-0.62,-0.1875,-0.0625,0.04169913095594846
1589996307.7157683,-0.13989809000239023,-4.58,8.62670063666587,0.43596744481384103,0.4744444444444445,-0.6393573948125131,-0.019984083353251775,-0.10437897916168706,0.0625
1589996307.7257683,-0.1479536381629709,-4.562046361837028,8.638976819081487,0.44,0.4744444444444445,-0.6488888888888888,0.23081535777785234,-0.125,0.0625
1589996307.7357683,-0.16869900718767278,-4.56,8.527805956873962,0.44,0.4744444444444445,-0.6488888888888888,0.07469680761556768,0.10873758984590978,0.12093439746147744
1589996307.7457683,-0.1501301463513445,-4.569934926824328,8.56967463412164,0.44,0.4744444444444445,-0.6488888888888888,-0.06168658530409682,0.125,0.06290670734795159
