time,acc_x,acc_y,acc_z,mag_x,mag_y,mag_z,gyr_x,gyr_y,gyr_z
1589995412.9262836,-4.01,-0.77,8.86,0.32666666666666666,-0.3211111111111111,-0.5911111111111111,0.0625,0.3125,-0.1875
1589995412.9362836,-4.01,-0.7617674884195651,8.87646502316087,0.32666666666666666,-0.3211111111111111,-0.5911111111111111,0.0625,0.10668721048912616,-0.08459360524456308
1589995412.9462836,-4.0148338005019,-0.76,8.870332398996199,0.32666666666666666,-0.3211111111111111,-0.5911111111111111,-0.02813375941063384,-0.02813375941063384,0.02813375941063384
1589995412.9562836,-4.017124450701822,-0.7571244507018218,8.871502197192713,0.32826419405454343,-0.32334764945413863,-0.5933476494541386,-0.10702781688638593,-0.10702781688638593,0.125
1589995412.9662836,-4.015216888135733,-0.7447831118642667,8.910433776271466,0.3322222222222222,-0.3288888888888889,-0.5988888888888889,-0.0951055508483333,-0.1929222033933332,0.0923944491516667
1589995412.9762836,-4.01276331998768,-0.7544733600246382,8.876579919926085,0.3322222222222222,-0.3288888888888889,-0.5988888888888889,-0.125,-0.3125,-0.07318775023098245
1589995412.9862835,-4.029766879886283,-0.7797668798862829,8.899533759772567,0.3322222222222222,-0.3288888888888889,-0.5988888888888889,-0.125,-0.25072850035536604,-0.0014570007107320565
1589995412.9962835,-4.022034330648254,-0.78,8.963725354813963,0.3322222222222222,-0.3288888888888889,-0.5988888888888889,-0.125,-0.15042913310318373,0.04978543344840813
1589995413.0062835,-4.013344801953913,-0.7733448019539132,8.986655198046087,0.32852488997439616,-0.32371262374193244,-0.5877968921454108,-0.08340501221195709,-0.08340501221195709,-0.020689975576085803
1589995413.0162835,-4.02,-0.7798844342294806,9.019191039606364,0.32666666666666666,-0.3211111111111111,-0.5822222222222222,-0.12427771393425376,-0.0007222860657462409,0.0007222860657462409
1589995413.0262835,-4.02,-0.7663069129048444,8.924148390333912,0.32666666666666666,-0.3211111111111111,-0.5822222222222222,-0.039418205655277344,-0.08558179434472266,0.08558179434472266
1589995413.0362835,-4.02,-0.76,8.861298138973313,0.32666666666666666,-0.3211111111111111,-0.5822222222222222,0.0,-0.30032994712519256,-0.050329947125192565
1589995413.0462835,-4.012277212575537,-0.76,8.86,0.32666666666666666,-0.3211111111111111,-0.5822222222222222,-0.09653484280578291,0.02537194982024016,-0.0625
1589995413.0562835,-4.019855619360131,-0.76,8.879711238720263,0.3463779053869292,-0.3156357670221493,-0.5986482544891076,0.1213904840032814,-0.05979286300246103,0.12229286300246103
1589995413.0662835,-4.0001478044580505,-0.76,8.86014780445805,0.3466666666666667,-0.31555555555555553,-0.5988888888888889,0.06296188893140725,-0.1865762221371855,0.06296188893140725
1589995413.0762835,-4.0,-0.76,8.840302320630189,0.3466666666666667,-0.31555555555555553,-0.5988888888888889,0.12405524803065787,-0.002834255908026412,0.000944751969342135
1589995413.0862834,-4.039003753629689,-0.7502490615925778,8.908256568851955,0.3466666666666667,-0.31555555555555553,-0.5988888888888889,-0.05783009513916759,0.0609433650463892,-0.1218867300927784
1589995413.0962834,-4.008870362968461,-0.7344351814842307,8.987824092578846,0.3466666666666667,-0.31555555555555553,-0.5988888888888889,-0.15978011572355774,0.2570602314471155,-0.07635994213822113
1589995413.1062834,-4.0,-0.7117066247961833,9.019146687601907,0.33345478457502126,-0.31555555555555553,-0.583644409552375,-0.24466679751192705,-0.14483438009541638,0.10900039253578114
1589995413.1162834,-4.009660188180673,-0.71,9.000679623638653,0.3322222222222222,-0.31555555555555553,-0.5822222222222222,-0.1896238238707925,-0.2478761761292075,0.004247647741584967
1589995413.1262834,-4.01907620368713,-0.7463048147485234,8.872933148380168,0.3322222222222222,-0.31555555555555553,-0.5822222222222222,-0.13077372695543224,-0.13654745391086448,0.0
1589995413.1362834,-4.010520668822541,-0.7784379935323757,8.869479331177457,0.3322222222222222,-0.31555555555555553,-0.5822222222222222,-0.06575418014088391,-0.1842458198591161,0.0
1589995413.1462834,-4.0025495253046275,-0.78,8.877450474695372,0.3322222222222222,-0.31555555555555553,-0.5822222222222222,-0.1090654668460791,-0.09436906630784181,0.046565466846079095
1589995413.1562834,-4.018877401280682,-0.78,8.898877401280684,0.3133448209415392,-0.32814048974267757,-0.5696372880351002,-0.125,-0.003508120997865523,-0.055483758004268954
1589995413.1662834,-4.01883570782938,-0.7776714156587613,8.904657168682478,0.31222222222222223,-0.3288888888888889,-0.5688888888888889,-0.09589269573451556,-0.02183047819911333,-0.05522317393362889
1589995413.1762834,-4.01,-0.7696063698553325,8.90157452057867,0.31222222222222223,-0.3288888888888889,-0.5688888888888889,0.0949800942020859,-0.09744028260625771,0.06003981159582819
1589995413.1862833,-4.016447214781235,-0.773552785218765,8.89868328868741,0.31222222222222223,-0.3288888888888889,-0.5688888888888889,0.022204907617281402,0.0402950923827186,0.004114722851844221
1589995413.1962833,-4.013750271959492,-0.7887491841215214,8.932499456081015,0.31222222222222223,-0.3288888888888889,-0.5688888888888889,0.07812160050633912,0.14062160050633912,0.015621600506339123
1589995413.2062833,-4.018199364943451,-0.7836012701130972,8.956398729886903,0.3185995060671289,-0.3179564022976203,-0.5934869837192431,0.125,0.13625396910342857,0.011253969103428588
1589995413.2162833,-4.02,-0.7717764008380511,8.951776400838051,0.32,-0.31555555555555553,-0.5988888888888889,0.022205010475638567,-0.02919248428654217,0.0
1589995413.2262833,-4.02,-0.7339247126284212,8.859811781571052,0.32,-0.31555555555555553,-0.5988888888888889,0.0563676365180918,-0.006132363481908203,0.0563676365180918
1589995413.2362833,-4.026734575292295,-0.73,8.890407451753768,0.32,-0.31555555555555553,-0.5988888888888889,0.020408904423158188,-0.04209109557684181,-0.021682191153683625
1589995413.2462833,-4.0247378837287755,-0.7457863488136737,8.91,0.32,-0.31555555555555553,-0.5988888888888889,-0.03288822669515349,-0.16116468008546048,-0.02961177330484651
1589995413.2562833,-4.02,-0.7545322158198009,8.9045322158198,0.32,-0.31555555555555553,-0.5946361678598452,-0.0625,-0.2158263488737559,0.0
1589995413.2662833,-4.02,-0.7758090083798883,8.925809008379888,0.32,-0.31555555555555553,-0.5911111111111111,0.09880630237430169,-0.24126876745810055,-0.1075375349162011
1589995413.2762833,-4.012476303787428,-0.7649526075748563,8.869810430299424,0.32,-0.31555555555555553,-0.5911111111111111,0.07797689867142574,-0.014884493357128686,0.016069303985722788
1589995413.2862833,-4.01,-0.76,8.922166113137692,0.32,-0.31555555555555553,-0.5911111111111111,0.0625,-0.13796142538247944,-0.03773071269123972
1589995413.2962832,-4.016601660699322,-0.76,8.959804982097966,0.32,-0.31555555555555553,-0.5911111111111111,-0.020020758741525105,-0.1049792412584749,-0.0625
1589995413.3062832,-4.027032303247833,-0.7459353935043334,8.97,0.32,-0.31555555555555553,-0.5817347067806666,-0.018548104701041755,-0.1943556858968747,-0.15040379059791648
1589995413.3162832,-4.01659847733935,-0.7601022839909737,8.923094670687728,0.32,-0.31555555555555553,-0.5777777777777777,0.0,-0.25,-0.14562024168547144
1589995413.3262832,-4.018205360207169,-0.77,8.85897319896415,0.32,-0.31555555555555553,-0.5777777777777777,0.0,-0.1987164987051886,-0.125
1589995413.3362832,-4.027393160647165,-0.7626068393528355,8.872179481941494,0.32,-0.31555555555555553,-0.5777777777777777,0.04620725404477856,-0.32612176213433564,-0.07879274595522144
1589995413.3462832,-4.034674804562348,-0.7553251954376522,8.889349609124697,0.32,-0.31555555555555553,-0.5777777777777777,0.0625,-0.25812988594130465,-0.09171752851467384
1589995413.3562832,-4.036813987550348,-0.75,8.909558037348956,0.32,-0.31555555555555553,-0.5731757597949468,0.12223773343097766,-0.16482515562065178,-0.125
1589995413.3662832,-4.03,-0.7407356969865406,8.92073569698654,0.32,-0.31555555555555553,-0.5633333333333334,0.19209810616587922,-0.13419621233175844,-0.09604905308293961
1589995413.3762832,-4.035754054054054,-0.7415081081081081,8.858213513513514,0.32,-0.31555555555555553,-0.5633333333333334,0.08903716216216216,0.10788851351351351,-0.13442567567567568
1589995413.3862832,-4.034327351383059,-0.7556726486169413,8.882399134786354,0.32,-0.31555555555555553,-0.5633333333333334,0.0625,0.04568378457646691,-0.15204594614411673
1589995413.3962831,-4.0249255548790615,-0.7549255548790613,8.940148890241877,0.32,-0.31555555555555553,-0.5633333333333334,0.0625,-0.0625,-0.09328471799413295
1589995413.4062831,-4.014833857543274,-0.755166142456726,8.95,0.3263141741137761,-0.3224437454978568,-0.5730916024182601,0.0625,-0.0625,-0.0947883903545371
1589995413.4162831,-4.01,-0.76,8.942758672304755,0.3322222222222222,-0.3288888888888889,-0.5822222222222222,0.017241701904726264,-0.15301659619054747,0.05603319238109494
1589995413.4262831,-4.01,-0.7474262125152303,8.883417956318535,0.3322222222222222,-0.3288888888888889,-0.5822222222222222,0.03929308588990525,-0.1875,0.08570691411009475
1589995413.436283,-4.017323670511381,-0.7546473410227621,8.901265693579667,0.3322222222222222,-0.3288888888888889,-0.5822222222222222,-0.07481882208839441,-0.14172705930386853,-0.12059176278452588
1589995413.446283,-4.02,-0.772177098036413,8.926088549018207,0.3322222222222222,-0.3288888888888889,-0.5822222222222222,-0.16305343136379066,-0.08694656863620934,-0.03528627454483732
1589995413.456283,-4.027025085838414,-0.7589247424847593,8.965125429192067,0.3322222222222222,-0.31483871721206175,-0.5986140891785205,-0.14359321350991522,-0.01859321350991521,-0.025313572980169577
1589995413.466283,-4.014825928193963,-0.75,8.934477784581887,0.3322222222222222,-0.3088888888888889,-0.6055555555555555,-0.125,0.09483794878773447,-0.015081025606132767
1589995413.476283,-4.01,-0.7608146203275064,8.88755613901748,0.3322222222222222,-0.3088888888888889,-0.6055555555555555,-0.15879568852345746,0.05740862295308506,0.03379568852345747
1589995413.486283,-4.004131921886345,-0.7641319218863454,8.86,0.3322222222222222,-0.3088888888888889,-0.6055555555555555,-0.07747353536897619,0.0,0.0625
1589995413.496283,-4.009287291169451,-0.76,8.873930936754176,0.3322222222222222,-0.3088888888888889,-0.6055555555555555,-0.029022784904534606,0.08706835471360382,0.03347721509546539
1589995413.506283,-4.0222000218762535,-0.76,8.894400043752507,0.32782217846971556,-0.3103555701397244,-0.6004221711776311,-0.07625013672658329,0.1462495898202501,0.0
1589995413.516283,-4.023139938576579,-0.76,8.937440245693683,0.31222222222222223,-0.31555555555555553,-0.5822222222222222,-0.03924923220723728,0.17150153558552544,0.08575076779276272
1589995413.526283,-4.026937526652452,-0.7391874200426439,8.873687206823027,0.31222222222222223,-0.31555555555555553,-0.5822222222222222,0.0,0.2933595415778252,0.038280916844349686
1589995413.536283,-4.03,-0.7415272088940901,8.868818022235226,0.31222222222222223,-0.31555555555555553,-0.5822222222222222,-0.14409011117612638,0.20443241661790523,-0.036022527794031596
1589995413.546283,-4.024943770415305,-0.75,8.905168688754083,0.31222222222222223,-0.31555555555555553,-0.5822222222222222,-0.12359426038264115,0.061797130191320576,0.032304304713019136
1589995413.556283,-4.024267999259671,-0.7542679992596706,8.937071997038682,0.31222222222222223,-0.32124622123511626,-0.5860159993419294,0.02667499537294096,0.05334999074588192,0.044975013881177126
1589995413.566283,-4.024611260053619,-0.7546112600536193,8.938445040214477,0.31222222222222223,-0.3288888888888889,-0.5911111111111111,-0.004859249329758716,0.057640750670241284,0.03853887399463808
1589995413.576283,-4.0254161308434915,-0.766248392530474,8.898335476626036,0.31222222222222223,-0.3288888888888889,-0.5911111111111111,-0.028649182228179172,0.0,0.09114918222817917
1589995413.586283,-4.0180396879605995,-0.7620595319408995,8.88,0.31222222222222223,-0.3288888888888889,-0.5911111111111111,-0.11212792536937843,0.03737597512312615,-0.012251950246252294
1589995413.596283,-4.015982535298922,-0.7559825352989226,8.909912676494613,0.31222222222222223,-0.3288888888888889,-0.5911111111111111,-0.1875,0.09989084561826597,0.04967253685479793
1589995413.606283,-4.026155759275861,-0.7538442407241389,8.948467277827584,0.32453374077394437,-0.32410107611877476,-0.5829034320766296,-0.1875,0.1634734954741317,0.0865265045258683
1589995413.616283,-4.03,-0.7433361244853813,8.946672248970764,0.3322222222222222,-0.3211111111111111,-0.5777777777777777,-0.10420155606726676,0.1458507780336334,0.10414922196636661
1589995413.626283,-4.022751149047932,-0.74,8.867511490479316,0.3322222222222222,-0.3211111111111111,-0.5777777777777777,-0.10780531845042679,0.125,0.125
1589995413.636283,-4.013045131061309,-0.7539097378773815,8.888684082570835,0.3322222222222222,-0.3211111111111111,-0.5777777777777777,0.005403792600450874,-0.005403792600450874,0.03806413826636609
1589995413.646283,-4.032321729309901,-0.7544195676725248,8.915580432327475,0.3322222222222222,-0.3211111111111111,-0.5777777777777777,-0.0072554040934398045,-0.027622297953280098,0.0697554040934398
1589995413.656283,-4.033621502147712,-0.75,8.932283873389215,0.329947430853849,-0.31883631974273785,-0.5864219849775961,-0.0625,-0.025591402894199092,0.17618280578839818
1589995413.666283,-4.01,-0.7606057303020866,8.955302865151044,0.32666666666666666,-0.31555555555555553,-0.5988888888888889,-0.0625,0.03692872158206166,0.11742837122391778
1589995413.676283,-4.015945553322322,-0.7581088933553561,8.90054446677678,0.32666666666666666,-0.31555555555555553,-0.5988888888888889,-0.0625,0.08784029173548785,-0.03715970826451215
1589995413.6862829,-4.027777938047672,-0.7461110309761638,8.867777938047672,0.32666666666666666,-0.31555555555555553,-0.5988888888888889,0.010418169196927632,0.0625,-0.03819394360102413
1589995413.6962829,-4.034718887358132,-0.7452811126418684,8.895843337925605,0.32666666666666666,-0.31555555555555553,-0.5988888888888889,0.07548956898248377,0.0625,0.01650347700583875
1589995413.7062829,-4.02,-0.7638944678472319,8.951683403541695,0.32407035476851204,-0.31555555555555553,-0.5988888888888889,-0.01381915190960091,0.038159575954800455,0.038159575954800455
1589995413.7162828,-4.02,-0.77,8.943555495208908,0.32,-0.31555555555555553,-0.5988888888888889,-0.04768543662955346,-0.027546359157388366,0.05509271831477673
1589995413.7262828,-4.0246137472135155,-0.7607725055729682,8.877703769505388,0.32,-0.31555555555555553,-0.5988888888888889,-0.12982815983105106,-0.14900776025342338,0.09616407991552553
1589995413.7362828,-4.03,-0.75,8.85770600129992,0.32,-0.31555555555555553,-0.5988888888888889,-0.0625,-0.2057349967501986,0.0625
1589995413.7462828,-4.0249633599933,-0.75,8.920219840040199,0.32,-0.31555555555555553,-0.5988888888888889,-0.12545800008374858,-0.06204199991625141,0.031020999958125704
1589995413.7562828,-4.014597404905794,-0.7662077852826165,8.971610380376822,0.3302049018446104,-0.3185569972745586,-0.5988888888888889,-0.052435122644863136,-0.06753243867756843,0.033766219338784216
1589995413.7662828,-4.014821193986279,-0.7655364180411619,8.980357612027442,0.3388888888888889,-0.3211111111111111,-0.5988888888888889,0.002235075171507811,-0.0948675375857539,0.0625
1589995413.7762828,-4.015516055425113,-0.7589678891497735,8.920676609676246,0.3388888888888889,-0.3211111111111111,-0.5988888888888889,-0.0905246535930421,-0.0905246535930421,0.0905246535930421
1589995413.7862828,-4.016274183534087,-0.75117744939774,8.885096734136347,0.3388888888888889,-0.3211111111111111,-0.5988888888888889,-0.007359058735874821,-0.007359058735874821,0.04657270582391655
1589995413.7962828,-4.016235923659429,-0.74,8.907528152681142,0.3388888888888889,-0.3211111111111111,-0.5988888888888889,0.015449045742867526,0.03897452287143376,0.0
1589995413.8062828,-4.010375834800346,-0.74,8.919248330399308,0.3388888888888889,-0.3211111111111111,-0.5988888888888889,-0.05780206499566881,0.0023489675021655942,0.0
1589995413.8162827,-4.01572081755212,-0.7371167297915173,8.924324905312723,0.31222222222222223,-0.3211111111111111,-0.5911111111111111,0.053489780598491826,0.009010219401508174,0.0
1589995413.8262827,-4.01,-0.76,8.858051114156641,0.31222222222222223,-0.3211111111111111,-0.5911111111111111,0.08506389269580225,0.05730832191259326,0.039936107304197756
1589995413.8362827,-4.016261407788922,-0.7725228155778441,8.877568446733532,0.31222222222222223,-0.3211111111111111,-0.5911111111111111,-0.01576759736152525,0.125,0.023366201319237376
1589995413.8462827,-4.024921600930322,-0.7701567981393546,8.919686403721292,0.31222222222222223,-0.3211111111111111,-0.5911111111111111,-0.0009799883709661755,0.1557600058145169,0.0
1589995413.8562827,-4.027027139322745,-0.76,8.94594572135451,0.3224620756661022,-0.32342333608230983,-0.588468568286884,0.0439196207671533,0.2060803792328467,-0.0371607584656934
1589995413.8662827,-4.02,-0.7548351088972112,8.954835108897212,0.3466666666666667,-0.3288888888888889,-0.5822222222222222,0.01076018979747664,0.23923981020252336,-0.09271943060757008
1589995413.8762827,-4.023420869534191,-0.73,8.899212174192282,0.3466666666666667,-0.3288888888888889,-0.5822222222222222,0.04111956541130715,0.1447391308226143,0.0625
1589995413.8862827,-4.025958507879514,-0.7340414921204867,8.850103730301218,0.3466666666666667,-0.3288888888888889,-0.5822222222222222,-0.02525932575304209,0.07512966287652105,0.07512966287652105
1589995413.8962827,-4.019045302774228,-0.7409546972257719,8.908090605548457,0.3466666666666667,-0.3288888888888889,-0.5822222222222222,-0.011933715322148486,-0.016332855847314393,0.125
1589995413.9062827,-4.03,-0.7436782768646532,8.939118851243101,0.33096197841465747,-0.3228096547268208,-0.5822222222222222,0.03951076959591765,-0.15900358986530588,0.06800717973061177
1589995413.9162827,-4.021578215031129,-0.7557891075155645,8.95,0.31222222222222223,-0.31555555555555553,-0.5822222222222222,-0.036181921972278215,-0.09868192197227821,0.026318078027721785
1589995413.9262826,-4.016649385224367,-0.75,8.926727151714715,0.31222222222222223,-0.31555555555555553,-0.5822222222222222,-0.020779328826146356,-0.0001620135215609289,0.0625
1589995413.9362826,-4.025981987675778,-0.75,8.884018012324223,0.31222222222222223,-0.31555555555555553,-0.5822222222222222,-0.08761257702638647,0.09988742297361353,0.03738742297361353
1589995413.9462826,-4.02,-0.7520843376685297,8.89625301300559,0.31222222222222223,-0.31555555555555553,-0.5822222222222222,-0.08591866871506901,0.036445779143379334,0.0
1589995413.9562826,-4.029049679807884,-0.7630165599359616,8.923016559935961,0.31222222222222223,-0.3135445155982478,-0.5822222222222222,0.043646500400240144,-0.043646500400240144,0.0
1589995413.9662826,-4.031638357061038,-0.7562287677957781,8.911638357061038,0.31222222222222223,-0.3088888888888889,-0.5822222222222222,-0.05738013418425789,0.05738013418425789,-0.05738013418425789
1589995413.9762826,-4.020535392268629,-0.7505353922686289,8.842590734791171,0.31222222222222223,-0.3088888888888889,-0.5822222222222222,-0.125,0.15792310083946523,0.006692403357860921
1589995413.9862826,-4.024571071469151,-0.76,8.832573571185092,0.31222222222222223,-0.3088888888888889,-0.5822222222222222,-0.09106919668219521,0.11963839336439042,-0.010723213271219167
1589995413.9962826,-4.02,-0.76,8.896669240953221,0.31222222222222223,-0.3088888888888889,-0.5822222222222222,-0.0370352493380406,0.0370352493380406,-0.125
1589995414.0062826,-4.019105595686444,-0.760894404313556,8.95178880862711,0.3146073003917049,-0.30948515843125957,-0.5822222222222222,-0.011180053919450103,-0.011180053919450103,-0.11381994608054989
1589995414.0162826,-4.010473750282974,-0.7695262497170258,8.969052499434053,0.3376255548009577,-0.3152397220335727,-0.5822222222222222,-0.11907812146282233,-0.11907812146282233,-0.005921878537177669
1589995414.0262825,-4.017814177342016,-0.7621858226579833,8.950327596078152,0.3388888888888889,-0.31555555555555553,-0.5822222222222222,-0.08982278322479068,-0.021515825162814,-0.04883860838760466
1589995414.0362825,-4.010309883346453,-0.7696901166535461,8.882788950118085,0.3388888888888889,-0.31555555555555553,-0.5822222222222222,-0.18362645816932657,0.11918968725398982,-0.0019367709153367135
1589995414.0462825,-4.022371636960827,-0.7552567260783462,8.924743273921655,0.3388888888888889,-0.31555555555555553,-0.5822222222222222,-0.0625,0.080531806984495,-0.15785453798966334
1589995414.0562825,-4.02912476452688,-0.7417504709462397,8.93824952905376,0.3388888888888889,-0.31555555555555553,-0.5822222222222222,-0.0625,-0.04608933487900305,-0.07344044341399798
1589995414.0662825,-4.03,-0.7682571485437537,8.934771445631261,0.3322222222222222,-0.31555555555555553,-0.5988888888888889,0.010892821601539177,0.07339282160153918,-0.010892821601539177
1589995414.0762825,-4.026373444636951,-0.7636265553630494,8.897307056229328,0.3322222222222222,-0.31555555555555553,-0.5988888888888889,0.0625,0.11366701449047094,-0.0625
1589995414.0862825,-4.017224167079356,-0.7763879164603221,8.865284584777745,0.3322222222222222,-0.31555555555555553,-0.5988888888888889,0.0625,0.03992447787701292,-0.08507552212298708
1589995414.0962825,-4.0286964018852744,-0.7673928037705483,8.912607196229452,0.3322222222222222,-0.31555555555555553,-0.5988888888888889,0.04620502356592712,-0.024442464651109323,-0.10870502356592712
1589995414.1062825,-4.02,-0.75,8.940938882516795,0.3322222222222222,-0.313732408469423,-0.5967618839550677,-0.07959200393249222,-0.15331599213501557,-0.017092003932492217
1589995414.1162825,-4.016462631374075,-0.7429252627481511,8.955850525496302,0.3322222222222222,-0.3088888888888889,-0.5911111111111111,-0.10289144608797197,0.0038256617360840767,-0.018282892175943942
1589995414.1262825,-4.01,-0.7404822202123101,8.86710667872614,0.3322222222222222,-0.3088888888888889,-0.5911111111111111,-0.02974306183653068,0.02672918550959205,0.02974306183653068
1589995414.1362824,-4.015341818978315,-0.7660254569349461,8.874101827739784,0.3322222222222222,-0.3088888888888889,-0.5911111111111111,-0.06677273722894206,0.03765910584341309,-0.06677273722894206
1589995414.1462824,-4.02,-0.7719242824004392,8.93807571759956,0.3322222222222222,-0.3088888888888889,-0.5911111111111111,-0.09976338250137234,0.04929014750411702,-0.125
1589995414.1562824,-4.02,-0.7570887145018826,8.958733856494351,0.3263996512259876,-0.31471145988512356,-0.5872293971136213,-0.08069553436323328,0.028477671816166367,-0.08860893127353345
1589995414.1662824,-4.024470580997108,-0.75,8.984470580997108,0.31222222222222223,-0.3288888888888889,-0.5777777777777777,-0.0691177375361457,0.25,0.0
1589995414.1762824,-4.03,-0.745674731493244,8.920795703891905,0.31222222222222223,-0.3288888888888889,-0.5777777777777777,0.08109878450167456,0.1959341436655503,-0.054065856334449706
1589995414.1862824,-4.0247857009170875,-0.74,8.85085719633165,0.31222222222222223,-0.3288888888888889,-0.5777777777777777,0.15491063073179862,0.15758936926820138,0.005357477072805539
1589995414.1962824,-4.02596397246586,-0.74298198623293,8.87596397246586,0.31222222222222223,-0.3288888888888889,-0.5777777777777777,0.08772517208837571,0.16886258604418786,0.06908775813256357
1589995414.2062824,-4.037605751082491,-0.7488028755412457,8.887605751082491,0.31222222222222223,-0.3288888888888889,-0.5777777777777777,0.014964055734428786,0.13248202786721439,-0.040053916398356815
1589995414.2162824,-4.0281592660223575,-0.7563185320447157,8.928159266022357,0.32666666666666666,-0.3211111111111111,-0.5777777777777777,-0.09048623791920901,0.1875,-0.011504587360263663
1589995414.2262824,-4.02,-0.74,8.9067953187251,0.32666666666666666,-0.3211111111111111,-0.5777777777777777,0.05071010600455322,0.22286968198634036,-0.07428989399544679
1589995414.2362823,-4.02,-0.74,8.859284593611,0.32666666666666666,-0.3211111111111111,-0.5777777777777777,-0.0773716134249899,0.2782854832187626,-0.10565709664375253
1589995414.2462823,-4.02,-0.74,8.87963704003235,0.32666666666666666,-0.3211111111111111,-0.5777777777777777,-0.24697533360291143,0.06628083299636067,-0.06325616659927213
1589995414.2562823,-4.031341204062569,-0.78,9.011341204062568,0.3238352358679113,-0.3203659977430176,-0.5795660498612022,-0.0625,0.15396989843579195,-0.0625
1589995414.2662823,-4.039677618110628,-0.78,9.019677618110627,0.3062361395442309,-0.31573465660520694,-0.5906812685919478,-0.0625,-0.05444045276568679,-0.0625
1589995414.2762823,-4.015393474813081,-0.7546065251869194,8.986852201495354,0.3055555555555556,-0.31555555555555553,-0.5911111111111111,-0.09129078241824636,0.028790782418246355,0.016854608790876822
1589995414.2862823,-4.02623803482874,-0.7362380348287395,8.862476069657479,0.3055555555555556,-0.31555555555555553,-0.5911111111111111,-0.015674854880252182,-0.0703374274401261,0.04682514511974782
1589995414.2962823,-3.989252995856199,-0.6813413222831971,8.827911673573002,0.3055555555555556,-0.31555555555555553,-0.5911111111111111,-0.16977918393250457,-0.05783122410124314,-0.0625
1589995414.3062823,-3.950733237776716,-0.6035082019429846,8.855183309444179,0.3106398400311444,-0.31689352515439473,-0.5964629895064678,-0.2801043159738812,0.16786510590858417,0.012760789934702976
1589995414.3162823,-3.870306885901953,-0.5081841315411719,8.792736526164688,0.32666666666666666,-0.3211111111111111,-0.6133333333333333,-0.6457803188481448,0.9923278524511723,0.25
1589995414.3262823,-3.843575438863908,-0.5043017554556309,8.698547366816554,0.32666666666666666,-0.3211111111111111,-0.6133333333333333,-1.5094298579884664,2.8896711378705895,0.026535071005766853
1589995414.3362823,-3.835121722428195,-0.5485978469647563,8.68975655514361,0.32666666666666666,-0.3211111111111111,-0.6133333333333333,-3.1261558047080893,6.843779313887524,-0.4214946174118908
1589995414.3462822,-3.7764334753526567,-0.6135665246473432,8.822390560498024,0.32666666666666666,-0.3211111111111111,-0.6133333333333333,-5.33916311618358,11.702682454358817,-0.5190718890041722
1589995414.3562822,-3.7026457875180103,-0.674125274891939,9.216371426404793,0.32813654862111674,-0.31964122915666104,-0.607453805515533,-7.713012815651778,16.115483051490102,-0.9593681277015242
1589995414.3662822,-3.5755655531882513,-0.5982245852990412,9.61156882514077,0.3322222222222222,-0.31555555555555553,-0.5911111111111111,-8.236167915842337,16.044589864556386,-3.101311634454421
1589995414.3762822,-3.145859913107979,-0.49371551693687965,9.021507541238389,0.3322222222222222,-0.31555555555555553,-0.5911111111111111,-5.192544417364275,9.204620112323832,-6.611994895976829
1589995414.3862822,-2.730571151984511,-0.40848789932236207,8.662096805421104,0.3322222222222222,-0.31555555555555553,-0.5911111111111111,1.949092449177154,0.6184898354307842,-11.060358180058083
1589995414.3962822,-2.1223378048780486,-0.8756615853658538,8.826746951219512,0.3322222222222222,-0.31555555555555553,-0.5911111111111111,0.10195884146341466,2.2730411585365853,-13.232378048780488
1589995414.4062822,-1.6590629670543895,-1.71715186171941,8.791085190720645,0.330557613302431,-0.31555555555555553,-0.5954390943025683,-0.007245435051010385,3.0751388979140946,-14.525046299304698
1589995414.4162822,-1.510554821937028,-1.181819213469236,8.465948293649157,0.32666666666666666,-0.31555555555555553,-0.6055555555555555,3.583871941154624,5.835888818965873,-14.70040337556225
1589995414.4262822,-1.6279181634977657,-0.8885902041531587,8.27644265311487,0.32666666666666666,-0.31555555555555553,-0.6055555555555555,5.557889030053448,9.27114693770262,-16.53539056339262
1589995414.4362822,-2.105670726364672,-1.0355909927275913,8.386693244545693,0.32666666666666666,-0.31555555555555553,-0.6055555555555555,4.4094453693156925,7.0661351090861295,-20.991351967055113
1589995414.4462821,-2.310875994338978,-1.0875955297447661,9.175302815870381,0.32666666666666666,-0.31555555555555553,-0.6055555555555555,-0.3091204675223268,-1.8244412180957494,-29.219651310331365
1589995414.4562821,-2.4268669171831534,-1.080772534283344,9.33223171148309,0.32666666666666666,-0.31555555555555553,-0.6055555555555555,-2.7824563222878336,-0.9715667854179886,-32.503217876140745
1589995414.4662821,-2.5322086649583384,-0.9425416192916659,9.042486126902778,0.32666666666666666,-0.3022222222222222,-0.5777777777777777,3.4375,5.0,-39.125
1589995414.4762821,-2.6816822509206304,-0.9211882498684814,9.049603916710506,0.32666666666666666,-0.3022222222222222,-0.5777777777777777,3.4375,5.0,-39.125
1589995414.486282,-2.69615532897073,-0.9592329934560949,9.083068026175619,0.32666666666666666,-0.3022222222222222,-0.5777777777777777,0.9135310455029676,3.0866496728047483,-48.10600555471009
1589995414.496282,-2.6979606384945662,-0.9860196807527168,8.873586704192945,0.32666666666666666,-0.3022222222222222,-0.5777777777777777,1.694180516465682,4.388361032931364,-51.215452112907535
1589995414.506282,-2.67,-1.0069319674284214,8.57653401628579,0.3312879782856142,-0.304532878031696,-0.5785479963809357,1.8916880089309167,4.93501280535855,-53.87572235355923
1589995414.516282,-2.6761831857620892,-1.042473274304836,8.569893097219344,0.3533333333333333,-0.31555555555555553,-0.5822222222222222,1.3595420355947763,4.555439160176493,-56.925762163522755
1589995414.526282,-2.72,-1.068749350588013,8.631250649411987,0.3533333333333333,-0.31555555555555553,-0.5822222222222222,1.3411390686251359,4.171866882350163,-60.26556817645114
1589995414.536282,-2.745071233707184,-1.1011427705365262,8.674070930585025,0.3533333333333333,-0.31555555555555553,-0.5822222222222222,1.7017846317065777,4.4375,-62.786602000606244
1589995414.546282,-2.820887591529784,-1.143065109835741,8.866130219671483,0.3533333333333333,-0.31555555555555553,-0.5822222222222222,2.144156936473382,4.4783284682366915,-65.00355110825252
1589995414.556282,-2.8617547937245784,-1.192632190586868,8.964386984311448,0.35567305829943824,-0.31370327329072245,-0.582417199302731,2.4704023823358514,4.625,-66.99894683323649
1589995414.566282,-2.8614969203695555,-1.2385030796304444,9.017401231852178,0.38,-0.29444444444444445,-0.5844444444444444,2.6968557523097227,4.6712576990761105,-69.65449433567971
1589995414.576282,-2.8366188028519317,-1.2810313380865528,9.012349859061516,0.38,-0.29444444444444445,-0.5844444444444444,2.5,4.805156690432764,-71.30246435085392
1589995414.586282,-2.857482507046924,-1.3158041784115404,8.956713314541535,0.38,-0.29444444444444445,-0.5844444444444444,2.5,4.979020892057702,-72.64991191344718
1589995414.596282,-2.8324455210760866,-1.34,8.86338014636739,0.38,-0.29444444444444445,-0.5844444444444444,2.2805690134510814,5.606113802690216,-74.41053267713316
1589995414.606282,-2.7898397102454435,-1.3406411590182252,8.76823681269988,0.38039181940002653,-0.2940526250444179,-0.5843375846080735,1.744990945170115,5.5,-75.33153440835356
1589995414.616282,-2.7874189415293706,-1.387418941529371,8.652581058470629,0.4044444444444445,-0.27,-0.5777777777777777,1.4375,5.453631615441432,-76.71638579460665
1589995414.626282,-2.8063859453430005,-1.4063859453430005,8.633614054657,0.4044444444444445,-0.27,-0.5777777777777777,1.4375,5.335087841606247,-77.26959007250419
1589995414.636282,-2.829578734069216,-1.4471313923105635,8.6411835439663,0.4044444444444445,-0.27,-0.5777777777777777,1.9654588599157468,5.390295885991574,-78.26266297392417
1589995414.646282,-2.8950612396617417,-1.5101224793234829,8.852775578477837,0.4044444444444445,-0.27,-0.5777777777777777,2.564030991543537,5.484949121828826,-78.78239824365765
1589995414.656282,-2.910408819690472,-1.5412264590714153,8.921635278761887,0.4060797232063315,-0.27,-0.5789133880290881,2.950275615327242,5.632665369196346,-79.07783073839269
1589995414.666282,-2.921061259995316,-1.570265314998829,8.96053062999766,0.4444444444444444,-0.27,-0.6055555555555555,3.2533164374853625,5.819132874970725,-79.44579109371341
1589995414.676282,-2.9519356796116507,-1.6068810679611651,8.953118932038835,0.4444444444444444,-0.27,-0.6055555555555555,3.2069933252427183,6.012097997572815,-79.91800667475728
1589995414.686282,-2.928380954584365,-1.6832380908312703,8.88,0.4444444444444444,-0.27,-0.6055555555555555,2.71964289845684,5.875,-80.48630937232492
1589995414.696282,-2.9164746501161143,-1.7047004665118477,8.874124416860191,0.4444444444444444,-0.27,-0.6055555555555555,2.5257776053761893,5.875,-81.1212558313981
1589995414.706282,-2.890615302410654,-1.739179596785795,8.831025504017756,0.4444444444444444,-0.27,-0.6055555555555555,2.2564094001109765,5.875,-81.55224495982243
1589995414.716282,-2.8476318680221295,-1.7582454213185803,8.731141025384968,0.4655555555555556,-0.21666666666666667,-0.5822222222222222,1.8492330583794363,5.8511504124308455,-82.1398008248617
1589995414.726282,-2.80057726698927,-1.7928863349463497,8.61711366505365,0.4655555555555556,-0.21666666666666667,-0.5822222222222222,1.7644316747317483,5.985568325268251,-82.46275543078056
1589995414.7362819,-2.8087742582197275,-1.847354450681636,8.577354450681636,0.4655555555555556,-0.21666666666666667,-0.5822222222222222,2.076608861267041,5.742339113873296,-82.8826608861267
1589995414.7462819,-2.800365477145148,-1.8978071371291099,8.62780713712911,0.4655555555555556,-0.21666666666666667,-0.5822222222222222,2.602157678428228,5.689784232157177,-82.93521576784282
1589995414.7562819,-2.815132484677039,-1.9529636963696368,8.773758604431872,0.4655555555555556,-0.21666666666666667,-0.5822222222222222,2.956023102310231,5.876656058462989,-83.26852310231023
1589995414.7662818,-2.8589414202965298,-1.9442343188138804,8.91,0.5044444444444445,-0.19111111111111112,-0.6133333333333333,3.3224241847200324,6.072424184720033,-83.64484836944007
1589995414.7762818,-2.844081979699927,-2.0036720812002904,8.91,0.5044444444444445,-0.19111111111111112,-0.6133333333333333,3.461731440313181,6.211731440313181,-83.92346288062636
1589995414.7862818,-2.8286377789309807,-2.044086663207058,8.82136222106902,0.5044444444444445,-0.19111111111111112,-0.6133333333333333,3.22445835495589,6.24148611831863,-84.27554164504411
1589995414.7962818,-2.8076384862493144,-2.1,8.838819243124657,0.5044444444444445,-0.19111111111111112,-0.6133333333333333,2.8159621562328607,6.117620269529108,-84.63975946094179
1589995414.8062818,-2.7912070046227377,-2.1,8.83060350231137,0.5044444444444445,-0.19111111111111112,-0.6133333333333333,2.40517511556844,6.066271889446055,-84.74245622110789
1589995414.8162818,-2.771773754807241,-2.127339367789138,8.784434387018102,0.5226706896372031,-0.16275917414459765,-0.6325721477034675,1.9193438701810337,5.777714918863146,-85.09174209736422
1589995414.8262818,-2.8167777164390464,-2.182148189040636,8.651407243837458,0.5244444444444445,-0.16,-0.6344444444444445,1.8460654537599308,6.055786909248014,-85.34143454624007
1589995414.8362818,-2.7877029540349265,-2.2034455689476102,8.588039660877756,0.5244444444444445,-0.16,-0.6344444444444445,2.1680696118451244,6.014356537281708,-85.05532173135914
1589995414.8462818,-2.766907824327217,-2.232061450448522,8.653092175672784,0.5244444444444445,-0.16,-0.6344444444444445,2.5901884571228426,6.099231869393473,-84.96778983674184
1589995414.8562818,-2.7424231869393476,-2.248384542040435,8.677576813060652,0.5244444444444445,-0.16,-0.6344444444444445,3.3043237142690356,5.8951932244945615,-84.7127415306182
1589995414.8662817,-2.7697709463532245,-2.384656419529837,8.824885473176613,0.5366666666666666,-0.13444444444444445,-0.67,3.1758903455897127,6.386609654410288,-84.00429475587704
1589995414.8762817,-2.819851567088472,-2.4599257835442363,8.849183618986597,0.5366666666666666,-0.13444444444444445,-0.67,3.4365722943029526,6.125927705697047,-83.05739761866624
1589995414.8862817,-2.8,-2.456971021159154,8.743983440662374,0.5366666666666666,-0.13444444444444445,-0.67,3.2564828656853724,6.200206991720331,-82.28163810947562
1589995414.8962817,-2.8,-2.5183578656853727,8.779061637534499,0.5366666666666666,-0.13444444444444445,-0.67,2.763195722171113,5.7617295308187675,-81.45949287028519
1589995414.9062817,-2.745855157472772,-2.550080468070682,8.816096561684818,0.5366666666666666,-0.13444444444444445,-0.67,2.5243964894698836,5.637198244734941,-80.79829005349801
1589995414.9162817,-2.72156698471802,-2.58156698471802,8.811082538204948,0.5662267387238297,-0.10038610055249572,-0.6751408820968979,2.1219722092933053,5.634793654487627,-79.79665076409898
1589995414.9262817,-2.6928317948922427,-2.6085841025538787,8.759026495743536,0.5877777777777777,-0.07555555555555556,-0.6788888888888889,1.8987831196794194,5.6875,-78.83296367551188
1589995414.9362817,-2.6102368234283366,-2.6285375966530946,8.611936050203578,0.5877777777777777,-0.07555555555555556,-0.6788888888888889,1.7149200627544732,5.367340125508946,-77.85968025101789
1589995414.9462817,-2.606772211636066,-2.6164555767278683,8.644177693088526,0.5877777777777777,-0.07555555555555556,-0.6788888888888889,2.0684369045286983,5.397152645450822,-77.49604206364754
1589995414.9562817,-2.5780573995842553,-2.6339569503118088,8.646043049688192,0.5877777777777777,-0.07555555555555556,-0.6788888888888889,2.5494618788976062,5.736961878897606,-76.87589686850399
1589995414.9662817,-2.5461577760084926,-2.6638422239915074,8.679737039985845,0.578064279114571,-0.05083028623102934,-0.6903684782181332,2.7740138999469215,5.911842599964614,-76.79967129998231
1589995414.9762816,-2.4721490161397304,-2.7592836612867564,8.754985629007296,0.5755555555555556,-0.04444444444444445,-0.6933333333333334,2.8080228830422285,6.022385584788857,-76.83488558478885
1589995414.9862816,-2.4935488698787394,-2.7521503767070867,8.705052636949608,0.5755555555555556,-0.04444444444444445,-0.6933333333333334,2.7634398544192926,6.245300727903536,-77.05780072790354
1589995414.9962816,-2.509569956117971,-2.800184304520869,8.76018430452087,0.5755555555555556,-0.04444444444444445,-0.6933333333333334,2.3117320644963772,6.1875,-77.50115190325543
1589995415.0062816,-2.4496452699255027,-2.82586631288907,8.78586631288907,0.5755555555555556,-0.04444444444444445,-0.6933333333333334,2.2047236962955403,6.1875,-77.66166445555669
1589995415.0162816,-2.436651439116052,-2.853348560883948,8.765535252154736,0.5877777777777777,0.008888888888888889,-0.7144444444444444,1.8537859779012984,6.020642988950649,-78.01395233701645
1589995415.0262816,-2.4066219949316228,-2.878873998310541,8.724932992397434,0.5877777777777777,0.008888888888888889,-0.7144444444444444,1.2015750211182392,5.70157502111824,-78.12148124472044
1589995415.0362816,-2.349697753032412,-2.8610578643865576,8.639848876516206,0.5877777777777777,0.008888888888888889,-0.7144444444444444,1.4441116524159874,5.943167130642275,-78.05588834758402
1589995415.0462816,-2.33,-2.929617862733789,8.631146411798634,0.5877777777777777,0.008888888888888889,-0.7144444444444444,1.8773883579138173,6.319665073741452,-77.60350477877564
1589995415.0562816,-2.33,-2.9227062700832165,8.65188118975035,0.5877777777777777,0.008888888888888889,-0.7144444444444444,1.9205858119798962,6.449257435939688,-77.21472769218093
1589995415.0662816,-2.3200125234815276,-2.9299874765184724,8.679974953036943,0.5877777777777777,0.018876365407361026,-0.7211027621234259,1.999921728240451,6.562421728240451,-76.25101753287414
1589995415.0762815,-2.32,-2.975551898144554,8.666985171958698,0.5877777777777777,0.01888888888888889,-0.7211111111111111,2.0813426752581323,6.928542038661595,-75.7619439484512
1589995415.0862815,-2.2991468906361687,-3.048657255182273,8.66,0.5877777777777777,0.01888888888888889,-0.7211111111111111,1.9512240886347392,7.125,-74.84834033238027
1589995415.0962815,-2.2714743145463117,-3.0792628427268443,8.706314213634222,0.5877777777777777,0.01888888888888889,-0.7211111111111111,1.9907855340855536,6.77764339774334,-73.3467518921017
1589995415.1062815,-2.236519080391196,-3.096740459804402,8.726740459804402,0.5877777777777777,0.01888888888888889,-0.7211111111111111,1.4768606311124368,6.540744252444974,-72.30834913600239
1589995415.1162815,-2.1916883890668055,-3.1255410739554628,8.749155805466597,0.6083525317974562,0.002570980528454274,-0.7303342767061394,0.8162890072242496,6.420184143889179,-71.48647315111343
1589995415.1262815,-2.1486380732640096,-3.12575871550934,8.70303486203736,0.62,-0.006666666666666667,-0.7355555555555555,0.27747992983343345,6.419504014033313,-70.1014076772338
1589995415.1362815,-2.127639341176471,-3.107639341176471,8.593475388235294,0.62,-0.006666666666666667,-0.7355555555555555,0.1488729411764706,6.321618823529412,-68.95358588235294
1589995415.1462815,-2.1342202226527864,-3.1142202226527864,8.56133033397918,0.62,-0.006666666666666667,-0.7355555555555555,-0.052752783159830535,6.161123608420085,-67.56679788841089
1589995415.1562815,-2.1326864090738575,-3.1273135909261423,8.591940772778427,0.62,-0.006666666666666667,-0.7355555555555555,0.012129829865172026,6.125,-66.18188124765541
1589995415.1662815,-2.1406497779240006,-3.1832488896200033,8.66,0.64,-0.008888888888888889,-0.7711111111111111,0.2621833360750123,5.721572215824971,-64.01128886329988
1589995415.1762815,-2.1483160607556067,-3.2215803037780337,8.66,0.64,-0.008888888888888889,-0.7711111111111111,0.4059261391676262,5.386172341942205,-62.669689367768825
1589995415.1862814,-2.1225917655268667,-3.303088625261689,8.614319609211444,0.64,-0.008888888888888889,-0.7711111111111111,0.8372034193998605,5.255399511514305,-60.890387299371945
1589995415.1962814,-2.12,-3.337636708560588,8.71133459805549,0.64,-0.008888888888888889,-0.7711111111111111,0.7022705714963244,4.731811714488973,-59.08028219113113
1589995415.2062814,-2.103929344207723,-3.3721413115845538,8.744105983688415,0.64,-0.008888888888888889,-0.7711111111111111,0.8381623980525965,4.536837601947403,-57.22999282207057
1589995415.2162814,-2.077966132681277,-3.3325423341484037,8.718474599510959,0.5577777777777778,-0.0811111111111111,-0.7355555555555555,0.7966104115724765,4.046610411572477,-54.832628716378345
1589995415.2262814,-2.0393560449508965,-3.3791145618074827,8.689114561807482,0.5577777777777778,-0.0811111111111111,-0.7355555555555555,0.5010061797642242,3.7479876404715515,-52.85739185412608
1589995415.2362814,-1.9733183759422173,-3.2883127669205487,8.598312766920548,0.5577777777777778,-0.0811111111111111,-0.7355555555555555,0.6041900375902856,3.541619924819429,-51.05167434217
1589995415.2462814,-1.9855129149417112,-3.3635473547862746,8.588504304980571,0.5577777777777778,-0.0811111111111111,-0.7355555555555555,0.8907595306428262,3.287392375485739,-48.88033519162878
1589995415.2562814,-2.0057190504218165,-3.3957190504218167,8.613578575632724,0.5577777777777778,-0.0811111111111111,-0.7355555555555555,0.8392559348636452,3.200877967431823,-46.990594957818324
1589995415.2662814,-2.0040211059204527,-3.4418522585568314,8.667831152636378,0.5398410955391357,-0.03992317411867375,-0.662480183472199,0.887236175994342,3.150131912002829,-45.25461692009902
1589995415.2762814,-1.9791105176663928,-3.463036839222131,8.658221035332785,0.5277777777777778,-0.012222222222222223,-0.6133333333333333,1.1550987743084087,2.9509209805532732,-43.02588759928787
1589995415.2862813,-1.9516976259430743,-3.472201582704617,8.585092877829224,0.5277777777777778,-0.012222222222222223,-0.6133333333333333,0.9830903783364999,2.684350270240357,-41.25547167549021
1589995415.2962813,-1.94,-3.512329746319102,8.646989238957305,0.5277777777777778,-0.012222222222222223,-0.6133333333333333,0.8630152286235966,2.5625,-39.035058369915696
1589995415.3062813,-1.9456830676617831,-3.542732270647133,8.681366135323566,0.5277777777777778,-0.012222222222222223,-0.6133333333333333,1.0525958644307258,2.5625,-37.55088646764335
1589995415.3162813,-1.9396381751442056,-3.5548190875721026,8.76253277399056,0.534110004078541,0.03613296043815183,-0.6018201946046728,1.025596486628212,2.335835081279497,-35.845601730466704
1589995415.3262813,-1.7214177336260679,-3.082270069343304,8.463400865160967,0.54,0.0811111111111111,-0.5911111111111111,2.6921939873486513,7.774103047627328,-32.6922469730235
1589995415.3362813,-1.4888627276765882,-2.995228787205686,6.916352732119058,0.54,0.0811111111111111,-0.5911111111111111,14.284887272323411,4.116420479786761,-29.575980119946692
1589995415.3462813,-1.6871991701244813,-3.4029639433395333,8.360421376448706,0.54,0.0811111111111111,-0.5911111111111111,-1.4866576048075544,-5.59177368006868,-32.474039562169125
1589995415.3562813,-1.6788456140350876,-3.263748245614035,9.488945321637427,0.54,0.0811111111111111,-0.5911111111111111,-12.350385599415205,-3.6478033625731,-32.78545138888889
1589995415.3662813,-1.5245305717474884,-2.9817958576212327,7.698253338294266,0.5585880634448165,0.12603226443608434,-0.5818170793887029,1.7783496630699904,2.6122746909752363,-28.79690923560296
1589995415.3762813,-1.867506290557542,-3.613704476228314,9.099524235200636,0.5666666666666667,0.14555555555555555,-0.5777777777777777,2.68421194212687,3.3767568037346045,-26.622860382730764
1589995415.3862813,-1.7305517805139734,-3.3909196341899555,9.020980943135951,0.5666666666666667,0.14555555555555555,-0.5777777777777777,-3.4829484493945735,-2.357756858938333,-27.621742962243907
1589995415.3962812,-1.7115040686361225,-3.380752034318061,8.55760171590306,0.5666666666666667,0.14555555555555555,-0.5777777777777777,1.0661830554572793,1.6131852003361051,-25.08180943746683
1589995415.4062812,-1.6786408201456409,-3.442718359708718,8.472961230218463,0.5666666666666667,0.14555555555555555,-0.5777777777777777,1.8294897481794883,1.5455102518205117,-23.846026911028844
1589995415.4162812,-1.8393847263113623,-3.70466682689419,9.081077329808327,0.5603931582847644,0.1654216654315795,-0.603917396035704,0.6435888962326504,0.3200313194736526,-22.974358589196658
1589995415.4262812,-1.7637415659814843,-3.5945331868821593,8.65734112662796,0.56,0.16666666666666666,-0.6055555555555555,1.4446885297348189,0.7891152126157226,-21.32015436215283
1589995415.4362812,-1.7293609119513076,-3.5227631918295765,8.439567751586114,0.56,0.16666666666666666,-0.6055555555555555,1.3882756486305257,0.7047699489348532,-20.210056996956723
1589995415.4462812,-1.762635580334516,-3.59658895083629,8.674437404967055,0.56,0.16666666666666666,-0.6055555555555555,1.3581633299543843,0.5333090471363406,-18.792273821591486
1589995415.4562812,-1.7175053468787596,-3.5589790803368535,8.658842400748563,0.56,0.16666666666666666,-0.6055555555555555,1.3198686672904691,0.5321710834113087,-17.546908417992245
1589995415.4662812,-1.66148157308929,-3.498703932723225,8.50347266881029,0.5757407865446451,0.17934674471651962,-0.599871382636656,1.0870949789760078,0.5983799159040317,-16.606480336383875
1589995415.4762812,-1.6598313761786312,-3.5124958060970672,8.496323827153352,0.6,0.1988888888888889,-0.5911111111111111,0.7666526869902239,0.6156197576213339,-15.462479030485335
1589995415.4862812,-1.757505726399922,-3.705011452799844,8.885690335786345,0.6,0.1988888888888889,-0.5911111111111111,0.8208428773332034,0.6114607193333008,-14.760392806666992
1589995415.4962811,-1.68168672286042,-3.5774430628629688,8.574712082870613,0.6,0.1988888888888889,-0.5911111111111111,0.7997824464308471,0.7002175535691529,-14.324129785723388
1589995415.5062811,-1.6446102104173852,-3.5480622628492586,8.44151431528113,0.6,0.1988888888888889,-0.5911111111111111,0.8942092100724388,0.641843092445671,-13.872633882373233
1589995415.5162811,-1.6811351086022823,-3.625567554301141,8.671351086022826,0.592576594265145,0.20198197461174516,-0.5991531339905374,0.8956083568536016,0.6320944287642656,-13.443919499325071
1589995415.526281,-1.6981077513798897,-3.694862011039117,8.74378449724022,0.5866666666666667,0.20444444444444448,-0.6055555555555555,0.9645203383729302,0.5354796616270698,-13.09797966162707
1589995415.536281,-1.6668068594875454,-3.6934034297437726,8.67361371897509,0.5866666666666667,0.20444444444444448,-0.6055555555555555,0.585085743594318,0.44813571794928975,-12.85504287179716
1589995415.546281,-1.63656230788497,-3.61968692365491,8.56624923153988,0.5866666666666667,0.20444444444444448,-0.6055555555555555,0.8906282019171656,0.4375,-12.373043272843189
1589995415.556281,-1.6100275884787218,-3.6798896460851127,8.706436762677317,0.5866666666666667,0.20444444444444448,-0.6055555555555555,0.6255172839760351,0.31267242799201167,-12.166781618661341
1589995415.566281,-1.6,-3.5764223529025263,8.452170242123591,0.6148191464897007,0.21570543637365802,-0.6177549634788703,0.8597871973455107,0.46114359867275534,-11.702712802654489
1589995415.576281,-1.6175503466490593,-3.5587751733245296,8.468976559920767,0.62,0.21777777777777774,-0.62,0.16967233410366456,0.6096896665566194,-11.51531033344338
1589995415.586281,-1.6260432494655483,-3.6083459957243877,8.59482173984542,0.62,0.21777777777777774,-0.62,0.2513515457983884,0.5872296908403223,-11.235607835882256
1589995415.596281,-1.6362038578961975,-3.6834270052733835,8.682407715792396,0.62,0.21777777777777774,-0.62,0.45254822370247016,0.601274111851235,-10.90740355259506
1589995415.606281,-1.621347452655646,-3.6820211789834687,8.620052947458671,0.62,0.21777777777777774,-0.62,0.44171078954889365,0.6541446052255532,-10.929078420902213
1589995415.616281,-1.5886299863658355,-3.667055020451247,8.534314993182917,0.6462141981009906,0.22346278459486002,-0.62,0.3572343536966178,0.7052656463033822,-11.098031292606764
1589995415.626281,-1.595723331709693,-3.6921383341451532,8.667358743302485,0.7122222222222222,0.23777777777777775,-0.62,0.3125,0.7220911471018022,-11.1875
1589995415.636281,-1.6247756482525366,-3.742315670800451,8.754847801578354,0.7122222222222222,0.23777777777777775,-0.62,0.3838641488162345,0.6637119503945885,-11.235076099210824
1589995415.646281,-1.6148276196762046,-3.800689521295182,8.604942539892068,0.7122222222222222,0.23777777777777775,-0.62,0.3146547540474434,0.40876387972201733,-11.374281748650851
1589995415.656281,-1.5959753448961487,-3.74,8.571114679881312,0.7122222222222222,0.23777777777777775,-0.62,0.30727493805634576,0.3393957817136215,-11.285604218286378
1589995415.666281,-1.5649217939431905,-3.7449217939431905,8.64812305463657,0.9145626398867203,0.24926196364522227,-0.6839833212614764,0.0693430299708318,0.37695515142023767,-11.09423878785506
1589995415.676281,-1.5827959697732998,-3.711612090680101,8.635642317380352,1.1233333333333333,0.2611111111111111,-0.75,0.10484886649874053,0.32997481108312343,-10.742600755667507
1589995415.686281,-1.5430297123841217,-3.682171618730687,8.614798668885191,1.1233333333333333,0.2611111111111111,-0.75,0.1303630853339672,0.5707095317328262,-10.024298787734727
1589995415.696281,-1.5530775182892516,-3.7800025792534235,8.614614987807165,1.1233333333333333,0.2611111111111111,-0.75,0.11057816310260739,0.6730781631026074,-8.817280411742637
1589995415.706281,-1.56616374179179,-3.8346549671671597,8.64698245075074,1.1233333333333333,0.2611111111111111,-0.75,0.009429841403939931,0.6104532276026267,-7.69100888982758
1589995415.716281,-1.5961293200880378,-3.895726310154066,8.702661650110047,1.2938997283524676,-0.09526378231184612,-0.9858896952392283,0.1416353131877937,0.44001881208732374,-6.452612872523943
1589995415.726281,-1.61,-3.93374577309761,8.692508453804779,1.3844444444444444,-0.28444444444444444,-1.1111111111111112,0.207044459069968,0.289088918139936,-5.117478099539296
1589995415.736281,-1.5950869714860607,-3.902717428715152,8.568152286145455,1.3844444444444444,-0.28444444444444444,-1.1111111111111112,0.1875,0.25,-3.6622292896666755
1589995415.746281,-1.59,-3.913497153929999,8.631821000363328,1.3844444444444444,-0.28444444444444444,-1.1111111111111112,0.13854759597916919,-0.09266682814581567,-2.3824043236042147
1589995415.756281,-1.5666922392234985,-3.8966922392234986,8.6553384478447,1.3844444444444444,-0.28444444444444444,-1.1111111111111112,0.15413470097062687,-0.21663470097062687,-1.6879794854405967
1589995415.766281,-1.544331400395847,-3.87,8.652887600263899,1.2910787025784074,-0.23647819561636013,-1.0538403725437997,0.1784762491753186,-0.2409762491753186,-1.12433374422723
1589995415.7762809,-1.5518972552575594,-3.851897255257559,8.663965751752519,0.7377777777777778,0.04777777777777778,-0.7144444444444444,0.16271405154675128,-0.3383562061870052,-0.75
1589995415.7862809,-1.5701065526953302,-3.8279573789218677,8.575701652453075,0.7377777777777778,0.04777777777777778,-0.7144444444444444,0.14986680913083728,-0.36223361826167455,-0.9381659543458137
1589995415.7962809,-1.59,-3.82,8.556535718286717,0.7377777777777778,0.04777777777777778,-0.7144444444444444,0.09962797341200194,-0.23638392023600582,-1.4177083722319728
1589995415.8062809,-1.59,-3.8405749695245834,8.644291615874305,0.7377777777777778,0.04777777777777778,-0.7144444444444444,0.04106774007855885,-0.14643225992144115,-2.216119378978735
1589995415.8162808,-1.5720374982565901,-3.84407499651318,8.69203749825659,0.6779027719664114,0.11613507607908773,-0.69847777622808,0.0,-0.047167955129610084,-3.283261770507482
1589995415.8262808,-1.5070700308959835,-3.8367971163748713,8.700664263645727,0.6044444444444445,0.2,-0.6788888888888889,0.19165164778578786,0.0100090113285273,-4.5507852729145215
1589995415.8362808,-1.4959251080018054,-3.87061673866787,8.66691630666065,0.6044444444444445,0.2,-0.6788888888888889,0.3125,0.07020923334837836,-5.435159625056419
1589995415.8462808,-1.523717277486911,-3.9165794066317625,8.583420593368237,0.6044444444444445,0.2,-0.6788888888888889,0.14103403141361257,0.15892233856893542,-6.160776614310645
1589995415.8562808,-1.54,-3.905406223167191,8.665565686715459,0.6044444444444445,0.2,-0.6788888888888889,0.07398444208202151,0.09087888947949463,-6.9435744367665695
1589995415.8662808,-1.5067761053305049,-3.9596716840084856,8.736776105330504,0.6103509146079102,0.24503683499642687,-0.682580432741055,0.27055973667373806,0.22861947334747615,-7.7277986833686905
1589995415.8762808,-1.49,-3.9178353692331567,8.649104130179351,0.6133333333333333,0.2677777777777778,-0.6844444444444444,0.3568099186379054,0.40111983727581085,-8.91231821003392
1589995415.8862808,-1.5447046678848573,-3.8868380834856073,8.613161916514391,0.6133333333333333,0.2677777777777778,-0.6844444444444444,0.2895239564299105,0.3947619782149553,-9.996308348560715
1589995415.8962808,-1.5798286283398586,-3.8211996016209904,8.61,0.6133333333333333,0.2677777777777778,-0.6844444444444444,0.3114289271241157,0.4057144635620578,-10.834645880554984
1589995415.9062808,-1.59,-3.778458297258297,8.642015584415583,0.6133333333333333,0.2677777777777778,-0.6844444444444444,0.48616522366522363,0.4819660894660895,-11.508398268398269
1589995415.9162807,-1.5312182406519654,-3.7712182406519656,8.692162432086928,0.6089791289371826,0.24992553975355988,-0.6988133189517418,0.6140228008149569,0.6849619986417386,-11.921446798098433
1589995415.9262807,-1.4704548206447707,-3.7713644619343123,8.666947934009384,0.6022222222222222,0.2222222222222222,-0.7211111111111111,0.6903426290298169,0.9021918041471166,-12.3506508248827
1589995415.9362807,-1.477215641535997,-3.8637725132287977,8.53853318122239,0.6022222222222222,0.2222222222222222,-0.7211111111111111,0.44573462303995337,0.609656415359969,-12.5625
1589995415.9462807,-1.4648851656957815,-3.8597703313915632,8.607014308090319,0.6022222222222222,0.2222222222222222,-0.7211111111111111,0.5233551415849773,0.5901614279931715,-12.13504800161912
1589995415.9562807,-1.4486654887778483,-3.891334511222152,8.729332744388925,0.6022222222222222,0.2222222222222222,-0.7211111111111111,0.7861062032410346,0.7277765508102587,-11.531935855671811
1589995415.9662807,-1.381080291062877,-3.860592698550905,8.704216058212575,0.5527373869298119,0.2022997560655375,-0.6407785862857696,0.986496361714037,0.7959489085142111,-11.033102182971577
1589995415.9762807,-3.9381517104610806,-7.457690629647992,0.6052791274169564,0.5166666666666667,0.18777777777777774,-0.5822222222222222,1.285182201289043,0.9805466038671294,-11.121275409023301
1589995415.9862807,-2.6065364001786517,-5.699344413960314,-2.816396031391565,0.5166666666666667,0.18777777777777774,-0.5822222222222222,-63.17414702035347,59.199692544503286,-257.79038593440947
1589995415.9962807,-0.12283877349159245,-4.966627101879327,-0.675242334322453,0.5166666666666667,0.18777777777777774,-0.5822222222222222,-86.90059347181008,3.2895647873392733,-663.5090257171119
1589995416.0062807,-1.033578290558041,-6.689098893336473,4.129636684718625,0.5166666666666667,0.18777777777777774,-0.5822222222222222,-81.05686808335295,-29.469525547445258,-825.528337650106
1589995416.0162807,-1.4494826226724087,-5.944223934008613,3.9467968702614185,0.5260261620266473,0.2756130419252879,-0.5973414070344986,-66.92491053557347,42.48193652574756,-786.6630110086735
1589995416.0262806,-1.1542916871618298,-5.2204197409411375,2.2961173962944743,0.5311111111111111,0.3233333333333333,-0.6055555555555555,-32.66356677324151,104.1857886538777,-747.5323362436465
1589995416.0362806,-2.402140053383577,-5.7558863243837335,5.4902527869367255,0.5311111111111111,0.3233333333333333,-0.6055555555555555,10.327769273041294,162.03782972209137,-704.737792432093
1589995416.0462806,-4.457052673111067,-6.9315321891234305,9.655962056947459,0.5311111111111111,0.3233333333333333,-0.6055555555555555,84.37408039882948,170.30864281252056,-653.0512500410995
1589995416.0562806,-3.381235494880546,-2.781252559726963,11.458587030716723,0.5311111111111111,0.3233333333333333,-0.6055555555555555,158.65620733788396,113.62288822525596,-532.756271331058
1589995416.0662806,0.46312259220546514,2.9073071524563234,2.9094776765715995,0.36121434141323644,0.49679936289881044,-0.5877092562175434,150.03161863520978,2.9925862326414823,-227.80514036135583
1589995416.0762806,0.03762364910914226,0.6287686203874988,-0.8877930581248175,0.26666666666666666,0.5933333333333334,-0.5777777777777777,60.31173936325577,-1.5733086481355283,-151.57127622675495
1589995416.0862806,1.1734200307418492,1.0594134778739583,14.705985357171752,0.26666666666666666,0.5933333333333334,-0.5777777777777777,-7.065728399805842,12.47065114068441,-131.3447587169323
1589995416.0962806,0.2568583591331268,0.49375877192982454,11.463522445820434,0.26666666666666666,0.5933333333333334,-0.5777777777777777,-65.86749871001032,19.316619904540765,-110.6110374742002
1589995416.1062806,0.3801561459898438,-0.3480891610719108,9.3353998744746,0.26666666666666666,0.5933333333333334,-0.5777777777777777,-52.57719217748531,12.970683400216817,-93.99214753038285
1589995416.1162806,0.8867848632499912,-0.10018814240495066,8.526423160365615,0.19138125214875934,0.6046261455110195,-0.5865610761382003,19.261169843866696,2.52244638474944,-76.64517018174058
1589995416.1262805,0.8652085169170235,-0.00738467528741521,5.942997930200628,0.13333333333333333,0.6133333333333333,-0.5933333333333334,36.6795422874357,7.926490101850523,-60.34255435784986
1589995416.1362805,1.2959112564703459,-0.8678156627436843,9.245740516597564,0.13333333333333333,0.6133333333333333,-0.5933333333333334,-2.1373274574437957,5.376578957533929,-43.8206490947954
1589995416.1462805,1.063054990211471,-1.3201275416254774,9.841524490705744,0.13333333333333333,0.6133333333333333,-0.5933333333333334,-27.142935541082746,0.8805799461146324,-28.386483349809076
1589995416.1562805,7.489690225847517,-7.4967051723325016,9.053885614597577,0.13333333333333333,0.6133333333333333,-0.5933333333333334,-13.281516691027392,1.6538615682021782,-16.543893512188223
1589995416.1662805,7.436058859714443,-7.064435846796387,9.008663191634021,0.11054488943568491,0.6196001554051866,-0.6041578441847164,12.798167513840774,-10.965990950885486,-9.351112523067957
1589995416.1762805,-1.757269833745302,1.7493080621677446,7.892132529712525,0.08888888888888889,0.6255555555555555,-0.6144444444444445,10.969456836420276,-6.6207431094030404,-4.339761876544882
1589995416.1862805,-0.1344708171206226,-0.4454280155642022,7.977143968871595,0.08888888888888889,0.6255555555555555,-0.6144444444444445,2.143263618677043,15.79124513618677,5.195646887159533
1589995416.1962805,2.3191297386633614,-3.730860964776366,9.909977275074889,0.08888888888888889,0.6255555555555555,-0.6144444444444445,-13.1367595031505,5.4955873618427855,17.06042118582791
1589995416.2062805,4.9734238620366025,-5.778422102299389,8.266574964805256,0.08888888888888889,0.6255555555555555,-0.6144444444444445,-11.233487799155327,-10.218717004927264,26.047736538010323
1589995416.2162805,3.191962804996861,-4.497202580701032,8.021258308255211,0.09357704215289356,0.6293913173170139,-0.6144444444444445,2.5127979605533786,-2.4811589339453115,36.16528150641928
1589995416.2262805,0.9035181058495823,-2.94587778551532,8.443335654596101,0.10111111111111112,0.6355555555555555,-0.6144444444444445,-0.8407686281337048,-1.4291695682451255,40.546568158077996
1589995416.2362804,2.353548452085152,-4.1213363776777925,8.23778792559264,0.10111111111111112,0.6355555555555555,-0.6144444444444445,-3.1348885232690886,-4.645448593109933,47.98156604660533
1589995416.2462804,1.475486634327588,-3.6982361440809166,8.544350294148003,0.10111111111111112,0.6355555555555555,-0.6144444444444445,-1.4756360305501084,-4.191267158633502,55.019145422644236
1589995416.2562804,1.3373056201550388,-3.517331007751938,8.620498255813954,0.10111111111111112,0.6355555555555555,-0.6144444444444445,-1.0096596414728682,-3.37140988372093,60.262456395348835
1589995416.2662804,1.549702748837483,-3.6088109953499323,8.333853081405616,0.10111111111111112,0.6332672775194407,-0.6218813480618178,-2.0396101889457885,-4.952362558125846,66.22532226734945
1589995416.2762804,1.4345797101449276,-3.712627450980392,8.8505694799659,0.10111111111111112,0.6311111111111111,-0.6288888888888889,-3.0101342710997443,-5.786317135549872,73.64704816709292
1589995416.2862804,1.3088658143258232,-3.6349376986797224,8.686956864746966,0.10111111111111112,0.6311111111111111,-0.6288888888888889,-2.787949277211871,-6.038208866046361,80.50510186323874
1589995416.2962804,1.2807807518668293,-3.648588270535122,8.47178616513683,0.10111111111111112,0.6311111111111111,-0.6288888888888889,-2.6108289470868904,-6.129879699167683,87.19171240130946
1589995416.3062804,1.193743708430703,-3.6445764425669602,8.637914569476902,0.10111111111111112,0.6311111111111111,-0.6288888888888889,-2.6406137650548267,-6.588567881538738,93.94292928725508
1589995416.3162804,1.0567411335187762,-3.5897765994436717,8.917871175243393,0.11704774184824603,0.6315418308607634,-0.6288888888888889,-2.9462877042767732,-7.280551873261475,100.69949039464534
1589995416.3262804,1.0042739632126128,-3.6685479264252256,9.102858258121024,0.14222222222222222,0.6322222222222222,-0.6288888888888889,-3.799143864960585,-7.870719324802924,107.11016104002437
1589995416.3362803,0.9340597682455783,-3.608534254929864,8.270959544622892,0.14222222222222222,0.6322222222222222,-0.6288888888888889,-4.010456901809311,-8.651669546655825,113.92882191502338
1589995416.3462803,0.7286021980261929,-3.7546476193711675,8.613715751388629,0.14222222222222222,0.6322222222222222,-0.6288888888888889,-4.260155679366751,-9.25,124.05256408078681
1589995416.3562803,0.6403693570451436,-3.666296169630643,8.557903556771546,0.14222222222222222,0.6322222222222222,-0.6288888888888889,-3.8433652530779754,-9.334879445964432,130.9923264363885
1589995416.3662803,0.4117859036985345,-3.6445535240753664,9.017232379623168,0.15638874156780647,0.6241270683104598,-0.625853206171978,-3.920202372644801,-10.279014305652478,144.3091050244243
1589995416.3762803,0.31824552769507125,-3.7051957479268682,8.890647653731637,0.17333333333333334,0.6144444444444445,-0.6222222222222222,-4.819417616083073,-11.411944191540146,155.13808010777825
1589995416.3862803,0.23400470949017033,-3.676346676888816,8.593372579084754,0.17333333333333334,0.6144444444444445,-0.6222222222222222,-5.55210786192797,-12.13539213807203,164.030440556377
1589995416.3962803,0.18185618172128964,-3.590886290967226,8.444264255262457,0.17333333333333334,0.6144444444444445,-0.6222222222222222,-5.624477501332268,-12.584657274180655,173.68520183852917
1589995416.4062803,0.10034350389805691,-3.682227630693735,8.815426807550754,0.17333333333333334,0.6144444444444445,-0.6222222222222222,-5.611077308164154,-13.259997427678183,185.03029650955716
1589995416.4162803,-0.0008970630532741039,-3.679117637659391,8.866397047074239,0.2157451024256176,0.6179787585354681,-0.6277761443652594,-5.460110335240165,-14.352022146943211,199.2077214694321
1589995416.4262803,-0.06151968503937008,-3.6736771653543308,8.620562992125985,0.26666666666666666,0.6222222222222222,-0.6344444444444445,-5.9375,-15.375,209.4375
1589995416.4362803,-0.16225049401088043,-3.6808121294918394,8.493874752994559,0.26666666666666666,0.6222222222222222,-0.6344444444444445,-6.982525127467005,-15.915530238345003,213.86984795442902
1589995416.4462802,-0.23847354816474237,-3.7698135447182493,8.553209029812166,0.26666666666666666,0.6222222222222222,-0.6344444444444445,-7.64408064794072,-16.4448991900741,220.14370153368947
1589995416.4562802,-0.273062520351677,-3.9830625203516767,8.65924373168349,0.26666666666666666,0.6222222222222222,-0.6344444444444445,-7.355859247802019,-16.841211128296973,227.62289360143276
1589995416.4662802,-0.36887368932713005,-3.9813596278036245,8.64032983820568,0.2872879198203828,0.6029990201297749,-0.6410851869854717,-6.737379348656344,-17.66080046524547,240.99829004930214
1589995416.4762802,3.6801174844505873,-9.020388633684297,7.875336395788446,0.3322222222222222,0.5611111111111111,-0.6555555555555556,-8.301485832757429,-18.799161043131836,240.0017150087402
1589995416.4862802,12.988601800900451,-21.03846923461731,5.68252376188094,0.3322222222222222,0.5611111111111111,-0.6555555555555556,-16.6857803901951,-20.791802151075537,175.01888444222112
1589995416.4962802,-1.002016379104715,-3.604138347777689,8.325433887254512,0.3322222222222222,0.5611111111111111,-0.6555555555555556,-14.431770294982906,-4.109494513795024,-60.99358650711616
1589995416.5062802,-2.769511807267234,-0.6160706050727516,9.9461938459092,0.3322222222222222,0.5611111111111111,-0.6555555555555556,18.500337918422517,24.987482110201157,-101.8877613898386
1589995416.5162802,-2.0996396617232502,-0.6231572496629489,4.768344159823508,0.3808910405686971,0.526087755852433,-0.6582846481731149,28.683815418556197,11.497594680720677,-33.7460166687094
1589995416.5262802,-1.2164031078610604,-1.9026327488781787,9.50152069137444,0.4511111111111111,0.4755555555555556,-0.6622222222222223,-15.44135755983048,-5.764552517866046,1.9651949684228018
1589995416.5362802,-1.120802005916733,-3.783351251894076,10.637497294177068,0.4511111111111111,0.4755555555555556,-0.6622222222222223,-21.732567735767372,-5.277121365177862,19.3210932426582
1589995416.5462801,-1.1392490200123788,-4.442762120899526,9.326883845677738,0.4511111111111111,0.4755555555555556,-0.6622222222222223,-4.10681865071178,-4.388675985145451,40.61922838869404
1589995416.5562801,-0.40489895560513467,-3.4660308144986582,8.157378342548583,0.4511111111111111,0.4755555555555556,-0.6622222222222223,3.273731286578071,-3.5685262877097683,67.24114750056584
1589995416.5662801,0.75841386230318,-5.336251929607904,8.56819851806113,0.44970995849198997,0.476156049535179,-0.6622222222222223,-7.198185203766594,-7.0456111068230936,72.53614155603582
1589995416.57628,3.0049031961207664,-11.208167274271759,9.02462800410576,0.4044444444444445,0.4955555555555556,-0.6622222222222223,-2.1628632357625737,-1.6660664354227865,5.559525758326551
1589995416.58628,-2.117398371092222,-1.789880499342035,10.031511896717289,0.4044444444444445,0.4955555555555556,-0.6622222222222223,14.448792100864246,8.936217412953019,-24.108764270725896
1589995416.59628,0.19023383489223267,-3.8415433102887353,8.255004066693777,0.4044444444444445,0.4955555555555556,-0.6622222222222223,-2.6742705368035784,-2.0970287718584792,8.270651179341195
1589995416.60628,0.6738572036192096,-5.866241783311422,9.069756592684246,0.4044444444444445,0.4955555555555556,-0.6622222222222223,-7.647895561054829,-2.762814409171758,7.930821523857397
1589995416.61628,-0.4480290392338585,-6.1819864071671295,8.849579857893112,0.4142093158960629,0.49433494662410327,-0.6636462659755833,2.326569096900422,0.4040456698589229,-1.4436592523941922
1589995416.62628,-0.344881026690969,-4.541706324436344,8.594788145114979,0.4577777777777778,0.4888888888888889,-0.67,3.7994416493970187,0.7556225187885446,-1.643354722728521
1589995416.63628,-0.2684127704645181,-4.560535633227418,8.79583295506128,0.4577777777777778,0.4888888888888889,-0.67,-0.5690724769254047,-0.18092752307459525,0.11185504614919049
1589995416.64628,-0.32802706376668317,-4.470022553138903,8.463900766188829,0.4577777777777778,0.4888888888888889,-0.67,-0.5875845742708848,-0.13747180857637173,-0.012471808576371724
1589995416.65628,-0.2893282395376799,-4.473531784509173,8.612015281386961,0.4577777777777778,0.4888888888888889,-0.67,-0.4375,-0.16806616762983362,-0.08193383237016638
1589995416.66628,-0.3055994096852799,-4.55239763874112,8.569802656416242,0.4504434605865776,0.4903557523271289,-0.6653549324455732,-0.24497417373099495,-0.09749631053299929,-0.11124815526649964
1589995416.67628,-0.29806979234467845,-4.498069792344679,8.623860415310643,0.4244444444444445,0.4955555555555556,-0.6488888888888888,0.4375,0.02521810107712012,-0.0625
1589995416.68628,-0.31279567004772035,-4.51559134009544,8.594408659904559,0.4244444444444445,0.4955555555555556,-0.6488888888888888,0.3501353110087384,0.0625,-0.04502706220174768
1589995416.69628,-0.31582235092488625,-4.527911175462443,8.571644701849772,0.4244444444444445,0.4955555555555556,-0.6488888888888888,0.00750361976242539,0.0625,0.0
1589995416.70628,-0.30290757848736916,-4.508369686050523,8.57489094184843,0.4244444444444445,0.4955555555555556,-0.6488888888888888,-0.41932763445394255,0.02615526890788515,0.018172365546057424
1589995416.71628,-0.31,-4.4952257529049096,8.643603035333175,0.4244444444444445,0.49321313203172346,-0.6479779464073986,-0.353039779464074,-0.07714014702395068,0.0625
1589995416.72628,-0.3076841794859193,-4.593789256401435,8.536210743598565,0.4244444444444445,0.4755555555555556,-0.6411111111111111,-0.11513060893497812,-0.1730261217869956,0.0625
1589995416.73628,-0.29362293736894884,-4.4790573434223715,8.638262375786306,0.4244444444444445,0.4755555555555556,-0.6411111111111111,0.3469265657762786,-0.05117832072203483,0.05117832072203483
1589995416.74628,-0.31,-4.505981819456453,8.568036361087092,0.4244444444444445,0.4755555555555556,-0.6411111111111111,-0.15011362839716774,0.0,-0.02190340709929194
1589995416.75628,-0.30467707647446146,-4.498630232339385,8.61733853823723,0.4244444444444445,0.4755555555555556,-0.6411111111111111,-0.34576827203461574,-0.016634136017307875,-0.0625
1589995416.76628,-0.29,-4.546685638141699,8.610662872371659,0.4244444444444445,0.4773232152133162,-0.6416266785112913,-0.4043563814169885,-0.05007114303137069,-0.0625
1589995416.77628,-0.29018854310453,-4.50018854310453,8.61924582758188,0.4244444444444445,0.5022222222222222,-0.6488888888888888,0.06721357761325135,0.12264321119337432,-0.060143211193374325
1589995416.78628,-0.3025209130866298,-4.50747908691337,8.58252091308663,0.4244444444444445,0.5022222222222222,-0.6488888888888888,0.3755228271657451,-0.01575570679143627,0.030988586417127463
1589995416.79628,-0.31,-4.494670291262136,8.600659417475729,0.4244444444444445,0.5022222222222222,-0.6488888888888888,0.4126019417475728,-0.07915533980582524,-0.07915533980582524
1589995416.80628,-0.31,-4.485185834301717,8.63,0.4244444444444445,0.5022222222222222,-0.6488888888888888,-0.09723439315718287,-0.09258853561427238,-0.09258853561427238
1589995416.81628,-0.31,-4.502887009557344,8.625188317404428,0.42636911748267387,0.5015806645428125,-0.6501720042477085,-0.3689853967555332,0.0,0.0
1589995416.8262799,-0.3127459059034064,-4.524508188193187,8.59647543542044,0.4444444444444444,0.4955555555555556,-0.6622222222222223,-0.17520470482968142,-0.017161911896289822,0.0
1589995416.8362799,-0.31841189397676817,-4.50205946988384,8.625707045790914,0.4444444444444444,0.4955555555555556,-0.6622222222222223,0.20735132529039782,-0.05257433735480109,0.0
1589995416.8462799,-0.3086715634837356,-4.463985309548793,8.55929905561385,0.4444444444444444,0.4955555555555556,-0.6622222222222223,0.28759181532004197,0.024908184679958027,0.008302728226652676
1589995416.8562799,-0.30240869565217393,-4.494817391304348,8.617591304347826,0.4444444444444444,0.4955555555555556,-0.6622222222222223,0.0045652173913043465,0.1875,0.03239130434782608
1589995416.8662798,-0.31,-4.511168257221546,8.609707935694614,0.44386031583367136,0.4949714269447825,-0.662449383348634,-0.37317459809133413,0.18567459809133413,-0.0625
1589995416.8762798,-0.30816969906824476,-4.540848495341224,8.601830300931756,0.4244444444444445,0.4755555555555556,-0.67,-0.2553030958826492,0.09068185752958952,-0.07393938082347015
1589995416.8862798,-0.30156824477461597,-4.50784122387308,8.608431755225384,0.4244444444444445,0.4755555555555556,-0.67,-0.04900764920674894,-0.03309541047595063,-0.1151984701586502
1589995416.8962798,-0.3,-4.506945626841811,8.541527186579094,0.4244444444444445,0.4755555555555556,-0.67,0.2690898322386795,0.03817966447735896,-0.07204491611933975
1589995416.9062798,-0.3,-4.490788535988752,8.549605732005626,0.4244444444444445,0.4755555555555556,-0.67,0.3700716500703018,0.24014330014060362,-0.1225358250351509
1589995416.9162798,-0.32981844543907207,-4.509878963626048,8.640060518186976,0.4244444444444445,0.4755555555555556,-0.6698722393830507,-0.18901295467439955,0.06136528399420034,0.0
1589995416.9262798,-0.3,-4.494848498963598,8.645151501036402,0.4244444444444445,0.4755555555555556,-0.6488888888888888,-0.3617422036937839,-0.06439376295502713,-0.030303118522486436
1589995416.9362798,-0.3023386656068359,-4.505322668786328,8.606613343931642,0.4244444444444445,0.4755555555555556,-0.6488888888888888,-0.05191669978637786,0.11038333995727558,-0.09576667991455115
1589995416.9462798,-0.3047399597204123,-4.4873699798602065,8.545780120838762,0.4244444444444445,0.4755555555555556,-0.6488888888888888,0.13818712237886507,0.07893762587371164,-0.016437625873711646
1589995416.9562798,-0.2921298589002869,-4.486389576700861,8.598519435601148,0.4244444444444445,0.4755555555555556,-0.6488888888888888,-0.02662323625358645,0.11168838187320677,-0.049188381873206774
1589995416.9662797,-0.29945722223813476,-4.509457222238135,8.631628333285596,0.424806296285688,0.4758570987565918,-0.6484667284074381,-0.1317847220233151,0.06589236101165755,0.0
1589995416.9762797,-0.29,-4.505362507510514,8.64212497496495,0.4311111111111111,0.4811111111111111,-0.6411111111111111,-0.26117189064690566,0.091484328059283,-0.011171890646905668
1589995416.9862797,-0.290592807937812,-4.529407192062188,8.559110788093282,0.4311111111111111,0.4811111111111111,-0.6411111111111111,-0.2995323263603615,-0.0625,-0.06064747519433736
1589995416.9962797,-0.3126662394987897,-4.51,8.543331197493949,0.4311111111111111,0.4811111111111111,-0.6411111111111111,0.20831998433717785,-0.029172006265128864,0.0
1589995417.0062797,-0.31805101950745873,-4.498306117044752,8.59559184394033,0.4311111111111111,0.4811111111111111,-0.6411111111111111,0.3644132315297025,0.025956615764851268,0.0
1589995417.0162797,-0.3106464824785948,-4.453878894871568,8.654828140171242,0.4311111111111111,0.4811111111111111,-0.6411111111111111,0.08674309294730337,-0.11287845352634832,0.0
1589995417.0262797,-0.3,-4.52,8.647284539591974,0.43666666666666665,0.4755555555555556,-0.6555555555555556,-0.09271689880852492,0.21026418622491788,-0.125
1589995417.0362797,-0.298122425321382,-4.52,8.586856977249674,0.43666666666666665,0.4755555555555556,-0.6555555555555556,-0.36709094955182475,0.05076515825863746,-0.10153031651727493
1589995417.0462797,-0.2912591024358467,-4.518111346346229,8.533147756089615,0.43666666666666665,0.4755555555555556,-0.6555555555555556,-0.05069591466393691,-0.0039346951120210315,-0.0039346951120210315
1589995417.0562797,-0.3096218878373164,-4.49,8.5822686729761,0.43666666666666665,0.4755555555555556,-0.6555555555555556,0.125,-0.055410396949683395,-0.060136798983227796
1589995417.0662796,-0.3001025850525408,-4.49,8.639384489684756,0.43666666666666665,0.4755555555555556,-0.6555555555555556,0.125,0.1230765302648601,-0.0006411565783799658
1589995417.0762796,-0.3250322775263952,-4.49,8.64,0.44871924473493097,0.49224374057315234,-0.6379402491480923,-0.03145173453996983,0.125,0.0
1589995417.0862796,-0.2969802797909995,-4.494529580313501,8.622822518118996,0.4511111111111111,0.4955555555555556,-0.6344444444444445,-0.35612674869374683,0.07193662565312658,-0.10612674869374684
1589995417.0962796,-0.2828413955840216,-4.515737906623968,8.495572560256194,0.4511111111111111,0.4955555555555556,-0.6344444444444445,-0.2677587224001349,0.11612063879993258,-0.017758722400134846
1589995417.1062796,-0.31,-4.5014792775863866,8.568875665518322,0.4511111111111111,0.4955555555555556,-0.6344444444444445,0.32174548491491806,0.0625,0.0625
1589995417.1162796,-0.31,-4.508777012214218,8.61266207328531,0.4511111111111111,0.4955555555555556,-0.6344444444444445,0.3673563263388663,0.0625,0.0625
1589995417.1262796,-0.3,-4.469457040431139,8.66369530637924,0.4244444444444445,0.4955555555555556,-0.67,-0.08220216756487263,0.04279783243512737,-0.10529783243512737
1589995417.1362796,-0.3014972307834913,-4.52,8.613530461381597,0.4244444444444445,0.4955555555555556,-0.67,-0.1968576923968206,-0.03442692280953816,-0.009357692396820615
1589995417.1462796,-0.31,-4.518772212869434,8.52245557426113,0.4244444444444445,0.4955555555555556,-0.67,-0.23465266086793865,0.08663165216984661,-0.04715266086793865
1589995417.1562796,-0.30873670990852137,-4.508105064862782,8.546316450457393,0.4244444444444445,0.4955555555555556,-0.67,-0.10920887385651697,-0.17565665539238773,0.05855221846412924
1589995417.1662796,-0.2967651382169514,-4.490147707325427,8.606174308915243,0.4244444444444445,0.4955555555555556,-0.67,0.04043577228810777,-0.06342317078391917,0.021141056927973058
1589995417.1762795,-0.2968211053773091,-4.4868211053773095,8.64682110537731,0.43808665519906265,0.4857028477883313,-0.6601472922327758,0.125,0.0,0.0
1589995417.1862795,-0.29118498453576985,-4.50118498453577,8.651112615981726,0.4444444444444444,0.4811111111111111,-0.6555555555555556,-0.19120307667428085,0.007406153348561725,-0.011109230022842588
1589995417.1962795,-0.30814227091714,-4.5181422709171395,8.52393296812145,0.4444444444444444,0.4811111111111111,-0.6555555555555556,-0.24419459661606258,0.11338919323212517,-0.17008378984818776
1589995417.2062795,-0.3,-4.483234032551854,8.592156021701236,0.4444444444444444,0.4811111111111111,-0.6555555555555556,-0.042287296550913685,0.1182624321836379,-0.0067375678163621045
1589995417.2162795,-0.3,-4.507878841295023,8.60858589419668,0.4444444444444444,0.4811111111111111,-0.6555555555555556,0.11174275809389506,0.06691908063536832,-0.05808091936463168
1589995417.2262795,-0.30775626239326614,-4.502243737606734,8.648781311966331,0.4237610780624014,0.487143759639207,-0.6503847139600447,0.125,0.014023360042086513,-0.014023360042086513
1589995417.2362795,-0.31,-4.491143252491632,8.626570242525103,0.4177777777777778,0.4888888888888889,-0.6488888888888888,-0.19226355204846762,0.05773644795153238,-0.06011822397576619
1589995417.2462795,-0.31,-4.514671927298566,8.555984218104301,0.4177777777777778,0.4888888888888889,-0.6488888888888888,-0.2902996970773575,-0.04029969707735746,-0.011100151461321268
1589995417.2562795,-0.30909430367689084,-4.500905696323109,8.559056963231093,0.4177777777777778,0.4888888888888889,-0.6488888888888888,-0.3523575919222709,0.0625,-0.06816060201943228
1589995417.2662795,-0.3011036387883406,-4.508896361211659,8.638963612116594,0.4177777777777778,0.4888888888888889,-0.6488888888888888,-0.1525909697085159,0.0625,-0.11810225757287102
1589995417.2762794,-0.2913882492581602,-4.48208237388724,8.65,0.4311111111111111,0.4811111111111111,-0.6411111111111111,0.0,0.05816172106824926,-0.008676557863501484
1589995417.2862794,-0.3107148070907195,-4.51,8.642137122002087,0.4311111111111111,0.4811111111111111,-0.6411111111111111,-0.004467544316996872,0.013402632950990616,-0.11606491136600626
1589995417.2962794,-0.3155531860045464,-4.512964542663636,8.541482271331818,0.4311111111111111,0.4811111111111111,-0.6411111111111111,-0.07176419582386163,0.14117902088069179,0.0
1589995417.3062794,-0.2908570422319542,-4.529142957768046,8.555142253391725,0.4311111111111111,0.4811111111111111,-0.6411111111111111,-0.11428697210057269,-0.11964348605028634,-0.005356513949713656
1589995417.3162794,-0.29727957614920525,-4.522720423850794,8.593677456895232,0.4311111111111111,0.4811111111111111,-0.6411111111111111,-0.034005298134934,-0.079502649067467,-0.045497350932533
1589995417.3262794,-0.3,-4.51046121676004,8.657693916199795,0.4183927334578325,0.4885301647421903,-0.6771465144620672,0.29808697624871777,0.056734790499487084,-0.0625
1589995417.3362794,-0.31,-4.51,8.666395310339455,0.4177777777777778,0.4888888888888889,-0.6788888888888889,0.05187133620269928,0.11968566810134965,-0.010628663797300719
1589995417.3462794,-0.31,-4.51,8.535698677624788,0.4177777777777778,0.4888888888888889,-0.6788888888888889,-0.050235408105634205,0.0686322959471829,-0.1127354081056342
1589995417.3562794,-0.290250884216254,-4.5105017684325075,8.561254421081271,0.4177777777777778,0.4888888888888889,-0.6788888888888889,-0.3734319736484123,-0.060931973648412296,-0.0625
1589995417.3662794,-0.29840180341249173,-4.526803606824983,8.602009017062459,0.4177777777777778,0.4888888888888889,-0.6788888888888889,-0.3224887286719266,-0.009988728671926628,-0.0625
1589995417.3762794,-0.28305790729807817,-4.496115814596156,8.635413139052883,0.44036723471367356,0.49453625312286287,-0.6647704783039541,0.005164238161035062,-0.05294403969350584,-0.009555960306494159
1589995417.3862793,-0.2988299855586189,-4.508829985558618,8.602340028882763,0.4444444444444444,0.4955555555555556,-0.6622222222222223,0.180187409741368,-0.0625,0.058843704870683994
1589995417.3962793,-0.2868397508118497,-4.51,8.567099377029624,0.4444444444444444,0.4955555555555556,-0.6622222222222223,0.06412266386109086,-0.0625,0.021374221287030287
1589995417.4062793,-0.2968481828607585,-4.51,8.54157590856962,0.4444444444444444,0.4955555555555556,-0.6622222222222223,-0.15795171431961086,-0.009849428560129714,0.0
1589995417.4162793,-0.3,-4.51,8.582830246465818,0.4444444444444444,0.4955555555555556,-0.6622222222222223,-0.1492587085126618,0.0,0.0382412914873382
1589995417.4262793,-0.2945695525291829,-4.51,8.615430447470816,0.4402207630782533,0.4877115758754864,-0.6507579442282749,0.010761186770428005,0.169701483463035,-0.03932089007782101
1589995417.4362793,-0.29819982327310396,-4.501800176726896,8.591300618544135,0.43666666666666665,0.4811111111111111,-0.6411111111111111,0.17624889545689998,0.1331288659008501,-0.07375110454310004
1589995417.4462793,-0.3094571602187563,-4.491085679562487,8.55271419890622,0.43666666666666665,0.4811111111111111,-0.6411111111111111,0.22625075957058943,-0.11821450273445412,0.0033927486327729388
1589995417.4562793,-0.3023774559449058,-4.505245088110188,8.58811272027547,0.43666666666666665,0.4811111111111111,-0.6411111111111111,-0.08348630241037064,-0.029718199311322677,0.04764090034433866
1589995417.4662793,-0.30709956930604754,-4.51,8.607099569306047,0.43666666666666665,0.4811111111111111,-0.6411111111111111,-0.23187230816279722,-0.08874461632559444,-0.02624461632559444
1589995417.4762793,-0.29680966767371597,-4.51,8.629785498489426,0.4330026854649211,0.4906374622356496,-0.6506374622356496,-0.20878021148036252,-0.125,0.10237915407854986
1589995417.4862792,-0.3084748455428067,-4.51,8.603050308914387,0.4311111111111111,0.4955555555555556,-0.6555555555555556,0.15890335392762578,-0.18273389232127096,0.01429832303618711
1589995417.4962792,-0.3017513995438524,-4.485254198631558,8.575254198631557,0.4311111111111111,0.4955555555555556,-0.6555555555555556,0.23905375285092267,-0.032838741447232006,0.05155375285092266
1589995417.5062792,-0.3,-4.489524838627122,8.579524838627123,0.4311111111111111,0.4955555555555556,-0.6555555555555556,0.07140927574146219,-0.11906048283902523,0.0625
1589995417.5162792,-0.3,-4.505593285965965,8.61118657193193,0.4311111111111111,0.4955555555555556,-0.6555555555555556,-0.08368705593092365,0.021187055930923654,-0.034958037287282445
1589995417.5262792,-0.29440112849448574,-4.515598871505514,8.62,0.427378530107435,0.48746829671425723,-0.6592881365592317,-0.09000705309053603,0.027507053090536034,0.042478840728391906
1589995417.5362792,-0.29,-4.513803084797344,8.638590745607967,0.4244444444444445,0.4811111111111111,-0.6622222222222223,0.0924228800663992,0.0,0.0475385599668004
1589995417.5462792,-0.3016185470245917,-4.4983814529754085,8.597716538389339,0.4244444444444445,0.4811111111111111,-0.6622222222222223,0.1875,-0.07261591890369813,0.0
1589995417.5562792,-0.2862232366486225,-4.49,8.59170235113517,0.4244444444444445,0.4811111111111111,-0.6622222222222223,0.038895229053890285,0.023604770946109715,0.0
1589995417.5662792,-0.3022475407606643,-4.49,8.622247540760664,0.4244444444444445,0.4811111111111111,-0.6622222222222223,-0.10428534731561372,-0.041785347315613716,0.034761782438537905
1589995417.5762792,-0.3091587979131635,-4.495420601043419,8.634579398956582,0.43106962349751127,0.4853271341448809,-0.6549947541643312,-0.2213787565213642,-0.1588787565213642,0.028621243478635795
1589995417.5862792,-0.29310756095414137,-4.506892439045859,8.636892439045859,0.43666666666666665,0.4888888888888889,-0.6488888888888888,-0.03461127981691753,-0.10134451192676701,0.043077744036616496
1589995417.5962791,-0.30956676161339103,-4.519783380806695,8.561732953546436,0.43666666666666665,0.4888888888888889,-0.6488888888888888,0.12364613004184688,-0.0625,0.12364613004184688
1589995417.6062791,-0.3171289092822273,-4.498613272153318,8.588515637128909,0.43666666666666665,0.4888888888888889,-0.6488888888888888,0.08044431698607923,-0.0625,0.03588863397215848
1589995417.6162791,-0.300122308941386,-4.503251794039076,8.619877691058614,0.43666666666666665,0.4888888888888889,-0.6488888888888888,-0.020323712744225023,-0.02108814362788749,0.04141185637211251
1589995417.626279,-0.3024013143856954,-4.516200657192847,8.636200657192848,0.44148940003888154,0.484066155516674,-0.6571564318126858,-0.10125410745529809,0.03875410745529809,-0.015008214910596174
1589995417.636279,-0.31,-4.503112712516616,8.606225425033232,0.4444444444444444,0.4811111111111111,-0.6622222222222223,-0.17777277338557335,0.0625,0.09581832015672007
1589995417.646279,-0.31,-4.5,8.526045513942652,0.4444444444444444,0.4811111111111111,-0.6622222222222223,0.04360776892921425,-0.053053884464607126,0.125
1589995417.656279,-0.2914314029850746,-4.472147104477612,8.55713719402985,0.4444444444444444,0.4811111111111111,-0.6622222222222223,0.004473134328358212,-0.004473134328358212,0.06697313432835822
1589995417.666279,-0.30498268831268754,-4.4924740324690315,8.612439409094407,0.4444444444444444,0.4811111111111111,-0.6622222222222223,-0.046820900977148576,0.09364180195429715,0.0625
1589995417.676279,-0.31,-4.509429979117724,8.648859958235448,0.4444444444444444,0.4811111111111111,-0.6423144885292497,-0.003562630514226048,0.125,0.003562630514226048
1589995417.686279,-0.31,-4.51,8.63112553706008,0.4444444444444444,0.4811111111111111,-0.6411111111111111,-0.05898269668724907,0.125,-0.11796539337449814
1589995417.696279,-0.2981651952715846,-4.498165195271585,8.570825976357924,0.4444444444444444,0.4811111111111111,-0.6411111111111111,0.01146752955259614,-0.02293505910519228,-0.08801623522370193
1589995417.706279,-0.30056047835170374,-4.500560478351704,8.566961674230964,0.4444444444444444,0.4811111111111111,-0.6411111111111111,0.12850298969814855,-0.125,-0.0625
1589995417.716279,-0.31,-4.514669537903565,8.628017227421392,0.4444444444444444,0.4811111111111111,-0.6411111111111111,0.12913077620543376,-0.09581538810271688,-0.03331538810271688
1589995417.726279,-0.30311216309078415,-4.516556081545391,8.66,0.4375566075352286,0.4811111111111111,-0.6460856599899892,0.019451019317400932,0.023597961365198136,-0.021524490341299534
1589995417.736279,-0.30516561562480865,-4.51,8.614503153125574,0.4244444444444445,0.4811111111111111,-0.6555555555555556,-0.0625,-0.0020701953101083526,-0.015107451172472912
1589995417.746279,-0.2916596638655462,-4.51,8.517468487394957,0.4244444444444445,0.4811111111111111,-0.6555555555555556,-0.0625,-0.005186449579831935,0.057313550420168065
1589995417.756279,-0.29632910980098365,-4.51,8.535316439203935,0.4244444444444445,0.4811111111111111,-0.6555555555555556,0.09572774502459203,0.0,-0.016613872512296013
1589995417.766279,-0.30545978952107605,-4.493620631436772,8.599138105689685,0.4244444444444445,0.4811111111111111,-0.6555555555555556,0.1533763154932748,-0.0341236845067252,0.005747369013450396
1589995417.776279,-0.31,-4.496331765351108,8.64,0.4280737256335797,0.4853452724984355,-0.6591848367446907,0.02292646655557197,-0.13054902229628534,0.0625
1589995417.786279,-0.31,-4.51,8.64,0.4311111111111111,0.4888888888888889,-0.6622222222222223,-0.01141317449475672,-0.08532634898951344,-0.03967365101048656
1589995417.796279,-0.31,-4.51,8.54015339433509,0.4311111111111111,0.4888888888888889,-0.6622222222222223,0.0,-0.17596205189194436,0.050962051891944374
1589995417.806279,-0.31,-4.501534978693182,8.589255149147727,0.4311111111111111,0.4888888888888889,-0.6622222222222223,0.10581276633522728,-0.028780850497159116,0.0625
1589995417.816279,-0.3166595052949788,-4.5,8.633297526474895,0.4311111111111111,0.4888888888888889,-0.6622222222222223,0.1666219080936175,-0.0416219080936175,-0.020743816187235004
1589995417.826279,-0.3123862926402599,-4.4847725852805205,8.65761370735974,0.43534094853318894,0.49904049870187567,-0.6520706124092354,-0.05042835499187806,-0.014914329001624385,0.03267134199675123
1589995417.836279,-0.29327123768653074,-4.496728762313469,8.66,0.43666666666666665,0.5022222222222222,-0.6488888888888888,-0.125,-0.15683214668877402,0.010222617770408664
1589995417.846279,-0.31457170087635694,-4.508190566958786,8.561713196494571,0.43666666666666665,0.5022222222222222,-0.6488888888888888,-0.022617913015179333,-0.13630895650758967,0.05119104349241033
1589995417.856279,-0.32,-4.503140625313761,8.567437498744955,0.43666666666666665,0.5022222222222222,-0.6488888888888888,0.04287109178899175,-0.039257816422016506,-0.06611327536697523
1589995417.866279,-0.31585191610156127,-4.5,8.600740419492194,0.43666666666666665,0.5022222222222222,-0.6488888888888888,-0.015276573095726234,0.0,-0.125
1589995417.8762789,-0.3080395654288957,-4.501960434571104,8.633920869142209,0.4342705799686503,0.49960830946074986,-0.650195845269625,-0.07598913572239338,0.012252716069401655,-0.08824185179179503
1589995417.8862789,-0.30788580191875603,-4.517885801918756,8.602685188487463,0.4244444444444445,0.4888888888888889,-0.6555555555555556,-0.1707175719533507,-0.08535878597667534,0.0625
1589995417.8962789,-0.29521248203654277,-4.52,8.560424964073086,0.4244444444444445,0.4888888888888889,-0.6555555555555556,-0.06515602545678506,0.01363298090741119,0.016289006364196265
1589995417.9062788,-0.29,-4.514779659806878,8.560440680386243,0.4244444444444445,0.4888888888888889,-0.6555555555555556,0.0,0.16038137862102203,0.0
1589995417.9162788,-0.294582237935515,-4.51,8.58832895174206,0.4244444444444445,0.4888888888888889,-0.6555555555555556,0.0572779741939383,0.16408303870909255,0.0
1589995417.9262788,-0.2954226788403255,-4.5054226788403255,8.623731963479024,0.4300389480840466,0.47973424656954,-0.6555555555555556,0.15360825724796523,0.0625,0.057216514495930466
1589995417.9362788,-0.295655253342274,-4.505655253342274,8.656965760026821,0.43666666666666665,0.4688888888888889,-0.6555555555555556,0.04611866644314991,-0.008190666778425046,-0.016381333556850092
1589995417.9462788,-0.2926002999625047,-4.51,8.581203599550056,0.43666666666666665,0.4688888888888889,-0.6555555555555556,-0.0625,-0.15499625046869142,-0.03250374953130858
1589995417.9562788,-0.30682915518699366,-4.501585422406503,8.583658310373988,0.43666666666666665,0.4688888888888889,-0.6555555555555556,0.04268221991871027,-0.08231778008128973,0.10518221991871027
1589995417.9662788,-0.3041567745900314,-4.5,8.607529676229905,0.43666666666666665,0.4688888888888889,-0.6555555555555556,0.025979841187696084,-0.025979841187696084,0.125
1589995417.9762788,-0.30579813631332786,-4.488403727373345,8.643192545253312,0.43666666666666665,0.47275431309777416,-0.6388053839837196,-0.03623835195829912,-0.03623835195829912,0.052523296083401755
1589995417.9862788,-0.31553083070606347,-4.491061661412127,8.637876677175745,0.43666666666666665,0.4755555555555556,-0.6266666666666667,-0.0625,-0.02793230808710316,-0.03456769191289684
1589995417.9962788,-0.2998203546941433,-4.506726548435285,8.559461064082429,0.43666666666666665,0.4755555555555556,-0.6266666666666667,-0.0625,0.0,-0.02045907227946528
1589995418.0062788,-0.3054655120516798,-4.50226724397416,8.56093102410336,0.43666666666666665,0.4755555555555556,-0.6266666666666667,-0.11082972516149946,-0.14498917548449838,0.0
1589995418.0162787,-0.30571462845718095,-4.5,8.595712229256915,0.43666666666666665,0.4755555555555556,-0.6266666666666667,-0.04464928357214262,-0.10714928357214262,0.026783572142619127
1589995418.0262787,-0.30012409196934353,-4.5,8.62925544818394,0.43666666666666665,0.4755555555555556,-0.6266666666666667,0.060173275574808394,-0.0023267244251916064,0.061724425191602796
1589995418.0362787,-0.30623424792885917,-4.512468495857718,8.648702743786577,0.424890865023266,0.479019026627144,-0.6536817410250564,0.14042809911073953,0.038964049555369765,0.023535950444630235
1589995418.0462787,-0.31,-4.511876995860438,8.615323477232407,0.4177777777777778,0.4811111111111111,-0.67,0.16211561206386754,-0.0136531638083974,0.0
1589995418.0562787,-0.31,-4.506515497426769,8.589092984560615,0.4177777777777778,0.4811111111111111,-0.67,0.08427814108269163,-0.08427814108269163,-0.04072185891730837
1589995418.0662787,-0.3039320585092664,-4.4978641170185325,8.61,0.4177777777777778,0.4811111111111111,-0.67,0.0625,-0.0625,-0.10042463431708486
1589995418.0762787,-0.3,-4.497775848401344,8.617775848401344,0.4251216346012692,0.48672700162319277,-0.666976058955033,0.013900947491600923,-0.03820047374580046,-0.07640094749160092
1589995418.0862787,-0.3,-4.506353928299008,8.644584286803967,0.43666666666666665,0.4955555555555556,-0.6622222222222223,-0.039712051868802445,0.0,0.0
1589995418.0962787,-0.3,-4.486095253808503,8.565714403563769,0.43666666666666665,0.4955555555555556,-0.6622222222222223,-0.04345233184842985,0.0,0.0
1589995418.1062787,-0.3,-4.49819468191734,8.550324469862232,0.43666666666666665,0.4955555555555556,-0.6622222222222223,-0.02459441267220879,-0.03790558732779121,0.0
1589995418.1162786,-0.3049154594788537,-4.5001690810422925,8.589661837915415,0.43666666666666665,0.4955555555555556,-0.6622222222222223,-0.03072162174283536,-0.03177837825716464,-0.03072162174283536
1589995418.1262786,-0.2973980576174749,-4.508902913573787,8.641504855956313,0.4289654796551236,0.4913549080947139,-0.6580215747613806,-0.02311893005460907,0.03938106994539093,0.01626213989078186
1589995418.1362786,-0.3005131109280615,-4.504230333607907,8.64948688907194,0.4244444444444445,0.4888888888888889,-0.6555555555555556,0.0328534716501922,-0.0360604149505766,0.0953534716501922
1589995418.1462786,-0.31,-4.495603573247659,8.578360694275752,0.4244444444444445,0.4888888888888889,-0.6555555555555556,0.0975223327978686,-0.054955334404262826,0.054955334404262826
1589995418.1562786,-0.31,-4.5,8.555707926094524,0.4244444444444445,0.4888888888888889,-0.6555555555555556,0.09286509238184495,0.06426981523631008,0.03213490761815504
1589995418.1662786,-0.30616289781000205,-4.5,8.603022613139988,0.4244444444444445,0.4888888888888889,-0.6555555555555556,0.014536222625025998,0.0050905565625650046,0.038518111312512995
1589995418.1762786,-0.3042760053240834,-4.5,8.635723994675917,0.43584712530866687,0.4888888888888889,-0.6493791034207684,-0.035774966724478684,-0.13404993344895738,-0.026725033275521316
1589995418.1862786,-0.3047259927657423,-4.489451985531485,8.640548014468516,0.4511111111111111,0.4888888888888889,-0.6411111111111111,0.0,-0.0625,-0.02953745478588931
1589995418.1962786,-0.29278137190763487,-4.5016558842770955,8.563376462891618,0.4511111111111111,0.4888888888888889,-0.6411111111111111,0.09023285115456374,-0.10761642557728188,-0.04511642557728187
1589995418.2062786,-0.30399228366709535,-4.503003858166452,8.578972992834833,0.4511111111111111,0.4888888888888889,-0.6411111111111111,0.125,-0.08127411354032701,0.024951772919345958
1589995418.2162786,-0.31,-4.50560871339461,8.60560871339461,0.4511111111111111,0.4888888888888889,-0.6411111111111111,0.019836623851071683,-0.02744554128369056,0.0625
1589995418.2262785,-0.31,-4.504058660933661,8.639706695331695,0.44252917690417687,0.4888888888888889,-0.653653938028938,-0.0625,-0.037133369164619165,0.025366630835380835
1589995418.2362785,-0.31,-4.494057095573025,8.624342573438147,0.43666666666666665,0.4888888888888889,-0.6622222222222223,0.048929458005792306,-0.09964315266859744,-0.1114294580057923
1589995418.2462785,-0.31,-4.49,8.577517618632122,0.43666666666666665,0.4888888888888889,-0.6622222222222223,0.05474255822538425,-0.0781617054835895,-0.07040426370897376
