time,acc_x,acc_y,acc_z,mag_x,mag_y,mag_z,gyr_x,gyr_y,gyr_z
1589996557.3730204,-3.86,-0.89,8.92,0.3322222222222222,-0.3655555555555556,-0.6111111111111112,0.125,-0.3125,0.0
1589996557.3830204,-3.8641460645161287,-0.85,8.860365161290323,0.3322222222222222,-0.3655555555555556,-0.6111111111111112,-0.08841290322580644,-0.15091290322580644,-0.0625
1589996557.3930204,-3.876351819053345,-0.8554722714199827,8.9,0.3322222222222222,-0.3655555555555556,-0.6111111111111112,-0.1418977381668102,-0.28420169637489234,-0.0625
1589996557.4030204,-3.862721349300489,-0.8759179760492664,8.9,0.3322222222222222,-0.3655555555555556,-0.6111111111111112,0.02848313374388639,-0.4119873503079148,-0.0625
1589996557.4130204,-3.8619484346224677,-0.8777937384898711,8.935845303867403,0.3244444444444444,-0.3477777777777778,-0.5955555555555555,0.050322283609576426,-0.4375,-0.0625
1589996557.4230204,-3.87,-0.9004182151269301,8.936045537817327,0.3244444444444444,-0.3477777777777778,-0.5955555555555555,0.04491461659251505,-0.4375,-0.09244307772834337
1589996557.4330204,-3.8644679846309056,-0.87,8.884894069160923,0.3244444444444444,-0.3477777777777778,-0.5955555555555555,0.20478754802841995,-0.5412252881705197,-0.20478754802841995
1589996557.4430203,-3.848343982318666,-0.8683439823186658,8.951656017681334,0.3244444444444444,-0.3477777777777778,-0.5955555555555555,0.2292997789833233,-0.7917997789833233,-0.2292997789833233
1589996557.4530203,-3.8401001037219284,-0.86,8.960200207443858,0.32437770862982523,-0.34790012677124627,-0.5955555555555555,0.12437435173794534,-0.6812435173794534,-0.125
1589996557.4630203,-3.8502935809710004,-0.86,8.980293580971,0.31777777777777777,-0.36,-0.5955555555555555,0.06983952427500814,-0.06800464320625611,-0.12683488106875204
1589996557.4730203,-3.8625333500083374,-0.86,8.957066449891613,0.31777777777777777,-0.36,-0.5955555555555555,0.29666656244789064,-0.2816668751042188,-0.1875
1589996557.4830203,-3.866974220816135,-0.8615128895919325,8.86605155836773,0.31777777777777777,-0.36,-0.5955555555555555,0.2594555599495786,-0.4317333596974715,-0.15913332015126425
1589996557.4930203,-3.8514958105503325,-0.8729916211006647,8.898504189449667,0.31777777777777777,-0.36,-0.5955555555555555,0.30315118406042246,-0.7686976318791551,-0.009348815939577515
1589996557.5030203,-3.8597454860154987,-0.889490972030998,8.890254513984502,0.31777777777777777,-0.36,-0.5955555555555555,0.25159071240313124,-0.8718185751937375,-0.060909287596868734
1589996557.5130203,-3.8521184682501213,-0.8742369365002424,8.913644595249636,0.3291622125276027,-0.35474564550008075,-0.6008099100554748,0.3977787203102278,-0.8257404265632574,-0.013240426563257392
1589996557.5230203,-3.8391492267309872,-0.86,8.945746133654938,0.3322222222222222,-0.3533333333333333,-0.6022222222222222,-0.010634665862656073,-0.11436533413734393,-0.16623066827468785
1589996557.5330203,-3.83171041430193,-0.86,8.908552071509648,0.3322222222222222,-0.3533333333333333,-0.6022222222222222,-0.10361982122587968,-0.021380178774120323,0.019739642451759354
1589996557.5430202,-3.8424092816588495,-0.8560232041471242,8.919637126635399,0.3322222222222222,-0.3533333333333333,-0.6022222222222222,-0.1174709948160948,0.04744198963218958,-0.015058010367810418
1589996557.5530202,-3.857200338540748,-0.8930008463518708,8.978801354162993,0.3322222222222222,-0.3533333333333333,-0.6022222222222222,-0.07124894206016151,-0.04500211587967698,-0.10750211587967698
1589996557.5630202,-3.851165716823329,-0.8888342831766709,8.967668566353343,0.3322222222222222,-0.3533333333333333,-0.5966666666666667,0.014571460291614241,0.05521426985419288,-0.014571460291614241
1589996557.5730202,-3.858926615350455,-0.8810733846495448,8.95214676929909,0.3322222222222222,-0.3533333333333333,-0.5966666666666667,0.11158269188068981,0.006708654059655095,-0.11158269188068981
1589996557.5830202,-3.861843467668257,-0.841843467668257,8.834747741346057,0.3322222222222222,-0.3533333333333333,-0.5966666666666667,0.10195665414678713,0.050978327073393566,0.050978327073393566
1589996557.5930202,-3.868939701553142,-0.8489397015531418,8.891517612425135,0.3322222222222222,-0.3533333333333333,-0.5966666666666667,0.013253730585727347,0.006626865292863673,0.006626865292863673
1589996557.6030202,-3.848982385169766,-0.85,8.9,0.3322222222222222,-0.3533333333333333,-0.5966666666666667,-0.13136009268896176,0.04378669756298725,0.0
1589996557.6130202,-3.858595709111173,-0.8407021454444135,8.937191418222346,0.3136265131110492,-0.3533333333333333,-0.5822033373579766,-0.1875,-0.1699463638896629,0.05811159097241572
1589996557.6230202,-3.8662120054233946,-0.8737879945766055,8.91242401084679,0.31222222222222223,-0.3533333333333333,-0.5811111111111111,-0.21117496610378406,0.05066251694810797,-0.06581258474053987
1589996557.6330202,-3.8478272546339594,-0.89,8.895209217562286,0.31222222222222223,-0.3533333333333333,-0.5811111111111111,-0.2717610243867348,0.0,0.16034068292448983
1589996557.6430202,-3.8414860913608257,-0.8885139086391742,8.954458274082477,0.31222222222222223,-0.3533333333333333,-0.5811111111111111,-0.11571192899483919,0.018576142010321633,0.0625
1589996557.6530201,-3.848187642801221,-0.8818123571987793,8.974562928403662,0.31222222222222223,-0.3533333333333333,-0.5811111111111111,-0.07382723249237061,0.10234553501525877,0.0625
1589996557.6630201,-3.841494093120222,-0.88,8.997011813759554,0.31222222222222223,-0.36372944174195043,-0.5933974210485676,-0.16882383599722028,0.2844857539958304,-0.1501476719944406
1589996557.6730201,-3.8584561031619855,-0.8707719484190073,9.009228051580992,0.31222222222222223,-0.3655555555555556,-0.5955555555555555,-0.12982467761879526,0.4855259671436142,0.04320128952481894
1589996557.68302,-3.86,-0.8533661147765468,8.862244076517698,0.31222222222222223,-0.3655555555555556,-0.5955555555555555,0.11097452176438856,0.18048726088219427,0.0625
1589996557.69302,-3.86,-0.8794727997012324,8.879648533134155,0.31222222222222223,-0.3655555555555556,-0.5955555555555555,0.0021966679115315996,0.1260983339557658,0.0625
1589996557.70302,-3.8533285714285714,-0.8599857142857142,8.886671428571429,0.31222222222222223,-0.3655555555555556,-0.5955555555555555,-0.04169642857142857,0.041607142857142856,0.020803571428571428
1589996557.71302,-3.85,-0.8583648068669528,8.898364806866953,0.3168693371483071,-0.36090844062947064,-0.5890495946590367,-0.0625,-0.052280042918454936,-0.052280042918454936
1589996557.72302,-3.874431788765208,-0.86,8.95700750711882,0.31777777777777777,-0.36,-0.5877777777777777,-0.11339955992751746,-0.26609823971006985,-0.01160044007248253
1589996557.73302,-3.8609105448154657,-0.8609105448154657,8.885463268892796,0.31777777777777777,-0.36,-0.5877777777777777,-0.13069090509666081,-0.25,0.034045474516695956
1589996557.74302,-3.8682818980667837,-0.8682818980667838,8.929691388400702,0.31777777777777777,-0.36,-0.5877777777777777,-0.17676186291739895,-0.25,-0.19630931458699474
1589996557.75302,-3.851536033062595,-0.8607680165312975,9.01385586774962,0.31777777777777777,-0.36,-0.5877777777777777,0.04329958671756162,-0.1923001033206096,-0.07690030996182878
1589996557.76302,-3.85853092615525,-0.8770618523104999,9.011469073844749,0.3130383743581945,-0.37137456820699993,-0.6001002266686943,0.0625,-0.0808634230593756,-0.1158182884703122
1589996557.77302,-3.872068949221427,-0.8689655253892866,8.940689728503578,0.31222222222222223,-0.37333333333333335,-0.6022222222222222,0.11853453368304151,-0.09482733158479242,-0.299569067366083
1589996557.78302,-3.8880117802023015,-0.8590058901011507,8.85701767030345,0.31222222222222223,-0.37333333333333335,-0.6022222222222222,0.06871318686780824,-0.3936395606034247,-0.1688604393965753
1589996557.79302,-3.87,-0.85,8.834346931779224,0.31222222222222223,-0.37333333333333335,-0.6022222222222222,0.11141583818992115,-0.5285395954748029,0.027168323620157697
1589996557.80302,-3.87,-0.85,8.866299851445548,0.31222222222222223,-0.37333333333333335,-0.6022222222222222,0.011562964232659123,-0.2789074105816478,0.22687407153468175
1589996557.81302,-3.841187028445569,-0.85,8.920593514222784,0.31777777777777777,-0.3655555555555556,-0.5877777777777777,-0.3125,-0.1287094638924036,0.05137160832278926
1589996557.82302,-3.8590674757533323,-0.8509325242466677,8.928601213629998,0.31777777777777777,-0.3655555555555556,-0.5877777777777777,-0.3095858617291634,-0.1875,-0.12208586172916343
1589996557.83302,-3.842479354668837,-0.867520645331163,8.908677741340929,0.31777777777777777,-0.3655555555555556,-0.5877777777777777,-0.22675604997965387,-0.20299596668023076,-0.0625
1589996557.84302,-3.8592428963993313,-0.8507571036006686,8.973028414402675,0.31777777777777777,-0.3655555555555556,-0.5877777777777777,-0.06723189750417859,-0.3125,-0.0625
1589996557.85302,-3.8533017932519336,-0.8566982067480665,8.996792826992266,0.31777777777777777,-0.3655555555555556,-0.5877777777777777,-0.10436379217541573,-0.3125,-0.0625
1589996557.86302,-3.8221615059948455,-0.86,8.996080752997424,0.32241752677863683,-0.3531828915532647,-0.5877777777777777,-0.125,-0.1385094124677847,-0.0625
1589996557.87302,-3.8372319342624666,-0.86,8.9083041972126,0.3244444444444444,-0.3477777777777778,-0.5877777777777777,-0.0682668036198609,0.16443278552055643,-0.0625
1589996557.88302,-3.84,-0.8881441688452465,8.830927915577377,0.3244444444444444,-0.3477777777777778,-0.5877777777777777,-0.08569788943441943,0.017398417075814576,0.05670052764139514
1589996557.89302,-3.84,-0.8747720461646369,8.837613976917682,0.3244444444444444,-0.3477777777777778,-0.5877777777777777,-0.25284942294203916,0.14276206720652937,0.014912644264490217
1589996557.90302,-3.847938026013772,-0.862061973986228,8.87969013006886,0.3244444444444444,-0.3477777777777778,-0.5877777777777777,-0.3125,0.137887337413925,0.09922532517214996
1589996557.91302,-3.8432735184258155,-0.8667264815741846,8.943811852593477,0.319960123394988,-0.3559990330351145,-0.5930094856688102,-0.22841898032269245,0.125,-0.08520254919326889
1589996557.92302,-3.8579865142609884,-0.8610067428695056,8.95201348573901,0.31777777777777777,-0.36,-0.5955555555555555,-0.1875,0.18120785706558973,-0.07508428586882054
1589996557.9330199,-3.8596486683777993,-0.8607026632444015,8.903161984599807,0.31777777777777777,-0.36,-0.5955555555555555,-0.1831083547224904,0.0625,0.0603041773612452
1589996557.9430199,-3.85,-0.8796606545021122,8.990678690995775,0.31777777777777777,-0.36,-0.5955555555555555,-0.0625,0.059318635957301365,0.0021209093617990922
1589996557.9530199,-3.85,-0.864956968326585,9.02008606334683,0.31777777777777777,-0.36,-0.5955555555555555,-0.0625,-0.07852842193826576,0.09401894795884384
1589996557.9630198,-3.840237710674157,-0.8697622893258427,8.990950842696629,0.3383870552434457,-0.3480683130461923,-0.5814544709737828,0.059528616573033724,0.11905723314606745,0.18601430828651686
1589996557.9730198,-3.84,-0.8978786650452641,8.999292888348421,0.3388888888888889,-0.3477777777777778,-0.5811111111111111,0.004419447822366349,0.2411611043552673,0.0713388956447327
1589996557.9830198,-3.850425729442971,-0.8602838196286472,8.800425729442972,0.3388888888888889,-0.3477777777777778,-0.5811111111111111,-0.12677387267904508,-0.18661306366047745,-0.0642738726790451
1589996557.9930198,-3.878239389920424,-0.8788262599469496,8.828239389920425,0.3388888888888889,-0.3477777777777778,-0.5811111111111111,-0.242664124668435,-0.1286679376657825,-0.180164124668435
1589996558.0030198,-3.857081745352726,-0.864721163568484,8.883475927510306,0.3388888888888889,-0.3477777777777778,-0.5811111111111111,-0.2022536361515128,-0.1727463638484872,-0.1397536361515128
1589996558.0130198,-3.8749716164980414,-0.86,8.931214520622552,0.3298713607090406,-0.3512460578469502,-0.585273047194118,-0.22651815077818974,-0.031427396887241055,-0.007945547665430763
1589996558.0230198,-3.8708988197851744,-0.86,8.94363293992839,0.3244444444444444,-0.3533333333333333,-0.5877777777777777,-0.25,-0.056882376342660135,-0.056882376342660135
1589996558.0330198,-3.86,-0.8673493442964196,8.895903934221483,0.3244444444444444,-0.3533333333333333,-0.5877777777777777,-0.20406659814737718,-0.17093340185262282,-0.125
1589996558.0430198,-3.854202782138815,-0.8757972178611851,8.897391653583556,0.3244444444444444,-0.3533333333333333,-0.5877777777777777,-0.07880216510277849,-0.11503477673518565,-0.16123261163240718
1589996558.0530198,-3.8435712829573254,-0.8928574340853493,8.961429736341398,0.3244444444444444,-0.3533333333333333,-0.5877777777777777,-0.1205384445501495,0.017858963033432998,-0.0669615554498505
1589996558.0630198,-3.84,-0.8885510308151817,9.007173453777227,0.33589341362926267,-0.3533333333333333,-0.5877777777777777,-0.04438788518977199,0.098278028702557,-0.035778028702557
1589996558.0730197,-3.846742241694049,-0.88,9.006515516611902,0.34444444444444444,-0.3533333333333333,-0.5877777777777777,0.0625,-0.0014170317634173146,-0.020360989412194233
1589996558.0830197,-3.875833876646238,-0.8627774155691745,8.87083061676881,0.34444444444444444,-0.3533333333333333,-0.5877777777777777,0.008679423653670623,-0.008679423653670623,-0.16146172903898814
1589996558.0930197,-3.849659642830457,-0.8498298214152282,8.9,0.34444444444444444,-0.3533333333333333,-0.5877777777777777,0.055054686916237015,-0.12606361615482328,-0.06356361615482328
1589996558.1030197,-3.833989389524023,-0.8419946947620115,8.9,0.34444444444444444,-0.3533333333333333,-0.5877777777777777,-0.2877321041619965,-0.17503315773742809,-0.11253315773742809
1589996558.1130197,-3.849978912390568,-0.849989456195284,8.939957824781136,0.3122561967040848,-0.36554266868312496,-0.5877777777777777,-0.3125658987794747,-0.06263179755894945,-0.00013179755894944523
1589996558.1230197,-3.85,-0.8709138693901992,8.877258391829402,0.31222222222222223,-0.3655555555555556,-0.5877777777777777,-0.3125,-0.0625,0.0
1589996558.1330197,-3.866876422070535,-0.8546853668941979,8.807808944823664,0.31222222222222223,-0.3655555555555556,-0.5877777777777777,-0.36523881897042093,-0.11523881897042093,-0.05273881897042093
1589996558.1430197,-3.8412201727045114,-0.8787798272954882,8.847966378825813,0.31222222222222223,-0.3655555555555556,-0.5877777777777777,-0.015252158806397242,0.05487392059680138,-0.002542026467732869
1589996558.1530197,-3.84,-0.8879025087640273,8.929025087640273,0.31222222222222223,-0.3655555555555556,-0.5877777777777777,0.14817203932551262,-0.03628135955034176,-0.04939067977517088
1589996558.1630197,-3.852308086380832,-0.8776919136191678,8.999232345523328,0.31974383056606415,-0.3655555555555556,-0.5877777777777777,0.07211169017969735,0.01442553988020176,-0.02403723005989912
1589996558.1730196,-3.844372430134504,-0.862186215067252,9.03,0.3244444444444444,-0.3655555555555556,-0.5877777777777777,0.09767231165934909,0.1601723116593491,-0.09767231165934909
1589996558.1830196,-3.8309510883352784,-0.86,8.92141306002334,0.3244444444444444,-0.3655555555555556,-0.5877777777777777,-0.27088988533157443,0.5833898853315744,0.04466709371353189
1589996558.1930196,-3.8670893553660157,-0.8661815592276693,8.940907796138347,0.3244444444444444,-0.3655555555555556,-0.5877777777777777,-0.4670389806917312,0.9727127065563954,0.023865254827067188
1589996558.2030196,-3.8791175424030366,-0.87,8.92735262720911,0.3244444444444444,-0.3655555555555556,-0.5877777777777777,-0.4604769600284664,1.0854769600284664,0.03400767999051121
1589996558.2130196,-3.8646622870459657,-0.8753377129540341,8.905337712954035,0.3244444444444444,-0.36970711007535983,-0.592522411514697,-0.40836070596271296,0.6663929403728704,0.02913929403728705
1589996558.2230196,-3.8447333469138316,-0.8647333469138317,8.894733346913831,0.3244444444444444,-0.37333333333333335,-0.5966666666666667,-0.24666683642289672,0.13645854552862088,0.0
1589996558.2330196,-3.8557987014406576,-0.86,8.81100649279671,0.3244444444444444,-0.37333333333333335,-0.5966666666666667,-0.08875811599589009,0.1612418840041099,-0.049370942002054954
1589996558.2430196,-3.8416497829232994,-0.8691751085383502,8.909276410998553,0.3244444444444444,-0.37333333333333335,-0.5966666666666667,0.05218885672937772,0.07281114327062228,-0.11984442836468887
1589996558.2530196,-3.84,-0.8772234044521752,8.948893617808702,0.3244444444444444,-0.37333333333333335,-0.5966666666666667,0.10764627782609501,-0.027792555652190007,-0.21529255565219002
1589996558.2630196,-3.857952682439187,-0.8889763412195935,9.040787070976341,0.313473360731608,-0.35538065089414633,-0.5956692954200451,0.18110213262245917,0.1619085304898367,-0.025591469510163306
1589996558.2730196,-3.8666189316668653,-0.8833810683331347,9.036762136666269,0.31222222222222223,-0.3533333333333333,-0.5955555555555555,0.1461316770820917,0.1461316770820917,-0.16547329167163316
1589996558.2830195,-3.8443988099837725,-0.88,8.944662699945908,0.31222222222222223,-0.3533333333333333,-0.5955555555555555,-0.08834325013522912,-0.08834325013522912,-0.08999256239857817
1589996558.2930195,-3.855243651475495,-0.88,8.914756348524506,0.31222222222222223,-0.3533333333333333,-0.5955555555555555,-0.029727178278156283,0.16081846516553117,-0.0625
1589996558.3030195,-3.853627087001718,-0.8736270870017184,8.91,0.31222222222222223,-0.3533333333333333,-0.5955555555555555,0.03983070623926003,0.1305078812822199,0.017161412478520058
1589996558.3130195,-3.8398455125061304,-0.8801544874938696,8.915077243746936,0.3184277423573647,-0.3533333333333333,-0.5955555555555555,0.030767226581657675,0.15769832025502697,-0.0644310936733693
1589996558.3230195,-3.7877893368010405,-0.8477893368010403,8.85668400520156,0.3244444444444444,-0.3533333333333333,-0.5955555555555555,-0.1758777633289987,0.20603055916775032,-0.23146944083224968
1589996558.3330195,-3.8398419784400764,-0.9260327203551045,8.864920989220037,0.3244444444444444,-0.3533333333333333,-0.5955555555555555,-0.30456404565630946,1.0059606848446419,-0.41369213696892837
1589996558.3430195,-3.9121969642298717,-0.8866883163743956,8.90554112241707,0.3244444444444444,-0.3533333333333333,-0.5955555555555555,-0.4235660075533425,1.624797033990041,-0.659632015106685
1589996558.3530195,-3.898621117775146,-0.8657474118500974,8.938505176299804,0.3244444444444444,-0.3533333333333333,-0.5955555555555555,-0.21480331015777207,0.841252578599534,-0.9547360278106736
1589996558.3630195,-3.8981712133179416,-0.8518287866820584,8.966342426635883,0.3144574059447381,-0.3587808088786277,-0.5892001674193788,-0.022859833525730594,0.2446495838143265,-0.7050094173400572
1589996558.3730195,-3.9286113655370154,-0.8643056827685078,8.991458524152762,0.31222222222222223,-0.36,-0.5877777777777777,-0.08941051730317391,0.41102629325793477,-0.31206318943889133
1589996558.3830194,-3.892756066993278,-0.8542520223310927,8.858268200979834,0.31222222222222223,-0.36,-0.5877777777777777,-0.02657513956932893,0.3523627093539934,-0.28592486043067106
1589996558.3930194,-3.860505286567783,-0.862996475621478,8.904477091539606,0.31222222222222223,-0.36,-0.5877777777777777,-0.12184195895135604,-0.3373237810738988,-0.19065804104864398
1589996558.4030194,-3.85,-0.87,8.938688937303317,0.31222222222222223,-0.36,-0.5877777777777777,-0.08145878721859114,-0.7581941418542726,-0.1603470709271363
1589996558.4130194,-3.8170599540135215,-0.845294965510141,8.872354919523662,0.33418225287987463,-0.36,-0.5950977879969952,0.10293764370774564,-0.8125,-0.2389688218538728
1589996558.4230194,-3.852632772288698,-0.8582711881237277,8.902632772288698,0.3388888888888889,-0.36,-0.5966666666666667,0.010805074226701752,-0.46991522268010527,-0.13580507422670174
1589996558.4330194,-3.859047691662537,-0.8769841027791544,8.888095383325073,0.3388888888888889,-0.36,-0.5966666666666667,-0.14980128473943044,-0.11904807289085434,-0.10615064236971522
1589996558.4430194,-3.875849051826721,-0.871383649391093,8.938930804871255,0.3388888888888889,-0.36,-0.5966666666666667,-0.2413521913056688,-0.0625,-0.07114780869433121
1589996558.4530194,-3.8730427982911197,-0.87,8.92912839487336,0.3388888888888889,-0.36,-0.5966666666666667,-0.07606995727799817,-0.4973251068050046,-0.019017489319499543
1589996558.4630194,-3.8631023408885823,-0.8837953182228356,8.975181272891342,0.32432716409811796,-0.35923359343206474,-0.5805721287400252,-0.04311036944636127,-0.9030518472318063,0.0
1589996558.4730194,-3.86,-0.8742443495469222,9.0,0.31777777777777777,-0.3588888888888889,-0.5733333333333334,0.08520922299760442,-1.0984728153317362,-0.14770922299760442
1589996558.4830194,-3.84804253211139,-0.8640212660556951,8.916297724779731,0.31777777777777777,-0.3588888888888889,-0.5733333333333334,0.125,-1.0128987385442836,-0.1875
1589996558.4930193,-3.84,-0.8677223584261082,8.890889433704434,0.31777777777777777,-0.3588888888888889,-0.5733333333333334,0.07673525983682328,-0.7927057795104698,-0.13923525983682328
1589996558.5030193,-3.8264709940887984,-0.8497064911331978,8.859412982266395,0.31777777777777777,-0.3588888888888889,-0.5733333333333334,-0.06433443041751355,-0.5386092826374774,0.0018344304175135495
1589996558.5130193,-3.834868198307134,-0.8697363966142684,8.929209189842807,0.32273384388015586,-0.3547588338035738,-0.5840714765551525,-0.31085247883917777,-0.11225816203143896,0.0625
1589996558.5230193,-3.84,-0.88,8.935602848947445,0.3244444444444444,-0.3533333333333333,-0.5877777777777777,-0.12086300986922066,-0.25413699013077934,0.011672601973844135
1589996558.5330193,-3.8477504298253553,-0.8877504298253552,8.867996561397158,0.3244444444444444,-0.3533333333333333,-0.5877777777777777,-0.0625,-0.21561962718306038,0.04844018640846982
1589996558.5430193,-3.8737857726901064,-0.882071409103298,8.897571545380213,0.3244444444444444,-0.3533333333333333,-0.5877777777777777,-0.0625,0.060268465521940595,0.16160738620877624
1589996558.5530193,-3.860937433481389,-0.8752343583703472,8.938593849777916,0.3244444444444444,-0.3533333333333333,-0.5877777777777777,-0.03271473981467028,0.03564421944401083,0.0385736990733514
1589996558.5630193,-3.83801366903649,-0.86602733807298,8.968013669036491,0.3231202238021045,-0.3522298161313833,-0.5877777777777777,0.0372437055658117,-0.00042715739031383426,-0.11258543147806277
1589996558.5730193,-3.83,-0.8540681006968707,8.972204302090613,0.31777777777777777,-0.3477777777777778,-0.5877777777777777,0.009520594511907232,0.25,-0.03707437064455818
1589996558.5830193,-3.8387378157534533,-0.8643689078767265,8.933204197602555,0.31777777777777777,-0.3477777777777778,-0.5877777777777777,-0.35922269691816333,0.46844539383632666,-0.027305674229540836
1589996558.5930192,-3.859515934250252,-0.8747579671251258,8.879031868500503,0.31777777777777777,-0.3477777777777778,-0.5877777777777777,-0.5,0.8689491781281449,0.05644917812814493
1589996558.6030192,-3.8666956199190134,-0.88,8.90991314024296,0.31777777777777777,-0.3477777777777778,-0.5877777777777777,-0.5206523755061667,1.0206523755061667,0.10489049797533306
1589996558.6130192,-3.8646327089995434,-0.8892654179990863,8.948530835998174,0.31777777777777777,-0.35343997766610835,-0.5852040505558093,-0.5045911375057104,0.917727843764276,-0.17831772498857926
1589996558.6230192,-3.8637110027617716,-0.8937110027617716,8.957422005523544,0.31777777777777777,-0.36,-0.5822222222222222,-0.319581301783218,0.43555013808858123,-0.15527506904429061
1589996558.6330192,-3.8654357870418985,-0.8736926388743043,8.91738527774861,0.31777777777777777,-0.36,-0.5822222222222222,-0.08013165494066996,0.04615798592880396,-0.0625
1589996558.6430192,-3.863966913861951,-0.8660330861380491,8.896033086138049,0.31777777777777777,-0.36,-0.5822222222222222,-0.012913576725613232,-0.125,-0.10020678836280661
1589996558.6530192,-3.86,-0.8639239920559937,8.912152015888013,0.31777777777777777,-0.36,-0.5822222222222222,0.013450099300079052,-0.27690019860015813,-0.04904990069992095
1589996558.6630192,-3.853593258560323,-0.8728134828793543,8.932813482879354,0.3099473160181724,-0.3592881398400359,-0.5857815230220428,-0.01758426799596463,-0.375,-0.040042133997982315
1589996558.6730192,-3.857269780929405,-0.8872697809294052,8.92546043814119,0.3055555555555556,-0.3588888888888889,-0.5877777777777777,-0.017063869191217683,-0.2841277383824354,-0.0625
1589996558.6830192,-3.838227085989517,-0.8972576380034943,8.883711809982527,0.3055555555555556,-0.3588888888888889,-0.5877777777777777,-0.09072047504367946,-0.2953602375218397,-0.01713976247816027
1589996558.6930192,-3.8441508025382607,-0.8929245987308697,8.89830160507652,0.3055555555555556,-0.3588888888888889,-0.5877777777777777,-0.125,-0.1798362262038074,-0.1326637737961926
1589996558.7030191,-3.845041981386566,-0.885041981386566,8.929832074453737,0.3055555555555556,-0.3588888888888889,-0.5877777777777777,-0.3109256980037766,-0.2179628490018883,-0.12552476733207446
1589996558.7130191,-3.84,-0.8757681220558251,8.971159389720874,0.3220128586717914,-0.3565378455865695,-0.5910692384010249,-0.4471015256978134,-0.18025381424453352,-0.0625
1589996558.7230191,-3.852888653341409,-0.8764443266707046,9.006444326670705,0.34444444444444444,-0.3533333333333333,-0.5955555555555555,-0.17361479154048054,0.040277041691903895,-0.022222958308096105
1589996558.733019,-3.8488147776327675,-0.88,8.937296054612991,0.34444444444444444,-0.3533333333333333,-0.5955555555555555,0.04236145969280193,0.16736145969280192,0.0
1589996558.743019,-3.834223134048025,-0.874223134048025,8.874223134048025,0.34444444444444444,-0.3533333333333333,-0.5955555555555555,-0.05552706099921981,0.17778917560031207,0.036105412199843964
1589996558.753019,-3.7681999095431933,-0.8081999095431931,8.785727149377081,0.34444444444444444,-0.3533333333333333,-0.5955555555555555,-0.22261368775954937,0.40590950207639487,-0.042841063278648076
1589996558.763019,-3.7357383177570096,-0.7914766355140187,8.743607476635514,0.3339522326064382,-0.3533333333333333,-0.5903094496365524,-0.8647780373831776,1.780782710280374,0.02254672897196261
1589996558.773019,-3.748833266047638,-0.8511667339523618,8.802333467904724,0.31777777777777777,-0.3533333333333333,-0.5822222222222222,-2.580212959224869,5.493414412595882,0.25
1589996558.783019,-3.782105870424111,-0.9090794028180833,8.866052935212055,0.31777777777777777,-0.3533333333333333,-0.5822222222222222,-4.580600328659837,9.889815915527429,-0.10280016432991851
1589996558.793019,-3.864025916977817,-0.9389611245332747,8.92454535471118,0.31777777777777777,-0.3533333333333333,-0.5822222222222222,-5.521915495277839,11.243507028332967,-1.1542183725016473
1589996558.803019,-3.745744995684163,-0.9348201734555469,9.054563278392044,0.31777777777777777,-0.3533333333333333,-0.5822222222222222,-5.251605594146903,9.476617411319824,-2.6230732870237166
1589996558.813019,-3.46172716164738,-0.8505825486954647,9.064578451807662,0.31009595342485446,-0.36101515768625664,-0.5906023942435931,-4.23042298569683,5.580576618989435,-4.0998975778049305
1589996558.823019,-3.38,-0.78,9.02,0.3055555555555556,-0.3655555555555556,-0.5955555555555555,-3.8125,4.1875,-4.75
1589996558.833019,-3.0281234495451996,-0.7166622209181359,9.012962468990903,0.3055555555555556,-0.3655555555555556,-0.5955555555555555,-2.7568703486355997,3.6596851743178,-8.6206420550028
1589996558.843019,-2.5563916419859614,-0.7331477810685385,9.002808703155244,0.3055555555555556,-0.3655555555555556,-0.5955555555555555,-1.7282071313635408,3.3925543947202725,-12.632117079825564
1589996558.853019,-2.347509886269581,-0.7545827840961344,8.967920511327058,0.3055555555555556,-0.3655555555555556,-0.5955555555555555,-0.46887357836976196,3.1745031957941205,-14.994620030041997
1589996558.863019,-2.201309479896717,-0.8330357801549244,8.900244682159105,0.314572318537645,-0.3607466152984412,-0.5955555555555555,1.0374093200541006,3.512318640108201,-17.58354082134514
1589996558.873019,-1.9049735797471017,-1.03,8.47725281947475,0.3388888888888889,-0.3477777777777778,-0.5955555555555555,3.1612736270669575,4.5071226241488995,-21.824811377796472
1589996558.883019,-1.97190771925634,-1.0411660496038855,8.492154942473825,0.3388888888888889,-0.3477777777777778,-0.5955555555555555,3.763030474939289,2.8615316095385963,-23.852029340339982
1589996558.893019,-2.1392247028453095,-1.05,8.794484695469633,0.3388888888888889,-0.3477777777777778,-0.5955555555555555,1.3835884088394654,1.9876102805594167,-25.675661683356502
1589996558.903019,-2.2345511686092636,-1.044620735949228,8.964551168609264,0.3388888888888889,-0.3477777777777778,-0.5955555555555555,-0.005175596509428171,1.4862123939708307,-27.037926405077194
1589996558.913019,-2.372807580035412,-1.0353995788869217,9.010799157773842,0.3358219414801699,-0.3447108303690588,-0.5894216607381176,0.7437894793511031,1.7138210628319854,-27.816278951524144
1589996558.923019,-2.47,-1.0398844535135825,9.019768907027164,0.3322222222222222,-0.3411111111111111,-0.5822222222222222,1.620667006759342,2.5941110827700546,-28.650833758449178
1589996558.933019,-2.466279734867602,-1.061160795397194,9.028839204602805,0.3322222222222222,-0.3411111111111111,-0.5822222222222222,1.6977284579926653,2.4229900575350762,-29.56678148447226
1589996558.943019,-2.4744517947312796,-1.0763870513171803,8.99374173092731,0.3322222222222222,-0.3411111111111111,-0.5822222222222222,1.1423381414647513,2.142338141464751,-30.504437898774807
1589996558.953019,-2.533192061563386,-1.066807938436614,8.882556338598624,0.3322222222222222,-0.3411111111111111,-0.5822222222222222,1.150248076144188,2.341721344673957,-31.75794653705954
1589996558.963019,-2.5204756744204047,-1.0790486511591904,8.804291906955143,0.3334906873433018,-0.34074114211746287,-0.5828564547827619,1.5743918605101213,3.1339188953825907,-32.56243226767813
1589996558.973019,-2.5480934786239144,-1.0708560871743487,8.693618695724782,0.3588888888888889,-0.3333333333333333,-0.5955555555555555,1.4958641240814963,3.1089483654809618,-34.649323386356045
1589996558.9830189,-2.5949909387459225,-1.1049909387459225,8.688756795940558,0.3588888888888889,-0.3333333333333333,-0.5955555555555555,0.8906533164189924,2.609459949256977,-36.7340068865531
1589996558.9930189,-2.6579761904761905,-1.1354251700680271,8.76765306122449,0.3588888888888889,-0.3333333333333333,-0.5955555555555555,0.8803146258503401,2.51062925170068,-38.835034013605444
1589996559.0030189,-2.7034063780509534,-1.14,8.881281548785557,0.3588888888888889,-0.3333333333333333,-0.5955555555555555,1.2447294970010097,2.764649771364095,-40.699618445275846
1589996559.0130188,-2.7410028126757924,-1.1583774610913182,8.95938027376711,0.36530641498426986,-0.331583098943684,-0.5958472612871637,1.5593662103881492,2.9703168948059253,-42.49852100131258
1589996559.0230188,-2.8008944396920445,-1.2108944396920445,9.061055603079556,0.38333333333333336,-0.32666666666666666,-0.5966666666666667,1.4197219846022242,3.079270744225834,-44.46242942686057
1589996559.0330188,-2.8001640185616834,-1.2363933023971942,8.94377071616449,0.38333333333333336,-0.32666666666666666,-0.5966666666666667,1.936474883989479,3.393441395975451,-47.46515674785621
1589996559.0430188,-2.7899696509863428,-1.2733232169954476,8.893323216995448,0.38333333333333336,-0.32666666666666666,-0.5966666666666667,1.9586494688922609,3.7290402124430955,-49.93522382397572
1589996559.0530188,-2.797362383929113,-1.2968501547611824,8.874724767858227,0.38333333333333336,-0.32666666666666666,-0.5966666666666667,1.6710148995569583,3.8651567336286945,-52.358992838502154
1589996559.0630188,-2.7925466520307354,-1.3325466520307356,8.802360043907793,0.38426271496523967,-0.32945481156238565,-0.5989901207464325,1.6409165751920967,4.198888583973655,-55.55927552140505
1589996559.0730188,-2.8295618179537567,-1.3548904544884393,8.725547727557803,0.3855555555555555,-0.3333333333333333,-0.6022222222222222,1.75,4.5625,-58.25
1589996559.0830188,-2.843853987428451,-1.372292025143098,8.681561962285352,0.3855555555555555,-0.3333333333333333,-0.6022222222222222,1.788412578572181,4.485674842855638,-58.82618867858272
1589996559.0930188,-2.832988243761996,-1.4079686500319897,8.656933381317979,0.3855555555555555,-0.3333333333333333,-0.6022222222222222,1.887451015674984,4.3125,-60.58568757997441
1589996559.1030188,-2.8628112066220948,-1.4856224132441898,8.846545686087234,0.3855555555555555,-0.3333333333333333,-0.6022222222222222,2.017570041388093,4.330070041388093,-65.31224132441898
1589996559.1130188,-2.868880929640242,-1.497761859280484,8.925452085323146,0.3855555555555555,-0.3333333333333333,-0.6022222222222222,2.0555058102515122,4.368005810251512,-66.52618592804839
1589996559.1230187,-2.8805234589605537,-1.5253925942204154,9.024607405779584,0.4033333333333333,-0.3211111111111111,-0.6022222222222222,2.3910339523129327,4.847839523129326,-69.01308647401385
1589996559.1330187,-2.94,-1.5774995377503853,8.940002465331279,0.4033333333333333,-0.3211111111111111,-0.6022222222222222,2.515620184899846,5.328124036979969,-71.03121725731896
1589996559.1430187,-2.9320576558693494,-1.627798204457277,8.816028827934675,0.4033333333333333,-0.3211111111111111,-0.6022222222222222,2.625900872958585,5.424639650816566,-73.36959476224848
1589996559.1530187,-2.9132831571280375,-1.6632831571280375,8.803283157128037,0.4033333333333333,-0.3211111111111111,-0.6022222222222222,2.4375,5.479009866025118,-75.27663495707066
1589996559.1630187,-2.9023734855311907,-1.6642409131871432,8.780506057875238,0.4175742465204766,-0.3147818163612697,-0.6009036191493385,2.378162861720236,5.482002853709822,-77.37620281365776
1589996559.1730187,-2.9021317624036858,-1.7131472950385258,8.742131762403686,0.4633333333333333,-0.29444444444444445,-0.5966666666666667,2.226841187981573,5.615164703004607,-79.51206480084798
1589996559.1830187,-2.8560128195516903,-1.745948721793238,8.684051278206761,0.4633333333333333,-0.29444444444444445,-0.5966666666666667,2.4375,5.662179511207737,-82.02251621185997
1589996559.1930187,-2.8696736590092913,-1.7952947044405176,8.693726272587357,0.4633333333333333,-0.29444444444444445,-0.5966666666666667,2.5604603688080716,5.847631533945163,-83.64420994128713
1589996559.2030187,-2.92,-1.8773459223905375,8.814691844781075,0.4633333333333333,-0.29444444444444445,-0.5966666666666667,3.005094417929031,6.024229611952688,-85.39792488068063
1589996559.2130187,-2.939584775086505,-1.926320645905421,8.909377162629758,0.46115724721261053,-0.28356401384083046,-0.5963039856465462,3.1887975778546713,6.248702422145329,-87.05082179930795
1589996559.2230186,-2.989575044143614,-1.9839376103590347,8.97,0.4566666666666666,-0.2611111111111111,-0.5955555555555555,3.0625,6.315155974102413,-88.72609623307828
1589996559.2330186,-2.982382926482101,-2.027617073517899,8.913625364742723,0.4566666666666666,-0.2611111111111111,-0.5955555555555555,2.9744146324105047,6.316064025692121,-89.66484147035798
1589996559.2430186,-2.9447843272578975,-2.0634771151614015,8.806522884838598,0.4566666666666666,-0.2611111111111111,-0.5955555555555555,2.82336598487938,6.47009795463814,-90.5298196975876
1589996559.2530186,-2.9082710111819163,-2.0753084044727665,8.787654202236382,0.4566666666666666,-0.2611111111111111,-0.5955555555555555,2.8896612360226044,6.610338763977396,-91.73843483227125
1589996559.2630186,-2.8767519838884215,-2.0627007935553685,8.781350396777684,0.4566666666666666,-0.2611111111111111,-0.5955555555555555,2.9290600201394734,6.570939979860527,-92.21122024167369
1589996559.2730186,-2.8398238093912656,-2.152720238260918,8.744911904695632,0.5166666666666667,-0.2311111111111111,-0.6255555555555555,2.656800595652295,6.359099702173853,-93.39310268043533
1589996559.2830186,-2.81,-2.1994132748126374,8.69548465902033,0.5166666666666667,-0.2311111111111111,-0.6255555555555555,2.84805494596497,6.371332967578982,-93.96938791354395
1589996559.2930186,-2.81,-2.2323694835586445,8.635903621718256,0.5166666666666667,-0.2311111111111111,-0.6255555555555555,3.095632545246369,6.544176726995159,-94.36772090874395
1589996559.3030186,-2.809728703047484,-2.2918990786676114,8.71406945428774,0.5166666666666667,-0.2311111111111111,-0.6255555555555555,3.255086817859674,6.746608788093551,-94.63517363571935
1589996559.3130186,-2.801575510878773,-2.3647265326363205,8.871028576151414,0.5164916099023585,-0.22463401083170903,-0.6266058961414045,3.476887771969337,6.625,-95.07877554393868
1589996559.3230186,-2.8080794463032213,-2.3911523322180672,8.929615889260644,0.5155555555555555,-0.19,-0.6322222222222222,3.6875,6.634602768483894,-95.51440415272585
1589996559.3330185,-2.743908592787665,-2.430727604808223,8.890499086777385,0.5155555555555555,-0.19,-0.6322222222222222,3.6204524699486047,6.925285647538547,-96.02585694261563
1589996559.3430185,-2.685577240695882,-2.46824157674521,8.805879211627396,0.5155555555555555,-0.19,-0.6322222222222222,3.3859901453424355,7.0625,-96.63066195496587
1589996559.3530185,-2.6137128825711264,-2.510858078285916,8.779141921714084,0.5155555555555555,-0.19,-0.6322222222222222,3.136602758034771,7.045534252678257,-97.68038345179137
1589996559.3630185,-2.56153771790314,-2.54846228209686,8.74576885895157,0.5181412528629293,-0.1827130348610375,-0.6383338704032876,2.9735553684473133,7.0528892631053735,-98.72477936819783
1589996559.3730185,-2.5149957220696177,-2.6025064168955736,8.718746791552213,0.5277777777777778,-0.15555555555555556,-0.6611111111111111,2.9218883685324446,7.156223262935111,-100.12516042238934
1589996559.3830185,-2.4690974489921187,-2.6434837585013136,8.675613690490804,0.5277777777777778,-0.15555555555555556,-0.6611111111111111,3.0217734906332097,7.087093962532839,-101.56329028456382
1589996559.3930185,-2.43,-2.6754091059056417,8.662668850450112,0.5277777777777778,-0.15555555555555556,-0.6611111111111111,3.289367017014658,7.386120210208794,-102.93104733232785
1589996559.4030185,-2.4258165240566703,-2.7262752139149953,8.724183475943331,0.5277777777777778,-0.15555555555555556,-0.6611111111111111,3.7005733623229062,7.690366811614532,-104.01433405807266
1589996559.4130185,-2.4140496563332867,-2.74392551550007,8.735950343666714,0.5277777777777778,-0.15555555555555556,-0.6611111111111111,3.7373448239584794,7.874224119792397,-104.93362059896198
1589996559.4230185,-2.35,-2.822812993854258,8.831687796312554,0.5344444444444445,-0.09222222222222222,-0.6611111111111111,3.7359350307287094,7.878516242317823,-106.57384108867427
1589996559.4330184,-2.341007995544771,-2.8729973348184097,8.836021321452723,0.5344444444444445,-0.09222222222222222,-0.6611111111111111,3.574933370460241,8.012433370460242,-108.13096682445602
1589996559.4430184,-2.3048272841051314,-2.8934868585732163,8.769884856070087,0.5344444444444445,-0.09222222222222222,-0.6611111111111111,3.7183901752190236,8.176963391739674,-108.98036608260325
1589996559.4530184,-2.2280668453343373,-2.96,8.72,0.5344444444444445,-0.09222222222222222,-0.6611111111111111,3.4658422667168707,8.125,-109.6329043832643
1589996559.4630184,-2.22,-2.9665068049254697,8.718915532512423,0.5357699047070402,-0.08643839562180457,-0.6641235207988286,3.021832469215813,8.111444156405271,-110.25527921797365
1589996559.4730184,-2.22,-3.0159300064808816,8.710678332253186,0.5458375939127721,-0.0425066609058832,-0.6870046326300376,2.7129374594944915,8.00847915316483,-110.77010423417585
1589996559.4830184,-2.110630673674152,-3.000600414078675,8.689399585921326,0.5466666666666666,-0.03888888888888889,-0.6888888888888889,3.140577719382067,8.265577719382067,-111.13682513139035
1589996559.4930184,-2.079999168416457,-3.09,8.633336105278476,0.5466666666666666,-0.03888888888888889,-0.6888888888888889,3.354170131598096,8.479170131598096,-110.64582467100476
1589996559.5030184,-2.0448212952799123,-3.094336772777168,8.71084193194292,0.5466666666666666,-0.03888888888888889,-0.6888888888888889,3.4375,8.5625,-110.3019758507135
1589996559.5130184,-1.9846778711484594,-3.124192343604108,8.757096171802054,0.5517916796348169,-0.029821558252930803,-0.6930283224400872,3.459675536881419,8.617938842203548,-109.65727124183006
1589996559.5230184,-1.9571398093206214,-3.1985805720381357,8.79,0.5755555555555556,0.012222222222222223,-0.7122222222222222,3.4909952330155343,8.857123808253883,-108.74086189079271
1589996559.5330184,-1.9347007481296759,-3.2149002493765586,8.75430174563591,0.5755555555555556,0.012222222222222223,-0.7122222222222222,3.2487531172069826,8.70094295511222,-108.0428226309227
1589996559.5430183,-1.887176883780332,-3.208469348659004,8.655646232439336,0.5755555555555556,0.012222222222222223,-0.7122222222222222,2.974277618135377,8.445577905491698,-107.24341075989783
1589996559.5530183,-1.8659035215491389,-3.238810299031788,8.67704823922543,0.5755555555555556,0.012222222222222223,-0.7122222222222222,2.7610128737897353,8.669051495158941,-106.58480689315397
1589996559.5630183,-1.799227444025715,-3.2784548880514297,8.713862779871427,0.576671469740634,0.013166457301903989,-0.7149690879085692,2.807671525160718,8.875,-105.73041592773221
1589996559.5730183,-1.7893722858270826,-3.260418476115278,8.75769838136597,0.59,0.024444444444444446,-0.7477777777777778,2.7486922621397554,8.87238452427951,-104.73757649032767
1589996559.5830183,-1.7384649227110582,-3.308464922711058,8.556929845422117,0.59,0.024444444444444446,-0.7477777777777778,2.1841186087990487,8.289930142687277,-103.43905321046374
1589996559.5930183,-1.7424879919574041,-3.3365670030159733,8.602189001005325,0.59,0.024444444444444446,-0.7477777777777778,1.3498063819488402,7.670081356815728,-102.6871997989351
1589996559.6030183,-1.680019361805116,-3.3599927393230815,8.60999757977436,0.59,0.024444444444444446,-0.7477777777777778,2.374682345384816,8.499742851025804,-101.1254840451279
1589996559.6130183,-1.657109197839273,-3.428843679135709,8.639828727346472,0.5917344812964362,0.024444444444444446,-0.7489983386900848,2.331637967589093,9.103318983794546,-99.13798141627183
1589996559.6230183,-1.6184456407514611,-3.4133782563005846,8.771284821445033,0.6149326155491234,0.024444444444444446,-0.7653229516827164,1.7516846112719162,8.813342305635958,-97.63976857911912
1589996559.6330183,-1.4811820125375947,-3.3582740877631627,8.31,0.62,0.024444444444444446,-0.7688888888888888,2.9960117947603,10.2380353842809,-94.71675589738015
1589996559.6430182,-1.4963804036670652,-3.464662825669457,8.31,0.62,0.024444444444444446,-0.7688888888888888,2.141102293727579,7.673306881182738,-94.28930114686379
1589996559.6530182,-1.487199177236887,-3.468402468289338,8.933589304079534,0.62,0.024444444444444446,-0.7688888888888888,-1.9760777339732603,5.9950719917723685,-92.58986115872472
1589996559.6630182,-1.469349274370701,-3.5278087075515865,8.705444920594909,0.621156845563198,0.02523977576914305,-0.7697565230612873,1.5843296481688214,7.467463718535057,-89.50855045194281
1589996559.6730182,-1.457613600728717,-3.64,8.68056878761181,0.6377777777777778,0.03666666666666667,-0.7822222222222223,0.8210200546537847,6.567465132079979,-86.34090018217928
1589996559.6830182,-1.451350366598474,-3.64,8.787043767825944,0.6377777777777778,0.03666666666666667,-0.7822222222222223,0.3512774948855406,5.43225394597339,-84.77509164961847
1589996559.6930182,-1.4129618668828108,-3.68100544758817,8.605027237940849,0.6377777777777778,0.03666666666666667,-0.7822222222222223,1.7440564268345555,5.986750956626643,-80.53566143899266
1589996559.7030182,-1.357618706527681,-3.6889116133531883,8.644558066765942,0.6377777777777778,0.03666666666666667,-0.7822222222222223,2.1887782511168496,4.8996531639365895,-77.86733049329891
1589996559.7130182,-1.3293013958975033,-3.66,8.795109771282522,0.6346728706555694,0.03484253373236924,-0.7797382965244556,0.6904941346090832,6.275386657054852,-73.37119486860213
1589996559.7230182,-1.3109764729012388,-3.66,8.66683531030867,0.5532287684499494,-0.013005876313432509,-0.7145830147599596,2.40845566550888,5.301875122878301,-69.99253719116587
1589996559.7330182,-1.3,-3.720987171655467,8.767038485033599,0.5488888888888889,-0.015555555555555557,-0.7111111111111111,1.1861056811240074,4.855096212583995,-65.48229230299329
1589996559.7430182,-1.2845198701097882,-3.746731317236961,8.62788552872827,0.5488888888888889,-0.015555555555555557,-0.7111111111111111,1.625,4.479570732731008,-61.46938578276525
1589996559.7530181,-1.2370261918775751,-3.7154576221306654,8.57529429075927,0.5488888888888889,-0.015555555555555557,-0.7111111111111111,1.5810863007651559,4.143586300765156,-57.98181834902884
1589996559.7630181,-1.2787102683887515,-3.811934597416873,8.732257030319685,0.547849938424272,-0.012725311186426879,-0.7085316478886141,1.3145152056425757,3.860893560501969,-54.689572455802875
1589996559.7730181,-1.2334525939177101,-3.8525402504472273,8.741073345259393,0.5166666666666667,0.07222222222222223,-0.6311111111111111,1.3886404293381038,3.5057021466905187,-50.15429338103757
1589996559.783018,-1.2091461146995497,-3.7942694265022507,8.538538853004502,0.5166666666666667,0.07222222222222223,-0.6311111111111111,1.3948057349774907,3.5898965061655903,-46.83681371109806
1589996559.793018,-1.2023047563123899,-3.8284762184380505,8.606952436876101,0.5166666666666667,0.07222222222222223,-0.6311111111111111,1.052737815619495,2.3071418085731064,-44.52785525543159
1589996559.803018,-1.1803024079320112,-3.8006048158640224,8.669395184135977,0.5166666666666667,0.07222222222222223,-0.6311111111111111,0.9375,2.8598796033994334,-40.05670148725213
1589996559.813018,-1.1245015659613475,-3.7841433045603847,8.73342678175846,0.5166666666666667,0.07222222222222223,-0.6311111111111111,1.284365212741578,2.6272391337560155,-37.12597395156978
1589996559.823018,-1.134223259520692,-3.8231876055482816,8.622119694123452,0.5077777777777778,0.15222222222222226,-0.5866666666666667,1.158069818409518,2.5131472837327564,-32.48715512988368
1589996559.833018,-1.0148431718563216,-3.54463406766475,8.486822261437165,0.5077777777777778,0.15222222222222226,-0.5866666666666667,-0.48340638697557914,2.6126306901197323,-29.552394641467902
1589996559.843018,-1.0280521923941257,-3.4334412835566086,9.091043847882515,0.5077777777777778,0.15222222222222226,-0.5866666666666667,0.3899839729630856,0.09859894082190834,-26.23824865425152
1589996559.853018,-0.9695981046286779,-3.499202132292737,7.921962092573559,0.5077777777777778,0.15222222222222226,-0.5866666666666667,8.107750248244866,5.167664364231834,-21.89985932790969
1589996559.863018,-1.0649135169762973,-3.761474055092889,8.890463805253042,0.5081599402092676,0.15495195387572072,-0.5863936935013169,-2.0717128443305572,-1.5195067264573991,-20.287023542600895
1589996559.873018,-1.1544778987828315,-3.7883433696348496,9.445762972453556,0.5151260587942202,0.2047099437682397,-0.5814178945120649,-2.239646060217809,-0.7358183856502242,-17.544114349775786
1589996559.883018,-1.1105843735153114,-3.8723374940612447,8.900567960955383,0.5155555555555555,0.20777777777777776,-0.5811111111111111,2.1613181877078564,0.6910497559711484,-12.003447177471601
1589996559.893018,-1.0765304389363624,-3.75,8.665404437131787,0.5155555555555555,0.20777777777777776,-0.5811111111111111,-0.8762505971020647,-0.2040762167613184,-9.493587787272437
1589996559.903018,-1.0753745703069382,-3.789534609360698,8.40664015621504,0.5155555555555555,0.20777777777777776,-0.5811111111111111,1.3215451660801822,0.1889543457478185,-5.45995336940382
1589996559.913018,-1.13,-3.934458705878688,8.745541294121312,0.5165463790841528,0.20839704248315105,-0.5811111111111111,0.757167279354497,-0.2639334558708994,-2.4987966914857163
1589996559.923018,-1.13,-3.97,8.71,0.5244444444444445,0.21333333333333332,-0.5811111111111111,1.3125,-0.375,0.5
1589996559.933018,-1.13,-3.9770476642162675,8.683571259188998,0.5244444444444445,0.21333333333333332,-0.5811111111111111,1.268452098648328,-0.4410718520275077,1.5681616077780414
1589996559.943018,-1.13299918805821,-4.0174979701455245,8.583993504465681,0.5244444444444445,0.21333333333333332,-0.5811111111111111,1.015637686590469,-0.8156072387733433,6.984260820685779
1589996559.953018,-1.149316181552876,-4.05829045388219,8.71794854465863,0.5244444444444445,0.21333333333333332,-0.5811111111111111,0.7403838030873204,-1.1896369326472622,9.419875585592504
1589996559.963018,-1.1235467322018278,-3.9938668305045693,8.640640196605483,0.5244444444444445,0.21333333333333332,-0.5811111111111111,0.3780009215882037,-1.270166461869288,11.11099569925505
1589996559.973018,-1.1329722863741338,-4.028916859122401,8.745491147036182,0.5295493969720297,0.24396304849884523,-0.6040833974852451,0.1396410700538876,-1.456076789838337,13.531485758275597
1589996559.983018,-1.117934606469611,-3.9690935570552397,8.620831982933684,0.5311111111111111,0.2533333333333333,-0.6111111111111112,-0.058878279419909335,-1.6838782794199094,15.149239246374433
1589996559.993018,-1.1516966797974113,-4.02943444006753,8.583958919527293,0.5311111111111111,0.2533333333333333,-0.6111111111111112,-0.007069499155880698,-1.8018957512661788,17.272333989870567
1589996560.003018,-1.1738247397298818,-4.022058420090039,8.635591059369725,0.5311111111111111,0.2533333333333333,-0.6111111111111112,-0.0992697488745076,-1.6635953766882385,18.37873698649409
1589996560.013018,-1.1977635482449698,-4.03776354824497,8.68552709648994,0.5311111111111111,0.2533333333333333,-0.6111111111111112,0.2080665295931855,-1.7360221765310617,19.96425503010721
1589996560.023018,-1.2232985725907848,-4.064398096787713,8.713402854818431,0.5455555555555556,0.2588888888888889,-0.5822222222222222,-0.22251189507679411,-1.8681279737691985,21.581160786924045
1589996560.0330179,-1.2525707054033235,-4.098714647298338,8.661285352701661,0.5455555555555556,0.2588888888888889,-0.5822222222222222,-0.0482007263123143,-1.8928345438538572,23.507070540332343
1589996560.0430179,-1.2670548391952234,-4.094123225126687,8.662931614068537,0.5455555555555556,0.2588888888888889,-0.5822222222222222,-0.3639556469820882,-2.4301370979880588,25.37885078520897
1589996560.0530179,-1.2232065158371042,-4.150380452488688,8.560421176470589,0.5455555555555556,0.2588888888888889,-0.5822222222222222,-0.2225712669683258,-2.3425610859728505,27.62287669683258
1589996560.0630178,-1.2535724886877828,-4.059282533936652,8.659110588235293,0.5455555555555556,0.2588888888888889,-0.5822222222222222,-0.5546990950226244,-2.627242081447964,29.378409502262443
1589996560.0730178,-1.21904290285366,-4.07095709714634,8.67904290285366,0.5988888888888889,0.24444444444444444,-0.5877777777777777,-1.0059818571646242,-2.9315181428353756,32.2213287150911
1589996560.0830178,-1.2101023654369132,-4.079385807378522,8.668566883883216,0.5988888888888889,0.24444444444444444,-0.5877777777777777,-1.061860216019293,-2.874360216019293,34.33233330340192
1589996560.0930178,-1.227422225490917,-4.021649383442425,8.539896300654556,0.5988888888888889,0.24444444444444444,-0.5877777777777777,-1.0103086465151627,-2.843425939545488,36.373703758181954
1589996560.1030178,-1.3132442528735633,-4.039351149425287,8.651946551724139,0.5988888888888889,0.24444444444444444,-0.5877777777777777,-1.133110632183908,-3.1753340517241377,37.863548850574716
1589996560.1130178,-1.3433757183908046,-4.03332485632184,8.670025431034484,0.5988888888888889,0.24444444444444444,-0.5877777777777777,-1.2084392959770116,-3.062341056034483,38.91815014367816
1589996560.1230178,-1.3239255564082886,-4.066074443591711,8.694429777436683,0.6654261959580455,0.23482459281998805,-0.6150340240470709,-1.4303722179585572,-3.0,40.44695414428242
1589996560.1330178,-1.4062380633078222,-4.015841291128119,8.73207935443594,0.6911111111111111,0.2311111111111111,-0.6255555555555555,-1.5501239913061573,-3.400991930449259,42.46659171310319
1589996560.1430178,-1.3959389270134441,-3.9744541952600834,8.595240439807139,0.6911111111111111,0.2311111111111111,-0.6255555555555555,-1.5625,-3.606440853082987,44.4716127962448
1589996560.1530178,-1.4163311161731207,-4.029245011389522,8.58974833712984,0.6911111111111111,0.2311111111111111,-0.6255555555555555,-1.521357630979499,-3.7895694760820047,46.14884054669704
1589996560.1630177,-1.4733692806383243,-4.0455435731205585,8.665053920957487,0.6911111111111111,0.2311111111111111,-0.6255555555555555,-1.725881669991273,-3.875,48.50134802393716
1589996560.1730177,-1.5225090494176896,-3.955476471514007,8.735512669184764,0.9396247333263386,0.21377295142167665,-0.6725130713811073,-1.9750452470884483,-4.07818155886056,50.38472566493547
1589996560.1830177,-1.5314474336283186,-3.884342300884956,8.640264070796459,1.0733333333333333,0.20444444444444448,-0.6977777777777778,-1.8486858407079647,-4.294407079646017,52.719559734513275
1589996560.1930177,-1.594419808912552,-3.944419808912552,8.564783020932099,1.0733333333333333,0.20444444444444448,-0.6977777777777778,-2.1576061191743854,-4.197464626941872,54.72553059587193
1589996560.2030177,-1.6603095195887254,-3.760275128523311,8.660034391065414,1.0733333333333333,0.20444444444444448,-0.6977777777777778,-2.436640223364652,-4.25,56.6308034922886
1589996560.2130177,-1.727227973763517,-3.819758198900904,8.667469774862614,1.0733333333333333,0.20444444444444448,-0.6977777777777778,-2.250755628434675,-4.25,57.88552450806595
1589996560.2230177,-1.8205437741632924,-3.8945622583670763,8.741087548326584,1.4677777777777778,-0.23777777777777775,-0.9788888888888888,-2.1283985885205774,-4.70109435408231,60.428052009699634
1589996560.2330177,-1.8302740591913675,-3.799862970404316,8.757259408086327,1.4677777777777778,-0.23777777777777775,-0.9788888888888888,-2.184930695080931,-4.939212869946046,62.470044528974874
1589996560.2430177,-1.8492112332663613,-3.7903943833668197,8.56788766733639,1.4677777777777778,-0.23777777777777775,-0.9788888888888888,-2.007394688127864,-5.0575702079147575,64.71883395038039
1589996560.2530177,-1.8998749977156015,-3.8093749885780075,8.670375006853195,1.4677777777777778,-0.23777777777777775,-0.9788888888888888,-1.9429688499424331,-5.253906321387452,67.60234447815202
1589996560.2630177,-1.8922098357060617,-3.7710491785303093,8.693370492881813,1.4677777777777778,-0.23777777777777775,-0.9788888888888888,-2.278319687859793,-5.493442634185566,70.04561486869278
1589996560.2730176,-1.8961363729803067,-3.7661363729803066,8.68159088105908,1.0491407766768537,-0.10345939143106433,-0.8172977337408123,-2.3366476688730833,-5.677556993380751,72.47585490071125
1589996560.2830176,-1.914097012880241,-3.734757467799397,8.677048506440121,0.7855555555555556,-0.01888888888888889,-0.7155555555555555,-2.4887126610030146,-5.926212661003015,75.50083927103316
1589996560.2930176,-1.9589398695967157,-3.7686748369958947,8.59238529340739,0.7855555555555556,-0.01888888888888889,-0.7155555555555555,-2.440812907510263,-6.425904823714078,78.68539830354987
1589996560.3030176,-1.979319554001286,-3.776439851333762,8.602879702667524,0.7855555555555556,-0.01888888888888889,-0.7155555555555555,-2.5984962833440495,-6.357001858327975,79.99772119591638
1589996560.3130176,-1.976168002587973,-3.828411990942094,8.692991984472162,0.7855555555555556,-0.01888888888888889,-0.7155555555555555,-2.6875,-6.269275008087416,81.68167481398943
1589996560.3230176,-1.9394018489306284,-3.8438803697861257,8.693282218716755,0.704640444949884,0.05794646824086644,-0.6808776510102678,-2.8022430665101434,-6.25,82.58397226604058
1589996560.3330176,-1.9357556465059875,-3.871511293011975,8.756656055782932,0.6533333333333333,0.10666666666666667,-0.6588888888888889,-2.7765272093375777,-6.397709185993634,82.97347279066243
1589996560.3430176,-1.8953547737211929,-3.8889290452557614,8.65499336641934,0.6533333333333333,0.10666666666666667,-0.6588888888888889,-2.4709673357574564,-6.325886934302982,81.32580401454474
1589996560.3530176,-1.89981561765474,-3.9292624706189607,8.728340558892661,0.6533333333333333,0.10666666666666667,-0.6588888888888889,-2.6828904413685035,-5.9444143379472445,77.75088143118307
1589996560.3630176,-1.8116240964794357,-3.8255557503847877,8.673760788668732,0.6533333333333333,0.10666666666666667,-0.6588888888888889,-2.5368592553626748,-5.586004929179574,73.82105422097531
1589996560.3730175,-1.8429608920849636,-3.719013035971679,8.661315952037763,0.6133333333333333,0.10444444444444444,-0.6877777777777778,-1.5830617505900242,-5.229438249409975,66.50325899291971
1589996560.3830175,-1.9027532352335546,-3.6990822549221485,8.687890326770468,0.6133333333333333,0.10444444444444444,-0.6877777777777778,-1.9982863557885733,-4.814213644211427,61.52056373053712
1589996560.3930175,-1.904616410940627,-3.74922837447187,8.590004447409385,0.6133333333333333,0.10444444444444444,-0.6877777777777778,-1.658675227929731,-4.096175227929731,52.16374805425839
1589996560.4030175,-1.9097522644576914,-3.7209909421692346,8.63826585120384,0.6133333333333333,0.10444444444444444,-0.6877777777777778,-1.1967900828365718,-3.1466768599520014,41.427493806611444
1589996560.4130175,-1.917479741568112,-3.6900810337275516,8.692358190976785,0.6133333333333333,0.10444444444444444,-0.6877777777777778,-1.0472548455978976,-2.844509691195795,33.10002942947875
1589996560.4230175,-1.9071841475913904,-3.718447557225829,8.69718414759139,0.6005174809247239,0.07810074782674714,-0.7112735071935619,-0.39925691834642985,-1.868910146908097,23.5265288691493
1589996560.4330175,-1.8894623986126415,-3.819193597918962,8.729865599653161,0.5933333333333334,0.06333333333333334,-0.7244444444444444,0.0010500027096844121,-0.623109995122568,8.900749905161046
1589996560.4430175,-1.768233285763318,-3.6373499286449773,8.69955832144083,0.5933333333333334,0.06333333333333334,-0.7244444444444444,0.23782561374351932,-0.19691389526166514,0.6136035189768236
1589996560.4530175,-1.8107836579037855,-3.508192304085524,8.779759619893094,0.5933333333333334,0.06333333333333334,-0.7244444444444444,1.0417969116313963,0.4984976243318434,-11.480859851208153
1589996560.4630175,-1.7197679994815631,-3.3580046659322145,8.681415332771694,0.5933333333333334,0.06333333333333334,-0.7244444444444444,1.072795833063314,1.4499708379236602,-20.81075837599637
1589996560.4730175,-1.692300028780801,-3.292300028780801,8.748466647479466,0.5255555555555556,0.0,-0.6522222222222223,1.6202082733733312,2.4422917266266686,-32.665842447253645
1589996560.4830174,-1.7566934709553528,-3.351336413826212,8.649975996159386,0.5255555555555556,0.0,-0.6522222222222223,1.530499879980797,2.5598520763322132,-41.4795742318771
1589996560.4930174,-8.250508881421029,-8.89708833413346,-5.512246759481519,0.5255555555555556,0.0,-0.6522222222222223,-4.132711233797408,13.152154344695152,-48.92564810369659
1589996560.5030174,-4.581960899479778,-0.40302735358281616,0.23144487330088914,0.5255555555555556,0.0,-0.6522222222222223,-60.13703536667226,141.43136956704146,-123.10124391676456
1589996560.5130174,-2.5830029732408324,-0.38706640237859274,-0.044331020812685806,0.5255555555555556,0.0,-0.6522222222222223,-11.004459861248762,-13.80878344895936,-160.59124132804757
1589996560.5230174,-0.2860896040003227,-0.49308653923703527,0.19191870312121945,0.5532927834682008,0.09747654380729628,-0.6379573621528618,11.432350895233487,-55.44701185579482,-173.2614046495685
1589996560.5330174,0.08874610551233182,-0.38756113692931615,0.1953668215758968,0.5644444444444444,0.13666666666666666,-0.6322222222222222,9.604741049205437,-18.94016739769899,-164.28965632778096
1589996560.5430174,-0.08164222757993755,-0.39054740919331254,-0.03873167068495316,0.5644444444444444,0.13666666666666666,-0.6322222222222222,12.787634382040235,-2.527950970317378,-152.43357475989092
1589996560.5530174,-0.11,-0.3599859068741076,0.026697201772766896,0.5644444444444444,0.13666666666666666,-0.6322222222222222,13.520862694012276,2.605194290429655,-142.64326427392587
1589996560.5630174,7.332273655547992,-0.9558611300204221,14.843247106875426,0.5644444444444444,0.13666666666666666,-0.6322222222222222,11.985747106875426,6.752254935330157,-128.84385636487406
1589996560.5730174,3.163556361239288,-0.1992091589437356,5.7439061227655195,0.546346181188362,0.17503498476956156,-0.6228111253290594,43.484999660708056,32.64952959595176,-118.63424085850556
1589996560.5830173,-0.6895065523999846,0.2555174666615426,-0.5711375427539296,0.5366666666666666,0.1955555555555556,-0.6177777777777778,65.4611900003843,21.416034164713114,-100.61150368932785
1589996560.5930173,0.3465418085508891,0.881180820692739,-0.5148852887558903,0.5366666666666666,0.1955555555555556,-0.6177777777777778,35.47369552505761,-10.574254892855915,-87.54035961201114
1589996560.6030173,-0.5817514598832093,-1.2745092392608592,13.207995760339173,0.5366666666666666,0.1955555555555556,-0.6177777777777778,-65.01386889048875,0.9767668586513096,-62.76079163666907
1589996560.6130173,-0.901090804285908,-2.3881398345313984,11.318001152855011,0.5366666666666666,0.1955555555555556,-0.6177777777777778,-70.54438279872508,16.49603282246033,-51.139777312491525
1589996560.6230173,-0.04918018218173725,-3.109511219728949,12.015435458786936,0.5191972154336074,0.19943765582956874,-0.6177777777777778,1.1318943012663851,-9.552668851366363,-37.36731420795379
1589996560.6330173,-0.4113327113359032,-1.8162658056912764,5.356474011146849,0.5166666666666667,0.2,-0.6177777777777778,44.96497428122468,26.305924525522357,-17.499001018930002
1589996560.6430173,-0.6290040901740702,-2.666120041852944,9.411046323599354,0.5166666666666667,0.2,-0.6177777777777778,-2.3841910016170473,-2.915057547797961,-11.535206411110055
1589996560.6530173,-1.0153291031347667,-3.348676247750734,12.447435363197274,0.5166666666666667,0.2,-0.6177777777777778,-25.423939293493703,-6.2161293091201815,-1.7494820769012218
1589996560.6630173,-0.8317225650110982,-2.781189036186287,8.656707394057873,0.5166666666666667,0.2,-0.6177777777777778,6.494282892459324,-0.20436368542163041,9.33893844054819
1589996560.6730173,-0.9536745509863578,-2.779991657670036,8.92519334576504,0.5122809456821626,0.22719147010392476,-0.6002348938397618,5.178163951320052,3.2367350819511236,18.05558077338306
1589996560.6830173,-1.0,-2.698513720899987,8.617858239042787,0.5111111111111111,0.2344444444444445,-0.5955555555555555,-10.608326830537132,-5.578410716608142,23.755120952009364
1589996560.6930172,-1.1502210991787745,-3.235818066961466,9.81190145293746,0.5111111111111111,0.2344444444444445,-0.5955555555555555,-2.0625789639924204,-2.540311118130133,31.369669930511687
1589996560.7030172,-1.1833683916083915,-3.2259645687645686,9.835297529137529,0.5111111111111111,0.2344444444444445,-0.5955555555555555,2.0265361305361305,-1.8594312354312355,37.568208624708625
1589996560.7130172,-1.253733678000928,-3.2314863790017894,9.81502982700338,0.5111111111111111,0.2344444444444445,-0.5955555555555555,-1.948351643799298,-4.144768675018228,43.902275137535625
1589996560.7230172,-1.1677424356884418,-2.9843560892211047,8.644843544988271,0.5111111111111111,0.23839604345309887,-0.6133377510945003,-2.233124428452149,-3.6199654089300624,50.28577144049938
1589996560.7330172,-1.2775305632930982,-3.2297721293717117,9.47646162178892,0.5111111111111111,0.2411111111111111,-0.6255555555555555,-2.242775069637883,-4.627188273754255,57.234345984215416
1589996560.7430172,-1.3325114946358367,-3.298721263410408,9.558491370693677,0.5111111111111111,0.2411111111111111,-0.6255555555555555,-3.5242636769507563,-4.085039481575265,61.229472079696144
1589996560.7530172,-1.355456746992735,-3.210444638532693,8.879927349239749,0.5111111111111111,0.2411111111111111,-0.6255555555555555,-2.1787089602604315,-5.045674699273492,66.60276807336535
1589996560.7630172,-1.3112207932125783,-3.0497597804861627,8.3336689448522,0.5111111111111111,0.2411111111111111,-0.6255555555555555,-2.310957595448118,-5.423782489394654,70.4831566477005
1589996560.7730172,-1.4171971843861413,-3.2944181369412195,9.237601243258068,0.5301662756091863,0.24778041868543743,-0.636035896029497,-1.9997028978882896,-6.125297102111711,76.01039286040772
1589996560.7830172,-1.44,-3.35,9.43,0.5333333333333333,0.2488888888888889,-0.6377777777777778,-1.875,-6.25,76.625
1589996560.7930171,0.16107057053685692,0.11064732694164414,6.69483777533287,0.5333333333333333,0.2488888888888889,-0.6377777777777778,-33.19802776343265,7.874027493993758,-26.464765251364028
1589996560.8030171,1.2038091912278248,-0.9612690319877077,12.913594775806677,0.5333333333333333,0.2488888888888889,-0.6377777777777778,1.1259734250593638,-12.53471155189272,-99.22484372817433
1589996560.8130171,0.7882071089652877,-0.9712786148339299,8.256847415300092,0.5333333333333333,0.2488888888888889,-0.6377777777777778,38.32157038208607,7.59875863647715,-103.00477711645718
1589996560.8230171,0.04289370703331574,-1.4441515952758683,6.1334316939890705,0.5448039641968779,0.23138108388663653,-0.642607517088744,40.377055790586994,11.665670720958929,-90.23237043892121
1589996560.833017,-1.9967861441754715,-2.468950113681958,11.63402434131336,0.5544444444444444,0.21666666666666667,-0.6466666666666666,-18.518097164638228,1.4754664303865188,-75.2597883509429
1589996560.843017,-1.5775689013742311,-2.8310788854301117,11.18003112899552,0.5544444444444444,0.21666666666666667,-0.6466666666666666,-21.61902095512869,7.076840217143724,-63.238416786880265
1589996560.853017,-0.8712581133344544,-2.289692281822768,7.6257588700184975,0.5544444444444444,0.21666666666666667,-0.6466666666666666,9.559477467630735,8.87255338826299,-47.276441903480745
1589996560.863017,-1.3971316582914572,-3.5369055276381913,9.45451256281407,0.5544444444444444,0.21666666666666667,-0.6466666666666666,3.4490954773869333,4.534051507537689,-40.480904522613066
1589996560.873017,-4.159259259259259,-10.281984239558707,9.256048857368006,0.5401507748883635,0.24108501882497155,-0.6502400840556869,-4.112539401103231,0.36694247438928285,-36.85594956658787
1589996560.883017,-0.8636440305367916,-4.828409209001158,8.705415883928215,0.5277777777777778,0.26222222222222225,-0.6533333333333333,1.099174627283265,3.303684200007994,-53.46891862184739
1589996560.893017,0.3957666978672193,-1.5756919836865682,8.081808852042522,0.5277777777777778,0.26222222222222225,-0.6533333333333333,7.927065922310624,4.2395868155378755,-79.01381460185866
1589996560.903017,-0.830817610062893,-2.4699110821947516,9.188440685317719,0.5277777777777778,0.26222222222222225,-0.6533333333333333,4.187960854478421,6.381316417263067,-89.76244307091737
1589996560.913017,-1.063859876678706,-2.929813022568994,9.129701275118233,0.5277777777777778,0.26222222222222225,-0.6533333333333333,-0.8801982519505915,7.130023646558778,-83.23423063875642
1589996560.923017,-1.7589920021151433,-6.12039262343843,9.367885848370678,0.5277777777777778,0.27259391455703175,-0.6593834871953056,3.9451384757750017,5.895740382708705,-75.33965191023862
1589996560.933017,-1.4132895209043603,-5.735977032119147,8.567181051498295,0.5277777777777778,0.27555555555555555,-0.6611111111111111,1.6980559169208682,5.7862517943656915,-77.5913163915306
1589996560.943017,-0.8632434514637904,-3.9182357473035436,8.53291217257319,0.5277777777777778,0.27555555555555555,-0.6611111111111111,3.8757222650231125,6.26796032357473,-89.69597457627118
1589996560.953017,-0.8863741275801353,-3.7518345743439614,8.619093531895034,0.5277777777777778,0.27555555555555555,-0.6611111111111111,3.3066993360062793,6.965962366617875,-95.58552233819131
1589996560.963017,-0.9925311240483655,-4.299405284370802,8.796749664128974,0.5277777777777778,0.27555555555555555,-0.6611111111111111,2.3565438871473354,7.285204881325571,-95.4771999552172
1589996560.973017,-0.9731194392019412,-4.8271313022378,8.616850903208412,0.5101237230760014,0.29264012462179084,-0.6611111111111111,2.6742720409813967,6.894496495012133,-93.76949649501213
1589996560.983017,-0.8095192624300297,-4.608397541433432,8.67700307320821,0.4933333333333334,0.3088888888888889,-0.6611111111111111,3.7048776890571835,6.861628457359236,-96.65840227472286
1589996560.993017,-0.7168751495429966,-4.202266354022108,8.736875149542998,0.4933333333333334,0.3088888888888889,-0.6611111111111111,4.256346604775805,7.394530315356271,-101.99120089007991
1589996561.003017,-0.6303273976444195,-4.2438624041876984,8.634844597120956,0.4933333333333334,0.3088888888888889,-0.6611111111111111,3.4073249672836043,7.741918758179099,-103.99590752944475
1589996561.013017,-0.5190669081396518,-4.299485662541503,8.46710514136231,0.4933333333333334,0.3088888888888889,-0.6611111111111111,3.2467853908843947,7.893690260589596,-104.77773669383238
1589996561.023017,-0.4881615777651618,-4.455292622121294,8.638208229457211,0.48189826585156487,0.3371402320791406,-0.6523666477426998,3.350336620344087,8.013173240688173,-106.42461833238714
1589996561.033017,-0.4046461465795481,-4.413780209399354,8.731890104699676,0.4744444444444445,0.3555555555555556,-0.6466666666666666,3.9709615838778243,8.147637369125404,-110.07946449657561
1589996561.043017,-0.3436150630683485,-4.317230126136697,8.667230126136698,0.4744444444444445,0.3555555555555556,-0.6466666666666666,4.181729429451452,8.255770570548547,-113.35484654590789
1589996561.053017,-0.262435590494908,-4.320711095229587,8.56629337144899,0.4744444444444445,0.3555555555555556,-0.6466666666666666,4.009833392889048,8.542833214221904,-116.22844380918349
1589996561.063017,-0.1620130893051498,-4.451513289797789,8.506618405224264,0.4744444444444445,0.3555555555555556,-0.6466666666666666,3.658716775505528,8.6875,-117.72483638368563
1589996561.073017,-0.09,-4.572771993360495,8.499844575222575,0.47047926831312986,0.35883708062974706,-0.6466666666666666,3.4278661158895427,8.74902859514109,-119.30950562094462
1589996561.0830169,-0.08172369527688017,-4.520348590146519,8.6320722854234,0.44222222222222224,0.38222222222222224,-0.6466666666666666,4.25,9.1875,-124.1875
1589996561.0930169,-4.445809628762311,-10.060483504373579,7.921494593291549,0.44222222222222224,0.38222222222222224,-0.6466666666666666,4.749065879192782,9.220771058612852,-125.0192764653213
1589996561.1030169,-2.6836384997578513,-6.99007641118545,9.631447687037005,0.44222222222222224,0.38222222222222224,-0.6466666666666666,6.268581505264479,-1.1156638445947156,-36.46538627109828
1589996561.1130168,2.499488944386916,-0.9748154352195894,9.295824145702626,0.44222222222222224,0.38222222222222224,-0.6466666666666666,10.96964655539989,-5.195989675336541,40.33007705427301
1589996561.1230168,0.9575302658528178,-2.776843023137915,6.938539330399692,0.42675963291176316,0.40354993161595887,-0.653598172219631,3.2657425526737374,-0.8391854074990364,12.184302313791495
1589996561.1330168,0.0019210661954200403,-3.85375377365437,8.933818570061115,0.41,0.4266666666666667,-0.6611111111111111,-9.425125174876666,0.38660168617922075,-11.986226161549222
1589996561.1430168,0.0057848868105006,-4.353125730683388,8.744143904772027,0.41,0.4266666666666667,-0.6611111111111111,-0.536859655648847,2.735678605590392,-23.660982835582953
1589996561.1530168,-1.6892592298741138,-6.852034539299693,8.33,0.41,0.4266666666666667,-0.6611111111111111,-0.7811326430762726,2.203275415212102,-18.421959298635354
1589996561.1630168,-0.47825567899187527,-5.77388990217211,8.741802354501742,0.41,0.4266666666666667,-0.6611111111111111,0.010736196319018454,0.25317111590117714,-0.5857548499419654
1589996561.1730168,0.026223579600543,-4.905329649020748,8.874627690517743,0.4194007066985543,0.4198297890677181,-0.6611111111111111,0.06748715338375022,-0.6346410219119644,0.7170896354469649
1589996561.1830168,-0.1479760774634517,-4.678252009366496,8.656467312195431,0.4222222222222222,0.4177777777777778,-0.6611111111111111,0.20486440731599276,-0.011901936586292017,-0.5032197329282956
1589996561.1930168,-0.13325005176340673,-4.614249430602526,8.56975015529022,0.4222222222222222,0.4177777777777778,-0.6611111111111111,0.4375,0.06093847056387605,-0.10312564704258403
1589996561.2030168,-0.12456347112283787,-4.611944297859865,8.63611140428027,0.4222222222222222,0.4177777777777778,-0.6611111111111111,0.36954338903547346,0.1019349164467898,-0.028521694517736736
1589996561.2130167,-0.12315147200894899,-4.6052117760715925,8.677939695937356,0.4222222222222222,0.4177777777777778,-0.6611111111111111,0.03674619921696243,0.14810659988813749,-0.03939340011186251
1589996561.2230167,-0.13107266315164637,-4.657854673696708,8.628391005272531,0.42120915146788956,0.4187312561347968,-0.6603364099460332,-0.5490917106044205,0.05244378295331541,-0.12164792765110513
1589996561.2330167,-0.1443902623421789,-4.6228048688289105,8.633658425946926,0.4033333333333333,0.4355555555555555,-0.6466666666666666,-0.259908709457927,-0.142530430180691,-0.009908709457926969
1589996561.2430167,-0.13,-4.623914170167654,8.706306882877223,0.4033333333333333,0.4355555555555555,-0.6466666666666666,-0.06794534532176372,-0.19700910911303937,0.06794534532176372
1589996561.2530167,-0.13,-4.594292313533581,8.62570768646642,0.4033333333333333,0.4355555555555555,-0.6466666666666666,0.06221128290583866,-0.14269216166047924,-0.19634608083023963
1589996561.2630167,-0.1370295416440362,-4.61757385411009,8.623514770822018,0.4033333333333333,0.4355555555555555,-0.6466666666666666,-0.20946731763761306,0.021967317637613053,-0.10303268236238694
1589996561.2730167,-0.14410219334867524,-4.629357676720364,8.64179561330265,0.40529926888377493,0.4355555555555555,-0.6466666666666666,-0.32372258314155955,0.0625,-0.02563870842922021
1589996561.2830167,-0.13,-4.588983799705449,8.664010800196367,0.41,0.4355555555555555,-0.6466666666666666,-0.27540500736377027,0.04378375061364752,0.025067501227295043
1589996561.2930167,-0.13,-4.628229159015791,8.583159750275431,0.41,0.4355555555555555,-0.6466666666666666,0.3259548292324642,0.0,-0.024522585383767906
1589996561.3030167,-0.13618204804045514,-4.633817951959545,8.58945638432364,0.41,0.4355555555555555,-0.6466666666666666,0.4136378002528445,0.154551201011378,-0.1159134007585335
1589996561.3130167,-0.13512508222911382,-4.625125082229114,8.634624753312659,0.41,0.4355555555555555,-0.6466666666666666,0.13281763931961282,0.036722347523728965,-0.15703176393196128
1589996561.3230166,-0.13,-4.62,8.662373872228,0.41229145781999993,0.43830530493955544,-0.6494164160506666,-0.2390578009499986,-0.1617210995250007,-0.0992210995250007
1589996561.3330166,-0.13,-4.640889639080574,8.653887951149283,0.4155555555555556,0.44222222222222224,-0.6533333333333333,-0.34514006106339673,-0.125,-0.0625
1589996561.3430166,-0.11345209740922568,-4.6434520974092255,8.596904194818451,0.4155555555555556,0.44222222222222224,-0.6533333333333333,-0.16815121761532106,-0.021575608807660532,-0.09697479706411316
1589996561.3530166,-0.11411330049261084,-4.601773399014778,8.598226600985223,0.4155555555555556,0.44222222222222224,-0.6533333333333333,0.05880541871921182,0.0036945812807881798,0.022013546798029554
1589996561.3630166,-0.1275703513255052,-4.5797185946979795,8.642148243372475,0.4155555555555556,0.44222222222222224,-0.6533333333333333,0.06425878313762992,-0.04731469578440748,0.15712939156881495
1589996561.3730166,-0.12099487356357878,-4.606020505745685,8.675025632182106,0.4155555555555556,0.44222222222222224,-0.6533333333333333,-0.10012816091053037,-0.006217959772367408,0.07493591954473482
1589996561.3830166,-0.12311759741582516,-4.656235194831651,8.631941623257573,0.41,0.4355555555555555,-0.6466666666666666,-0.46912012920874196,-0.019484983848907254,0.03896996769781451
1589996561.3930166,-0.13807869808112705,-4.665960650959437,8.561921301918874,0.41,0.4355555555555555,-0.6466666666666666,0.0012296575176099223,-0.03725406849647802,0.125
1589996561.4030166,-0.15,-4.636621183094186,8.576301169019041,0.41,0.4355555555555555,-0.6466666666666666,0.24229410212300112,0.0,0.08847059858466591
1589996561.4130166,-0.15,-4.584782862382262,8.644782862382263,0.41,0.4355555555555555,-0.6466666666666666,0.3052499235920091,0.0,0.0
1589996561.4230165,-0.1477858171073566,-4.612214182892644,8.681070914463216,0.4112301016070241,0.4355555555555555,-0.6466666666666666,-0.1316932153951057,-0.013838643079021138,0.013838643079021138
1589996561.4330165,-0.14030658217647707,-4.621532910882386,8.717547342588185,0.4155555555555556,0.4355555555555555,-0.6466666666666666,-0.3826645544119263,-0.0701645544119263,0.05675158419105527
1589996561.4430165,-0.14033890900012483,-4.647457454333624,8.59491490866725,0.4155555555555556,0.4355555555555555,-0.6466666666666666,-0.46398181666874716,-0.2923727270835934,-0.1652545458328132
1589996561.4530165,-0.12660687804533577,-4.613213756090671,8.533034390226678,0.4155555555555556,0.4355555555555555,-0.6466666666666666,-0.021767530541628416,-0.25,-0.18806051832497706
1589996561.4630165,-0.14,-4.610139796524581,8.63412594682905,0.4155555555555556,0.4355555555555555,-0.6466666666666666,0.1875,-0.1966782080796079,-0.0625
1589996561.4730165,-0.133517063445526,-4.582965873108948,8.673517063445527,0.4090726190010816,0.43771653440704683,-0.6535097663630559,0.06594493960361204,-0.08448164653453735,-0.0625
1589996561.4830165,-0.12979950719751004,-4.61979950719751,8.65020049280249,0.3955555555555556,0.44222222222222224,-0.6677777777777778,-0.09562962002334328,-0.09187037997665672,-0.09312345999221891
1589996561.4930165,-0.12971516942110609,-4.6351424152894465,8.568006185947743,0.3955555555555556,0.44222222222222224,-0.6677777777777778,-0.09642028667713046,-0.09107971332286954,-0.09285990444095651
1589996561.5030165,-0.12,-4.629747589962469,8.561514460225181,0.3955555555555556,0.44222222222222224,-0.6677777777777778,0.06881025093825888,0.0,-0.0625
1589996561.5130165,-0.12910017864504603,-4.616966607118318,8.632133571526728,0.3955555555555556,0.44222222222222224,-0.6677777777777778,0.3314587055105126,-0.037917411021025145,-0.0625
1589996561.5230165,-0.14639150748935,-4.611202830836883,8.655188676652466,0.3955555555555556,0.44222222222222224,-0.6677777777777778,0.36748230726947917,-0.10996461453895835,-0.0625
1589996561.5330164,-0.14768395419244437,-4.612316045807556,8.678419770962222,0.41,0.4222222222222222,-0.6466666666666666,0.18682127813610636,-0.07237643148611293,-0.11052471370277742
1589996561.5430164,-0.14,-4.62,8.603340431405023,0.41,0.4222222222222222,-0.6466666666666666,-0.39167553925627985,-0.24376330888441972,-0.08541223037186009
1589996561.5530164,-0.13807289928749486,-4.61614579857499,8.54385420142501,0.41,0.4222222222222222,-0.6466666666666666,-0.30045562054684277,-0.1731775178126288,-0.1009112410936856
1589996561.5630164,-0.1297480734115317,-4.600755779765405,8.562519265884683,0.41,0.4222222222222222,-0.6466666666666666,-0.2358291293986568,-0.3702763764662189,-0.0015745411779270217
1589996561.5730164,-0.1262426294820717,-4.623757370517928,8.66,0.41254329349269586,0.42638397521027005,-0.6466666666666666,0.247472609561753,-0.2005054780876494,-0.0494945219123506
1589996561.5830164,-0.14910620227838797,-4.602681393164835,8.660893797721613,0.4222222222222222,0.44222222222222224,-0.6466666666666666,0.00558623576007513,-0.22765505695969948,-0.01117247152015026
1589996561.5930164,-0.13589692703001943,-4.634103072969981,8.624866197330213,0.4222222222222222,0.44222222222222224,-0.6466666666666666,-0.014432618187135718,0.05128841212475715,-0.15064420606237858
1589996561.6030164,-0.1374688231770408,-4.64,8.574937646354082,0.4222222222222222,0.44222222222222224,-0.6466666666666666,-0.03163971028699014,0.125,-0.14081985514349507
1589996561.6130164,-0.1434260464954772,-4.636713023247738,8.619721860513568,0.4222222222222222,0.44222222222222224,-0.6466666666666666,0.16608720940326754,0.06336918589509871,-0.041956395298366235
1589996561.6230164,-0.13130100015875537,-4.627397999682489,8.662602000317511,0.421354888783052,0.4403429997706867,-0.6466666666666666,0.24186874900777902,-0.038106247023337037,-0.02439375297666296
1589996561.6330163,-0.13102742181199034,-4.614486289094005,8.657568554529975,0.4155555555555556,0.42777777777777776,-0.6466666666666666,0.07534277264987901,0.125,-0.21553930683753025
1589996561.6430163,-0.12435718236210971,-4.633071547086329,8.595142541103122,0.4155555555555556,0.42777777777777776,-0.6466666666666666,-0.1714295590527427,0.016070440947257278,-0.11383805118407161
1589996561.6530163,-0.13368849202595584,-4.646311507974044,8.561065476077868,0.4155555555555556,0.42777777777777776,-0.6466666666666666,-0.28944692483777595,-0.125,0.03944692483777597
1589996561.6630163,-0.1380382698550592,-4.64,8.589808650724704,0.4155555555555556,0.42777777777777776,-0.6466666666666666,-0.2132175597823602,-0.125,-0.024521626811759862
1589996561.6730163,-0.13,-4.633964581293939,8.636035418706062,0.41471730295749165,0.42895133141506725,-0.6466666666666666,-0.005917949630684351,-0.13443034172821927,-0.11556965827178073
1589996561.6830163,-0.13,-4.6,8.671420405400323,0.41,0.4355555555555555,-0.6466666666666666,0.2592347974878718,-0.15198986499191455,-0.044744932495957276
1589996561.6930163,-0.1344405497005432,-4.613321649101629,8.644475602395653,0.41,0.4355555555555555,-0.6466666666666666,-0.09025343562839501,0.0625,-0.048513742513580024
1589996561.7030163,-0.13629562532166753,-4.63,8.592591250643334,0.41,0.4355555555555555,-0.6466666666666666,-0.10184765826042202,0.0625,-0.11804297478126609
1589996561.7130163,-0.12510321941128302,-4.63,8.59713873206051,0.41,0.4355555555555555,-0.6466666666666666,-0.0625,0.047197560660259444,0.06120975735896221
1589996561.7230163,-0.11515456600108337,-4.63,8.65128864150027,0.4107159119445949,0.4355555555555555,-0.6485280377226134,-0.02222995311653623,-0.024162028130078263,0.18556792498645797
1589996561.7330163,-0.14649214561891777,-4.63,8.65912303640473,0.41506835355818306,0.4355555555555555,-0.6598443859179425,0.222594887647795,-0.171056932588677,-0.206151820236472
1589996561.7430162,-0.13196524602799237,-4.611965246027992,8.65641704766409,0.4155555555555556,0.4355555555555555,-0.6611111111111111,-0.0736967260497136,-0.012282787674952266,-0.0625
1589996561.7530162,-0.13931245292273198,-4.619312452922732,8.568250564927217,0.4155555555555556,0.4355555555555555,-0.6611111111111111,-0.3492169846024489,-0.05820283076707482,-0.0625
1589996561.7630162,-0.1279711880462564,-4.632028811953743,8.604057623907487,0.4155555555555556,0.4355555555555555,-0.6611111111111111,-0.2753601494217949,0.011779701156410298,-0.11231992528910258
1589996561.7730162,-0.12047453931258825,-4.639525460687412,8.619050921374823,0.4155555555555556,0.4355555555555555,-0.6611111111111111,-0.36906825859264686,-0.17563651718529374,-0.06546587070367657
