time,acc_x,acc_y,acc_z,mag_x,mag_y,mag_z,gyr_x,gyr_y,gyr_z
1589996720.2235115,-3.86,-0.88,9.0,0.31222222222222223,-0.3411111111111111,-0.6166666666666667,0.0625,-0.0625,0.0
1589996720.2335114,-3.869260371359813,-0.8614792572803744,8.916656657761685,0.31222222222222223,-0.3411111111111111,-0.6166666666666667,0.0625,-0.12037732099882983,-0.05787732099882984
1589996720.2435114,-3.869528966658785,-0.8502355166706077,8.930471033341215,0.31222222222222223,-0.3411111111111111,-0.6166666666666667,0.4419159375738945,-0.19191593757389452,0.05955604161740364
1589996720.2535114,-3.856305036651691,-0.8568474816741546,8.943694963348308,0.31222222222222223,-0.3411111111111111,-0.6166666666666667,0.5658902813903997,-0.31589028139039965,-0.023093520926933092
1589996720.2635114,-3.841085428768737,-0.851085428768737,8.994572856156315,0.32509882511182425,-0.32823450822150907,-0.6166666666666667,0.3464196490230329,-0.20785178941381974,0.04893214039078686
1589996720.2735114,-3.854278546366826,-0.857139273183413,8.978582180449761,0.32666666666666666,-0.32666666666666666,-0.6166666666666667,0.3125,-0.1875,-0.02674091479266276
1589996720.2835114,-3.87,-0.86,8.841891424686802,0.32666666666666666,-0.32666666666666666,-0.6166666666666667,0.1888134893658347,-0.125,-0.06512697873166942
1589996720.2935114,-3.87,-0.86,8.915211226570845,0.32666666666666666,-0.32666666666666666,-0.6166666666666667,0.2397300184519763,-0.125,-0.1669600369039526
1589996720.3035114,-3.87,-0.86,8.963009083867334,0.32666666666666666,-0.32666666666666666,-0.6166666666666667,0.279472396310119,-0.33130677417083304,-0.1875
1589996720.3135114,-3.8681939621716572,-0.8618060378283426,9.00722415131337,0.3182384901344009,-0.3278706918855618,-0.6130545910099814,0.3125,-0.6076509457085665,-0.1875
1589996720.3235114,-3.843339677222899,-0.87,9.015009515834349,0.28,-0.3333333333333333,-0.5966666666666667,0.41662701735688185,-0.9166270173568818,-0.03130947396467723
1589996720.3335114,-3.84,-0.8791765625763573,8.945764061965498,0.28,-0.3333333333333333,-0.5966666666666667,0.49485351610223327,-0.5933789033866002,-0.1147070322044666
1589996720.3435113,-3.84,-0.88,8.961555584531704,0.28,-0.3333333333333333,-0.5966666666666667,0.4550925322256166,-0.3379626611280828,-0.035185064451233136
1589996720.3535113,-3.8581813253828434,-0.8618186746171568,8.976060441794282,0.28,-0.3333333333333333,-0.5966666666666667,0.4375,-0.17424447757148664,-0.07575552242851336
1589996720.3635113,-3.87475895423821,-0.8595179084764198,8.98475895423821,0.29533440810089867,-0.3301606971745267,-0.5924364851215912,0.4375,-0.18448692797762412,-0.125
1589996720.3735113,-3.88,-0.8645694787280384,8.979138957456078,0.31222222222222223,-0.32666666666666666,-0.5877777777777777,0.5053815158995209,-0.5554668215478438,-0.09105924205023957
1589996720.3835113,-3.8426942017474186,-0.8786528991262907,8.886061953931693,0.31222222222222223,-0.32666666666666666,-0.5877777777777777,0.6790806195393169,-1.3371127879269262,0.05408061953931692
1589996720.3935113,-3.84,-0.88,8.916703902376081,0.31222222222222223,-0.32666666666666666,-0.5877777777777777,0.5957402440597983,-1.7420390237608065,-0.2586591457907058
1589996720.4035113,-3.84,-0.8696490370147457,8.95070192597051,0.31222222222222223,-0.32666666666666666,-0.5877777777777777,0.5301532406710804,-1.9396935186578392,-0.27795972201324104
1589996720.4135113,-3.8331410769166,-0.86,8.9768589230834,0.31222222222222223,-0.3312392820556,-0.6075924444631555,0.5,-1.5713173072875004,-0.14463173072875005
1589996720.4235113,-3.836409651095786,-0.8407710467126419,8.986409651095787,0.31222222222222223,-0.3333333333333333,-0.6166666666666667,0.3397587226053498,-1.014457125862037,-0.2051206386973251
1589996720.4335113,-3.8554874918722835,-0.8454874918722836,8.95128127031929,0.31222222222222223,-0.3333333333333333,-0.6166666666666667,0.25,-0.6673047636973409,-0.008007939495568245
1589996720.4435112,-3.866261402483306,-0.8374771950333882,8.952522804966613,0.31222222222222223,-0.3333333333333333,-0.6166666666666667,0.25,-0.5075987034380147,0.023366234479338263
1589996720.4535112,-3.881254489966781,-0.8356272449833905,8.993763469900344,0.31222222222222223,-0.3333333333333333,-0.6166666666666667,0.17965943770761877,-0.5430108434385719,0.03517028114619062
1589996720.4635112,-3.8521087148442428,-0.8345869592634632,8.982108714844243,0.31643236501730637,-0.33754347612841745,-0.6100507279886773,0.3279890276201286,-0.9633150460335478,0.028668495396645226
1589996720.4735112,-3.8128633751862098,-0.8442732496275803,8.92859012555863,0.32,-0.3411111111111111,-0.6044444444444445,0.45539609491381144,-1.4284156203447542,0.04460390508618855
1589996720.4835112,-3.848776152723318,-0.8596940381808295,8.842447694553364,0.32,-0.3411111111111111,-0.6044444444444445,0.376912261369816,-1.3182367841094478,0.001912261369815961
1589996720.4935112,-3.82148458211246,-0.8409897214083065,8.878020557183387,0.32,-0.3411111111111111,-0.6044444444444445,0.3155928794009581,-1.4313142411980837,0.0
1589996720.5035112,-3.8065380714092507,-0.8467309642953746,8.987695428725994,0.32,-0.3411111111111111,-0.6044444444444445,0.22836294630781714,-0.9747462046929942,0.08413705369218286
1589996720.5135112,-3.835368849252914,-0.832315575373543,9.04,0.325894808208819,-0.32833902665866993,-0.6103392526532635,-0.08881913478839082,-0.2526255573808965,-0.15131913478839082
1589996720.5235112,-3.84,-0.8457265612393093,9.079316403098273,0.32666666666666666,-0.32666666666666666,-0.6111111111111112,-0.02670899225431661,0.00908201549136678,-0.2857910077456834
1589996720.5335112,-3.8487194748845748,-0.8674389497691495,8.959207876731378,0.32666666666666666,-0.32666666666666666,-0.6111111111111112,0.16349015408577625,-0.04649343605718419,-0.09451312788563163
1589996720.5435112,-3.815718089379576,-0.8528590446897881,8.957140955310212,0.32666666666666666,-0.32666666666666666,-0.6111111111111112,0.24106548534441205,0.15176194137764823,-0.0625
1589996720.5535111,-3.836068867356435,-0.8369655663217824,8.96651721683911,0.32666666666666666,-0.32666666666666666,-0.6111111111111112,0.20926739475557016,0.10603478951114031,-0.14396521048885969
1589996720.5635111,-3.828726460459777,-0.83,8.96290882015326,0.3077568537420242,-0.32272712230736617,-0.594565024802049,0.09886025191573852,-0.026139748084261477,-0.1875
1589996720.5735111,-3.814048428362573,-0.83,8.930242141812865,0.3,-0.3211111111111111,-0.5877777777777777,0.09969732273391813,-0.025302677266081867,-0.15030267726608187
1589996720.583511,-3.824251764366988,-0.8371258821834942,8.881496471266022,0.3,-0.3211111111111111,-0.5877777777777777,0.30314705458735414,0.08907352729367708,-0.30314705458735414
1589996720.593511,-3.83,-0.8338958587964627,8.894416564814149,0.3,-0.3211111111111111,-0.5877777777777777,0.14609470486735207,0.125,-0.298698234955784
1589996720.603511,-3.824511481802426,-0.846465554592721,8.986839254766032,0.3,-0.3211111111111111,-0.5877777777777777,-0.0686064774696707,0.09069676126516465,-0.21569676126516465
1589996720.613511,-3.8254531533086014,-0.8654531533086015,9.060906306617204,0.3145417421562707,-0.32414064072700083,-0.6005018021645147,-0.05683558364248123,0.0625,-0.05117116728496246
1589996720.623511,-3.822510769672602,-0.877489230327398,9.07,0.32666666666666666,-0.32666666666666666,-0.6111111111111112,0.14042306863871337,0.015692310453762202,0.0625
1589996720.633511,-3.8117475796930345,-0.8717475796930343,8.979223376623377,0.32666666666666666,-0.32666666666666666,-0.6111111111111112,0.135922373081464,0.0,-0.09223288075560801
1589996720.643511,-3.8009908453091987,-0.879009154690801,8.96,0.32666666666666666,-0.32666666666666666,-0.6111111111111112,0.18130721681750606,0.16892165045251817,-0.29392165045251817
1589996720.653511,-3.8122068612391193,-0.8861034306195597,8.97831029185868,0.32666666666666666,-0.32666666666666666,-0.6111111111111112,0.26379288274449564,0.22564644137224782,-0.3506464413722478
1589996720.663511,-3.8270488058983814,-0.8618047764064753,8.975902388203238,0.31256905486990433,-0.33136587059892075,-0.6048455058681057,0.3125,0.33811007372976437,-0.5512201474595287
1589996720.673511,-3.8571471471471472,-0.8364264264264264,8.92927927927928,0.30666666666666664,-0.3333333333333333,-0.6022222222222222,0.18524774774774774,0.16291291291291293,-0.5401651651651651
1589996720.683511,-3.847171933583289,-0.83,8.88717193358329,0.30666666666666664,-0.3333333333333333,-0.6022222222222222,0.07744152829851812,-0.1752923585074094,-0.45244152829851814
1589996720.693511,-3.84,-0.8373748885360708,8.909499554144283,0.30666666666666664,-0.3333333333333333,-0.6022222222222222,-0.07577916005132779,-0.15781389329911483,-0.207034733247787
1589996720.703511,-3.8313142209170468,-0.8356571104585235,8.941714447707383,0.30666666666666664,-0.3333333333333333,-0.6022222222222222,-0.09785694036577211,-0.07071388073154421,-0.2064291789026837
1589996720.713511,-3.82,-0.8351395131880247,8.981563904673056,0.3083798377293416,-0.3324767478019959,-0.6033643362640055,-0.0625,-0.01606097871257739,-0.2884085319311339
1589996720.723511,-3.82,-0.8574969800880645,9.043329306784086,0.32,-0.32666666666666666,-0.6111111111111112,0.06773979074932782,-0.02080816740053773,-0.17709591629973115
1589996720.733511,-3.828819684171869,-0.8444098420859346,8.993540947484393,0.32,-0.32666666666666666,-0.6111111111111112,0.13975394785163422,0.014753947851634225,-0.3051230260741829
1589996720.743511,-3.8447057269653424,-0.85,8.96,0.32,-0.32666666666666666,-0.6111111111111112,0.11764317413355874,-0.03676761939983095,-0.286767619399831
1589996720.753511,-3.8384533143264434,-0.8576977904490377,8.975395580898075,0.32,-0.32666666666666666,-0.6111111111111112,0.22594440484675696,-0.009666785459729155,-0.1875
1589996720.763511,-3.82,-0.8747073900918635,9.004707390091863,0.3137234798775153,-0.32666666666666666,-0.606926764362788,0.12865762385170604,-0.15442118807414698,-0.21692118807414698
1589996720.773511,-3.82,-0.8856802816901409,8.998639436619719,0.30666666666666664,-0.32666666666666666,-0.6022222222222222,-0.044005281690140854,-0.04549295774647888,-0.07249119718309857
1589996720.783511,-3.808327039572024,-0.9016729604279758,8.93747167807411,0.30666666666666664,-0.32666666666666666,-0.6022222222222222,-0.08852199866257572,0.0625,0.0625
1589996720.793511,-3.806657053130808,-0.91,8.926628212523232,0.30666666666666664,-0.32666666666666666,-0.6022222222222222,-0.0625,0.1041065820675511,-0.062319746202653334
1589996720.803511,-3.81,-0.8918711285837568,8.970214785693738,0.30666666666666664,-0.32666666666666666,-0.6022222222222222,0.08857392846869308,0.16276848211717326,-0.16276848211717326
1589996720.813511,-3.8231075844251707,-0.8537848311496586,8.99,0.30666666666666664,-0.33103586147505687,-0.6080478153000759,0.02365519468536631,0.14653879867134156,-0.3513448053146337
1589996720.823511,-3.8442784810126582,-0.8328607594936709,8.997139240506328,0.30666666666666664,-0.3333333333333333,-0.6111111111111112,0.07136075949367088,0.08037974683544305,-0.392879746835443
1589996720.8335109,-3.835280469021712,-0.83,8.926402345108562,0.30666666666666664,-0.3333333333333333,-0.6111111111111112,0.21699706861429918,0.0625,-0.3290014656928504
1589996720.8435109,-3.8378762041298824,-0.8378762041298825,8.93150481651953,0.30666666666666664,-0.3333333333333333,-0.6111111111111112,0.15154744837646822,0.21017882743529767,-0.21404744837646822
1589996720.8535109,-3.8278388876787917,-0.8278388876787918,8.97040278080302,0.30666666666666664,-0.3333333333333333,-0.6111111111111112,0.2390104280113265,0.2880034760037755,-0.1875
1589996720.8635108,-3.824376720578114,-0.8243767205781142,8.998753441156229,0.300831039229181,-0.32798400818230483,-0.6047891813871683,0.2577909927735719,0.3125,-0.16014549638678596
1589996720.8735108,-3.8362692727453123,-0.826865363627344,9.006865363627345,0.2933333333333333,-0.3211111111111111,-0.5966666666666667,0.2266829546582002,0.3320914773291001,-0.08581704534179979
1589996720.8835108,-3.844996764415381,-0.8275048533769286,8.979987057661523,0.2933333333333333,-0.3211111111111111,-0.5966666666666667,0.2343244439903273,0.3280946663941964,-0.046905333605803616
1589996720.8935108,-3.836326232578812,-0.85,8.964283628051684,0.2933333333333333,-0.3211111111111111,-0.5966666666666667,-0.039538953617575166,0.029344185529699335,-0.10842209276484967
1589996720.9035108,-3.845772856871317,-0.8442271431286827,8.995772856871318,0.2933333333333333,-0.3211111111111111,-0.5966666666666667,-0.02641964455426725,0.04574106633719825,-0.206821421782931
1589996720.9135108,-3.8459944706456333,-0.84,9.008011058708734,0.3040147449449775,-0.32600675809978136,-0.5966666666666667,0.05006911692958205,0.07493088307041795,-0.18732720767604488
1589996720.9235108,-3.8447957337029766,-0.8495914674059528,8.976838396673212,0.32,-0.3333333333333333,-0.5966666666666667,0.03507999306919256,-0.05994667128720496,0.0
1589996720.9335108,-3.8350420949240536,-0.8500280632827024,8.910056126565404,0.32,-0.3333333333333333,-0.5966666666666667,-0.03133769775844529,-0.09383769775844529,0.0
1589996720.9435108,-3.836309683722066,-0.8454365612406887,8.911746244962755,0.32,-0.3333333333333333,-0.5966666666666667,0.033978507754304554,0.03943552326291366,0.06795701550860911
1589996720.9535108,-3.8324123919803132,-0.8441374639934377,8.959312680032811,0.32,-0.3333333333333333,-0.5966666666666667,0.0991408500410141,-0.0582042502050705,0.16164085004101408
1589996720.9635108,-3.8333096763594545,-0.8666193527189091,9.006619352718909,0.3111268824270303,-0.33703046565540407,-0.5863146961648686,0.0002217841301133533,-0.021129045506817823,0.06272178413011335
1589996720.9735107,-3.8184357390182635,-0.8584357390182633,9.02,0.30666666666666664,-0.3388888888888889,-0.5811111111111111,-0.15235108742390296,0.017574456288048518,0.0
1589996720.9835107,-3.8168582713754646,-0.8431417286245353,8.937700743494425,0.30666666666666664,-0.3388888888888889,-0.5811111111111111,-0.10177160780669145,-0.042864196096654275,0.08572839219330855
1589996720.9935107,-3.8337462213731226,-0.8606193320596841,8.920619332059685,0.30666666666666664,-0.3388888888888889,-0.5811111111111111,-0.14841388358201738,0.023413883582017375,0.039086116417982625
1589996721.0035107,-3.845148256587703,-0.8597034868245941,8.971186052701624,0.30666666666666664,-0.3388888888888889,-0.5811111111111111,-0.15532339632685654,0.09467660367314346,0.03217660367314346
1589996721.0135107,-3.8436459375951957,-0.8468229687975978,9.013177031202401,0.3109027082698696,-0.33500585075261957,-0.5860531596481812,-0.04557421993994516,0.1448564450150137,0.0029306649549588754
1589996721.0235107,-3.83,-0.84,9.015230349861453,0.32,-0.32666666666666666,-0.5966666666666667,0.06537937326815202,0.14278452995111401,-0.125
1589996721.0335107,-3.83,-0.8423060143346837,8.979245870987846,0.32,-0.32666666666666666,-0.5966666666666667,-0.03852446244936117,-0.05765035836709255,-0.09617482081645373
1589996721.0435107,-3.8206901763224184,-0.8593098236775818,8.923964735516373,0.32,-0.32666666666666666,-0.5966666666666667,0.19181360201511335,-0.07544080604534006,0.08727959697732997
1589996721.0535107,-3.8201093250192333,-0.8649453374903835,8.965273312548083,0.32,-0.32666666666666666,-0.5966666666666667,0.09340835931489655,0.15659164068510345,0.09272507794468964
1589996721.0635107,-3.8191333209256157,-0.86,8.995433339537191,0.3157740692488506,-0.33028889302479475,-0.5996851886317734,0.028541627892549166,0.2893751163223525,0.10187511632235251
1589996721.0735106,-3.82757743386642,-0.8482817107557201,8.98828171075572,0.31222222222222223,-0.3333333333333333,-0.6022222222222222,-0.10985896166512409,0.5947179233302482,0.15088034611162532
1589996721.0835106,-3.848103863656643,-0.8440519318283216,8.947584545373427,0.31222222222222223,-0.3333333333333333,-0.6022222222222222,-0.26347372178102973,0.7753245739270099,0.0743508521459802
1589996721.0935106,-3.856414984391259,-0.8464149843912591,8.907170031217483,0.31222222222222223,-0.3333333333333333,-0.6022222222222222,-0.3525936524453694,0.6332492195629552,0.022406347554630595
1589996721.1035106,-3.85,-0.8551822603719599,8.9453037672866,0.31222222222222223,-0.3333333333333333,-0.6022222222222222,-0.24924058178350023,0.09109203624225082,0.03087029089175012
1589996721.1135106,-3.8275820645341527,-0.87,8.992417935465847,0.3203175878071115,-0.32959701075569214,-0.6022222222222222,-0.15247197583461378,-0.2651120966615449,0.0
1589996721.1235106,-3.8144995555010577,-0.8744995555010576,9.01,0.32666666666666666,-0.32666666666666666,-0.6022222222222222,-0.040633334355169984,-0.31875555623678,0.028122221881610007
1589996721.1335106,-3.82,-0.8821001352241601,8.98479837731008,0.32666666666666666,-0.32666666666666666,-0.6022222222222222,0.0625,-0.2237483096979994,0.049374154848999686
1589996721.1435106,-3.82,-0.8698209489704566,8.935402864816473,0.32666666666666666,-0.32666666666666666,-0.6022222222222222,0.0940297672336616,-0.061940465532676806,0.0
1589996721.1535106,-3.833458270282854,-0.8455139099057153,9.006916540565708,0.32666666666666666,-0.32666666666666666,-0.6022222222222222,0.06892387382144105,-0.08411418926783844,-0.028038063089279478
1589996721.1635106,-3.84392287293811,-0.8430385635309452,9.04607712706189,0.32227763045530133,-0.32295286679551144,-0.6049231675830624,-0.018991022068407568,-0.11153591172636973,-0.0625
1589996721.1735106,-3.83,-0.85,9.016731376262626,0.31222222222222223,-0.3144444444444445,-0.6111111111111112,0.01862866950757576,-0.01862866950757576,-0.008414220328282825
1589996721.1835105,-3.8244784968852032,-0.8555215031147968,8.910306471966829,0.31222222222222223,-0.3144444444444445,-0.6111111111111112,0.125,-0.26303757786991966,-0.006518788934959843
1589996721.1935105,-3.8253448134705126,-0.86,8.902068880823077,0.31222222222222223,-0.3144444444444445,-0.6111111111111112,0.09159491580929509,-0.4084050841907049,-0.0625
1589996721.2035105,-3.83,-0.8554055351439174,8.934594464856081,0.31222222222222223,-0.3144444444444445,-0.6111111111111112,0.11993081070103206,-0.32263837859793587,-0.09121540535051603
1589996721.2135105,-3.8208330920671685,-0.85,8.967500723798494,0.3188427668403783,-0.3231020797143409,-0.6070369298076305,0.15885341270990155,-0.15885341270990155,0.018232936450492176
1589996721.2235105,-3.8163326916756652,-0.85,8.987334616648669,0.32666666666666666,-0.3333333333333333,-0.6022222222222222,0.08542067702709047,-0.20415864594581906,0.06876203108127142
1589996721.2335105,-3.8251665521640983,-0.85,8.94900068701541,0.32666666666666666,-0.3333333333333333,-0.6022222222222222,0.0625,-0.0885452448719207,-0.03229095102561586
1589996721.2435105,-3.840561653860227,-0.8552808269301134,8.941123307720455,0.32666666666666666,-0.3333333333333333,-0.6022222222222222,0.09550516831320893,0.1615155049396268,-0.1615155049396268
1589996721.2535105,-3.8409079666082655,-0.8554539833041327,8.996368133566937,0.32666666666666666,-0.3333333333333333,-0.6022222222222222,0.03976218695248891,0.1931747913016593,-0.22158739565082963
1589996721.2635105,-3.826553601623267,-0.8534463983767332,9.04,0.3174762709953782,-0.3310357344155112,-0.6052856874459851,0.023659959418329393,0.10346001014541766,-0.1013400405816706
1589996721.2735105,-3.830921851932525,-0.8545390740337375,9.04,0.3,-0.32666666666666666,-0.6111111111111112,0.1533692127108594,0.0625,0.02836921271085941
1589996721.2835104,-3.830271245463509,-0.85,8.952441209171578,0.3,-0.32666666666666666,-0.6111111111111112,0.125,0.03209764207346494,0.06080471585307013
1589996721.2935104,-3.8335490378646804,-0.85,8.878065383819573,0.3,-0.32666666666666666,-0.6111111111111112,0.09677283778191599,0.05645432443616801,0.125
1589996721.3035104,-3.8415852891656694,-0.8457926445828347,8.91682942166866,0.3,-0.32666666666666666,-0.6111111111111112,-0.01638791407185021,0.1512959713572834,0.07240805728543319
1589996721.3135104,-3.83,-0.8427758885248621,8.94,0.3033927526414981,-0.32851725901657475,-0.6111111111111112,-0.09030139343922367,0.11810278687844732,-0.03469860656077634
1589996721.3235104,-3.832412224108659,-0.8475877758913413,8.942412224108658,0.31222222222222223,-0.3333333333333333,-0.6111111111111112,-0.030152801358234296,-0.032347198641765704,-0.10992359932088286
1589996721.3335104,-3.843468679752907,-0.8538747190116289,8.936125280988371,0.31222222222222223,-0.3333333333333333,-0.6111111111111112,-0.05996225463298936,0.10585849691134042,0.002537745367010638
1589996721.3435104,-3.844604301151967,-0.8764028674346446,8.924388530261421,0.31222222222222223,-0.3333333333333333,-0.6111111111111112,0.07374103926673561,0.15377688219979313,0.08003584293305753
1589996721.3535104,-3.8161282873899096,-0.86,9.009358563050453,0.31222222222222223,-0.3333333333333333,-0.6111111111111112,0.028207184747736883,0.02419820381306578,-0.07660359237386843
1589996721.3635104,-3.8176148308594,-0.8523851691406001,9.0514222462891,0.31222222222222223,-0.3333333333333333,-0.6191489881293666,-0.07740730712875071,0.03870365356437536,0.0
1589996721.3735104,-3.840616153991319,-0.8559242309869787,9.054075769013021,0.31222222222222223,-0.3333333333333333,-0.6322222222222222,-0.06635096244574448,0.06635096244574448,-0.03317548122287224
1589996721.3835104,-3.83821472469138,-0.8621431497942533,8.992858898765519,0.31222222222222223,-0.3333333333333333,-0.6322222222222222,-0.0758946862140834,0.1741053137859166,-0.0625
1589996721.3935103,-3.82,-0.85,8.92,0.31222222222222223,-0.3333333333333333,-0.6322222222222222,0.03574742549397766,0.25,-0.026752574506022343
1589996721.4035103,-3.8230878304536082,-0.85,8.926175660907218,0.31222222222222223,-0.3333333333333333,-0.6322222222222222,0.08640211932989333,0.19210317899484003,0.04320105966494667
1589996721.4135103,-3.828890118555204,-0.85,8.937780237110406,0.31222222222222223,-0.3333333333333333,-0.6322222222222222,0.013873518059955445,0.08331027708993319,0.006936759029977722
1589996721.4235103,-3.835928254966414,-0.86,8.964071745033586,0.32666666666666666,-0.3333333333333333,-0.6022222222222222,-0.037051593540088607,-0.19442260968986708,0.037051593540088607
1589996721.4335103,-3.8455214057122156,-0.8510428114244308,8.936564217136645,0.32666666666666666,-0.3333333333333333,-0.6022222222222222,-0.04102635710403961,0.049464857194613854,0.06901757140269307
1589996721.4435103,-3.845262566185537,-0.8373687169072315,8.935787698556611,0.32666666666666666,-0.3333333333333333,-0.6022222222222222,0.09539103865960688,0.1381634420105897,0.049336557989410314
1589996721.4535103,-3.8587907780624056,-0.8312092219375945,8.981612295916793,0.32666666666666666,-0.3333333333333333,-0.6022222222222222,0.18246157526002285,0.002519212369988581,0.1849807876300114
1589996721.4635103,-3.825564732097226,-0.8555647320972259,9.024435267902774,0.32346341762577424,-0.3333333333333333,-0.6054254712631146,0.0625,0.0625,0.1943010609808451
1589996721.4735103,-3.81,-0.8414750790084911,9.031149525949052,0.31222222222222223,-0.3333333333333333,-0.6166666666666667,0.03484226859079313,0.11781546281841374,0.44671924380306893
1589996721.4835103,-3.81,-0.8532786720321931,8.950491951710262,0.31222222222222223,-0.3333333333333333,-0.6166666666666667,-0.206966800804829,0.4784834004024145,0.3770497987927566
1589996721.4935102,-3.81,-0.8592476908118619,8.888495381623724,0.31222222222222223,-0.3333333333333333,-0.6166666666666667,-0.3938077297034516,0.614221256684492,0.11559613514827419
1589996721.5035102,-3.8063022284122563,-0.8463022284122562,8.88109331476323,0.31222222222222223,-0.3333333333333333,-0.6166666666666667,-0.76366643454039,1.4579996518105849,0.0
1589996721.5135102,-3.803322451296973,-0.8366775487030268,8.916612256484866,0.31480635100875687,-0.3333333333333333,-0.6196199567084206,-1.020765320606082,2.1239798090912316,0.1453572442425748
1589996721.5235102,-3.8147569580153458,-0.8252430419846543,8.95,0.32,-0.3333333333333333,-0.6255555555555555,-1.2706169131713738,3.1662338263427476,0.3483070372122683
1589996721.5335102,-3.855981194878398,-0.835991642168177,8.94200417891591,0.32,-0.3333333333333333,-0.6255555555555555,-1.64992164532666,3.92484329065332,0.22501305911222333
1589996721.5435102,-3.9297654153959045,-0.8639530830791808,8.96953083079181,0.32,-0.3333333333333333,-0.6255555555555555,-2.146774461693687,4.720894769428329,0.21220676924488063
1589996721.5535102,-3.9695038447455144,-0.8826717929940193,9.055343585988037,0.32,-0.3333333333333333,-0.6255555555555555,-2.582299676553155,5.21040064689369,0.23020032344684488
1589996721.5635102,-3.982412854030501,-0.9125290486564996,9.115058097313,0.31803296215605587,-0.3316473008956669,-0.6233075123053337,-2.5775803376906317,4.698223039215686,0.26653277051561364
1589996721.5735102,-3.943962259766215,-0.9119811298831075,9.069858474123308,0.31222222222222223,-0.32666666666666666,-0.6166666666666667,-2.1117334015012434,2.635612988310753,0.7505896911528898
1589996721.5835102,-3.875091876016986,-0.9096231694249316,8.951130491725205,0.31222222222222223,-0.32666666666666666,-0.6166666666666667,-1.5247586518236298,1.2771138429178077,1.3655792356232885
1589996721.5935102,-3.7343562038537725,-0.9518296416351523,8.931674770394382,0.31222222222222223,-0.32666666666666666,-0.6166666666666667,-1.349709616423555,0.9623064109490366,2.048644876643256
1589996721.6035101,-3.557431786862655,-0.9805457050987598,9.038068442811207,0.31222222222222223,-0.32666666666666666,-0.6166666666666667,-0.9890646531924667,0.9696026642168121,1.8365095314653193
1589996721.6135101,-3.5384804431958825,-0.8180519812191817,8.886103962438362,0.31222222222222223,-0.32666666666666666,-0.6156637788211566,0.09991798125847201,1.4659916900772056,-1.8288165726970904
1589996721.6235101,-3.348036938902743,-0.9003569201995013,9.051249220698255,0.31222222222222223,-0.32666666666666666,-0.6111111111111112,-2.0,5.0,-5.875
1589996721.63351,-3.1650848358187806,-0.896143955226524,9.143220218908292,0.31222222222222223,-0.32666666666666666,-0.6111111111111112,-1.7441730721547235,5.402013743756863,-6.459747263646346
1589996721.64351,-3.2029691385706713,-0.7972978922907579,9.003241061600553,0.31222222222222223,-0.32666666666666666,-0.6111111111111112,-1.2111556728770028,5.949289616372457,-8.27030249908272
1589996721.65351,-2.1948661396617744,-0.8608670928722862,8.738265814255428,0.31222222222222223,-0.32666666666666666,-0.6111111111111112,-3.0245646868374774,3.217661717093694,-13.188462455010107
1589996721.66351,-1.1882437703639117,-0.8206869808636592,8.828701757606352,0.31240032837205983,-0.3265394479882112,-0.6109075612255824,-4.798187898673764,7.761922926896425,-14.243790441007755
1589996721.67351,-1.54,-0.85,9.2,0.32,-0.3211111111111111,-0.6022222222222222,-4.1875,10.9375,-19.3125
1589996721.68351,-1.547973811716654,-0.834052376566692,8.936864213350418,0.32,-0.3211111111111111,-0.6022222222222222,1.1449865855123527,1.7676165258479148,-22.801042626036118
1589996721.69351,-1.8127699003228976,-0.9775385571889854,8.735962375403622,0.32,-0.3211111111111111,-0.6022222222222222,1.864898166903993,0.6569826617998035,-27.592554802350534
1589996721.70351,-2.042237083774498,-1.0093608332072863,9.02,0.32,-0.3211111111111111,-0.6022222222222222,0.011403660407528243,4.472617169774628,-29.958890641543682
1589996721.71351,-2.10567860152553,-0.99123468527842,9.02,0.32,-0.3211111111111111,-0.6022222222222222,2.107239514682685,1.9236276172778148,-32.33794755720737
1589996721.72351,-2.3091048419491393,-1.0245524209745698,9.23089515805086,0.32666666666666666,-0.32666666666666666,-0.6166666666666667,1.4073421036368692,2.9430947378178782,-35.970321045638535
1589996721.73351,-2.354399721744507,-1.0443997217445073,9.121197078317326,0.32666666666666666,-0.32666666666666666,-0.6166666666666667,1.9550008695484145,2.887513043226218,-39.05503999922707
1589996721.74351,-2.344338253458498,-1.034338253458498,8.975784337944665,0.32666666666666666,-0.32666666666666666,-0.6166666666666667,1.9457718317687747,3.589614084115613,-41.60401548604249
1589996721.75351,-2.3807383461197715,-1.0680537595898287,8.948254509811314,0.32666666666666666,-0.32666666666666666,-0.6166666666666667,1.5578853367514278,3.716442668375714,-45.226097293170724
1589996721.76351,-2.4125410467426116,-1.0887294766286943,8.777458953257387,0.3270901744571019,-0.32589023571753534,-0.6158902357175354,1.375,3.632940771070661,-47.55763773462521
1589996721.77351,-2.446548425021284,-1.0717257874893582,8.743451574978717,0.3327580708368806,-0.3154990923546079,-0.6054990923546079,1.375,3.739213828191511,-50.001918048404754
1589996721.78351,-2.508320233588538,-1.1022134890590254,8.794071163019675,0.3333333333333333,-0.3144444444444445,-0.6044444444444445,1.9247776155635155,3.788167153309454,-54.060896837387745
1589996721.79351,-2.5724020914322576,-1.144934727621505,8.808311575873836,0.3333333333333333,-0.3144444444444445,-0.6044444444444445,1.8802763253942656,3.9216710238172032,-56.24146005568099
1589996721.80351,-2.6133625512528473,-1.164424965831435,8.944424965831434,0.3333333333333333,-0.3144444444444445,-0.6044444444444445,1.9579681093394077,4.298124145785877,-60.017728929384965
1589996721.81351,-2.590432437357631,-1.179711708428246,8.959711708428246,0.3333333333333333,-0.3144444444444445,-0.6044444444444445,2.2445945330296126,4.6802927107061505,-62.45405353075171
1589996721.82351,-2.6118739576933208,-1.2448424471166506,9.01187395769332,0.3655555555555556,-0.30666666666666664,-0.6022222222222222,2.5,4.900393882208373,-66.4598876503116
1589996721.83351,-2.642467655490465,-1.2972735884332545,9.017791100585814,0.3655555555555556,-0.30666666666666664,-0.6022222222222222,2.561691387261623,4.935882774523246,-69.02356817898541
1589996721.84351,-2.65,-1.358157771169197,8.941842228830803,0.3655555555555556,-0.30666666666666664,-0.6022222222222222,2.6735208952887777,5.337993034903741,-71.33510721552669
1589996721.85351,-2.65,-1.3873350028695153,8.912664997130484,0.3655555555555556,-0.30666666666666664,-0.6022222222222222,2.399984348098294,5.429171883967236,-73.20427362132833
1589996721.86351,-2.687220567410518,-1.427220567410518,8.816948581473705,0.3655555555555556,-0.30666666666666664,-0.6022222222222222,2.375,5.728285682894673,-75.46865691684164
1589996721.87351,-2.707695220566049,-1.4535936274213987,8.78050796572325,0.38128464050315486,-0.29945750273235033,-0.5989453295248057,2.485595128537807,5.860595128537807,-78.35301317059924
1589996721.8835099,-2.723000772766096,-1.4850038638304794,8.747996908935617,0.3922222222222223,-0.29444444444444445,-0.5966666666666667,2.4499710212714034,5.881235510635702,-80.83139972343108
1589996721.8935099,-2.733815535949701,-1.5314466078491025,8.76387866342156,0.3922222222222223,-0.29444444444444445,-0.5966666666666667,2.2590412990568907,5.821541299056891,-82.60482424449853
1589996721.9035099,-2.744558187510179,-1.5872557499864282,8.962697562476249,0.3922222222222223,-0.29444444444444445,-0.5966666666666667,2.619185546768969,6.113662890646206,-84.7491246086752
1589996721.9135098,-2.721788241255135,-1.6176156783264872,9.015827437071351,0.3922222222222223,-0.29444444444444445,-0.5966666666666667,2.85637248692568,6.066225502614864,-86.31455841370949
1589996721.9235098,-2.731609158439721,-1.652011448049651,9.038390841560279,0.4044444444444445,-0.2733333333333333,-0.6111111111111112,3.1975572402482553,6.6875,-88.4454006817378
1589996721.9335098,-2.7718381984227083,-1.712867388958957,8.97058882523667,0.4044444444444445,-0.2733333333333333,-0.6111111111111112,3.4834549605677037,6.721966220425777,-90.5271059049674
1589996721.9435098,-2.7782116427844215,-1.7574814994909511,8.868613715449255,0.4044444444444445,-0.2733333333333333,-0.6111111111111112,3.6427910696105394,6.841468302207905,-91.92129685909222
1589996721.9535098,-2.7497074187022554,-1.8402925812977446,8.89,0.4044444444444445,-0.2733333333333333,-0.6111111111111112,3.1158568344454847,6.817985899332709,-94.0512017271053
1589996721.9635098,-2.743375252875993,-1.8466247471240074,8.89,0.4044444444444445,-0.2733333333333333,-0.6111111111111112,2.9179766523747697,6.936714008575138,-95.15933074670129
1589996721.9735098,-2.7127280955198945,-1.8772719044801058,8.821820238799734,0.4461098540668284,-0.24303121724432686,-0.6111111111111112,2.940337052250496,7.213061753750827,-96.55963466425314
1589996721.9835098,-2.7,-1.9354734215431062,8.75463178324425,0.4655555555555556,-0.2288888888888889,-0.6111111111111112,2.9684212350395094,6.996712350395096,-98.10591430353814
1589996721.9935098,-2.7022243354616675,-1.986673006385002,8.744467690078341,0.4655555555555556,-0.2288888888888889,-0.6111111111111112,3.062618869718788,6.757010483177105,-99.40292306298963
1589996722.0035098,-2.7115586040026245,-2.0209102280183724,8.851820456036746,0.4655555555555556,-0.2288888888888889,-0.6111111111111112,3.558447650098425,7.048706375082021,-99.98620637508202
1589996722.0135098,-2.72,-2.080747030170007,8.97,0.4661365790211167,-0.2284074694459954,-0.6114265238495586,3.875,7.316235150850035,-100.25560272627506
1589996722.0235097,-2.72,-2.121124203392441,8.97,0.4975410470830098,-0.20238662448042682,-0.6284746636545863,3.875,7.518121016962206,-100.55843152544331
1589996722.0335097,-2.706152427184466,-2.1673140776699027,8.90076213592233,0.5044444444444445,-0.19666666666666666,-0.6322222222222222,3.8894053398058253,7.625,-100.94952366504855
1589996722.0435097,-2.68396225100989,-2.24,8.817987417003296,0.5044444444444445,-0.19666666666666666,-0.6322222222222222,3.649764068811812,7.6124213562706045,-101.0125786437294
1589996722.0535097,-2.655621260528609,-2.2487574789427827,8.812919159647594,0.5044444444444445,-0.19666666666666666,-0.6322222222222222,3.4817552522025363,7.535132878303805,-101.05337762610127
1589996722.0635097,-2.6312570432762126,-2.2974859134475745,8.829161971149192,0.5044444444444445,-0.19666666666666666,-0.6322222222222222,3.3802376803175527,7.382856520476329,-101.00261884015877
1589996722.0735097,-2.603375240020212,-2.3449057099545225,8.801719050025266,0.5311111111111111,-0.1511111111111111,-0.6466666666666666,3.2917976250631633,7.25,-101.125
1589996722.0835097,-2.569775235120361,-2.42,8.759213322921264,0.5311111111111111,-0.1511111111111111,-0.6466666666666666,3.1875,7.254214341493227,-101.12429760975112
1589996722.0935097,-2.5555345805181133,-2.42,8.709371031813397,0.5311111111111111,-0.1511111111111111,-0.6466666666666666,3.1875,7.52122661528537,-101.07979556411911
1589996722.1035097,-2.5054238230999233,-2.509152353800153,8.8058980599402,0.5311111111111111,-0.1511111111111111,-0.6466666666666666,3.6889819901258605,7.234958452124331,-101.34110110562548
1589996722.1135097,-2.532199552127395,-2.58439910425479,8.871519283403833,0.5311111111111111,-0.1511111111111111,-0.6466666666666666,3.870748320477731,7.469246081114705,-101.61649664095546
1589996722.1235096,-2.4962461100071236,-2.635358254283679,8.930716508567357,0.540496710951137,-0.13148667508196585,-0.6466666666666666,3.9375,7.48101636609051,-102.03796726781898
1589996722.1335096,-2.465775894650992,-2.682672316047025,8.918663841976487,0.5433333333333333,-0.12555555555555556,-0.6466666666666666,3.893049670784349,7.615301316862604,-102.79175493823477
1589996722.1435096,-2.4408424435052916,-2.709578778247354,8.785475882784393,0.5433333333333333,-0.12555555555555556,-0.6466666666666666,3.934867364045964,7.627632635954035,-103.48157154832175
1589996722.1535096,-2.3607142857142858,-2.7575714285714286,8.772071428571428,0.5433333333333333,-0.12555555555555556,-0.6466666666666666,3.788839285714286,7.6745535714285715,-104.29285714285714
1589996722.1635096,-2.3047085353478405,-2.77,8.77882286616304,0.5433333333333333,-0.12555555555555556,-0.6466666666666666,3.5845712594430035,7.797785827037997,-105.32714370278498
1589996722.1735096,-2.2453656451017356,-2.821544784966088,8.803089569932178,0.5577777777777778,-0.07222222222222223,-0.6844444444444444,3.605690187923898,7.6300843422663585,-106.64025302679907
1589996722.1835096,-2.2209124123054202,-2.82969586256486,8.819391725129721,0.5577777777777778,-0.07222222222222223,-0.6844444444444444,3.5038017179392504,7.986693987212624,-107.71008196163787
1589996722.1935096,-2.1430064196275342,-2.838554842263607,8.734451577363927,0.5577777777777778,-0.07222222222222223,-0.6844444444444444,3.6604032924426364,7.946532235852454,-108.55201646221319
1589996722.2035096,-2.065864639413122,-2.8627569070579186,8.781378453528959,0.5577777777777778,-0.07222222222222223,-0.6844444444444444,4.125,8.3125,-109.77146068745193
1589996722.2135096,-2.0410507010589836,-2.879299532627344,8.789649766313671,0.5577777777777778,-0.07222222222222223,-0.6844444444444444,4.125,8.3125,-110.65028767082767
1589996722.2235096,-2.042768595041322,-3.028553719008264,8.871322314049587,0.5644444444444444,-0.0011111111111111113,-0.6966666666666667,3.9292355371900825,8.33961776859504,-111.74173553719008
1589996722.2335095,-2.000288648517258,-3.0200577297034514,8.82034637822071,0.5644444444444444,-0.0011111111111111113,-0.6966666666666667,4.247835136120564,8.498917568060282,-112.06033513612056
1589996722.2435095,-1.9716487339733264,-3.0672162446577755,8.768864978631102,0.5644444444444444,-0.0011111111111111113,-0.6966666666666667,3.6788007645555485,8.616300764555548,-112.85599617722225
1589996722.2535095,-1.9186024541535873,-3.0513975458464127,8.702515582523542,0.5644444444444444,-0.0011111111111111113,-0.6966666666666667,3.6180122707679367,8.560753067691984,-113.12849386461603
1589996722.2635095,-1.8871047295775072,-3.082895270422493,8.759211486760487,0.5644444444444444,-0.0011111111111111113,-0.6966666666666667,3.4605236478875354,8.521380911971884,-113.20723817605624
1589996722.2735095,-1.8081667137153687,-3.092270839214421,8.751354196072105,0.5747499921585496,0.02293516688846769,-0.7147013751663508,3.6648435294592088,8.596614509819736,-113.00846372545065
1589996722.2835095,-1.7766915887850467,-3.10996261682243,8.753308411214952,0.5777777777777777,0.03,-0.72,3.250934579439252,8.292289719626169,-112.9375
1589996722.2935095,-1.7446711581649021,-3.2044294727836595,8.709342316329804,0.5777777777777777,0.03,-0.72,3.1055368409795743,8.230536840979575,-112.46258421559192
1589996722.3035095,-1.7052867595432541,-3.185286759543254,8.7,0.5777777777777777,0.03,-0.72,3.6023070562802557,8.640523955138391,-111.63734364029415
1589996722.3135095,-1.698649569156364,-3.239196553250911,8.760546984094546,0.5777777777777777,0.03,-0.72,3.4340813494090803,8.758440192772726,-110.06912443377269
1589996722.3235095,-1.6801190060724505,-3.2963889858309483,8.862777971661897,0.5866137750789109,0.07344365339723755,-0.7435626594696881,3.0022313638584492,8.625743787952816,-109.04662525301877
1589996722.3335094,-1.6255736738703341,-3.3377705304518663,8.750065225933202,0.5911111111111111,0.09555555555555556,-0.7555555555555555,3.3122961689587425,8.78463163064833,-107.51434184675836
1589996722.3435094,-1.6395867872079335,-3.3889669680198344,8.700619819188098,0.5911111111111111,0.09555555555555556,-0.7555555555555555,2.6404954797024867,8.690082579950415,-106.08961708947935
1589996722.3535094,-1.5476872493332519,-3.3302312750666747,8.729768724933326,0.5911111111111111,0.09555555555555556,-0.7555555555555555,2.3125,8.5625,-104.40569967833221
1589996722.3635094,-1.4622966672774282,-3.338770333272257,8.721229666727744,0.5911111111111111,0.09555555555555556,-0.7555555555555555,2.3125,8.5625,-103.23157917506464
1589996722.3735094,-1.4210276502135586,-3.364110600854234,8.745889399145765,0.6044444444444445,0.08888888888888889,-0.7833333333333333,2.080040303156813,8.217885930826295,-101.32658402646199
1589996722.3835094,-1.427762452230322,-3.3910498089212884,8.718950191078711,0.6044444444444445,0.08888888888888889,-0.7833333333333333,1.785392714923408,8.007423367802435,-100.19008618613314
1589996722.3935094,-1.4096205989477943,-3.4302276406313235,8.68992411978956,0.6044444444444445,0.08888888888888889,-0.7833333333333333,1.625474251315257,8.562025748684743,-98.10840120396601
1589996722.4035094,-1.3671853500607043,-3.4556887899635775,8.68143707001214,0.6044444444444445,0.08888888888888889,-0.7833333333333333,1.6785183124241199,8.508981687575881,-96.25185906515581
1589996722.4135094,-1.2449698141684746,-3.287454721252712,8.67178355815489,0.6044444444444445,0.08888888888888889,-0.7833333333333333,1.1739723846806904,8.345941715404207,-94.448269915574
1589996722.4235094,-1.28311731228199,-3.418312832751974,8.845325867449972,0.6200289659955531,0.08733043673377802,-0.7895671419537769,0.9748370662750138,8.04951119882504,-92.81005599412521
1589996722.4335093,-1.2716006751529643,-3.499599831211759,8.680004219706028,0.6266666666666667,0.08666666666666667,-0.7922222222222223,1.7174862859554119,7.517507384485548,-90.39003270272171
1589996722.4435093,-1.2,-3.4811617663252945,8.709502100146302,0.6266666666666667,0.08666666666666667,-0.7922222222222223,0.1989102049805717,6.6823135431906495,-88.20850834552519
1589996722.4535093,-1.2,-3.527349410857835,8.689707395346643,0.6266666666666667,0.08666666666666667,-0.7922222222222223,0.6525388566394513,6.476118701527522,-86.55894961222018
1589996722.4635093,-1.1856072186121678,-3.5715891720817483,8.708785562775665,0.6266666666666667,0.08666666666666667,-0.7922222222222223,1.0549097673479007,6.195090232652099,-83.90592488468401
1589996722.4735093,-1.1678379160636758,-3.628648335745297,8.75040520984081,0.6131532400707509,0.05828847081524361,-0.8138437047756873,1.4670586107091173,5.668921852387844,-81.7432525325615
1589996722.4835093,-1.1273887173549466,-3.640433230412968,8.724344204296925,0.6044444444444445,0.04,-0.8277777777777777,1.7690282066126335,5.375,-78.89658714460312
1589996722.4935093,-1.0844982387154911,-3.655501761284509,8.648996477430982,0.6044444444444445,0.04,-0.8277777777777777,1.772653497992955,5.255460493978864,-76.20144691570411
1589996722.5035093,-1.0374345198119543,-3.6211517797179313,8.676989590329079,0.6044444444444445,0.04,-0.8277777777777777,1.5464657488247147,5.340150688381464,-73.26554105104097
1589996722.5135093,-1.0225694926323523,-3.669444058941181,8.742013551573534,0.6044444444444445,0.04,-0.8277777777777777,1.6857626841911915,5.1427966447610105,-70.6297884607535
1589996722.5235093,-1.0198301528294094,-3.740509541511772,8.819490458488229,0.5133333333333333,0.06,-0.6466666666666666,1.5084923585295333,4.878184634448575,-66.94479966955804
1589996722.5335093,-1.0129002891367205,-3.761299132589839,8.79870086741016,0.5133333333333333,0.06,-0.6466666666666666,1.854985543163982,5.008119578686493,-64.69259396943411
1589996722.5435092,-0.8986777149678733,-3.6843674730522102,8.550228924546188,0.5133333333333333,0.06,-0.6466666666666666,2.0535203293423687,4.687857694603419,-60.645820898142624
1589996722.5535092,-0.8977229948026408,-3.7408919792105633,8.766983424638292,0.5133333333333333,0.06,-0.6466666666666666,1.674809488692232,3.5173128248349483,-57.13424462705436
1589996722.5635092,-0.9079869038900616,-3.734026192219877,8.744091672769569,0.5133333333333333,0.06,-0.6466666666666666,1.275572954809805,3.5746725972515403,-54.00450178779133
1589996722.5735092,-0.8970605747856463,-3.7688182756430613,8.710590862178469,0.5039881929007445,0.1304479817225927,-0.6236632440633711,1.5514213341536995,3.220642962051445,-51.00766488369324
1589996722.5835092,-0.9686641097080001,-3.8162213699026664,9.294351051127112,0.4988888888888889,0.1688888888888889,-0.6111111111111112,1.586116438108333,2.890744292072222,-46.58158447009444
1589996722.5935092,-0.32287109417766974,-2.674698154108914,7.5850896669513235,0.4988888888888889,0.1688888888888889,-0.6111111111111112,1.9554443386104359,6.218902592568263,-41.408952188574304
1589996722.6035092,-0.7269727824125775,-3.3359554621296725,8.301451750640478,0.4988888888888889,0.1688888888888889,-0.6111111111111112,4.481079890078609,10.638764807637566,-37.39089562942039
1589996722.6135092,-0.7676458093460913,-3.619374280382737,9.613912732758962,0.4988888888888889,0.1688888888888889,-0.6111111111111112,3.922919065390876,-6.728720421249058,-38.113798785087546
1589996722.6235092,-0.5944452321871676,-3.4069727047146405,8.578890464374336,0.49,0.2344444444444445,-0.5811111111111111,-6.479705778092875,4.628123892236795,-32.608560794044664
1589996722.6335092,-0.698763515386748,-3.798253396174106,8.782581092320488,0.49,0.2344444444444445,-0.5811111111111111,5.658615192680898,0.3388723315774882,-29.14567161075686
1589996722.6435091,-0.6600027723870252,-3.4300263376767397,8.550016634322152,0.49,0.2344444444444445,-0.5811111111111111,-1.1245148322705854,3.1248007346825615,-25.875233920155253
1589996722.6535091,-0.685189693487357,-3.6147244189072856,8.533206871008428,0.49,0.2344444444444445,-0.5811111111111111,1.0790981801437467,1.130815932250896,-23.513466235560273
1589996722.6635091,-0.69,-3.6281179201685188,8.705056638651849,0.49,0.2344444444444445,-0.5811111111111111,1.0441233368441416,1.1147013305246867,-20.78311668422071
1589996722.6735091,-0.7378311878768128,-3.8017585139318886,9.133517027863778,0.4985033222892111,0.2939677004689226,-0.6013065015479876,2.0109907120743036,0.41295421215577643,-17.366573651621312
1589996722.683509,-0.6753449373805986,-3.565747541215595,8.582472228118588,0.4988888888888889,0.2966666666666667,-0.6022222222222222,1.7033052076699922,0.5545973961650039,-15.049931896978702
1589996722.693509,-0.6760325452665978,-3.6522278168661844,8.36,0.4988888888888889,0.2966666666666667,-0.6022222222222222,0.9116863683350562,0.679234469305412,-11.313073126813165
1589996722.703509,-0.6672236707093475,-3.6863881646453263,8.641079244394355,0.4988888888888889,0.2966666666666667,-0.6022222222222222,1.6908726387323587,0.5677219129001329,-8.958550606402126
1589996722.713509,-0.6907806814422759,-3.7454052265960964,8.8,0.4988888888888889,0.2966666666666667,-0.6022222222222222,1.417982963943103,0.5,-6.220538372477671
1589996722.723509,-0.7241095923551469,-3.8293835732430144,8.976369904439338,0.5075114175503675,0.3005859978764297,-0.5983028910124591,1.1579623805491714,0.27953761945082856,-3.2915235272771257
1589996722.733509,-0.6133465042615027,-3.568087385298632,9.06944224928975,0.5111111111111111,0.3022222222222222,-0.5966666666666667,0.9462148548476635,-0.17704217418280377,0.1733092773405609
1589996722.743509,-0.45466097360286434,-3.2950098961460625,8.521744612715992,0.5111111111111111,0.3022222222222222,-0.5966666666666667,1.6228192341050103,2.953546489647964,2.991276936420041
1589996722.753509,-0.5304543510289436,-3.450908702057887,8.117228030987121,0.5111111111111111,0.3022222222222222,-0.5966666666666667,2.365907632717076,-0.5377759493370085,3.8718736633239867
1589996722.763509,-0.5955448154657293,-3.612829525483304,8.794147627416521,0.5111111111111111,0.3022222222222222,-0.5966666666666667,-2.273890597539543,-4.061895869947276,3.8879064147627416
1589996722.773509,-0.65,-3.65,8.36,0.5333333333333333,0.3211111111111111,-0.6111111111111112,1.0625,-0.125,7.0625
1589996722.783509,-0.6502353854112778,-3.650627694430074,8.362471546818416,0.5333333333333333,0.3211111111111111,-0.6111111111111112,1.0600480686325229,-0.12720673823072945,7.066177897051216
1589996722.793509,-0.6512391312824112,-3.7218586969236167,8.740266307950249,0.5333333333333333,0.3211111111111111,-0.6111111111111112,0.253872285257535,-1.1465692868561626,8.73451085896986
1589996722.803509,-0.6567830461960665,-3.69,8.67008728464705,0.5333333333333333,0.3211111111111111,-0.6111111111111112,0.8570761549016619,-0.977711922549169,9.5440306258576
1589996722.813509,-0.6419031197186316,-3.785529392956653,8.837342529575665,0.5333333333333333,0.3211111111111111,-0.6111111111111112,0.16898808980039282,-0.9178633010551318,10.023226602110263
1589996722.823509,-0.6679200000000001,-3.7082533333333334,8.664493333333333,0.5501940740740741,0.3415214814814815,-0.6111111111111112,0.3733333333333333,-1.0,11.23575
1589996722.833509,-0.702129857428829,-3.7640518940725234,8.700649287144145,0.5544444444444444,0.3466666666666667,-0.6111111111111112,-0.06655804465090698,-1.0,12.156980142418362
1589996722.843509,-0.69738807032529,-3.830955228130116,8.72216421097587,0.5544444444444444,0.3466666666666667,-0.6111111111111112,-0.42714561534628803,-1.1695894725603246,13.111473681400811
1589996722.853509,-0.67,-3.7710532137151285,8.672631190856581,0.5544444444444444,0.3466666666666667,-0.6111111111111112,-0.01754588095530704,-1.4429816476178772,14.304816476178772
1589996722.863509,-0.6911964983164983,-3.782991245791246,8.731794747474748,0.5544444444444444,0.3466666666666667,-0.6111111111111112,-0.3386734006734007,-1.400641414141414,15.471151515151515
1589996722.873509,-0.699436249137336,-3.8035906228433403,8.696617494824016,0.6160663244766506,0.35957791772103365,-0.6187404867341462,-0.6179531142167012,-1.5105703286749483,16.56119926457902
1589996722.883509,-0.7034454569820423,-3.860672741892254,8.767731841329402,0.6711111111111111,0.3711111111111111,-0.6255555555555555,-0.752102318413294,-1.6454829469311176,17.650738742964354
1589996722.893509,-0.71,-3.849223673230034,8.713939824525792,0.6711111111111111,0.3711111111111111,-0.6255555555555555,-0.14962390328619435,-1.7156720120892257,18.57220408462458
1589996722.903509,-0.7396432394751911,-3.83,8.766340528294371,0.6711111111111111,0.3711111111111111,-0.6255555555555555,-0.24554049343988849,-1.75,19.507263425199792
1589996722.913509,-0.7557774236679671,-3.8068903053281318,8.788445152664066,0.6711111111111111,0.3711111111111111,-0.6255555555555555,-0.4472177958495888,-1.569455510376028,20.14719787717274
1589996722.923509,-0.7365935563816605,-3.7743957042544403,8.75659355638166,1.0629523153884985,0.4734059387764469,-0.8058718619486898,-0.451236575795126,-1.632553696819496,21.461531908302355
1589996722.9335089,-0.7454915397631133,-3.824220389170897,8.780983079526226,1.1733333333333331,0.5022222222222222,-0.8566666666666667,-0.776377432318105,-1.6390889382402707,22.52457698815567
1589996722.9435089,-0.6255889026643898,-3.759498701724017,8.643634003134576,1.1733333333333331,0.5022222222222222,-0.8566666666666667,-1.0122181220613347,-1.8994362441226695,23.527569358347563
1589996722.9535089,-0.6637565265182742,-3.843669571703372,8.72161739881443,1.1733333333333331,0.5022222222222222,-0.8566666666666667,-1.0251086935186275,-1.8504347740745102,24.26119567777647
1589996722.9635088,-0.7154858644245927,-3.901943457698371,8.764858644245928,1.1733333333333331,0.5022222222222222,-0.8566666666666667,-0.9717866526537047,-1.834640042038886,24.365006568575932
1589996722.9735088,-0.71,-3.8695982142857144,8.741205357142857,1.1600421626984125,0.18034474206349205,-0.8982738095238095,-0.9049944196428571,-1.9700055803571428,23.929966517857142
1589996722.9835088,-0.7146483497788363,-3.8646483497788364,8.8211318475672,1.1477777777777778,-0.11666666666666667,-0.9366666666666666,-0.7297390694113643,-2.0,23.34326939435182
1589996722.9935088,-0.6857334259221437,-3.7629169560066993,8.725800416649648,1.1477777777777778,-0.11666666666666667,-0.9366666666666666,-0.45541695600669907,-1.651980107021772,22.339584780033494
1589996723.0035088,-0.6910974819247071,-3.69896883570182,8.585033158813264,1.1477777777777778,-0.11666666666666667,-0.9366666666666666,-0.3125,-1.7391205435053603,20.579824233358266
1589996723.0135088,-0.7841095602160342,-3.7968219120432067,8.67023286806481,1.1477777777777778,-0.11666666666666667,-0.9366666666666666,-0.525684751350214,-2.033904397839658,18.820719646489444
1589996723.0235088,-0.8291151799404708,-3.8361060250744115,8.789202895282763,0.8803360542376958,0.0591139021677039,-0.8003352023891845,-0.48064456119779925,-1.3423674686569858,16.803656591052583
1589996723.0335088,-0.8236195070722983,-3.812331725246956,8.784663450493913,0.6355555555555555,0.22,-0.6755555555555556,-0.14762191920186407,-1.397621919201864,14.788354090774835
1589996723.0435088,-0.8572246442934874,-3.8063347865760924,8.669215924836932,0.6355555555555555,0.22,-0.6755555555555556,-0.1875,-1.3354075838994222,13.365199060461658
1589996723.0535088,-0.901914022517912,-3.809042988741044,8.708613101330602,0.6355555555555555,0.22,-0.6755555555555556,-0.29022198055271237,-1.25,12.248352737973388
1589996723.0635087,-0.9348188605501829,-3.7802415192664225,8.750483038532845,0.6355555555555555,0.22,-0.6755555555555556,-0.12801899083028512,-1.2191273738537856,11.628773738537856
1589996723.0735087,-0.9392856157136943,-3.76,8.731428768572611,0.6004361848393313,0.26166705000229995,-0.6868651834133227,0.05803509821058926,-1.1205350982105893,11.212052647315884
1589996723.0835087,-0.9544774054718721,-3.723283891792192,8.68880648632032,0.57,0.2977777777777777,-0.6966666666666667,-0.38245946049800184,-1.253729730249001,11.3544756762988
1589996723.0935087,-0.9766806967956004,-3.726722787182402,8.690084180773603,0.57,0.2977777777777777,-0.6966666666666667,-0.2909651602199761,-1.0827195151924789,12.168069679560048
1589996723.1035087,-1.0299789053722515,-3.675741407378534,8.702860156375392,0.57,0.2977777777777777,-0.6966666666666667,-0.43736815857657124,-1.2944921812303671,13.25860838511453
1589996723.1135087,-0.9782119366626066,-3.7273102220556544,8.766265904619132,0.57,0.2977777777777777,-0.6966666666666667,-0.3554190480652113,-1.2649325400543427,14.390823807739155
1589996723.1235087,-1.017413635608703,-3.7113197558545092,8.868706817804352,0.57,0.2907007187805643,-0.7079067015445939,-0.02358282469689421,-1.2186669573160605,15.15616695731606
1589996723.1335087,-1.1413928236110544,-3.6089553822917093,8.887263338367962,0.57,0.2788888888888889,-0.7266666666666667,0.038867004122953824,-1.4202427848307957,15.327580928276932
1589996723.1435087,-1.018299230001426,-3.7085038499928706,8.684897690004277,0.57,0.2788888888888889,-0.7266666666666667,-0.4761826251247683,-1.4987211250534722,15.566336624839584
1589996723.1535087,-0.9625640001452486,-3.770329714223465,8.649835142888268,0.57,0.2788888888888889,-0.7266666666666667,-0.06765178474163913,-1.2510303569483279,16.605883928247213
1589996723.1635087,-0.8826230444216056,-3.8289345666324084,8.667869133264817,0.57,0.2788888888888889,-0.7266666666666667,-0.5297119447299303,-1.3355529861824826,16.85194701381752
1589996723.1735086,-0.8875903373427693,-3.8681927530070768,8.778192753007078,0.5558634457809231,0.24413652643365816,-0.691914304211436,-0.1362952937057691,-1.2206325489509615,16.403614118882693
1589996723.1835086,-0.8653733275787656,-3.847686663789383,8.788433318946915,0.5433333333333333,0.21333333333333332,-0.6611111111111111,0.0237915407854985,-1.105875053949072,14.289625593439792
1589996723.1935086,1.6863049552464995,-9.442952310290938,0.1317520956004241,0.5433333333333333,0.21333333333333332,-0.6611111111111111,0.09049264369267684,-0.9589779310780305,12.018117472019195
1589996723.2035086,2.7999674364636746,-7.4629535501740465,-3.628777931654003,0.5433333333333333,0.21333333333333332,-0.6611111111111111,-44.57393466706591,63.476389096829735,-153.57005137178575
1589996723.2135086,2.7393911948176584,-6.061196617082533,-0.6557569577735125,0.5433333333333333,0.21333333333333332,-0.6611111111111111,-115.23286798224568,42.00405245321497,-729.0858062919865
1589996723.2235086,0.5348852251109699,-9.128060875079264,-0.8722777425491439,0.501718875502008,0.29145170154301414,-0.6319079828084267,-137.03910906785035,55.97736207989854,-1035.5893310082436
1589996723.2335086,-11.966761409924507,-15.551489943335085,4.984389992215363,0.48,0.3322222222222222,-0.6166666666666667,-110.6852947299817,140.6870360899397,-1002.6910019552112
1589996723.2435086,-7.880898039861636,-7.431795091418216,5.3553823093394834,0.48,0.3322222222222222,-0.6166666666666667,-91.57103236699061,188.50193954867402,-758.7217406522814
1589996723.2535086,0.026535222595448604,0.2984139187207264,0.015898661115579138,0.48,0.3322222222222222,-0.6166666666666667,-33.9549161423097,93.80200596111084,-371.1710537209632
1589996723.2635086,-0.5489951650199706,-0.6974143367668699,1.7096089972671853,0.48,0.3322222222222222,-0.6166666666666667,-8.034620033634644,37.14866249737229,-259.4589420853479
1589996723.2735085,-0.6639465628436414,-1.1728778197164682,6.601923202662942,0.3188397182512557,0.5437450920174491,-0.5422849981672462,55.08353084970428,36.605700359616016,-239.49093715635865
1589996723.2835085,-0.6811585008263582,-1.3100426507437224,8.012402303140162,0.2488888888888889,0.6355555555555555,-0.51,87.41000693074585,39.074582155995095,-232.21703897211708
1589996723.2935085,0.2636662620019864,-0.28335227899790305,10.144383622116765,0.2488888888888889,0.6355555555555555,-0.51,184.8110997682375,30.964018182319833,-208.17724657874408
1589996723.3035085,3.4025242470648287,2.754853059140961,7.98548202435645,0.2488888888888889,0.6355555555555555,-0.51,254.9349795814191,16.145972343761393,-185.2305157514767
1589996723.3135085,0.4061888381595681,-0.11621802489211333,-1.2539725227760752,0.2488888888888889,0.6355555555555555,-0.51,172.0215551837722,-12.837414263973148,-158.7690234953197
1589996723.3235085,0.4940138478769982,0.3766782065641653,-0.3501289753249839,0.17233441567012486,0.6394613960259006,-0.5607759261144863,50.24899662288294,-2.375451837898378,-129.63249032685061
1589996723.3335085,3.454646961872322,-0.17486913525986159,18.184954180859247,0.14,0.6411111111111111,-0.5822222222222222,-12.806451214152297,27.418194429183604,-107.78946681683331
1589996723.3435085,2.0942263710618443,-0.7264904150691782,18.16989564927488,0.14,0.6411111111111111,-0.5822222222222222,-73.54726829471579,19.346478579763293,-90.17760876812802
1589996723.3535085,0.12685047193243926,-1.1762096373571782,9.446241927471435,0.14,0.6411111111111111,-0.5822222222222222,-86.28668343268754,12.917986214605067,-73.05594883258817
1589996723.3635085,1.0986877020163153,-1.4,9.250047098660922,0.14,0.6411111111111111,-0.5822222222222222,-14.655710327843618,16.966478759427428,-62.844022241034324
1589996723.3735085,1.4697418251253083,-1.3160517940965868,11.69162502983531,0.13282493966637496,0.6399836016301128,-0.5821197213603133,25.21240502426605,2.627536001272973,-57.05719677380858
1589996723.3835084,1.570259841404701,-1.2380890682526196,7.343753894080997,0.06222222222222223,0.6288888888888889,-0.5811111111111111,28.16276816057774,0.6769904064004528,-45.49950881478335
1589996723.3935084,3.911871999435188,-3.3293031629483196,14.106634425303586,0.06222222222222223,0.6288888888888889,-0.5811111111111111,-2.0254959757130755,-10.994673997458346,-34.926338340158146
1589996723.4035084,3.386038709677419,-3.4153548387096775,7.226137634408602,0.06222222222222223,0.6288888888888889,-0.5811111111111111,-17.098172043010752,1.9478494623655913,-20.943817204301077
1589996723.4135084,-2.08580786547005,1.5118474015325443,10.332727869047973,0.06222222222222223,0.6288888888888889,-0.5811111111111111,-9.659426339485375,1.77689592712961,-21.923868481469334
1589996723.4235084,-0.5507525280238301,0.6075158736380027,7.554197695382927,0.05707263114804073,0.6276014911203436,-0.6064299338925034,14.374941208748139,15.381628713647409,-22.182174492435525
1589996723.4335084,0.1657292543342872,-0.23334581720249115,7.041887308533917,0.048888888888888885,0.6255555555555555,-0.6466666666666666,18.66884783706447,4.886140801211916,-8.618159295573136
1589996723.4435084,3.3841794827486904,-3.672978707063725,8.302734673501911,0.048888888888888885,0.6255555555555555,-0.6466666666666666,-13.922990707140524,-16.334368939961216,7.314904815390818
1589996723.4535084,7.620586523327295,-7.414685356220117,8.543139013452915,0.048888888888888885,0.6255555555555555,-0.6466666666666666,-13.99482337481068,1.4810475009651647,21.288348602738097
1589996723.4635084,3.376155701137413,-4.583101563441985,8.860425625979662,0.048888888888888885,0.6255555555555555,-0.6466666666666666,2.307094268719103,2.5101357461516827,23.685050842007957
1589996723.4735084,1.8160164516236024,-3.307583004411423,10.593871438522006,0.03691425180860983,0.6178072609741985,-0.6276481254215176,4.60312116488109,0.5873557166075152,21.944792945039637
1589996723.4835083,3.8,-4.64,11.11,0.03,0.6133333333333333,-0.6166666666666667,2.75,5.4375,22.5625
1589996723.4935083,2.5108118957694954,-3.8384322667996864,9.359910449179315,0.03,0.6133333333333333,-0.6166666666666667,0.07810755599895502,-0.6577546378773844,25.526630680063658
1589996723.5035083,2.0141017335934337,-3.527490338253156,8.706152600390151,0.03,0.6133333333333333,-0.6166666666666667,-0.12420520630129928,-2.4652085096985537,26.35668868931503
1589996723.5135083,2.1872895853291365,-3.7165416723689613,9.144391679211715,0.03,0.6133333333333333,-0.6166666666666667,0.27161454769399207,-1.3790885452306008,25.866529954153552
1589996723.5235083,2.287741549199398,-4.003547283426851,9.775804023539072,0.03,0.6133333333333333,-0.6166666666666667,-1.5221705214178183,-1.5584670521417818,26.180442341248117
1589996723.5335083,2.2333740601503758,-3.566804511278195,8.620648496240602,0.03666666666666667,0.6355555555555555,-0.6166666666666667,0.1629464285714286,-1.7133458646616542,26.448132048872182
1589996723.5435083,2.4933046189826547,-3.731652309491327,8.806987721691677,0.03666666666666667,0.6355555555555555,-0.6166666666666667,0.13823085168583127,-2.1614134671603975,27.251990352757748
1589996723.5535083,2.4508836412646713,-3.7751811085528164,8.661728814511147,0.03666666666666667,0.6355555555555555,-0.6166666666666667,-1.939009237940136,-2.401859170550907,27.916918206323356
1589996723.5635083,2.312726109760778,-3.694642445951132,8.750512984520917,0.03666666666666667,0.6355555555555555,-0.6166666666666667,-2.021339708328003,-2.4511641294614304,28.48633587053857
1589996723.5735083,2.200946911196911,-3.560946911196911,8.512249034749034,0.04502960102960103,0.6341617331617332,-0.621545045045045,-1.0428993725868725,-1.8982987451737452,30.038833252895753
1589996723.5835083,2.3388014051023664,-3.726000780612426,9.007602810204734,0.06333333333333334,0.6311111111111111,-0.6322222222222222,-1.0,-1.8125,32.3125
1589996723.5935082,2.210807486631016,-3.6537707219251336,8.69100935828877,0.06333333333333334,0.6311111111111111,-0.6322222222222222,-1.2735670120320854,-2.254415942513369,33.638247827540106
1589996723.6035082,2.347918228637494,-3.7352681918508917,8.863975055179905,0.06333333333333334,0.6311111111111111,-0.6322222222222222,-1.7977130995340365,-3.1397869004659635,36.40772693830361
1589996723.6135082,2.1487325946554483,-3.698547135154352,8.550726432422824,0.06333333333333334,0.6311111111111111,-0.6322222222222222,-1.4704405403803993,-3.119300675475499,39.04211723055045
1589996723.6235082,2.2000843910342964,-3.7211963273021875,8.593462395355116,0.0696012242326042,0.6311111111111111,-0.634050357067843,-1.0074770456386712,-2.8197133236564946,41.31197255603565
1589996723.6335082,2.002913209657873,-3.6959504055187846,8.808987601379696,0.09,0.6311111111111111,-0.64,-1.0462938146732546,-3.3061725086231006,44.34181271557752
1589996723.6435082,2.0279017512494413,-3.769770427857462,8.842327820893097,0.09,0.6311111111111111,-0.64,-1.8415977611637073,-3.700614054690992,47.15563289789119
1589996723.6535082,1.967502560837186,-3.82,8.892223360372084,0.09,0.6311111111111111,-0.64,-2.5034900058137923,-4.135405996511724,50.22233603720827
1589996723.6635082,2.0014388565378507,-3.830710428798306,8.816465854949708,0.09,0.6311111111111111,-0.64,-2.3573517734250924,-4.053507146638433,54.69581789306511
1589996723.6735082,1.8947765058599073,-3.802665576451349,8.610277323521396,0.09482109869477,0.6315493928106356,-0.6426296901971472,-1.3125,-4.1038131984191875,59.57434757427092
1589996723.6835082,1.676831085451453,-3.793689480871044,8.927397168387515,0.10222222222222224,0.6322222222222222,-0.6466666666666666,-1.1677511798385358,-4.302682485686223,65.19760199314855
1589996723.6935081,1.6021018978300796,-3.81789810216992,8.931353649411605,0.10222222222222224,0.6322222222222222,-0.6466666666666666,-2.029458030065982,-5.060807938235494,70.49621624379294
1589996723.7035081,1.5788519021739131,-3.777139945652174,8.748288043478261,0.10222222222222224,0.6322222222222222,-0.6466666666666666,-2.9268002717391304,-5.683975883152174,75.78248131793478
1589996723.7135081,1.5521622518911997,-3.7610811259455996,8.677657283786667,0.10222222222222224,0.6322222222222222,-0.6466666666666666,-3.154842716213332,-6.125,81.50001037491997
1589996723.7235081,1.547177131379259,-3.78,8.591371447701235,0.10856635090677645,0.6280985385772619,-0.6384192993767461,-3.1340713807469127,-6.26774289540247,87.87340053563457
1589996723.733508,1.4162484090738938,-3.78,8.773958598487685,0.12444444444444445,0.6177777777777778,-0.6177777777777778,-2.7452295612787303,-6.641494160365352,93.82341422100771
1589996723.743508,1.2414200323635283,-3.7769033387272546,8.79380667745451,0.12444444444444445,0.6177777777777778,-0.6177777777777778,-3.299187196591922,-7.233853323866451,102.4624124863776
1589996723.753508,1.1997852882703777,-3.7698926441351888,8.779570576540754,0.12444444444444445,0.6177777777777778,-0.6177777777777778,-3.6928677932405565,-8.315519383697813,107.85275844930418
1589996723.763508,1.1127546748534747,-3.7827083020245174,8.685462976877991,0.12444444444444445,0.6177777777777778,-0.6177777777777778,-4.5966436054874515,-9.056712789025097,118.3107610189141
1589996723.773508,0.9625426170468188,-3.831567827130852,8.723241296518609,0.13990342803788183,0.6271468587434974,-0.6238676804054956,-4.226695678271309,-9.612154861944777,127.40967887154862
1589996723.783508,0.8163380191283137,-3.8253661980871687,8.750971821041144,0.16111111111111112,0.64,-0.6322222222222222,-3.9375,-9.971038738044804,137.7183107067206
1589996723.793508,0.722808988764045,-3.8441573033707863,8.756629213483146,0.16111111111111112,0.64,-0.6322222222222222,-4.202949438202247,-10.501404494382022,146.51615168539325
1589996723.803508,0.5776024969702513,-3.7940017835501796,8.723202615873596,0.16111111111111112,0.64,-0.6322222222222222,-4.7749925685409185,-11.447489595957286,155.43239373013515
1589996723.813508,0.4562512351248013,-3.7624827082527816,8.708714181380762,0.16111111111111112,0.64,-0.6322222222222222,-5.4764467070498775,-12.265516926579886,163.76452882673885
1589996723.823508,0.4304818361453109,-3.8617108983128134,8.784601915184679,0.18756906655857863,0.6239517319417001,-0.6322222222222222,-6.0625,-13.032079343365254,172.92336031311748
1589996723.833508,0.30089574645537953,-3.8539199332777314,8.734752293577982,0.2288888888888889,0.5988888888888889,-0.6322222222222222,-5.899499582985822,-13.570600500417013,183.41991242702252
1589996723.843508,0.20585271023783333,-3.8175581307135,8.711434017372833,0.2288888888888889,0.5988888888888889,-0.6322222222222222,-5.75,-14.112887854189584,191.29651405378752
1589996723.853508,0.18429398011477696,-3.8392650497130574,8.608530099426115,0.2288888888888889,0.5988888888888889,-0.6322222222222222,-6.044487872847933,-14.870406560706611,198.00645029875068
1589996723.863508,0.13191952805929513,-3.9473065093530986,8.789597640296476,0.2288888888888889,0.5988888888888889,-0.6322222222222222,-7.1106804316038925,-15.680340215801946,204.97909733777038
1589996723.873508,0.07219629575616159,-3.9730782412133587,8.713078241213358,0.24621558666731483,0.5941634258584091,-0.6406230453875197,-7.705698784089252,-16.01476707197025,211.21298034854894
1589996723.883508,-0.05013161502604881,-4.079755572094481,8.819661561361588,0.3022222222222222,0.5788888888888889,-0.6677777777777778,-7.561442379254965,-16.063322593912805,216.76386658310156
1589996723.893508,-0.15912630127869942,-3.95,8.667388410895091,0.3022222222222222,0.5788888888888889,-0.6677777777777778,-6.853276370204878,-16.67117756809431,226.54593989161953
1589996723.903508,3.5631675602144512,-7.922652636632792,7.641696207089702,0.3022222222222222,0.5788888888888889,-0.6677777777777778,-7.115047611426743,-17.305035708570056,232.39520234856366
1589996723.913508,9.795482373789582,-15.480696820742178,6.265086390582478,0.3022222222222222,0.5788888888888889,-0.6677777777777778,-11.577427163983883,-19.29707047319677,208.74032061559882
1589996723.923508,1.9327246848312323,-11.00111996746645,9.741377795851973,0.3105282183362704,0.5703273236636393,-0.6677777777777778,-25.287362749084995,-20.46725294835299,55.53637149247662
1589996723.933508,-2.966169603333044,-1.0891207360472186,9.133492925961288,0.3744444444444445,0.5044444444444445,-0.6677777777777778,14.331297196423922,18.9002376095825,-95.83822042357434
1589996723.943508,-4.524899619181425,-3.6084393832957447,12.8505423891744,0.3744444444444445,0.5044444444444445,-0.6677777777777778,44.87057945428329,21.70953802639849,-63.44529430251045
1589996723.953508,-0.9176034737620103,-1.3731559497413155,8.061407982261642,0.3744444444444445,0.5044444444444445,-0.6677777777777778,2.9319452143385085,-0.07512241315594981,-9.357862158167038
1589996723.963508,-0.83,-3.345251098074147,9.80504776238597,0.3744444444444445,0.5044444444444445,-0.6677777777777778,-21.601579537426666,-6.592854455263077,5.785284270663759
1589996723.973508,-0.7945189873417721,-4.219906871609403,9.512380650994576,0.3857082579867391,0.49937572835041194,-0.6677777777777778,-10.252271699819168,-4.318891274864376,32.50374095840868
1589996723.9835079,-0.5726075639258918,-2.9139871382636655,8.236196600826826,0.4188888888888889,0.4844444444444445,-0.6677777777777778,7.065571887919155,-2.4831285408053896,57.68020785484612
1589996723.9935079,2.6623569846308426,-8.556486332183882,8.07851766425358,0.4188888888888889,0.4844444444444445,-0.6677777777777778,-5.283979709516089,-5.951310546027541,60.05050212382105
1589996724.0035079,3.5779990193674918,-10.359867859769551,8.98729664133366,0.4188888888888889,0.4844444444444445,-0.6677777777777778,-5.769218864917872,-3.5207894091689136,19.56512932091199
1589996724.0135078,-1.0020483635774464,-2.956233392741413,8.795418016850292,0.4188888888888889,0.4844444444444445,-0.6677777777777778,8.71558550712897,5.595263893389501,-16.97975990359689
1589996724.0235078,0.05199962483586573,-3.4685659350966045,7.777203151378728,0.42133923174722276,0.48024385668730074,-0.6677777777777778,6.704429281560683,1.1286519883699118,1.3402621459388486
1589996724.0335078,0.8871759830182958,-5.889670878398867,9.303047407257656,0.4266666666666667,0.4711111111111111,-0.6677777777777778,-8.989277772162135,-3.857765591832609,9.30292883857273
1589996724.0435078,-0.20520814514672103,-5.802191653547371,8.999479959738817,0.4266666666666667,0.4711111111111111,-0.6677777777777778,-1.1575670374480609,-0.6419319560224017,-0.27929259039409504
1589996724.0535078,-0.22643072411826992,-4.049058401889712,8.667171947544189,0.4266666666666667,0.4711111111111111,-0.6677777777777778,4.315859941353751,1.1527755151910077,-1.5378757025331922
1589996724.0635078,-0.07380314294617817,-4.711051284334238,8.779574856430575,0.4266666666666667,0.4711111111111111,-0.6677777777777778,-0.026845534879579754,-0.25,0.2918062480523528
1589996724.0735078,-0.08237546710548871,-4.4943103980253,8.67668586513079,0.42285440021941106,0.47238186659352965,-0.6677777777777778,0.053520004113956604,-0.2261733347046522,-0.0625
1589996724.0835078,-0.055562415618695106,-4.659468454665433,8.734375843813048,0.4066666666666667,0.4777777777777778,-0.6677777777777778,-0.2673825488084222,-0.0902349023831556,-0.0972650976168444
1589996724.0935078,-0.06828764733544698,-4.704006765674064,8.60712352664553,0.4066666666666667,0.4777777777777778,-0.6677777777777778,-0.3071488979232718,-0.010702204153456407,-0.1767977958465436
1589996724.1035078,-0.08389539505060675,-4.611985056435802,8.593970112871602,0.4066666666666667,0.4777777777777778,-0.6677777777777778,0.22471980817126808,0.30009339727624396,-0.0625
1589996724.1135077,-0.1357564516983732,-4.619393778814054,8.608787557628107,0.4066666666666667,0.4777777777777778,-0.6677777777777778,0.36363335276349956,0.2537888824121668,-0.0625
1589996724.1235077,-0.10226169185918323,-4.5539579607535705,8.713780347387246,0.4066666666666667,0.4777777777777778,-0.6677777777777778,0.7287966388201572,0.014135574119895161,-0.0625
1589996724.1335077,-0.11167710097959785,-4.555838550489798,8.731677100979597,0.4105590336598659,0.4816701447709771,-0.6593443159591793,0.1661449510201075,0.07298188112248656,-0.20846376224497312
1589996724.1435077,-0.11751614424611811,-4.597257836308228,8.6853551734146,0.4133333333333333,0.4844444444444445,-0.6533333333333333,-0.23447590153823827,0.10947590153823827,-0.2504036061529531
1589996724.1535077,-0.10982282983991909,-4.707873958079029,8.523897743521779,0.4133333333333333,0.4844444444444445,-0.6533333333333333,-0.1808561189969658,0.06471462700101141,-0.0602853729989886
1589996724.1635077,-0.1,-4.607490161942586,8.720011243494188,0.4133333333333333,0.4844444444444445,-0.6533333333333333,0.24996486408066299,0.1562675679596685,3.5135919337001e-05
1589996724.1735077,-0.1,-4.657684493661831,8.661653933098693,0.41377438215965123,0.4844444444444445,-0.6535722347809222,0.4364662918133173,0.06456741637336538,-0.1875
1589996724.1835077,-0.1,-4.535157700928594,8.755452689721421,0.44,0.4844444444444445,-0.6677777777777778,0.24237011687479987,0.1875,-0.19697356308037145
1589996724.1935077,-0.1,-4.619097422350304,8.73027077329491,0.44,0.4844444444444445,-0.6677777777777778,-0.4921024455651618,0.1875,-0.24943588896894012
1589996724.2035077,-0.09136627247022888,-4.605465089880915,8.60863372752977,0.44,0.4844444444444445,-0.6677777777777778,-0.09938239118320846,0.125,-0.07103920293893051
1589996724.2135077,-0.10001727739645343,-4.639965445207093,8.600224606153894,0.44,0.4844444444444445,-0.6677777777777778,0.06336386982267109,0.12510798372783388,-0.12478403254433224
1589996724.2235076,-0.10660514866414313,-4.626789702671713,8.68586693263386,0.44,0.4844444444444445,-0.6677777777777778,0.392757433207156,0.1662821791508945,-0.042435641698211
1589996724.2335076,-0.10213700007735747,-4.62,8.73,0.42951600010314334,0.4905601110509442,-0.6677777777777778,0.21849375338438926,0.08921250096696835,0.0
1589996724.2435076,-0.08396106755923545,-4.587922135118471,8.73,0.4266666666666667,0.4922222222222222,-0.6677777777777778,-0.17572998326433542,0.012378336122610765,0.0
1589996724.2535076,-0.11,-4.628123006912244,8.550830675882992,0.4266666666666667,0.4922222222222222,-0.6677777777777778,-0.2617312067984762,0.0,-0.1621156033992381
1589996724.2635076,-0.11,-4.671502594246117,8.608670125661488,0.4266666666666667,0.4922222222222222,-0.6677777777777778,0.009391214038232787,0.0,-0.026554392980883607
1589996724.2735076,-0.10028012334649414,-4.602240986771953,8.707478889881553,0.4266666666666667,0.4922222222222222,-0.6677777777777778,0.30549691633764664,0.0,0.0
1589996724.2835076,-0.1,-4.583944589219586,8.750138526951035,0.41061125588625247,0.4859784513631723,-0.6677777777777778,0.4630194760663832,-0.050173158688794406,0.0
1589996724.2935076,-0.09841393199857837,-4.594758204004265,8.722553251984362,0.4066666666666667,0.4844444444444445,-0.6677777777777778,0.24310952493780358,-0.0426741499822296,-0.1150870749911148
1589996724.3035076,-0.09163431243012501,-4.61673137513975,8.631634312430126,0.4066666666666667,0.4844444444444445,-0.6677777777777778,-0.155643358064844,0.05228554731171867,-0.09314335806484399
1589996724.3135076,-0.1,-4.603428430235873,8.648571075589684,0.4066666666666667,0.4844444444444445,-0.6677777777777778,-0.23750308859027236,0.021427688974207895,-0.22857231102579212
1589996724.3235075,-0.1,-4.6193723984566555,8.688430996141637,0.4066666666666667,0.4844444444444445,-0.6677777777777778,0.11127121623933245,0.12107749035409499,-0.12892250964590501
1589996724.3335075,-0.09162877983145669,-4.61,8.69511366050563,0.4188888888888889,0.4777777777777778,-0.6677777777777778,0.27178050421358263,-0.07410063026697826,-0.010179873946604348
1589996724.3435075,-0.1,-4.61,8.659383016571482,0.4188888888888889,0.4777777777777778,-0.6677777777777778,0.03406165153075555,0.1495822020410074,-0.0625
1589996724.3535075,-0.1,-4.612388115990614,8.60358217398592,0.4188888888888889,0.4777777777777778,-0.6677777777777778,-0.16977717482400267,-0.04011141258799866,-0.06996286247066712
1589996724.3635075,-0.1,-4.629963962453905,8.629945943680859,0.4188888888888889,0.4777777777777778,-0.6677777777777778,-0.4993242960107275,0.12466214800536374,-0.12488738266845459
1589996724.3735075,-0.09342077962904746,-4.643158440741905,8.623420779629047,0.4188888888888889,0.4777777777777778,-0.6677777777777778,-0.21215910877082678,0.04275974536309336,-0.08387987268154667
1589996724.3835075,-0.09,-4.603493374303822,8.70526214710966,0.4145827198429464,0.47261037492264685,-0.6626103749226468,0.2766108123679662,0.0,-0.0625
1589996724.3935075,-0.09678014504189682,-4.596780145041897,8.73,0.4133333333333333,0.4711111111111111,-0.6611111111111111,0.4173759065118551,0.0,-0.1048759065118551
1589996724.4035075,-0.1,-4.582459427924902,8.668607997737157,0.4133333333333333,0.4711111111111111,-0.6611111111111111,0.05379998585722873,0.0,-0.1798142877346816
1589996724.4135075,-0.1,-4.610972703116193,8.644513648441905,0.4133333333333333,0.4711111111111111,-0.6611111111111111,-0.24197424309525728,0.14518454585715437,-0.04231545414284563
1589996724.4235075,-0.09165004754788751,-4.628349952452113,8.681749762260562,0.4133333333333333,0.4711111111111111,-0.6611111111111111,-0.20812559434859396,0.08312559434859394,-0.05218720282570303
1589996724.4335074,-0.111962120902894,-4.644641413935263,8.69,0.4328552185803502,0.4808720537346196,-0.6659915824228654,-0.004482325809216703,0.0625,0.07476325564308747
1589996724.4435074,-0.1093687899006384,-4.602524840397446,8.740531848509576,0.44,0.4844444444444445,-0.6677777777777778,0.2888296212739404,0.10921974751596025,-0.10921974751596025
1589996724.4535074,-0.10070390817957287,-4.638592183640854,8.603519540897864,0.44,0.4844444444444445,-0.6677777777777778,-0.09769540897864304,-0.11620114775533924,0.11180172163300886
1589996724.4635074,-0.1092854700166965,-4.621429059966607,8.649285470016697,0.44,0.4844444444444445,-0.6677777777777778,-0.5401709380217659,0.004465812395646839,-0.07143162479129368
1589996724.4735074,-0.10084810202973185,-4.638303795940536,8.640848102029732,0.44,0.4844444444444445,-0.6677777777777778,-0.2765031884291203,0.05719936231417594,-0.17689872462835188
1589996724.4835074,-0.10640865278493121,-4.601197115738356,8.702394231476712,0.4188888888888889,0.4777777777777778,-0.6611111111111111,0.2249098668236333,0.014963946729453314,-0.025090133176366713
1589996724.4935074,-0.0832630049297329,-4.608912331690089,8.717824663380178,0.4188888888888889,0.4777777777777778,-0.6611111111111111,0.46601036531528217,0.11140414612611287,0.21601036531528217
1589996724.5035074,-0.11,-4.593109280483922,8.643109280483923,0.4188888888888889,0.4777777777777778,-0.6611111111111111,0.34585049546322827,0.0625,0.17778349848774275
1589996724.5135074,-0.11,-4.609801018783827,8.659801018783828,0.4188888888888889,0.4777777777777778,-0.6611111111111111,0.18936544890162368,0.0625,0.12562181630054123
1589996724.5235074,-0.09357294329825395,-4.634640585052619,8.668213528350872,0.4188888888888889,0.4777777777777778,-0.6611111111111111,-0.06917276096478192,-0.04016910438591277,-0.029003656578869136
1589996724.5335073,-0.09,-4.6254611682635,8.691808247604751,0.42454287900863913,0.4688929361610275,-0.6554571209913609,0.011301547529692257,-0.017066150823435912,0.028367698353128176
1589996724.5435073,-0.08143204797635947,-4.628567952023641,8.70856795202364,0.4266666666666667,0.4655555555555556,-0.6533333333333333,0.11604970014775329,0.10709940029550656,0.0625
1589996724.5535073,-0.11974398386883511,-4.58102406452466,8.630512032262331,0.4266666666666667,0.4655555555555556,-0.6533333333333333,0.18109959672087797,-0.003200201639561021,0.05289939508131694
1589996724.5635073,-0.11281171492793865,-4.608753140288245,8.644376570144123,0.4266666666666667,0.4655555555555556,-0.6533333333333333,0.007792873198466194,-0.0898535634007669,-0.20706069020230067
1589996724.5735073,-0.10126821238442141,-4.62,8.667463575231157,0.4266666666666667,0.4655555555555556,-0.6533333333333333,-0.17164734519473243,-0.17957367259736623,-0.03963163701316896
1589996724.5835073,-0.10085946827986947,-4.636562126880522,8.69,0.4133333333333333,0.4777777777777778,-0.6611111111111111,-0.09276993950489533,-0.10351329300326355,0.11962832325081589
1589996724.5935073,-0.10920600175117408,-4.603175992995303,8.69,0.4133333333333333,0.4777777777777778,-0.6611111111111111,0.2202250656690281,0.10515004377935208,0.06746248905516197
1589996724.6035073,-0.1028037542662116,-4.607196245733789,8.632430034129692,0.4133333333333333,0.4777777777777778,-0.6611111111111111,0.47488267918088733,-0.009929607508532418,0.0625
1589996724.6135073,-0.0904862668161435,-4.6004862668161435,8.676596132286996,0.4133333333333333,0.4777777777777778,-0.6611111111111111,0.0868133408071749,-0.12196083239910313,-0.11588249719730942
1589996724.6235073,-0.09838692999689795,-4.6,8.696773859993796,0.4133333333333333,0.4777777777777778,-0.6611111111111111,-0.042336624961224284,0.03225493744183644,0.03225493744183644
1589996724.6335073,-0.10074682454630102,-4.629502116969133,8.690497883030867,0.4266666666666667,0.4844444444444445,-0.6611111111111111,-0.05627646211415822,-0.18283234658561867,0.06094411552853955
1589996724.6435072,-0.1228527257075596,-4.614764849528294,8.705235150471706,0.4266666666666667,0.4844444444444445,-0.6611111111111111,0.12793938089632997,-0.04467046432775251,0.014890154775917507
1589996724.6535072,-0.1,-4.628719404043987,8.623414922549367,0.4266666666666667,0.4844444444444445,-0.6611111111111111,0.24199627527492018,0.18483209175830673,0.16615673406645382
1589996724.6635072,-0.1,-4.603921603405462,8.689542390918765,0.4266666666666667,0.4844444444444445,-0.6611111111111111,0.08701002128414331,0.13317000709471444,-0.24713994324228444
1589996724.6735072,-0.1,-4.615572216097023,8.692213891951488,0.4266666666666667,0.4844444444444445,-0.6611111111111111,-0.18081587651598677,0.07633682469680264,0.028142227122381513
1589996724.6835072,-0.09344247805800497,-4.62,8.696557521941994,0.4266666666666667,0.48007276314978115,-0.6611111111111111,-0.12704646358759328,-0.10143804854987565,0.043030975725062176
1589996724.6935072,-0.09874765641274912,-4.628747656412749,8.7,0.4266666666666667,0.4777777777777778,-0.6611111111111111,-0.17184570515936393,0.14053711547809183,0.05467285257968196
1589996724.7035072,-0.1,-4.600755969181478,8.592771886998754,0.4266666666666667,0.4777777777777778,-0.6611111111111111,0.36082557784728053,0.1875,-0.18120025682101354
1589996724.7135072,-0.10946992166704693,-4.619469921667047,8.67159023499886,0.4266666666666667,0.4777777777777778,-0.6611111111111111,0.3025610312571298,0.05587402083808655,-0.0033129895809567264
1589996724.7235072,-0.10149536086394403,-4.611495360863945,8.695513917408167,0.4266666666666667,0.4777777777777778,-0.6611111111111111,0.1530380161989505,-0.04380798920069967,-0.053153994600349835
1589996724.7335072,-0.1,-4.63,8.679729365590768,0.4188888888888889,0.4711111111111111,-0.6755555555555556,-0.06362764337180013,-0.0005638216859000644,-0.1233085349422998
1589996724.7435071,-0.1,-4.63,8.655159627438346,0.4188888888888889,0.4711111111111111,-0.6755555555555556,-0.16600155234022612,-0.051750776170113054,0.030252328510339183
1589996724.7535071,-0.10841737584148356,-4.604747872475549,8.607913120792581,0.4188888888888889,0.4711111111111111,-0.6755555555555556,0.12815159405563314,-0.009891400990727807,-0.14793439603708877
1589996724.7635071,-0.11854112456160198,-4.6104862918128,8.633890334502395,0.4188888888888889,0.4711111111111111,-0.6755555555555556,0.125,0.07769661914997926,-0.11588202851001245
1589996724.773507,-0.09481502432401856,-4.618394991891994,8.697159935135952,0.4188888888888889,0.4711111111111111,-0.6755555555555556,0.125,0.3248434966248067,0.03240609797488403
1589996724.783507,-0.10874775684163301,-4.629373878420816,8.71,0.4136811786551019,0.4721526531578685,-0.6818048078360999,0.06641325986989682,0.08206629934948412,-0.05467348026020637
1589996724.793507,-0.11,-4.616138648422228,8.71,0.4133333333333333,0.4722222222222222,-0.6822222222222222,0.019183276319463843,0.0625,-0.0625
1589996724.803507,-0.10077665858830658,-4.619223341411693,8.599319903059678,0.4133333333333333,0.4722222222222222,-0.6822222222222222,0.11529176764616783,0.0048541161769160845,-0.17779176764616783
1589996724.813507,-0.1,-4.610049637075654,8.68950362924347,0.4133333333333333,0.4722222222222222,-0.6822222222222222,0.18718976827716943,-0.12437953655433888,-0.1875
1589996724.823507,-0.10831934950276023,-4.61,8.698319349502759,0.4133333333333333,0.4722222222222222,-0.6822222222222222,0.23949593439225142,0.23897154074576,-0.08350813121549715
1589996724.833507,-0.10057993421977343,-4.572319736879094,8.718840131560453,0.42589342104030214,0.4837356359536103,-0.6686154605396728,0.25,-0.15850328901132882,0.11412623337924829
1589996724.843507,-0.08035613132034579,-4.619109671699135,8.641424525281383,0.4266666666666667,0.4844444444444445,-0.6677777777777778,-0.1797096273674359,-0.003338731128241762,-0.1819354481195971
1589996724.853507,-0.0991409333642907,-4.62,8.592147666589273,0.4266666666666667,0.4844444444444445,-0.6677777777777778,-0.06786916647318318,0.11963083352681682,-0.1875
1589996724.863507,-0.09003331096030029,-4.610033310960301,8.659766823277899,0.4266666666666667,0.4844444444444445,-0.6677777777777778,-0.00020819350187684799,0.00041638700375369597,-0.0629163870037537
1589996724.873507,-0.08236295552105215,-4.617637044478948,8.69054817791579,0.4266666666666667,0.4844444444444445,-0.6677777777777778,0.047731527993424054,0.047731527993424054,-0.014768472006575946
1589996724.883507,-0.10913909724082507,-4.62,8.719426064827218,0.41911208590052684,0.4779690895020389,-0.6818077134863232,0.0625,-0.05891290517010449,0.0
1589996724.893507,-0.09028881212819037,-4.60028881212819,8.72,0.4188888888888889,0.4777777777777778,-0.6822222222222222,0.1240974620994051,-0.0625,0.18479238629821532
1589996724.903507,-0.09962918966762165,-4.648145948338109,8.60444972398854,0.4188888888888889,0.4777777777777778,-0.6822222222222222,0.06481756457736473,0.05786487084527053,0.06713512915472947
1589996724.913507,-0.09043679196094231,-4.611747167843769,8.676505664312462,0.4188888888888889,0.4777777777777778,-0.6822222222222222,0.0027299497558894645,0.0625,0.0027299497558894645
1589996724.923507,-0.09,-4.60267981014969,8.69464037970062,0.4188888888888889,0.4777777777777778,-0.6822222222222222,0.13725355969331873,-0.12050474625775831,0.09150237312887916
1589996724.933507,-0.11782695971692977,-4.618551306477953,8.709275653238977,0.43228705467852174,0.4664408682634731,-0.662640287606605,0.013581501769188903,-0.013581501769188903,0.06702716725639629
1589996724.943507,-0.10047216545409957,-4.62,8.736037112727868,0.43333333333333335,0.4655555555555556,-0.6611111111111111,0.0,-0.04068298863729257,0.0625
1589996724.953507,-0.10445661331086774,-4.62,8.634347093513059,0.43333333333333335,0.4655555555555556,-0.6611111111111111,-0.04517691659646167,0.11820766638584668,-0.02785383319292334
1589996724.963507,-0.11,-4.62,8.62582700503341,0.43333333333333335,0.4655555555555556,-0.6611111111111111,-0.025180203090198,-0.03641878145881197,-0.025180203090198
