time,acc_x,acc_y,acc_z,mag_x,mag_y,mag_z,gyr_x,gyr_y,gyr_z
1589550246.125994,-0.02,-3.82,8.95,0.4211111111111111,0.2877777777777778,-0.6311111111111111,-0.25,0.0,-0.125
1589550246.135994,-0.01716036010440897,-3.83,9.0,0.4211111111111111,0.2877777777777778,-0.6311111111111111,-0.1342567519576682,0.0625,0.0625
1589550246.145994,-0.01063235236643608,-3.830632352366436,9.004426466565052,0.41984640637823895,0.28728594815943864,-0.6319542475996925,-0.00790440458045101,0.0625,0.05459559541954899
1589550246.155994,-0.02502445978810835,-3.824926620635675,9.07,0.4011111111111111,0.28,-0.6444444444444445,-0.09359712632432282,0.15670862102703156,-0.031097126324322814
1589550246.165994,-0.0242966480051024,-3.8214067039897954,9.012966480051025,0.4011111111111111,0.28,-0.6444444444444445,-0.026854050031890016,0.32129189993622,-0.035645949968109984
1589550246.175994,-0.011498362591936437,-3.825749181295968,8.987003274816127,0.4011111111111111,0.28,-0.6444444444444445,0.0,0.18902668169860953,-0.03593238309980136
1589550246.185994,-0.0054268022998673155,-3.825426802299867,9.028993808049535,0.4011111111111111,0.28,-0.6444444444444445,-0.033917514374170725,-0.07945875718708537,0.0
1589550246.195994,-0.016801584532337186,-3.8272063381293484,9.092793661870651,0.40573104456440184,0.28248765647484886,-0.6384029930055258,-0.18497029001867776,-0.08501980665421482,0.03998019334578518
1589550246.205994,-0.013454160291867717,-3.810362480875603,9.08891255737319,0.4155555555555556,0.2877777777777778,-0.6255555555555555,-0.2693229963516535,0.06476550547251972,0.10341149817582676
1589550246.215994,-0.02,-3.825135494308661,8.98621944877795,0.4155555555555556,0.2877777777777778,-0.6255555555555555,-0.1875,0.15709683942913272,0.001693678858265442
1589550246.2259939,-0.024719528016309382,-3.829439056032619,8.944719528016309,0.4155555555555556,0.2877777777777778,-0.6255555555555555,-0.1285058997961327,0.125,-0.03300294989806635
1589550246.2359939,-0.02055909116814529,-3.84,8.992484089743346,0.4155555555555556,0.2877777777777778,-0.6255555555555555,-0.0034943198009080717,0.15450284009954596,-0.05900568019909193
1589550246.2459939,-0.01446815899977899,-3.844468158999779,9.044468158999779,0.41803786611098837,0.2957211715551627,-0.6280378661109883,0.1183519874972374,0.1875,-0.125
1589550246.2559938,-0.025761672210819354,-3.832714983367542,9.03847665557836,0.4211111111111111,0.3055555555555556,-0.6311111111111111,0.1875,0.22351045131762098,-0.016968646047137104
1589550246.2659938,-0.03,-3.832406477984167,8.98037408806333,0.4211111111111111,0.3055555555555556,-0.6311111111111111,0.30381073110156775,0.32754048740104513,0.0625
1589550246.2759938,-0.023494846836530203,-3.82698969367306,8.989030918980818,0.4211111111111111,0.3055555555555556,-0.6311111111111111,0.17171396364156885,0.29368558545662754,0.02184279272831377
1589550246.2859938,-0.02,-3.82,9.025783036733985,0.4211111111111111,0.3055555555555556,-0.6311111111111111,-0.036143979587411265,0.17601701530944153,0.024660994896852816
1589550246.2959938,-0.019977501230401463,-3.8200224987695983,9.050112493847994,0.42106611357191404,0.30554305623911193,-0.6311311100174208,-0.18721876538001828,0.06221876538001828,0.06264061730999086
1589550246.3059938,-0.019764544930875573,-3.825117727534562,9.070706365207373,0.4011111111111111,0.3,-0.64,-0.15404260872695852,0.09007101454493088,0.125
1589550246.3159938,-0.03,-3.826511977454204,8.994416157820574,0.4011111111111111,0.3,-0.64,-0.20930014091122592,0.33139971817754815,0.04360028182245185
1589550246.3259938,-0.03,-3.8242755414685683,8.981448917062863,0.4011111111111111,0.3,-0.64,-0.15172213417855257,0.23188853671421025,-0.07155573164289487
1589550246.3359938,-0.02565324469895681,-3.8286935106020863,9.007387021204172,0.4011111111111111,0.3,-0.64,-0.15216722063151994,0.15216722063151994,-0.043498338105440196
1589550246.3459938,-0.022640306613766804,-3.8347193867724663,9.032640306613766,0.4011111111111111,0.3,-0.6361862237801146,-0.20400191633604253,0.1214923346558299,0.045998083663957474
1589550246.3559937,-0.03,-3.8229056633169742,9.037094336683024,0.4011111111111111,0.3,-0.6255555555555555,-0.2681603957310898,-0.05341980213445509,0.018160395731089816
1589550246.3659937,-0.03,-3.8362632660687592,8.990106128550075,0.4011111111111111,0.3,-0.6255555555555555,-0.3983545870702541,0.0,0.054936238789237674
1589550246.3759937,-0.02024328081556997,-3.836504479456287,8.95951343836886,0.4011111111111111,0.3,-0.6255555555555555,-0.4171735016991041,0.0,-0.0625
1589550246.3859937,-0.004087294958741189,-3.8418254100825178,9.012261884876223,0.4011111111111111,0.3,-0.6255555555555555,-0.3494544065078676,0.0,-0.03695440650786757
1589550246.3959937,-0.01,-3.8323387759476937,9.039355103790774,0.4044893430355576,0.2984408160348708,-0.6317922914160722,-0.28326530065382827,0.0,-0.014617349673085854
1589550246.4059937,-0.014697202300483467,-3.84,9.079394404600967,0.4155555555555556,0.2933333333333333,-0.6522222222222223,-0.12878497124395666,0.05871502875604335,-0.0625
1589550246.4159937,-0.02,-3.8451418100265293,9.023156469655117,0.4155555555555556,0.2933333333333333,-0.6522222222222223,-0.0946363126658097,-0.003545250663238797,-0.0303636873341903
1589550246.4259937,-0.014280713373385686,-3.8385614267467716,8.977157859879844,0.4155555555555556,0.2933333333333333,-0.6522222222222223,-0.125,-0.16074554141633945,0.0
1589550246.4359937,-0.01,-3.8257055380459253,9.002883385862225,0.4155555555555556,0.2933333333333333,-0.6522222222222223,-0.0444788383610986,-0.16065961278703286,-0.05368077442593427
1589550246.4459937,-0.012550383936780896,-3.8251007678735616,9.035302303620686,0.4138552995977017,0.2950335892911872,-0.6468380783556847,-0.017199498024402973,-0.0931202007902388,-0.1090601003951194
1589550246.4559937,-0.02,-3.8362628060969515,9.065051224387807,0.4088888888888889,0.3,-0.6311111111111111,-0.1332126905297351,-0.04671492378810595,-0.0625
1589550246.4659936,-0.014743943722839787,-3.83,8.987439437228398,0.4088888888888889,0.3,-0.6311111111111111,-0.0032007034645026577,0.0064014069290053155,-0.02964964826774867
1589550246.4759936,-0.014134101116266935,-3.834134101116267,8.964804606697601,0.4088888888888889,0.3,-0.6311111111111111,-0.0625,0.07332373604666331,0.0
1589550246.4859936,-0.02,-3.8424985079615173,9.00999403184607,0.4088888888888889,0.3,-0.6311111111111111,-0.0625,-0.03123134951896679,0.0
1589550246.4959936,-0.015831352036772862,-3.8479156760183866,9.04625297194484,0.41143639597752774,0.3,-0.6338902097532625,-0.036445950229830396,-0.1119729751149152,-0.0130270248850848
1589550246.5059936,-0.001411506150083301,-3.8385884938499166,9.068588493849917,0.4211111111111111,0.3,-0.6444444444444445,0.0625,-0.0625,-0.0625
1589550246.5159936,-0.02,-3.8240294720656074,9.013734751409535,0.4211111111111111,0.3,-0.6444444444444445,0.0625,0.013052601230138391,-0.0625
1589550246.5259936,-0.012919554196965957,-3.83,8.967080445803035,0.4211111111111111,0.3,-0.6444444444444445,-0.0038791794034441496,-0.007758358806888299,-0.0625
1589550246.5359936,-0.005468480287233308,-3.83,8.989114133812055,0.4211111111111111,0.3,-0.6444444444444445,-0.10221466546986122,-0.19303666367465305,-0.05110733273493061
1589550246.5459936,-0.025351331763000542,-3.8253513317630006,9.032324334118499,0.41827025829961145,0.29715914718850034,-0.6413453322864449,-0.014527088240623303,0.0625,0.0
1589550246.5559936,-0.02460912395918846,-3.8246091239591884,9.020521168054415,0.4088888888888889,0.2877777777777778,-0.6311111111111111,-0.0625,0.001628650170048082,-0.06087134982995192
1589550246.5659935,-0.03152055431154675,-3.84,8.970321940090413,0.4088888888888889,0.2877777777777778,-0.6311111111111111,-0.08899826777641641,-0.16849307110566564,-0.07200346444716718
1589550246.5759935,-0.017256547830476154,-3.84,8.940973808678095,0.4088888888888889,0.2877777777777778,-0.6311111111111111,-0.14214657605952402,-0.295353423940476,-0.01714657605952403
1589550246.5859935,-0.01083231301570402,-3.838335373968592,8.973329252062817,0.4088888888888889,0.2877777777777778,-0.6311111111111111,-0.16669217460739952,-0.25,-0.05729804365184988
1589550246.5959935,-0.017678880911116614,-3.8246422381777667,9.01696335726665,0.41327322494566865,0.2859724629308685,-0.6331743280790074,0.03348601138895766,-0.2790139886110423,-0.01450699430552117
1589550246.6059935,-0.01,-3.835873539684451,9.04,0.42777777777777776,0.28,-0.64,-0.01091924605564254,-0.34920962302782127,-0.08829037697217873
1589550246.6159935,-0.014249515972894481,-3.8342495159728944,9.006003872216844,0.42777777777777776,0.28,-0.64,0.14217842449177154,-0.20626210067763795,-0.09844052516940949
1589550246.6259935,-0.02,-3.8474778424396963,8.978694606099241,0.42777777777777776,0.28,-0.64,0.17989522712784553,-0.10923651524810299,-0.0625
1589550246.6359935,-0.022463410975635888,-3.8526097670730923,9.019853643902543,0.42777777777777776,0.28,-0.64,0.0317073628045514,-0.14131104420682708,-0.0317073628045514
1589550246.6459935,-0.02878321803970892,-3.83,9.053650345880873,0.42777777777777776,0.2809463859691153,-0.6405407919823516,-0.07010488725181924,-0.03802443625909622,0.054895112748180756
1589550246.6559935,-0.02124696792740994,-3.83,9.07625909621777,0.42777777777777776,0.28680791383423676,-0.6438902364767067,-0.1172064504536879,-0.2735322522684395,0.0077935495463121035
1589550246.6659935,-0.01,-3.8354262426509886,9.035696819882416,0.42777777777777776,0.2877777777777778,-0.6444444444444445,-0.09108598343132016,-0.36070700828433994,0.04820700828433992
1589550246.6759934,-0.006514255075250527,-3.8234857449247492,8.951371704322746,0.42777777777777776,0.2877777777777778,-0.6444444444444445,-0.2746436231187368,-0.3560718115593684,-0.043571811559368415
1589550246.6859934,0.0,-3.827622927589627,9.011188536205186,0.42777777777777776,0.2877777777777778,-0.6444444444444445,-0.44492835128241465,-0.44492835128241465,-0.11757164871758538
1589550246.6959934,0.0,-3.81276427660479,9.018617861697605,0.42777777777777776,0.2877777777777778,-0.6444444444444445,-0.4913616356100326,-0.4913616356100326,-0.0711383643899674
1589550246.7059934,-0.0025519692523866596,-3.82,9.028724015373806,0.4011111111111111,0.2933333333333333,-0.6177777777777778,-0.8045250960862916,-0.6023745195685416,-0.0625
1589550246.7159934,-0.019885936273091705,-3.82,9.020057031863454,0.4011111111111111,0.2933333333333333,-0.6177777777777778,-0.7503564491465884,-0.8732177542670578,-0.0625
1589550246.7259934,-0.034322732626619556,-3.84,8.92851590106007,0.4011111111111111,0.2933333333333333,-0.6177777777777778,-1.0532243816254416,-1.1782243816254416,-0.1875
1589550246.7359934,-0.02020763923944136,-3.84,8.949688541140837,0.4011111111111111,0.2933333333333333,-0.6177777777777778,-1.1855533821302373,-1.3105533821302373,-0.1875
1589550246.7459934,0.02609735485506634,-3.764756612862334,9.002194709710134,0.4011111111111111,0.29276876343934566,-0.6200360573537282,-1.58256834699569,-1.920473992225133,-0.28175705653680383
1589550246.7559934,0.07926603566297641,-3.6318349108425587,9.108532071325952,0.4011111111111111,0.2878457374386133,-0.639728161356658,-2.3025608996028057,-2.8620027148652074,-0.5586772690780022
1589550246.7659934,-0.20855203287832086,-3.133003816233671,8.92554821664465,0.4011111111111111,0.2877777777777778,-0.64,-2.6483423234991927,-3.0248651475121093,-2.7552427344782036
1589550246.7759933,-0.35948144646655633,-3.262436303474356,8.754041125029543,0.4011111111111111,0.2877777777777778,-0.64,-2.277366461829355,-1.472479910186717,-3.1852369416213664
1589550246.7859933,-0.4298209273061659,-2.9738186042009485,9.009988384473914,0.4011111111111111,0.2877777777777778,-0.64,-2.1465552705449618,-1.0771948504501017,-1.1057557351660052
1589550246.7959933,-0.34888487879735147,-2.9368993151268863,9.33135979993748,0.39893925184953627,0.2909368457946139,-0.638420465991582,-3.3125,-3.4584085225496604,2.078820796271562
1589550246.8059933,-0.34471842234600264,-2.7687366890563565,9.078645355504587,0.3888888888888889,0.3055555555555556,-0.6311111111111111,-3.42903347190367,-2.6875,6.956811107470511
1589550246.8159933,-0.22327454706024033,-2.49848904113255,9.148010008831323,0.3888888888888889,0.3055555555555556,-0.6311111111111111,-3.9955910295180237,-2.9637899082077768,11.310608290737816
1589550246.8259933,-0.26926026540543707,-2.0218003791506245,9.285980417065687,0.3888888888888889,0.3055555555555556,-0.6311111111111111,-4.662182168194344,-3.9308709715246155,16.340826362694706
1589550246.8359933,-0.38023559580094557,-2.182355958009456,9.44515746454043,0.3888888888888889,0.3055555555555556,-0.6311111111111111,-2.2460784117317094,-2.1218947832358364,22.397407644843337
1589550246.8459933,-0.3869577690520074,-2.2495776905200735,9.021660549723535,0.3888888888888889,0.3055555555555556,-0.6311111111111111,3.21568735475599,1.5332869220290086,30.169920466383523
1589550246.8559933,-0.2901379882966946,-2.4252538352048076,9.129586035109917,0.41309786142302357,0.29445977647741045,-0.6190066248440438,3.4746486043017555,0.6342099280404869,43.730440949707415
1589550246.8659933,-0.28,-2.5111278701770923,9.382274594303414,0.4155555555555556,0.2933333333333333,-0.6177777777777778,-2.02902161470608,-4.626178371826813,51.36266918052657
1589550246.8759933,-0.3146628462592308,-2.5502056671233335,9.099120025395127,0.4155555555555556,0.2933333333333333,-0.6177777777777778,0.4789278912019247,-2.569643423998396,60.193568934407054
1589550246.8859932,-0.33568550138670766,-2.6413038393423998,9.050067163431015,0.4155555555555556,0.2933333333333333,-0.6177777777777778,1.7928438366692283,-1.4747134694423096,65.01126073445384
1589550246.8959932,-0.3202494371371016,-2.758752814314492,9.316507880080579,0.4155555555555556,0.2933333333333333,-0.6177777777777778,0.27260524054982826,-3.4719383220760753,71.92516885886954
1589550246.9059932,-0.32,-2.684517331345509,9.054710398807304,0.4011111111111111,0.2877777777777778,-0.6311111111111111,0.4185566530003727,-3.577823332090943,78.63633991800224
1589550246.9159932,-0.3303353515494091,-2.762583837887352,9.045739404365602,0.4011111111111111,0.2877777777777778,-0.6311111111111111,0.6952651980607252,-3.867234801939275,82.63819427377734
1589550246.9259932,-0.36987449493239427,-2.797648585810704,8.921598383783662,0.4011111111111111,0.2877777777777778,-0.6311111111111111,-0.04937247466197152,-4.525470644003521,85.77996969594366
1589550246.9359932,-0.41121673076190834,-2.9051330769523664,9.04269961542855,0.4011111111111111,0.2877777777777778,-0.6311111111111111,-0.196768029166508,-4.375,88.58293749762022
1589550246.9459932,-0.4192019190496135,-2.873192323801546,8.994788485702319,0.4011111111111111,0.2877777777777778,-0.6311111111111111,0.1525839584205917,-4.375,91.1781236911244
1589550246.9559932,-0.46716509392362643,-2.8873564688244113,9.100574124702355,0.4477777777777778,0.2611111111111111,-0.6322222222222222,0.7653259767175236,-4.311303906870094,94.81706113854837
1589550246.9659932,-0.5164605954867887,-2.9029211909735775,9.004690893230183,0.4477777777777778,0.2611111111111111,-0.6322222222222222,0.8456819173113564,-4.444696804481072,96.96068300773628
1589550246.9759932,-0.5024353284554796,-2.8724353284554796,8.98487065691096,0.4477777777777778,0.2611111111111111,-0.6322222222222222,0.9771687957298788,-4.24838321138699,99.06364324697134
1589550246.9859931,-0.519205149734117,-2.889205149734117,9.018410299468234,0.4477777777777778,0.2611111111111111,-0.6322222222222222,0.8199517212426533,-4.667628743352925,100.79303106633081
1589550246.9959931,-0.5863353709154027,-2.9020609765300733,9.068243906120292,0.4477777777777778,0.2611111111111111,-0.6322222222222222,0.8878811033129576,-4.612118896687043,101.62881103312958
1589550247.0059931,-0.61017531260561,-2.81087656302805,9.113216458262926,0.4602599883594307,0.24716040516691073,-0.6513126619353385,1.0614042962149375,-4.479897135856708,103.19883723386279
1589550247.015993,-0.6105116734237382,-2.711535020271215,9.169254858101496,0.4666666666666667,0.24,-0.6611111111111111,0.7404061233049071,-4.8125,104.66017754788201
1589550247.025993,-0.6193659997230684,-2.73725266546663,8.971902000830795,0.4666666666666667,0.24,-0.6611111111111111,0.5545749965383551,-4.83495417647466,105.29797082698698
1589550247.035993,-0.597587233453337,-2.6428780116311272,9.03723829963999,0.4666666666666667,0.24,-0.6611111111111111,0.28234041816671285,-5.60628548186098,104.79887409997231
1589550247.045993,-0.6308987519827612,-2.5936404992068955,9.09271900158621,0.4666666666666667,0.24,-0.6611111111111111,0.085253120043097,-5.466012480172388,103.44916088049561
1589550247.055993,-0.5977128477561862,-2.464170278204949,9.058340556409897,0.4811111111111111,0.17777777777777778,-0.6666666666666666,0.32357052984761636,-5.4375,101.43610198518104
1589550247.065993,-0.6819803303223049,-2.532178363354535,9.188019669677695,0.4811111111111111,0.17777777777777778,-0.6666666666666666,0.37128688064567855,-5.432549174194238,99.6355163290395
1589550247.075993,-0.784930827032468,-2.62767293241883,9.066578571595777,0.4811111111111111,0.17777777777777778,-0.6666666666666666,0.3338839275263934,-4.9640719000912945,96.84677631732953
1589550247.085993,-0.820816868609686,-2.539183131390314,8.917971109413092,0.4811111111111111,0.17777777777777778,-0.6666666666666666,1.3903162864316123,-3.369894571189463,95.17465342211548
1589550247.095993,-0.8284475857803005,-2.5315524142196995,9.085846887166612,0.4811111111111111,0.17777777777777778,-0.6666666666666666,1.5333922333806353,-3.3222025888731217,93.88696989957428
1589550247.105993,-0.9918931785195936,-2.55,9.19216023222061,0.5022222222222222,0.15555555555555556,-0.6522222222222223,0.6863872762457668,-3.86316763425254,92.2764465408805
1589550247.115993,-1.040315558711829,-2.5495266619322567,9.118895544508598,0.5022222222222222,0.15555555555555556,-0.6522222222222223,1.186513879025535,-3.5615138790255347,91.62401387902554
1589550247.125993,-1.0742206481817815,-2.5342206481817815,9.092661944545345,0.5022222222222222,0.15555555555555556,-0.6522222222222223,0.9853329196432175,-3.6142730657464583,91.65137905113613
1589550247.135993,-1.1236469277300223,-2.579737344794651,9.246316459726202,0.5022222222222222,0.15555555555555556,-0.6522222222222223,0.4008476599808978,-4.056391276663483,91.99083691499523
1589550247.145993,-1.015150628780643,-2.4044740926456543,9.01263212352754,0.5022222222222222,0.15555555555555556,-0.6522222222222223,-0.22509252626552056,-3.95206791228908,91.83435186843361
1589550247.155993,-0.9769786283891547,-2.3032620946305156,8.864893141945773,0.49540107507826814,0.1257130368007561,-0.6633065863311477,-0.6482283359914939,-3.31400451887294,90.99715975544923
1589550247.165993,-1.0843116515366038,-2.3653668693262264,9.025849088031983,0.4933333333333334,0.11666666666666667,-0.6666666666666666,-0.1064379112184559,-6.190295244440743,87.62980448904806
1589550247.175993,-1.3809723616208522,-2.4687154520260655,8.547239008313984,0.4933333333333334,0.11666666666666667,-0.6666666666666666,1.4909959928095273,-5.869146505879709,84.78038630065164
1589550247.185993,-1.3307073627443637,-2.4058842034304546,8.7545821286795,0.4933333333333334,0.11666666666666667,-0.6666666666666666,0.7448749157366489,-3.7485918657778443,83.20960508576137
1589550247.195993,-1.3418512300639247,-2.459628075159811,9.477024601278492,0.4933333333333334,0.11666666666666667,-0.6666666666666666,-1.7025045199199331,-6.4582633821915145,81.56714906050236
1589550247.205993,-1.388249958102899,-2.5582499581028992,8.865964052287582,0.4933333333333334,0.06555555555555556,-0.6733333333333333,0.8165168845315904,-4.120760537120831,81.13593776185688
1589550247.215993,-1.4497551114462879,-2.619755111446288,9.208635620915034,0.4933333333333334,0.06555555555555556,-0.6733333333333333,2.24431508714597,-1.7594019712585887,80.7515305534607
1589550247.225993,-1.458219965032054,-2.5952532400854773,9.220209807676298,0.4933333333333334,0.06555555555555556,-0.6733333333333333,0.2722504370993256,-4.095332750534232,77.74574868870202
1589550247.235993,-1.4190637918161455,-2.4616056307249647,8.959733214357255,0.4933333333333334,0.06555555555555556,-0.6733333333333333,0.9682270136397575,-3.1647162329503034,75.22888364321746
1589550247.245993,-1.533635022672227,-2.5914530256951904,9.318723071039644,0.4933333333333334,0.06555555555555556,-0.6733333333333333,0.7772749622129551,-3.403406297233806,73.22388710323602
1589550247.255993,-1.4580027616769158,-2.491559544644434,9.002448740386313,0.52,0.045555555555555564,-0.7288888888888889,-0.0360804258120454,-3.6902355854915623,69.95271832501084
1589550247.2659929,-1.5186130601628105,-2.579107753568504,9.096731426919929,0.52,0.045555555555555564,-0.7288888888888889,0.6373673351423388,-2.764244914179284,68.64791328816172
1589550247.2759929,-1.5042845335261907,-2.533625374522161,8.998239487550366,0.52,0.045555555555555564,-0.7288888888888889,0.23146115301167475,-3.3914789751007337,65.26788666184524
1589550247.2859929,-1.616952991011468,-2.62896022316355,9.214909598098977,0.52,0.045555555555555564,-0.7288888888888889,-0.2560465957226986,-3.8248191961979545,62.451175224713296
1589550247.2959929,-1.621422227362091,-2.6142666820862726,9.179955591534636,0.52,0.045555555555555564,-0.7288888888888889,0.2772218688562508,-3.1780559731698856,60.195001156470454
1589550247.3059928,-1.5673551287977476,-2.5197516493675676,8.966941211077026,0.505794241104154,0.027171632278578533,-0.7247107245077578,1.1270695886036055,-1.5113564735050637,58.276852124217335
1589550247.3159928,-1.6433429987050279,-2.549400090085018,9.09517172456506,0.5011111111111111,0.021111111111111112,-0.7233333333333334,1.2158926158437025,-1.63642953662519,54.56785231687405
1589550247.3259928,-1.6015863886891926,-2.4529083792635196,9.061850786804058,0.5011111111111111,0.021111111111111112,-0.7233333333333334,0.15309229970444926,-2.9669502356418245,49.8015216870357
1589550247.3359928,-1.466361559620196,-2.3354527653887396,9.085454941024725,0.5011111111111111,0.021111111111111112,-0.7233333333333334,0.04545330929773578,-2.642039891839811,47.53973935103887
1589550247.3459928,-1.534756523678537,-2.400970188090105,9.155145342353729,0.5011111111111111,0.021111111111111112,-0.7233333333333334,0.473905285852353,-2.2220885064307487,44.11530276559364
1589550247.3559928,-1.5680678797791863,-2.2838642404416274,9.021897362502555,0.5011111111111111,-0.006666666666666667,-0.7588888888888888,-0.8125,-1.6875,35.5625
1589550247.3659928,-1.5423412390104274,-2.335317521979145,9.313465957881824,0.5011111111111111,-0.006666666666666667,-0.7588888888888888,-0.8125,-1.6875,35.5625
1589550247.3759928,-1.5604498777506113,-2.310562347188264,9.190449877750611,0.5011111111111111,-0.006666666666666667,-0.7588888888888888,-0.007732273838630808,-2.2415647921760393,31.881907090464548
1589550247.3859928,-1.5995165909884737,-2.359395738735592,9.229516590988474,0.5011111111111111,-0.006666666666666667,-0.7588888888888888,-0.6791914076143906,-1.5090639189661195,21.62689486552567
1589550247.3959928,-1.632576794224508,-2.36,9.275607511914313,0.5011111111111111,-0.006666666666666667,-0.7588888888888888,-0.5653370216580946,-0.8891851082904733,17.26501675081395
1589550247.4059927,-1.7077800025028156,-2.3352371417845075,9.085388562132398,0.5011111111111111,-0.028678096191548826,-0.7515517457139281,0.325428607183081,0.8304107746214491,10.460142660493055
1589550247.4159927,-1.9589924789634374,-2.470583811154963,9.15246704892397,0.5011111111111111,-0.03333333333333333,-0.75,0.23640535408444413,0.9932026770422221,6.644391335914811
1589550247.4259927,-1.6403607656346475,-2.1607215312692953,8.999740672135486,0.5011111111111111,-0.03333333333333333,-0.75,-0.057990429566904825,0.7567643556496427,2.8940250948222634
1589550247.4359927,-1.6477600776219457,-2.1755201552438916,9.199522095792538,0.5011111111111111,-0.03333333333333333,-0.75,0.034500970274323015,0.8955014554114845,0.7204771985534091
1589550247.4459927,-1.8677198766351164,-2.273308518557907,8.972298734446454,0.5011111111111111,-0.03333333333333333,-0.75,-0.569276427735829,0.6459108795065405,-1.8814274699563969
1589550247.4559927,-1.9594649719184156,-2.3693121067522487,9.307248427008995,0.4866666666666667,-0.06555555555555556,-0.7777777777777778,-0.9322452599130104,0.2609871838182509,-3.568232443731261
1589550247.4659927,-1.8974741353827962,-2.2896096026350237,8.988438410540095,0.4866666666666667,-0.06555555555555556,-0.7777777777777778,-0.32340668679532114,1.5340132912461466,-4.2324199780414675
1589550247.4759927,-1.9883269114261481,-2.3604492911668484,9.057265721555797,0.4866666666666667,-0.06555555555555556,-0.7777777777777778,-1.0321458863443596,1.128824366896886,-5.150513449654671
1589550247.4859927,-2.018589597664176,-2.407179195328352,9.107179195328351,0.4866666666666667,-0.06555555555555556,-0.7777777777777778,-1.125,1.5853324343049437,-5.830924927005493
1589550247.4959927,-1.974365260024514,-2.3263363100449426,9.140423159983657,0.4866666666666667,-0.06555555555555556,-0.7777777777777778,-0.7447105002042842,1.625,-6.9683323119126825
1589550247.5059927,-1.9797002127093857,-2.3492505317734644,9.169700212709385,0.493233404236462,-0.10386152471269461,-0.7646443026381873,-1.1790684824514757,1.7481263294336613,-8.666889623770274
1589550247.5159926,-1.8861595081933509,-2.298814277196373,9.084690461993956,0.4933333333333334,-0.10444444444444444,-0.7644444444444445,-1.1875,1.909955383761334,-9.48727691880667
1589550247.5259926,-1.951167195372271,-2.379283914909498,9.061883280462773,0.4933333333333334,-0.10444444444444444,-0.7644444444444445,-0.9338525144616533,1.9375,-10.43667195372271
1589550247.5359926,-2.033400029118742,-2.4422666860791615,9.116355581438883,0.4933333333333334,-0.10444444444444444,-0.7644444444444445,-0.8309722020008735,2.333750181992138,-11.37347256598515
1589550247.5459926,-2.066441894497224,-2.453558105502776,9.133558105502777,0.4933333333333334,-0.10444444444444444,-0.7644444444444445,-0.6917144781770458,2.9428802466841653,-12.452474971545376
1589550247.5559926,-2.028520499571573,-2.4361734998571913,9.047040999143146,0.4994784445079151,-0.10828513892855803,-0.7690532778253807,-0.7546234388388336,2.452967179913276,-13.523117194194167
1589550247.5659926,-2.0658876853702757,-2.478901724698991,8.926168471944587,0.5022222222222222,-0.11,-0.7711111111111111,-1.118135779368695,1.5573906954581378,-14.773069592301614
1589550247.5759926,-2.00525750884684,-2.491525750884684,9.245918462843273,0.5022222222222222,-0.11,-0.7711111111111111,-2.256317082443775,-0.32938576609247505,-16.405673310326677
1589550247.5859926,-2.0096721838341636,-2.5162295784455515,9.165737318549468,0.5022222222222222,-0.11,-0.7711111111111111,-1.5358582409341688,1.096316085489314,-16.625
1589550247.5959926,-1.996071588839321,-2.53,9.006250560937623,0.5022222222222222,-0.11,-0.7711111111111111,-0.8755592878071958,1.6635067180529526,-17.597091703402583
1589550247.6059926,-1.9154044610482366,-2.5652339303373255,8.9969785737831,0.46829325226776053,-0.14001408880586994,-0.7671962299625193,-0.7132979892319525,1.8045201076804747,-19.901590484562135
1589550247.6159925,-1.8781753679974584,-2.6145261039923753,8.997298528010166,0.4444444444444444,-0.16111111111111112,-0.7644444444444445,-0.7896920999682304,1.8581158000635392,-23.61730249920576
1589550247.6259925,-1.7779751693524148,-2.551983446234943,8.981497930779367,0.4444444444444444,-0.16111111111111112,-0.7644444444444445,-1.078189663144753,0.9622930779367905,-27.110086294592282
1589550247.6359925,-1.8136752432432433,-2.5476678918918916,9.17936518918919,0.4444444444444444,-0.16111111111111112,-0.7644444444444445,-1.3166972972972972,0.4291054054054054,-29.829518918918918
1589550247.6459925,-1.7643039682874373,-2.536860793657487,9.056051111204825,0.4444444444444444,-0.16111111111111112,-0.7644444444444445,-1.087579861257538,0.9694603171256273,-31.567560515329145
1589550247.6559925,-1.963839824120603,-2.7235226130653265,9.314791457286432,0.423837869905081,-0.16111111111111112,-0.7026247208263541,-1.038293027638191,1.413293027638191,-33.888877983668344
1589550247.6659925,-1.9623497895139685,-2.7267623421354763,9.241461921163413,0.4188888888888889,-0.16111111111111112,-0.6877777777777778,0.10851990049751259,2.6085199004975124,-35.21328453884424
1589550247.6759925,-1.851039400021126,-2.6877598500052815,8.950185116721242,0.4188888888888889,-0.16111111111111112,-0.6877777777777778,0.37716541671067916,2.4601626043097076,-37.46217947871554
1589550247.6859925,-1.9197889247578843,-2.7531785448224486,9.049620064564191,0.4188888888888889,-0.16111111111111112,-0.6877777777777778,-0.8932828408244351,1.252110752421157,-39.78814874596474
1589550247.6959925,-1.974172861098965,-2.7774814167031043,9.14834572219793,0.4188888888888889,-0.16111111111111112,-0.6877777777777778,-1.317437326920274,1.0368842005538552,-41.09444687363358
1589550247.7059925,-1.9623945065898771,-2.762200686676265,9.171003433381328,0.4235347829832269,-0.1513302814388206,-0.6799531140399454,-0.8836942075534389,1.3687285413667072,-41.86003433381327
1589550247.7159925,-1.9342899499660262,-2.8042899499660265,9.218572487491507,0.44,-0.11666666666666667,-0.6522222222222223,-0.33036707023287415,1.3393121872876645,-42.62504632775341
1589550247.7259924,-1.9389475641502416,-2.8089475641502415,8.948497582744515,0.44,-0.11666666666666667,-0.6522222222222223,-0.18092227593901078,2.1381554481219784,-43.271615842320564
1589550247.7359924,-1.9044691721510216,-2.7965924835469345,8.938048146865258,0.44,-0.11666666666666667,-0.6522222222222223,-0.3111090665050225,1.6703758226532732,-43.65154139244891
1589550247.7459924,-1.9132874080579645,-2.863149632231859,9.147578768251181,0.44,-0.11666666666666667,-0.6522222222222223,-0.5071357997584807,1.0276821001207597,-44.04109260072456
1589550247.7559924,-1.9251714368572512,-2.8962000580007583,9.118600174002276,0.46253329466616105,-0.08501275273086906,-0.6463206450477516,-0.3469644410734602,1.6358918732014187,-44.15946444107346
1589550247.7659924,-2.000396976898204,-2.955014609061514,9.295043827184541,0.4866666666666667,-0.05111111111111112,-0.64,-0.11295969846897036,1.8845591959172543,-43.92545969846897
1589550247.7759924,-1.9027410315840454,-2.880920884214896,9.139422112291141,0.4866666666666667,-0.05111111111111112,-0.64,0.7707432455806552,3.113488947313799,-43.45837837720967
1589550247.7859924,-1.8398707358379705,-2.8629886289012547,9.128965886703764,0.4866666666666667,-0.05111111111111112,-0.64,0.6087447724052121,2.302707980506688,-43.43588419797463
1589550247.7959924,-1.7992913571977385,-2.8392913571977383,8.956456785988692,0.4866666666666667,-0.05111111111111112,-0.64,-0.8196354341102072,0.7244097105931954,-43.60211612718927
1589550247.8059924,-1.7549657258713351,-2.84006854825733,9.298613909181606,0.495854278634184,-0.02605398756333652,-0.6291419131292977,-1.4375,-0.6271421330415474,-43.531035786695846
1589550247.8159924,-1.75,-2.787275614920997,9.083653689525981,0.4988888888888889,-0.017777777777777778,-0.6255555555555555,-0.30497638051799947,0.6306096269750774,-42.67238658576316
1589550247.8259923,-1.7091736867251741,-2.7259780722709785,8.947217542183218,0.4988888888888889,-0.017777777777777778,-0.6255555555555555,0.10244518067744612,1.0148081323710614,-41.29184216812936
1589550247.8359923,-1.6615481375149022,-2.7384518624850975,9.116485243668038,0.4988888888888889,-0.017777777777777778,-0.6255555555555555,-0.2042362107977908,0.6082637892022091,-39.34545084061215
1589550247.8459923,-1.694006803592004,-2.794006803592004,9.091986392815992,0.4988888888888889,-0.017777777777777778,-0.6255555555555555,-0.20935905408124073,0.7750425224500247,-37.82173148673117
1589550247.8559923,-1.6618345288395402,-2.7902368084897318,9.127928662670728,0.4988888888888889,-0.003892218837684102,-0.6362853056456279,0.3365370443156136,0.928994300874521,-36.45895155743343
1589550247.8659923,-1.5532914804102025,-2.731645740205101,9.106034380752039,0.4988888888888889,0.006666666666666667,-0.6444444444444445,0.8351784364317644,1.1998925601498818,-35.675107439850116
1589550247.8759923,-1.5642040363189404,-2.7820149875104083,9.060298560723208,0.4988888888888889,0.006666666666666667,-0.6444444444444445,0.7314985527933071,1.3428169977399786,-35.36131844494667
1589550247.8859923,-1.5998807330228817,-2.8120764514724113,9.058723240309558,0.4988888888888889,0.006666666666666667,-0.6444444444444445,0.6463302790713257,1.4451070387617675,-35.18712729069651
1589550247.8959923,-1.450744635404686,-2.6668210048963226,8.966357990207355,0.4988888888888889,0.006666666666666667,-0.6444444444444445,0.9538484604515133,1.8551312806020177,-34.74823987052677
1589550247.9059923,-1.3593311484870971,-2.6728524610437794,9.155422953252534,0.5072692170280595,0.026220765658064697,-0.6388575590183307,0.24229506760656278,1.0024180167367467,-34.4375
1589550247.9159923,-1.404482387826257,-2.7241408973899444,9.15690507999609,0.5188888888888888,0.05333333333333334,-0.6311111111111111,-0.23492538042946987,0.5086044673987422,-34.29742538042947
1589550247.9259923,-1.4823289652056033,-2.8065756891098057,8.935068233167646,0.5188888888888888,0.05333333333333334,-0.6311111111111111,0.2482885223678265,1.2303095345684592,-33.81421147763217
1589550247.9359922,-1.5078795101504068,-2.9361075039040028,8.901234486726391,0.5188888888888888,0.05333333333333334,-0.6311111111111111,0.6847312402399934,1.9916937207199803,-33.25830627928002
1589550247.9459922,-1.4776846401718582,-2.97908850698174,9.241230934479056,0.5188888888888888,0.05333333333333334,-0.6311111111111111,0.5537258324382385,1.794951664876477,-33.65132250268528
1589550247.9559922,-1.5237994009083002,-3.0517325345444006,8.945744516378394,0.5241776446462889,0.05685917050493338,-0.6416886226259113,0.8341566818050052,2.454977534061262,-34.594985022707505
1589550247.9659922,-1.53,-3.06,8.83,0.5255555555555556,0.057777777777777775,-0.6444444444444445,0.9375,2.6875,-34.75
1589550247.9759922,-1.5000225575216803,-3.0525056393804197,8.904943606195799,0.5255555555555556,0.057777777777777775,-0.6444444444444445,1.0780192616171236,2.968538523234247,-36.24887212391599
1589550247.9859922,-1.3535175163771005,-2.905935156175828,8.505387828728757,0.5255555555555556,0.057777777777777775,-0.6444444444444445,0.888051243710244,2.541212736162537,-37.55562577138517
1589550247.9959922,-1.4034432500294245,-3.0344274000549256,9.142464200243241,0.5255555555555556,0.057777777777777775,-0.6444444444444445,-1.25103843814979,-0.8176443760053353,-39.36988750049041
1589550248.0059922,-1.4546764444027926,-3.0707937772363056,9.306557330959185,0.5255555555555556,0.057777777777777775,-0.6633726421234036,-1.4685611030410948,-0.853483318494916,-40.578677779860364
1589550248.0159922,-1.3504593479573355,-2.8772791306097805,8.92939927550815,0.5255555555555556,0.057777777777777775,-0.68,0.16331725447776213,1.572879980881465,-40.63968636798148
1589550248.0259922,-1.2829932813759741,-2.776496640687987,9.002416017199677,0.5255555555555556,0.057777777777777775,-0.68,-0.14328809459822633,1.213003896801935,-40.2969799785004
1589550248.0359921,-1.018777747265321,-2.66092681587258,8.845238454849193,0.5255555555555556,0.057777777777777775,-0.68,0.243241967595771,2.093225090393153,-39.07118889880544
1589550248.0459921,-0.7874061127925316,-2.4495349332878638,8.853103712860735,0.5255555555555556,0.057777777777777775,-0.68,0.07261871776290552,2.0891102561916535,-40.92335564175796
1589550248.0559921,-0.6947558338076266,-2.560886454183267,9.21506374501992,0.57183652690824,0.050064282552330364,-0.6575607411623349,-0.6116640580535003,0.4975117387592487,-46.82912101593625
1589550248.065992,-0.8380387685290764,-2.6253477765108326,9.010820980615735,0.5988888888888889,0.045555555555555564,-0.6444444444444445,-0.2561288483466363,2.1198688711516533,-52.75199543899658
1589550248.075992,-0.9385331389278899,-2.6660568095906685,8.952571011988335,0.5988888888888889,0.045555555555555564,-0.6444444444444445,0.2471412949562588,3.3784504716132053,-55.707611063109766
1589550248.085992,-1.0252588733311625,-2.7652118054527692,9.065211805452769,0.5988888888888889,0.045555555555555564,-0.6444444444444445,-0.8814718332790623,2.9339699091205116,-58.22448639767917
1589550248.095992,-1.0947548875711854,-2.8198365917141235,9.169019550284741,0.5988888888888889,0.045555555555555564,-0.6444444444444445,-0.89746863930801,2.648590236599542,-59.22232455625355
1589550248.105992,-1.0999077700568543,-2.845138344914719,9.038247631080228,0.7244810837369271,-0.03798568119604127,-0.6349128939425844,1.3830701200252684,3.6296114971572964,-57.833085912823755
1589550248.115992,-0.9842951767547391,-2.773514235526605,8.979728646710093,0.8477777777777777,-0.12,-0.6255555555555555,0.5383025781307178,2.8637492680963184,-56.17699375137232
1589550248.125992,-0.8963652873265016,-2.7063652873265016,9.098028927227915,0.8477777777777777,-0.12,-0.6255555555555555,-1.202644636139577,1.30775311324426,-55.87217456868595
1589550248.135992,-1.0661447605329493,-2.9767734965790424,9.330450846236946,0.8477777777777777,-0.12,-0.6255555555555555,-1.0994958588404753,0.7665331292761973,-56.076512423478576
1589550248.145992,-1.1986594343277799,-3.1448324292909726,9.244216388996513,0.8477777777777777,-0.12,-0.6255555555555555,-1.3968241476172025,1.045742929097249,-55.15432487407981
1589550248.155992,-1.1704133813408686,-3.03866141014539,8.942603345335218,1.0932639047141577,-0.15595308630721783,-0.5327733973433805,-1.1656003600565152,1.7799581833097853,-53.14096326512009
1589550248.165992,-1.030103575008353,-2.810207150016706,9.300908787170064,1.5533333333333332,-0.22333333333333333,-0.3588888888888889,0.09083695289007682,2.280278984296692,-49.63988890745072
1589550248.175992,-1.02,-2.79,9.7,1.5533333333333332,-0.22333333333333333,-0.3588888888888889,0.375,2.375,-48.1875
1589550248.185992,-1.0817129770992366,-3.1016580152671755,8.65961221374046,1.5533333333333332,-0.22333333333333333,-0.3588888888888889,1.3995229007633587,3.7448282442748093,-42.763473282442746
1589550248.195992,-0.9284510283330936,-2.793058905713875,9.268509584763,1.5533333333333332,-0.22333333333333333,-0.3588888888888889,-1.7837007663701177,-0.38958260565840025,-38.10502789135214
1589550248.205992,-0.9075564704573272,-2.8508441823374504,9.38589777827232,1.3539741766914348,-0.12297334833442544,-0.45958907722677617,-0.9857687956678165,-0.03422304439746293,-32.888674845146696
1589550248.215992,-0.8511782896659199,-3.0568364663484955,9.093418233174248,0.9022222222222224,0.10444444444444444,-0.6877777777777778,0.9942275616051427,1.9070459360085712,-25.877320845914095
1589550248.225992,-0.7423399299808107,-2.9629359719923243,9.007615831953945,0.9022222222222224,0.10444444444444444,-0.6877777777777778,0.5954743873320931,1.3233992998081063,-22.344644923608772
1589550248.235992,-0.7116201092768102,-2.950648043710724,8.933888262264345,0.9022222222222224,0.10444444444444444,-0.6877777777777778,0.326675956172089,1.0162010927681018,-20.117457922568736
1589550248.245992,-0.7144452440017421,-3.1,9.148411384854281,0.9022222222222224,0.10444444444444444,-0.6877777777777778,-0.45139138750544433,0.15377341072206338,-17.899810867877363
1589550248.255992,-0.6238145048814505,-3.1059205020920504,9.280529986052999,0.8743739346040602,0.11091314117464744,-0.6898609174027585,-0.09416405160390516,-0.2508281032078103,-16.50865149930265
1589550248.265992,-0.7913725888324873,-3.256536040609137,9.016536040609136,0.62,0.17,-0.7088888888888889,0.05821065989847715,0.3125,-14.07771573604061
1589550248.275992,-0.8789310703152061,-3.4645604433668167,9.17097402147558,0.62,0.17,-0.7088888888888889,-0.27122878420505714,0.20086162105992378,-11.794986144786977
1589550248.285992,-0.8641600578086894,-3.557052298798663,9.06647385060067,0.62,0.17,-0.7088888888888889,-0.2539619275584861,-0.16546156625417757,-6.348157348026375
1589550248.295992,-0.6941597118510059,-3.391166066356262,9.036751588626315,0.62,0.17,-0.7088888888888889,0.29014575829453276,-0.2926568127910041,0.5718706989955782
1589550248.305992,-0.3520571713893397,-2.549755544459701,9.051466733241792,0.6010409067162281,0.18799507159137668,-0.7124236350943379,0.06097215287313276,-1.2251786605916863,8.48561483168976
1589550248.3159919,-0.6349283689573277,-2.771124645675324,9.17123649735693,0.5544444444444444,0.23222222222222225,-0.7211111111111111,-0.34310599095993255,-1.2339548379682832,5.792198153681146
1589550248.3259919,-0.9602431515909474,-3.3304863031818948,8.994220640227038,0.5544444444444444,0.23222222222222225,-0.7211111111111111,-0.06553939488684196,-0.09951688352293225,4.724788955963347
1589550248.3359919,-0.93,-3.27,9.18,0.5544444444444444,0.23222222222222225,-0.7211111111111111,0.3125,0.0625,6.75
1589550248.3459918,-1.1830744971347256,-3.597508172762586,9.284207145879005,0.5544444444444444,0.23222222222222225,-0.7211111111111111,0.5916262836044768,-0.9144419926156686,9.401699694242529
1589550248.3559918,-0.6005040701314965,-2.8201095804633685,8.442301189730745,0.554388436652056,0.23216864955124195,-0.7210794545328046,1.9923293675641829,1.6128091734502192,18.874726048841577
1589550248.3659918,-0.8592680177953534,-2.922032031636184,9.311139891250617,0.5288888888888889,0.20777777777777776,-0.7066666666666667,-1.0121997034107761,-3.368399653979239,18.70934997528423
1589550248.3759918,-0.9260181352636544,-3.0194682632886045,8.96557707487053,0.5288888888888889,0.20777777777777776,-0.7066666666666667,0.07522669079567988,-2.01823994570972,18.91650342683326
1589550248.3859918,-0.9583173863658241,-2.962944573859808,9.102848892054752,0.5288888888888889,0.20777777777777776,-0.7066666666666667,0.4789673295728009,-1.1098235084611978,20.480998402094603
1589550248.3959918,-0.9070056917405084,-2.6282163184787533,8.212235301726926,0.5288888888888889,0.20777777777777776,-0.7066666666666667,1.746418407606235,0.81966318478753,24.21499054071535
1589550248.4059918,-0.8120567880473449,-2.5943059957311947,9.053211305866373,0.5288888888888889,0.20777777777777776,-0.7066666666666667,1.915970021344027,0.4805599573119462,27.3516953948645
1589550248.4159918,-0.9809558089807555,-2.82936279401283,9.755344262295083,0.5366666666666666,0.19111111111111112,-0.7477777777777778,-2.1214027975766214,-6.484647852815396,31.22533410548824
1589550248.4259918,-1.0701211827435775,-2.7760591371788657,8.399815802229764,0.5366666666666666,0.19111111111111112,-0.7477777777777778,1.131816529326224,-0.7071921958313137,34.818922685409596
1589550248.4359918,-1.0760043413686737,-3.301965269050611,9.327861076202444,0.5366666666666666,0.19111111111111112,-0.7477777777777778,0.7635039415057695,-2.8119573289158004,42.90981377813321
1589550248.4459918,-10.992026481402116,-12.95047932691223,10.60831344596576,0.5366666666666666,0.19111111111111112,-0.7477777777777778,-0.7575056955315453,1.5168849953759054,48.23715262896714
1589550248.4559917,-21.004870432702056,-20.899810616813333,7.294629749787095,0.5247034889222325,0.18542860168250494,-0.73102932893557,-14.525867837300783,12.511645089014154,-33.029532827770794
1589550248.4659917,0.8633157407724734,3.7176524212618665,-3.8707525960451012,0.4922222222222222,0.17,-0.6855555555555556,-64.75950169642552,-1.4900570615853859,-310.5314888275815
1589550248.4759917,-1.5393751932453328,-2.3165372814841243,9.97093376144607,0.4922222222222222,0.17,-0.6855555555555556,-77.36192918301819,-11.570012783921989,-442.1852717326674
1589550248.4859917,-2.0724284680655134,-2.1691830559757945,9.558120984893332,0.4922222222222222,0.17,-0.6855555555555556,4.8353614418206945,60.53771322545989,-349.40825686816197
1589550248.4959917,-0.9248111468902523,-0.8127281932883733,6.172282236668894,0.4922222222222222,0.17,-0.6855555555555556,69.80850016201876,44.978652763432365,-316.88224654191225
1589550248.5059917,-1.888278809738503,0.7394387736699729,5.087407394048692,0.48683935477407075,0.20409149383829278,-0.6894431820458872,95.32367673579802,36.006397655545534,-284.0352975653742
1589550248.5159917,0.6224806905951838,-1.2856519763743752,10.213243980009086,0.4722222222222222,0.2966666666666667,-0.7,-1.9549920490686077,11.4461892321672,-220.48338823262154
1589550248.5259917,1.47,-1.58,13.04,0.4722222222222222,0.2966666666666667,-0.7,-47.3125,-20.875,-189.875
1589550248.5359917,0.5731943830163645,-1.183013600176913,9.029673540468819,0.4722222222222222,0.2966666666666667,-0.7,5.166750746351172,8.796177023440954,-162.14857398551527
1589550248.5459917,0.7132474942174248,-1.9849159599074788,9.448723207401697,0.4722222222222222,0.2966666666666667,-0.7,7.805994602929838,13.74216461063994,-140.0914803392444
1589550248.5559916,0.6615059367771781,-2.185414494988435,10.186040400925211,0.4722222222222222,0.2966666666666667,-0.7,-5.533625674633772,1.1705830763299936,-121.45643504240556
1589550248.5659916,0.24233451836803793,-2.2122473336719146,8.763687432989109,0.4066666666666667,0.3688888888888889,-0.6933333333333334,-0.649862804017832,5.778818210033294,-85.04399441340782
1589550248.5759916,0.17975461366862705,-2.4170245386331373,9.16717785439059,0.4066666666666667,0.3688888888888889,-0.6933333333333334,0.5509962482255122,4.201302981139728,-58.07783411072805
1589550248.5859916,0.26149018497546245,-2.4490666289165723,8.917325405813514,0.4066666666666667,0.3688888888888889,-0.6933333333333334,-2.72362802000755,0.37926458097395244,-34.33368134201586
1589550248.5959916,-0.12221173695075199,-4.437045119433796,9.17567384252433,0.4066666666666667,0.3688888888888889,-0.6933333333333334,0.5801386021822472,1.3488462105573578,-11.537691683869065
1589550248.6059916,-0.5762034334238298,-6.419700953275225,8.430292310518688,0.4047301775228453,0.37547295197788166,-0.6910095463607476,2.6566116883381983,3.0285650860397233,9.771331319275756
1589550248.6159916,1.1297518071431116,0.9121496991062209,5.521862692732258,0.3955555555555556,0.4066666666666667,-0.68,0.5670000534130969,5.587076701207136,61.712771071466726
1589550248.6259916,1.6019155376189103,-1.2478697030844623,10.958299221677716,0.3955555555555556,0.4066666666666667,-0.68,2.892287042375324,-8.045167915825886,138.43221209282214
1589550248.6359916,1.4126641651031895,-1.8756003752345216,10.562839274546592,0.3955555555555556,0.4066666666666667,-0.68,2.840271263289556,-17.326024077548468,130.02020794246403
1589550248.6459916,0.1287429091963065,-4.739780547389342,9.920048031137428,0.3955555555555556,0.4066666666666667,-0.68,0.8332833008985135,-1.3872406939671236,110.79134145584034
1589550248.6559916,-0.933296394754921,-8.717252008721886,9.827458406762448,0.3944148072921334,0.40524073133738897,-0.6837074318561221,0.2827126706293498,-7.1739429941157145,104.47751015561994
1589550248.6659915,4.229683621428894,-7.014420273502731,6.781217448210498,0.3911111111111111,0.4011111111111111,-0.6944444444444444,1.7785307690571828,-3.564911766033308,114.32627104301123
1589550248.6759915,6.8871001170706325,-11.85777609157525,7.445737328188007,0.3911111111111111,0.4011111111111111,-0.6944444444444444,-1.243016411568313,-8.661996487881021,100.47119303646534
1589550248.6859915,0.08665215398716777,-5.139507332722274,7.430875343721357,0.3911111111111111,0.4011111111111111,-0.6944444444444444,-1.7330144362969753,-3.0587190650779092,46.007175183318054
1589550248.6959915,-0.4564842603164247,-2.886168651117273,8.988332245963138,0.3911111111111111,0.4011111111111111,-0.6944444444444444,8.630836119719458,10.167499184472353,25.351538289022997
1589550248.7059915,-0.06311898548360784,-3.479067036372533,9.142257788289024,0.3911111111111111,0.4011111111111111,-0.6944444444444444,1.6828081675093784,1.544818341216768,15.125466379872778
1589550248.7159915,0.25632991318074194,-4.052170481452249,9.239265982636148,0.4171253178987986,0.3653415767780409,-0.6738498640708586,-2.167620363062352,-4.383977900552486,0.8696724546172057
1589550248.7259915,0.02827009056517253,-3.862355840880431,8.974662386793534,0.4177777777777778,0.3644444444444445,-0.6733333333333333,0.8452438954488135,0.6763799724865298,-0.1875
1589550248.7359915,0.12059284904562026,-3.876521339501823,8.867707037593062,0.4177777777777778,0.3644444444444445,-0.6733333333333333,-0.1366061307025338,0.37450978890284625,-0.18008938692974663
1589550248.7459915,0.1175004170605572,-3.9466677788281523,8.994166527646481,0.4177777777777778,0.3644444444444445,-0.6733333333333333,-0.9088676342471593,-0.44271441546645907,-0.07552039889525293
1589550248.7559915,0.07085302785964523,-3.822274740959054,9.009715657380118,0.4177777777777778,0.3644444444444445,-0.6733333333333333,0.5974543086989563,0.23756001038017394,-0.12411142931286956
1589550248.7659914,0.0777881596368451,-3.812211840363155,9.095669756005295,0.43854620347603135,0.3601176890906417,-0.6897750036777841,1.0144079818422544,0.7367599773028183,-0.1736759977302818
1589550248.7759914,0.08284502234047894,-3.842845022340479,9.034309955319042,0.4444444444444444,0.3588888888888889,-0.6944444444444444,0.27423879210803753,0.10129148049600883,0.0
1589550248.7859914,0.10390180229931222,-3.863901802299312,8.992196395401375,0.4444444444444444,0.3588888888888889,-0.6944444444444444,-0.4715221647673077,-0.07418168582760182,0.0
1589550248.7959914,0.09014526009978736,-3.8994189596008506,8.931162080798298,0.4444444444444444,0.3588888888888889,-0.6944444444444444,-0.614105492515947,-0.30614487063430246,-0.1865921243763289
1589550248.8059914,0.0989751794699059,-3.8640992821203763,9.001801435759248,0.4444444444444444,0.3588888888888889,-0.6944444444444444,0.04813846024294233,0.08016410180838301,-0.13140512831308815
1589550248.8159914,0.0820387865741848,-3.818155146296739,9.023883640277445,0.43,0.3655555555555556,-0.7022222222222222,0.7117727517340349,0.04975758391134497,-0.04975758391134497
1589550248.8259914,0.09054433618202602,-3.850544336182026,8.992379293451636,0.43,0.3655555555555556,-0.7022222222222222,0.5148705840727233,0.01020630341298786,-0.006804202275325241
1589550248.8359914,0.10129726710983805,-3.867783602659028,8.874269938208219,0.43,0.3655555555555556,-0.7022222222222222,-0.3368237583094633,0.14696040281756112,-0.10878416112702445
1589550248.8459914,0.10885333909816426,-3.9131200345889856,8.957386730079808,0.43,0.3655555555555556,-0.7022222222222222,-0.4785001080905799,-0.0891668468176332,-0.01433326127294672
1589550248.8559914,0.10029143699175899,-3.8617486219505537,8.950582873983517,0.43,0.3655555555555556,-0.7022222222222222,-0.07525036838945587,-0.0643214811984937,-0.12135703760301261
1589550248.8659914,0.0972423418437327,-3.825863512765599,9.05,0.43666666666666665,0.3711111111111111,-0.6733333333333333,0.6875,0.2305884086916765,0.03664695478499411
1589550248.8759913,0.081539545889342,-3.80769772944671,9.029985903438554,0.43666666666666665,0.3711111111111111,-0.6733333333333333,0.5912783819161255,0.46151135276645017,-0.10575567638322508
1589550248.8859913,0.09174890339370789,-3.856995613574832,8.925246710181124,0.43666666666666665,0.3711111111111111,-0.6733333333333333,-0.07959840073876634,0.151624184103931,0.0
1589550248.8959913,0.0989076101635053,-3.8905461949182474,8.952730974591237,0.43666666666666665,0.3711111111111111,-0.6733333333333333,-0.736345127043816,-0.305672563521908,-0.0034137182390459766
1589550248.9059913,0.08147965013608127,-3.899260174931959,8.996300874659797,0.43666666666666665,0.3711111111111111,-0.6733333333333333,-0.5184956267010159,-0.19674781335050798,-0.05787609332474601
1589550248.9159913,0.09372869534114281,-3.8450852186354285,9.020593043011713,0.423700676622254,0.3711111111111111,-0.6931636710483173,0.10063042117499776,-0.10169565411785747,-0.019597827058928735
1589550248.9259913,0.1,-3.8355537147954633,9.061107429590926,0.4177777777777778,0.3711111111111111,-0.7022222222222222,0.5694214349432904,0.13192143494329042,-0.09721071747164521
1589550248.9359913,0.09295855485741904,-3.847041445142581,8.978461213146447,0.4177777777777778,0.3711111111111111,-0.7022222222222222,0.2729277428709521,0.05547290357660706,-0.08099096785886901
1589550248.9459913,0.08035634665062458,-3.8789309600481263,8.92071269330125,0.4177777777777778,0.3711111111111111,-0.7022222222222222,-0.17636416716798187,-0.06027283343359638,-0.0625
1589550248.9559913,0.11371507402145489,-3.888428768505364,8.953715074021456,0.4177777777777778,0.3711111111111111,-0.7022222222222222,-0.3455394094755698,-0.009820196841476725,-0.0625
1589550248.9659913,0.09777195745659831,-3.863315872369795,9.046657936184898,0.4177777777777778,0.3655555555555556,-0.68,0.666612101155609,0.3680373670518697,-0.05553736705186968
1589550248.9759912,0.08292671704390607,-3.818780151131718,9.02439007556586,0.4177777777777778,0.3655555555555556,-0.68,0.5274379722866194,0.32164599076220646,-0.009145990762206457
1589550248.9859912,0.08,-3.835853911241582,8.92292695562079,0.4177777777777778,0.3655555555555556,-0.68,-0.11738041788982903,0.12347284579519945,-0.0625
1589550248.9959912,0.08048691727488971,-3.8709738345497797,8.940973834549778,0.4177777777777778,0.3655555555555556,-0.68,-0.419240602191636,-0.23782706812775734,-0.0625
1589550249.0059912,0.08901417041088092,-3.888028340821762,8.958028340821762,0.4177777777777778,0.3655555555555556,-0.68,-0.09946860959196535,-0.0246457397279769,-0.0625
1589550249.0159912,0.09,-3.864545496134315,9.01090900773137,0.4234343341923744,0.359898999140959,-0.6865993158170294,0.4147719474815865,-0.053030216386842945,-0.0625
1589550249.0259912,0.08,-3.8207842198687647,9.038039450328087,0.4244444444444445,0.3588888888888889,-0.6877777777777778,0.4178945032808792,0.1225493129101099,-0.0024506870898901053
1589550249.0359912,0.08,-3.837514908554219,8.996212728614452,0.4244444444444445,0.3588888888888889,-0.6877777777777778,-0.0003727138554817655,0.07026591076806478,-0.05473408923193522
1589550249.0459912,0.08037540983606557,-3.880750819672131,8.951126229508196,0.4244444444444445,0.3588888888888889,-0.6877777777777778,-0.3054610655737705,0.24530737704918032,-0.18046106557377048
1589550249.0559912,0.0889702868852459,-3.8979405737704917,8.976910860655739,0.4244444444444445,0.3588888888888889,-0.6877777777777778,-0.14430712090163936,0.13787141393442623,-0.019307120901639357
1589550249.0659912,0.08096805762154545,-3.8951597118922727,9.00193611524309,0.4244444444444445,0.3533333333333333,-0.6666666666666666,0.5806510804039772,0.07460072026931809,0.11289927973068191
1589550249.0759912,0.08917736631958037,-3.8541131684020984,9.01835473263916,0.4244444444444445,0.3533333333333333,-0.6666666666666666,0.7345756184921318,0.17721707899475458,0.01028292100524543
1589550249.0859911,0.08331621358363588,-3.8299486407509074,8.959845922252722,0.4244444444444445,0.3533333333333333,-0.6666666666666666,0.29048968387496676,-0.02136832551137874,-0.041773665102275745
1589550249.0959911,0.10837230142566191,-3.857829735234216,8.97728716904277,0.4244444444444445,0.3533333333333333,-0.6666666666666666,-0.41037169042769855,-0.18410896130346233,-0.12160896130346233
1589550249.1059911,0.09783318603292539,-3.8660834069835373,8.961749779049388,0.4244444444444445,0.3533333333333333,-0.6666666666666666,-0.4375,-0.11145741270578367,-0.08697870635289184
1589550249.115991,0.09622615481633297,-3.876226154816333,8.999809238530663,0.4279034193424072,0.3567923082312961,-0.6839615411564804,-0.08727879158127072,-0.023586532397918962,-0.023586532397918962
1589550249.125991,0.0857409691629956,-3.851481938325991,9.015740969162994,0.43,0.3588888888888889,-0.6944444444444444,0.39235682819383255,0.13367841409691628,0.04455947136563877
1589550249.135991,0.08,-3.830272534571515,8.922452811143636,0.43,0.3588888888888889,-0.6944444444444444,0.25681336428787727,0.12670334107196932,-0.05909331785606138
1589550249.145991,0.09725449893032426,-3.855881748395486,8.971763496790974,0.43,0.3588888888888889,-0.6944444444444444,-0.23528278241536976,0.07107969084273669,-0.0625
1589550249.155991,0.1,-3.884988587429701,8.988329529143234,0.43,0.3588888888888889,-0.6944444444444444,-0.15632132856436926,0.010440442854789747,-0.0625
1589550249.165991,0.09015594982483896,-3.89,8.98015594982484,0.4103118996496779,0.37092050576964125,-0.7021009279140141,0.2441518815685388,0.12305062718951294,-0.0009746864052435286
1589550249.175991,0.09938092055223915,-3.8675236822089567,9.02380920552239,0.41,0.3711111111111111,-0.7022222222222222,0.6797615069029894,-0.05089226035448406,0.0
1589550249.185991,0.08944802453224301,-3.8302759877338786,8.931655926403272,0.41,0.3711111111111111,-0.7022222222222222,0.5469756899693347,0.12155015332651882,-0.0034498466734811787
1589550249.195991,0.07080751966579264,-3.8395962401671038,8.987577441002623,0.41,0.3711111111111111,-0.7022222222222222,0.022711490600417772,0.005046997911203943,-0.11995300208879606
1589550249.205991,0.08624567298933176,-3.864368509483998,8.99,0.41,0.3711111111111111,-0.7022222222222222,-0.2538386404583089,0.05076772809166178,-0.125
1589550249.215991,0.10977543052571048,-3.8996631457885655,8.999887715262854,0.44405768590539024,0.36561793596508046,-0.6945317770177792,-0.065307118428619,0.0007017796071547497,-0.125
1589550249.225991,0.09098740024239098,-3.8524685006059776,8.980987400242391,0.4444444444444444,0.3655555555555556,-0.6944444444444444,0.2939862454551691,0.0,-0.006171251514943632
1589550249.235991,0.09954685503870143,-3.84,8.930453144961298,0.4444444444444444,0.3655555555555556,-0.6944444444444444,0.24575176598782594,0.12358392199594198,-0.0625
1589550249.245991,0.08378710453144961,-3.84,8.94621289546855,0.4444444444444444,0.3655555555555556,-0.6944444444444444,0.09800410498234013,0.07433470166078004,-0.0625
1589550249.255991,0.09070824861794902,-3.850708248617949,8.976770621544873,0.4444444444444444,0.3655555555555556,-0.6944444444444444,-0.10481638465545343,0.029036723068909316,0.004426553862181368
1589550249.265991,0.09435978376672059,-3.8712804324665586,9.011280432466558,0.4331640119778857,0.3655555555555556,-0.6906843002889248,-0.1794972970840074,0.0,-0.008002702915992588
1589550249.275991,0.08044150861668885,-3.8895584913833114,9.000883017233377,0.4244444444444445,0.3655555555555556,-0.6877777777777778,0.35292456916555803,0.23896228458277902,-0.12224057114569475
1589550249.285991,0.10584587905077826,-3.864154120949222,8.948308241898443,0.4244444444444445,0.3655555555555556,-0.6877777777777778,0.5365367440673641,0.14230883728842392,-0.017308837288423917
1589550249.295991,0.08989388264669164,-3.846595921764461,8.986914273824386,0.4244444444444445,0.3655555555555556,-0.6877777777777778,0.39494902205576365,0.125,-0.041887744486059086
1589550249.305991,0.08677915468023899,-3.846779154680239,8.996441690639521,0.4244444444444445,0.3655555555555556,-0.6877777777777778,-0.06882745076344327,0.04026056649701261,-0.0625
1589550249.315991,0.09,-3.8671019755409217,9.00140131702728,0.4276114769520226,0.3617551165464618,-0.6915782167868716,-0.321258231420508,-0.071258231420508,-0.026870884289746003
1589550249.325991,0.09788046394518513,-3.86423907210963,8.962717216328889,0.43,0.3588888888888889,-0.6944444444444444,-0.07948260205555785,-0.125,-0.14775869897222108
1589550249.335991,0.1,-3.8695949116313018,8.911620353474794,0.43,0.3588888888888889,-0.6944444444444444,0.47974558156509045,0.23480918617381785,-0.007595406913091074
1589550249.345991,0.0702606582725867,-3.87,8.989304911273102,0.43,0.3588888888888889,-0.6944444444444444,0.1282582284073338,0.12608607613577794,0.0
1589550249.355991,0.0843449917218543,-3.855655008278146,9.004344991721855,0.43,0.3588888888888889,-0.6944444444444444,-0.09914049565397354,-0.0094842973923841,0.0
1589550249.3659909,0.10889016229805168,-3.8783352434470775,9.019445081149025,0.4247527326949857,0.3588888888888889,-0.6881477236784272,-0.1875,-0.0625,-0.059031757181411515
1589550249.3759909,0.10166367777709068,-3.8716636777770908,9.00332735555418,0.4244444444444445,0.3588888888888889,-0.6877777777777778,0.07301006946591637,0.04170402778636653,0.09380604167954978
1589550249.3859909,0.1,-3.87,8.916317219797413,0.4244444444444445,0.3588888888888889,-0.6877777777777778,0.4155652090367564,0.12061304180735129,0.06688695819264871
1589550249.3959908,0.0748037104168888,-3.853202473611259,9.010785158332444,0.4244444444444445,0.3588888888888889,-0.6877777777777778,0.4375,0.22998453992963003,0.010007730035184986
1589550249.4059908,0.08491833345367897,-3.845027222182107,9.025027222182107,0.4244444444444445,0.3588888888888889,-0.6877777777777778,0.3131805545526753,0.15676041591450646,-0.12431944544732472
1589550249.4159908,0.0971258160715725,-3.85149673571371,9.017125816071571,0.43019281230129947,0.3588888888888889,-0.6919293767855064,0.07971810268396873,0.0625,-0.23203635044732812
1589550249.4259908,0.09,-3.872065604866403,9.025868790267193,0.4444444444444444,0.3588888888888889,-0.7022222222222222,-0.03873009124505347,-0.03667993916996436,-0.03873009124505347
1589550249.4359908,0.07175734145779462,-3.8608786707288973,8.920544048746768,0.4444444444444444,0.3588888888888889,-0.7022222222222222,0.28504153972195906,0.05151661588878363,0.0
1589550249.4459908,0.0758040450928382,-3.8483919098143233,8.956432360742706,0.4444444444444444,0.3588888888888889,-0.7022222222222222,0.3125,0.0625,-0.036275281830238724
1589550249.4559908,0.08986050414292207,-3.84,8.999860504142923,0.4444444444444444,0.3588888888888889,-0.7022222222222222,0.18924369821347412,0.03168592455336853,0.029942226339894407
1589550249.4659908,0.09511168905197906,-3.8497766218960416,9.024664932844063,0.4406424248182059,0.3621477628542362,-0.6913593090043979,0.0013961131497381499,0.0,0.125
1589550249.4759908,0.10065728077232503,-3.88131456154465,8.9973708769107,0.43666666666666665,0.3655555555555556,-0.68,-0.0625,0.0,0.025087992759452934
1589550249.4859908,0.09805858498366077,-3.8761171699673214,8.930146462459152,0.43666666666666665,0.3655555555555556,-0.68,0.08676768770424031,0.14926768770424031,0.012133843852120157
1589550249.4959908,0.09,-3.852482058463154,8.94758970768423,0.43666666666666665,0.3655555555555556,-0.68,0.4224356730264309,0.3439742692105724,0.0625
1589550249.5059907,0.09,-3.856113167172399,9.002792170206796,0.43666666666666665,0.3655555555555556,-0.68,0.3089635258625226,0.298585410345009,0.024292705172504515
1589550249.5159907,0.09638408416161094,-3.866384084161611,9.03,0.43241061055892605,0.361299499447815,-0.6941868536924688,0.10769894797986318,0.05049736994965795,-0.07980105202013682
1589550249.5259907,0.08808304417779673,-3.87,9.024041522088897,0.43,0.3588888888888889,-0.7022222222222222,-0.16094292166631127,0.049221460833155636,-0.050519026111229576
1589550249.5359907,0.08,-3.878041630132286,8.947625328809425,0.43,0.3588888888888889,-0.7022222222222222,-0.06119905836605544,0.125,-0.10052037665357783
1589550249.5459907,0.08736665132197827,-3.8652666973560432,8.974199907931869,0.43,0.3588888888888889,-0.7022222222222222,0.2762494245741849,-0.013124712287092444,-0.032916858475271704
1589550249.5559907,0.10859760956175299,-3.8538007968127492,9.014796812749003,0.43,0.3588888888888889,-0.7022222222222222,0.25876494023904384,0.09248007968127489,0.0
1589550249.5659907,0.1036341589383154,-3.85,9.024544719646105,0.4233324351230174,0.36252574245815217,-0.6979792263914151,0.051117991152628384,0.08521349336447129,0.0
1589550249.5759907,0.0968895025870552,-3.877558010348221,8.978662984477669,0.4177777777777778,0.3655555555555556,-0.6944444444444444,-0.23473756467638002,-0.08611878233819001,-0.08611878233819001
1589550249.5859907,0.10833458656364249,-3.873330826872715,8.901657894054503,0.4177777777777778,0.3655555555555556,-0.6944444444444444,0.1563204942048902,-0.1770911660227656,-0.02081766795446885
1589550249.5959907,0.1043154357045691,-3.8643154357045693,8.935476514363447,0.4177777777777778,0.3655555555555556,-0.6944444444444444,0.28552852684644314,-0.009857365767784287,0.0
1589550249.6059906,0.10463887512388503,-3.864638875123885,8.993194375619426,0.4177777777777778,0.3655555555555556,-0.6944444444444444,0.3125,-0.019964847621407322,0.0
