time,acc_x,acc_y,acc_z,mag_x,mag_y,mag_z,gyr_x,gyr_y,gyr_z
1589550335.4675672,0.36,-3.82,8.84,0.4566666666666666,0.3711111111111111,-0.6711111111111111,-0.125,-0.375,-3.375
1589550335.4775672,0.4650327242977911,-3.84,8.997581810744478,0.43666666666666665,0.3711111111111111,-0.6644444444444444,-0.43790905372238886,-0.7348863171529861,-4.591500204526861
1589550335.4875672,0.450735274065994,-3.84,8.961838185164986,0.43666666666666665,0.3711111111111111,-0.6644444444444444,-0.259190925824925,-0.5114886572811563,-5.574449907962912
1589550335.4975672,0.4812518901085953,-3.8087481098914044,8.88968324725566,0.43666666666666665,0.3711111111111111,-0.6644444444444444,-0.2011689217053198,-0.20701353023191876,-6.699283722482964
1589550335.5075672,0.45508669975497895,-3.852427750204184,8.882485550040837,0.43666666666666665,0.3711111111111111,-0.6644444444444444,-0.2448217707482566,-0.026252395237796065,-8.46893062448954
1589550335.5175672,0.33650687943707985,-3.951244267135767,8.902248853427153,0.43666666666666665,0.3711111111111111,-0.6644444444444444,-0.20364822202676383,0.26196244581265316,-8.221889332160583
1589550335.5275671,0.2409507492579812,-4.0033447551941315,8.866197002968075,0.4444444444444444,0.3855555555555555,-0.6433333333333333,0.19938436572476534,0.4256156342752347,-6.062928319779928
1589550335.5375671,0.25525260886274276,-3.9373736955686285,8.815555325627457,0.4444444444444444,0.3855555555555555,-0.6433333333333333,0.23863518786767968,0.23042798651964408,-3.4330767582108965
1589550335.5475671,0.3090728677984407,-3.91576158493368,8.747549697931081,0.4444444444444444,0.3855555555555555,-0.6433333333333333,-0.34271532957575346,-0.44495047082250494,-1.6307945762597456
1589550335.5575671,0.37277515272199535,-3.901605521617334,8.839564109487327,0.4444444444444444,0.3855555555555555,-0.6433333333333333,-0.6523792146208107,-0.887327449458301,-1.232655295487529
1589550335.567567,0.42,-3.908840862840863,8.929710215710216,0.4446376339709673,0.38533016777461215,-0.6435265228598561,-0.5,-0.9230107855107855,-0.8106888481888482
1589550335.577567,0.42,-3.8746992266992266,8.921174806674806,0.45032790666123995,0.3786915163026274,-0.6492167955501289,-0.5,-0.4962403337403337,-0.7573425417175417
1589550335.587567,0.38540276881141955,-3.8772986155942903,8.87,0.4511111111111111,0.37777777777777777,-0.65,-0.625,-0.5844182626784306,-0.7043836525356861
1589550335.597567,0.4,-3.8675286249215386,8.874942750156922,0.4511111111111111,0.37777777777777777,-0.65,-0.5941078115192312,-0.7816078115192312,-0.8117843769615376
1589550335.607567,0.4,-3.86,8.89,0.4511111111111111,0.37777777777777777,-0.65,-0.5,-0.7245569725074528,-1.0370569725074528
1589550335.617567,0.4006962153998083,-3.859535856400128,8.890696215399808,0.45124003988885336,0.37777777777777777,-0.6504899293554207,-0.5029008974992013,-0.9404008974992013,-1.2485495512503995
1589550335.627567,0.4241623557500995,-3.8361082371667328,8.898595304417032,0.4566666666666666,0.37777777777777777,-0.6711111111111111,-0.6614852765618783,-1.1111470354158377,-1.1631764822920811
1589550335.637567,0.39884740110747396,-3.8176948022149477,8.79847401107474,0.4566666666666666,0.37777777777777777,-0.6711111111111111,-0.8773336877045921,-1.370129944626304,-1.091314972313152
1589550335.647567,0.3924315477100988,-3.8048630954201976,8.734315477100989,0.4566666666666666,0.37777777777777777,-0.6711111111111111,-1.2382254413069416,-1.6909226144950593,-1.2517113072475297
1589550335.657567,0.506986301369863,-3.6927625570776255,8.943972602739725,0.4566666666666666,0.37777777777777777,-0.6711111111111111,-2.04523401826484,-3.0311073059360734,-1.8608732876712328
1589550335.667567,0.5432185055213934,-3.6302066900614918,8.969931103312836,0.4566666666666666,0.37777777777777777,-0.6711111111111111,-1.8548843404912914,-2.6472686809825827,-2.7469857699365763
1589550335.677567,0.5317643121681318,-3.6,8.942352416224175,0.4451632382907203,0.371503180481807,-0.6711111111111111,-0.8676347552541164,-0.908066909107135,-4.952230489491767
1589550335.687567,0.514663734687329,-3.6306725306253425,8.932331867343665,0.4444444444444444,0.3711111111111111,-0.6711111111111111,-0.5249450253874177,-0.42909336718322355,-6.308571556654523
1589550335.697567,0.5422826313594663,-3.711147310258549,8.836570058381986,0.4444444444444444,0.3711111111111111,-0.6711111111111111,0.01607785133444537,0.4750149864470392,-8.685763526897414
1589550335.707567,0.476692035029191,-3.805889282735613,8.807418682235197,0.4444444444444444,0.3711111111111111,-0.6711111111111111,0.15272492702251875,0.7938581630525439,-9.733391107172643
1589550335.717567,0.4784358233594717,-3.8853074700784154,8.809217911679736,0.4444444444444444,0.3711111111111111,-0.6711111111111111,-0.10055973999174578,0.35649246801485757,-10.806567271976888
1589550335.727567,0.4159740199273675,-3.990612254399851,8.947198528727071,0.45562358382220564,0.38432282128482886,-0.656883115539415,-0.010667892727442035,0.14100183909116304,-11.217996321817674
1589550335.737567,0.432882862142002,-3.7927028271479877,8.784234275715995,0.4566666666666666,0.3855555555555555,-0.6555555555555556,-0.14470571645639563,-0.3947057164563956,-12.394705716456397
1589550335.747567,0.44529493030714196,-3.673532256074997,8.764115209078573,0.4566666666666666,0.3855555555555555,-0.6555555555555556,-1.463220056741088,-1.6985167139509065,-13.867605156037992
1589550335.757567,0.4005101413644745,-3.5298340503995083,8.879489858635525,0.4566666666666666,0.3855555555555555,-0.6555555555555556,-2.3325906576521205,-2.4131069452980944,-16.006299938537186
1589550335.767567,0.3360617701290719,-3.392881261524278,8.943938229870927,0.4566666666666666,0.3855555555555555,-0.6555555555555556,-3.742398778426552,-3.520813325906577,-18.17136240972649
1589550335.777567,0.32132302435759696,-3.2358815759347643,9.106911181951073,0.4566666666666666,0.3711111111111111,-0.6355555555555555,-4.314333864633051,-3.968741744306874,-21.69853621057081
1589550335.787567,0.2252912168231212,-3.0881403335740325,8.996105250180525,0.4566666666666666,0.3711111111111111,-0.6355555555555555,-3.483289376353934,-2.398991044224097,-22.991272081227216
1589550335.797567,0.0302613069436493,-2.7955532837163655,8.788872986014558,0.4566666666666666,0.3711111111111111,-0.6355555555555555,-3.614562034840926,-1.9339780812954936,-21.147764680624846
1589550335.807567,0.27896233744990595,-2.8298568741310217,9.02899811891715,0.4566666666666666,0.3711111111111111,-0.6355555555555555,-3.9361581949783266,-2.6843691216160956,-18.19979987936534
1589550335.8175669,0.29956484062112093,-2.8593472609316812,8.883263695341594,0.4566666666666666,0.3711111111111111,-0.6355555555555555,-2.0421560648289105,-0.8532961917699136,-16.597856699533924
1589550335.8275669,0.34389998501487806,-2.9126799820178535,8.836100014985123,0.44593555921858535,0.3886711051170623,-0.6297022242202385,-1.4512501873140238,-0.5381250936570119,-15.355250412090852
1589550335.8375669,-0.11113268089202633,-2.38292475533451,8.993304989571635,0.4444444444444444,0.3911111111111111,-0.6288888888888889,0.3281124659072678,1.0117820471682977,-12.151863067543719
1589550335.8475668,0.023450986683779873,-2.3324558799935824,8.303563693245628,0.4444444444444444,0.3911111111111111,-0.6288888888888889,3.11441495868763,3.3249388336274666,-4.318673040670623
1589550335.8575668,0.1893371268842967,-2.4574697015074376,8.771911949685535,0.4444444444444444,0.3911111111111111,-0.6288888888888889,-0.13591394629130482,-0.894478137166816,4.6766634221822905
1589550335.8675668,0.2399748743718593,-2.450100502512563,9.388768844221106,0.4444444444444444,0.3911111111111111,-0.6288888888888889,-1.0,-1.4389133165829144,14.10678391959799
1589550335.8775668,0.2106193634417658,-2.494070954837351,8.919909815068253,0.42567348219890594,0.3960078838708168,-0.6443953359612903,1.3412694757342876,0.6283260080008422,18.99116792995754
1589550335.8875668,0.2395516482429458,-2.599103296485892,9.132826371887134,0.4188888888888889,0.3977777777777778,-0.65,-0.5512912060736455,-2.0512912060736452,26.868791267898214
1589550335.8975668,0.22387596005258667,-2.5853585349539867,8.97311045505916,0.4188888888888889,0.3977777777777778,-0.65,-0.21202746961274996,-1.7503027192840832,32.464390121549
1589550335.9075668,0.1481653761701144,-2.647798451404137,8.892568473361841,0.4188888888888889,0.3977777777777778,-0.65,0.9564276840402173,-1.0619185542586387,37.51201534150006
1589550335.9175668,0.10777187102738935,-2.599326245232867,8.949119380561656,0.4188888888888889,0.3977777777777778,-0.65,-0.0029180630995031542,-2.4251993528256097,41.90480902577141
1589550335.9275668,0.04924107142857143,-2.6577232142857143,9.049508928571429,0.43666666666666665,0.3977777777777778,-0.65,-0.010323660714285712,-2.8228236607142856,49.517020089285715
1589550335.9375668,0.03973463653023824,-2.630928772144166,8.801459499083691,0.43666666666666665,0.3977777777777778,-0.65,0.618365913255956,-2.207402260232132,55.89210904092853
1589550335.9475667,0.01966794299085301,-2.700332057009147,8.908007657945118,0.43666666666666665,0.3977777777777778,-0.65,0.1291507126143374,-3.672972505849819,62.00550813656669
1589550335.9575667,0.010745798766219953,-2.70925420123378,8.854474792597319,0.43666666666666665,0.3977777777777778,-0.65,0.24067751542225058,-3.282628696022123,67.19150446713465
1589550335.9675667,-0.001581944737397173,-2.6810451381565072,8.902118751318287,0.43666666666666665,0.3977777777777778,-0.65,0.4309678865218308,-3.1052256907825355,70.91861553469732
1589550335.9775667,0.016513459281414455,-2.644091924431151,8.86576231401204,0.4407909825548867,0.3836372661610234,-0.6576594437924086,0.29736540718585547,-3.497127361526521,76.19583869685383
1589550335.9875667,-0.0069004065040650375,-2.686280487804878,8.959461382113822,0.4444444444444444,0.3711111111111111,-0.6644444444444444,0.5315040650406504,-3.702997967479675,83.49866615853658
1589550335.9975667,-0.06969667723700539,-2.6203412381083693,8.641440783124224,0.4444444444444444,0.3711111111111111,-0.6644444444444444,1.2450236109196195,-3.0071091272576864,88.38992916724114
1589550336.0075667,-0.01186819247208052,-2.6853982834689094,8.916126085757618,0.4444444444444444,0.3711111111111111,-0.6644444444444444,0.29627503274507094,-4.362464238935613,91.23617490176478
1589550336.0175667,-0.020433184562877398,-2.6947834077185613,8.905875557889209,0.4444444444444444,0.3711111111111111,-0.6644444444444444,0.46057035967445525,-4.589688894723024,94.45233328957731
1589550336.0275667,-0.06912601189196935,-2.868689017837954,9.035411562432838,0.4633333333333333,0.3644444444444445,-0.6644444444444444,0.6168063614872126,-5.122268787162404,98.05189304391432
1589550336.0375667,-0.030147514360470362,-2.809114913837178,8.82985248563953,0.4633333333333333,0.3644444444444445,-0.6644444444444444,0.2601416122823374,-4.99907803524706,100.39712715407056
1589550336.0475667,-0.036454542720519685,-2.771272743676882,8.823545457279481,0.4633333333333333,0.3644444444444445,-0.6644444444444444,0.6937498120357282,-4.959659107996752,101.34318140807795
1589550336.0575666,-0.10944602004159576,-2.6805539799584044,8.757498581962563,0.4633333333333333,0.3644444444444445,-0.6644444444444444,0.9375,-4.546866137266024,102.91669030062394
1589550336.0675666,-0.15280894201308773,-2.7973028331505088,8.877302833150509,0.4633333333333333,0.3644444444444445,-0.6644444444444444,0.17696906797291678,-4.655195606536294,104.65589420130877
1589550336.0775666,-0.22248258144875638,-2.853221750807676,9.129595578218053,0.48118549946154937,0.335682621237874,-0.6703951664871831,0.8657603830135068,-4.8125,107.60652076602702
1589550336.0875666,-0.3144725495832136,-2.8077637252083933,8.875464213854556,0.4833333333333333,0.3322222222222222,-0.6711111111111111,1.6599417936188559,-3.66860089106065,109.32687194596149
1589550336.0975666,-0.44316389847905197,-2.8631638984790517,8.9578907343473,0.4833333333333333,0.3322222222222222,-0.6711111111111111,0.8015142413921806,-5.441894303443128,111.7524347998507
1589550336.1075666,-0.5296656389436796,-2.9482167410329576,8.9,0.4833333333333333,0.3322222222222222,-0.6711111111111111,0.5020897566020031,-5.566679513204006,115.29527805971007
1589550336.1175666,-0.505569237250809,-2.819702598670982,8.9,0.4833333333333333,0.3322222222222222,-0.6711111111111111,0.6526922671824431,-5.867884534364887,118.5583324556196
1589550336.1275666,-0.6383516457325358,-2.8514896203255713,8.946117215244179,0.5089540084689881,0.31172568211369844,-0.6822134036698949,0.44730617060323663,-6.513965190552232,121.95463212336439
1589550336.1375666,-0.7380688744107845,-2.821609271324346,8.940643708529738,0.5166666666666667,0.3055555555555556,-0.6855555555555556,0.5564652325337016,-6.385057945777164,126.6212582940523
1589550336.1475666,-0.7590443129397512,-2.8485664694096267,8.806689809421743,0.5166666666666667,0.3055555555555556,-0.6855555555555556,0.6815269558734449,-6.613053911746889,131.86815910255814
1589550336.1575665,-0.8175589251737662,-2.948101386246263,8.898136916087447,0.5166666666666667,0.3055555555555556,-0.6855555555555556,0.5675855725546538,-6.805719236593795,137.5106152681241
1589550336.1675665,-0.7442690172018793,-2.8910981244903504,9.142436609327069,0.5166666666666667,0.3055555555555556,-0.6855555555555556,0.7202728808294179,-6.602136158894109,141.58227682211782
1589550336.1775665,-0.7593033545401967,-3.0069812030075185,8.838359745517641,0.5362022363601311,0.248034155902577,-0.6974939592571172,2.0320217611336036,-5.036283617698091,146.28211393869287
1589550336.1875665,-0.7009235440129649,-2.8496496194637615,8.821560506287566,0.5366666666666666,0.2466666666666667,-0.6977777777777778,1.6405253143783207,-5.843949371243358,147.53543038545962
1589550336.1975665,-0.6055616761754868,-2.6173480228211687,9.073314971473538,0.5366666666666666,0.2466666666666667,-0.6977777777777778,0.45424699980326566,-7.477670666928979,147.38058233326777
1589550336.2075665,-0.6635862311204777,-2.543206884439761,9.002262030207236,0.5366666666666666,0.2466666666666667,-0.6977777777777778,1.3078020723568669,-6.232283983140148,146.57663768879522
1589550336.2175665,-0.6565658920654334,-2.4241253248738723,8.647948325944046,0.5366666666666666,0.2466666666666667,-0.6977777777777778,1.4437096296437852,-5.548191216939306,144.88458497362788
1589550336.2275665,-0.63,-2.4384920932324063,9.138690699243048,0.5437018161832671,0.20914586924479753,-0.7118480768109787,0.6344244172974592,-7.811862961852657,141.15578861575358
1589550336.2375665,-0.6888771626297577,-2.2641170703575546,8.684596885813148,0.5466666666666666,0.19333333333333333,-0.7177777777777777,0.7838691849288735,-6.400171808919646,137.36396337946942
1589550336.2475665,-0.6930894248052726,-2.266612492510485,9.042466297183942,0.5466666666666666,0.19333333333333333,-0.7177777777777777,-0.5137198547034152,-7.759993821150389,131.116021944278
1589550336.2575665,-0.7035374678341364,-2.2867687339170684,9.265374678341365,0.5466666666666666,0.19333333333333333,-0.7177777777777777,-0.9413275218900575,-8.358632108871733,126.88200093259417
1589550336.2675664,-0.8575021918553678,-2.233808688817003,9.43535870846812,0.5466666666666666,0.19333333333333333,-0.7177777777777777,-0.5357064576594007,-6.524524216222753,121.78864089850954
1589550336.2775664,-0.9907369209749218,-2.1887789237075235,9.076799550442946,0.5466666666666666,0.1571789070572622,-0.7327111277613724,0.7927643902331525,-5.90855287804663,117.89920776587773
1589550336.2875664,-1.0290996825396825,-2.134501587301587,8.65520888888889,0.5466666666666666,0.14222222222222222,-0.7388888888888889,3.069936507936508,-3.1563492063492062,114.99819047619047
1589550336.2975664,-1.0650115266680096,-2.0949884733319903,8.84882204167506,0.5466666666666666,0.14222222222222222,-0.7388888888888889,-0.2511526668009578,-5.993214093869604,112.29604652073681
1589550336.3075664,-1.2736657503563429,-2.145545204642639,9.000347943392384,0.5466666666666666,0.14222222222222222,-0.7388888888888889,-1.7914725870494808,-7.478972587049481,110.31743153125636
1589550336.3175664,-1.3881786163522012,-2.2406264150943396,9.025104402515723,0.5466666666666666,0.14222222222222222,-0.7388888888888889,0.4850628930817611,-5.060833333333333,110.47070754716981
1589550336.3275664,-1.41,-2.3,9.1,0.5522222222222222,0.08666666666666667,-0.76,1.5,-4.625,110.9375
1589550336.3375664,-1.41,-2.3,9.1,0.5522222222222222,0.08666666666666667,-0.76,1.5,-4.625,110.9375
1589550336.3475664,-1.3215779574948279,-2.0673658913756716,8.602625749691764,0.5522222222222222,0.08666666666666667,-0.76,1.7697375295174806,-2.710498819300775,110.49998693916787
1589550336.3575664,-1.26,-1.9409472740181608,8.614805874219947,0.5522222222222222,0.08666666666666667,-0.76,0.5875037367811367,-3.127625088748552,108.78487117447031
1589550336.3675663,-1.2078556535685645,-1.9543736968724938,9.382144346431435,0.5522222222222222,0.08666666666666667,-0.76,-1.1389334402566158,-6.291269045709703,105.84036688051323
1589550336.3775663,-1.3338729417329354,-1.981290980577645,8.563698820468856,0.5417740595119612,0.04677368177294272,-0.8074916486830047,1.9123333431873948,-1.2711110946876758,103.69151306648536
1589550336.3875663,-1.4946276252953716,-2.1429859378356495,9.14821306409769,0.54,0.04,-0.8155555555555556,1.3040984351504536,-2.6800496141580052,101.41043632367764
1589550336.3975663,-1.4856399669694467,-2.0222460776218,9.101907514450867,0.54,0.04,-0.8155555555555556,0.3981729975227085,-3.5181151940545003,98.90013418662262
1589550336.4075663,-1.5220432618025752,-2.054068497854077,8.940018025751074,0.54,0.04,-0.8155555555555556,-0.21281545064377683,-2.111778969957082,98.13731974248927
1589550336.4175663,-1.575865124756458,-2.1124046257306266,9.25325623782289,0.54,0.04,-0.8155555555555556,-1.2956405945572245,-4.025120199861731,95.99467742442336
1589550336.4275663,-1.4573436168399523,-1.9282810635759333,9.012304201465826,0.5509027896142265,-0.024735313334469648,-0.8332725886786736,-0.5476060486620078,-4.365965090761889,93.01513497102437
1589550336.4375663,-1.40758412799629,-1.87516825599258,8.971361119967538,0.5577777777777778,-0.06555555555555556,-0.8444444444444444,-0.6551041998782644,-3.245699400017391,89.62948900031883
1589550336.4475663,-1.2561075435396416,-1.7673251542939956,8.962933959671172,0.5577777777777778,-0.06555555555555556,-0.8444444444444444,-0.8673899327852878,-2.455837247944829,85.19685134054622
1589550336.4575663,-1.3477179437060203,-1.6489894448788114,8.330521892103205,0.5577777777777778,-0.06555555555555556,-0.8444444444444444,0.8077111024237686,0.2309482505863958,79.99694585613761
1589550336.4675663,-1.4037674103183848,-1.6894185257959624,8.718824879584066,0.5577777777777778,-0.06555555555555556,-0.8444444444444444,-1.189241031838495,-1.8613336608183069,75.73198108122207
1589550336.4775662,-1.7280818492109087,-1.9689206177553986,9.520116927444155,0.5466002050172913,-0.11795042787033594,-0.8137061193531067,-1.9086884525700383,-3.7660923084721705,71.1029345915988
1589550336.4875662,-1.6821212694807244,-1.8235238816329105,9.200536942393843,0.54,-0.14888888888888888,-0.7955555555555556,0.9037873051927567,-0.3129337813111239,68.95503265190233
1589550336.4975662,-1.567772940491155,-1.7088647024557746,9.364149369960451,0.54,-0.14888888888888888,-0.7955555555555556,-2.1501172701352056,-3.0526834166232337,65.64764731581691
1589550336.5075662,-1.5366604177181724,-1.5616369841613191,8.866547936645276,0.54,-0.14888888888888888,-0.7955555555555556,-2.4894173456389552,-2.3954623020164876,62.88505539933184
1589550336.5175662,-1.5774200966505583,-1.478628228628562,8.822985169138477,0.54,-0.14888888888888888,-0.7955555555555556,-1.2257894517580403,-1.4566447258790203,61.38859148475254
1589550336.5275662,-1.6348843857197306,-1.5058092999618855,9.217042518951425,0.5142474719669485,-0.18191930527910707,-0.7910768550280683,-0.44424416634904496,-2.1365614280269343,57.35717613179181
1589550336.5375662,-1.6120817827965268,-1.5585315881774242,9.313717438727064,0.4888888888888889,-0.21444444444444444,-0.7866666666666666,-1.9558551477821977,-3.3528112836306088,53.4046232730228
1589550336.5475662,-1.813629904339387,-1.5274733120754194,8.941316719811452,0.4888888888888889,-0.21444444444444444,-0.7866666666666666,-0.7418593165118534,-1.39461735754887,48.798042596700405
1589550336.5575662,-2.117319822649841,-1.5319144123929707,8.478209445511498,0.4888888888888889,-0.21444444444444444,-0.7866666666666666,1.59733952323682,0.3125,45.808769678148956
1589550336.5675662,-2.203259342225843,-1.5728153955808981,8.836004480195498,0.4888888888888889,-0.21444444444444444,-0.7866666666666666,-0.1850414078674949,-1.5935304449648713,44.979629111088485
1589550336.5775661,-2.1458995694323373,-1.676527194442243,9.335815833267295,0.45146442900623107,-0.2279172500022013,-0.7207996172731889,-2.35460251736799,-4.336820138943921,45.84335789946377
1589550336.5875661,-2.2417640278723736,-1.8017640278723739,9.612800335306753,0.43333333333333335,-0.2344444444444445,-0.6888888888888889,1.5488552417876043,-1.6903258762508515,46.7969265730602
1589550336.5975661,-2.28,-1.8000042822151043,9.13292321131875,0.43333333333333335,-0.2344444444444445,-0.6888888888888889,0.437740874599613,-2.7676545023209607,45.04484549767904
1589550336.607566,-2.3713623389647456,-1.8287329321916224,8.813569389801744,0.43333333333333335,-0.2344444444444445,-0.6888888888888889,-0.719772139936743,-2.066588559746972,44.318374893928876
1589550336.617566,-2.2516453356925195,-1.7887730266391428,9.25908522559717,0.43333333333333335,-0.2344444444444445,-0.6888888888888889,-0.3565602575444805,-2.5562948491103903,46.95381278875455
1589550336.627566,-2.206234116288025,-1.6267090232319343,9.105538441791811,0.4350457080106675,-0.21218357363909926,-0.668340392760878,2.047366352201258,-0.7405098831985621,51.31793495700167
1589550336.637566,-2.22,-1.59,9.0,0.4355555555555555,-0.20555555555555555,-0.6622222222222223,2.75,0.0625,52.25
1589550336.647566,-2.4413711535507656,-1.6490323076135374,9.40584711484307,0.4355555555555555,-0.20555555555555555,-0.6622222222222223,-2.6920408581229838,-6.071325712969126,58.19934975167682
1589550336.657566,-2.421774266580873,-1.5566626152856224,9.149541240675866,0.4355555555555555,-0.20555555555555555,-0.6622222222222223,0.28628667095636473,-2.8192503157694047,68.3877886608994
1589550336.667566,-2.520819263985062,-1.5515770637205322,8.997444954485333,0.4355555555555555,-0.20555555555555555,-0.6622222222222223,2.3965854275266474,-0.8228526414066755,72.91717886874659
1589550336.677566,-2.9939116673599684,-1.7038380568266083,9.175057785172994,0.45946722291552367,-0.20334151228148442,-0.6622222222222223,1.7963332640031835,-2.590430630663218,82.31460251216292
1589550336.687566,-2.9604279345417654,-1.7166614164820204,9.367517285565553,0.4955555555555556,-0.2,-0.6622222222222223,-1.4791338530126272,-6.427529098481006,88.92505138951921
1589550336.697566,-2.4682394630268485,-1.2733005849707515,8.547261511924404,0.4955555555555556,-0.2,-0.6622222222222223,0.2732277448627569,-6.341839939253037,101.6888780560972
1589550336.707566,-2.3075031296501876,-1.3762609537756574,9.293933438836007,0.4955555555555556,-0.2,-0.6622222222222223,0.6435461298627678,-8.557677090960626,111.28528828211729
1589550336.717566,-2.208121277747699,-1.408121277747699,9.2885223439257,0.4955555555555556,-0.2,-0.6622222222222223,-0.6682978634792387,-9.818065157636083,114.74131647994669
1589550336.727566,-2.1069830928621367,-1.376814021483506,9.155526600139833,0.47538217617604894,-0.2054312944483287,-0.6560150285669895,-0.8889793745630205,-9.08346906184453,113.3554948198055
1589550336.737566,-1.807212107419208,-1.2106030951297222,9.16614929449249,0.4666666666666667,-0.20777777777777776,-0.6533333333333333,1.728991238051889,-5.96425523441056,113.02119367319071
1589550336.747566,-1.9355993435705074,-1.2078240534521159,9.400587152737076,0.4666666666666667,-0.20777777777777776,-0.6533333333333333,1.69238878794983,-5.423900334075724,112.04523062946899
1589550336.757566,-2.260090962372524,-1.301238307349666,9.759494549290821,0.4666666666666667,-0.20777777777777776,-0.6533333333333333,0.4939822412378385,-6.007739420935412,110.38589848786778
1589550336.767566,-2.3508849988225133,-1.2616374911688515,9.523629955255513,0.4666666666666667,-0.20777777777777776,-0.6533333333333333,2.061937750215873,-3.9942028416673208,110.04590627207787
1589550336.777566,-2.2500457373604186,-1.1530137212081255,9.20894968890354,0.4663335027309645,-0.2231033188200768,-0.6583307923688656,3.2693121883884793,-2.5931306399109975,109.44415973052041
1589550336.787566,-2.029650752830893,-1.0020313990625909,9.14504645568045,0.4655555555555556,-0.2588888888888889,-0.67,0.10535484673773288,-5.534524192210378,107.4007930129827
1589550336.797566,-1.5189518612237431,-0.7321069479589037,8.158283893783725,0.4655555555555556,-0.2588888888888889,-0.67,0.5944883540135972,-6.336716106216274,107.57027224779732
1589550336.807566,-1.3669712749874012,-0.6767831345540064,8.614668234503611,0.4655555555555556,-0.2588888888888889,-0.67,-2.79726608432723,-10.796930119267596,105.72636695783639
1589550336.817566,-1.5435025817555938,-0.741617900172117,9.154586919104991,0.4655555555555556,-0.2588888888888889,-0.67,-4.342996987951807,-11.643771514629949,104.434165232358
1589550336.827566,-1.7262861887968506,-0.8021865004510785,9.154683834987287,0.45510837274574667,-0.2711373101141821,-0.67,0.11622447305831218,-3.9951098991224474,101.92088698433527
1589550336.837566,-1.2239613959744213,-0.6505995894192879,8.771991788385758,0.43333333333333335,-0.2966666666666667,-0.67,2.630487682578636,-3.0112423016116474,98.61830594162203
1589550336.847566,-1.2785712034666141,-0.7169387433523734,9.526326570809534,0.43333333333333335,-0.2966666666666667,-0.67,2.423471045893244,-4.802294662202088,88.45153634035847
1589550336.8575659,-1.3656223098183136,-0.5709356168728195,8.31680168546962,0.43333333333333335,-0.2966666666666667,-0.67,0.07851932399981876,-3.035901182547234,71.1085190974582
1589550336.8675659,-0.7723656753649595,-0.5541595626992907,8.886004208151666,0.43333333333333335,-0.2966666666666667,-0.67,0.1265563653716839,-2.3920481659833843,57.67169096115052
1589550336.8775659,-0.5346191107957176,-0.5280265959087964,9.090490882725,0.40119575315650724,-0.3358745144823946,-0.6783557708459748,-1.2457981086668106,-4.036714001419272,37.904685137761874
1589550336.8875659,-0.8531241598435781,-0.5597629231333252,9.084337651228156,0.37777777777777777,-0.3644444444444445,-0.6844444444444444,-0.37046697421483565,-0.6104423805450323,16.57975757668337
1589550336.8975658,-0.9042793823277094,-0.6284669002001716,9.46304403774664,0.37777777777777777,-0.3644444444444445,-0.6844444444444444,0.33223790034315126,0.35898403989133554,-1.813054046325421
1589550336.9075658,-0.73,-0.5572140452517028,8.842344398340249,0.37777777777777777,-0.3644444444444445,-0.6844444444444444,-0.2664923079934236,0.11622171768574341,-24.11444795662726
1589550336.9175658,-0.627603325415677,-0.7222125890736343,8.91147624703088,0.37777777777777777,-0.3644444444444445,-0.6844444444444444,-0.31451900237529695,4.1013806413301666,-55.0582244655582
1589550336.9275658,-0.6667695214105793,-0.925225650713686,8.928337531486147,0.2825548092172777,-0.4916019451441366,-0.611865962309917,-0.8580761964735517,3.4673396830394627,-84.64874580184718
1589550336.9375658,-0.6689900332225914,-1.05534219269103,9.104544850498339,0.1955555555555556,-0.6077777777777778,-0.5455555555555556,-0.818251661129568,4.539140365448505,-110.49304401993355
1589550336.9475658,-0.4599717607973422,-1.2411362126245846,10.04512707641196,0.1955555555555556,-0.6077777777777778,-0.5455555555555556,-1.2899942898671095,6.172095618770764,-128.4555518064784
1589550336.9575658,-0.6856850758853288,-1.6285497470489039,9.231342748735244,0.1955555555555556,-0.6077777777777778,-0.5455555555555556,-1.4553383220910625,8.642785623946036,-177.9275137015177
1589550336.9675658,-0.9604370686822215,-1.8979997809179538,9.595310548800525,0.1955555555555556,-0.6077777777777778,-0.5455555555555556,-2.4503916091576294,10.055468835578925,-212.06134981925732
1589550336.9775658,-0.7326797247220751,-1.8461848597141344,7.985464055055585,0.5487952708664197,-0.6930693959178872,-0.4076869125345568,-1.4974325039703547,12.907200899947062,-238.49415166754898
1589550336.9875658,-1.0233103448275862,-2.3226896551724137,8.260068965517242,1.2033333333333334,-0.8511111111111112,-0.15222222222222226,-1.6793103448275861,13.094396551724138,-264.1112068965517
1589550336.9975657,-1.2411772275225648,-2.7544342726888362,8.122302248203091,1.2033333333333334,-0.8511111111111112,-0.15222222222222226,-5.032783231309399,9.871933537381201,-287.1357906395338
1589550337.0075657,-1.426229053082249,-2.8990316754189385,7.877616483259191,1.2033333333333334,-0.8511111111111112,-0.15222222222222226,-0.2839268990199686,18.513559052747766,-300.7647234672375
1589550337.0175657,-1.4297641353009451,-3.2325538882440723,9.177974838335269,1.2033333333333334,-0.8511111111111112,-0.15222222222222226,-0.33141011026363787,17.923749430028188,-321.25271902462276
1589550337.0275657,-1.4192822049131217,-3.376817855002996,8.568587777112043,0.9723926502895945,-0.5903405898408896,-0.3947099394181479,-1.526464200119832,17.039177651288195,-338.2553774715399
1589550337.0375657,-1.4881456513482718,-3.8256625047474366,9.332781522977593,0.67,-0.2488888888888889,-0.7122222222222222,-2.215230962780099,16.247934865172805,-346.7781522977592
1589550337.0475657,-1.5188271879956516,-4.0561369023221,9.022278616363408,0.67,-0.2488888888888889,-0.7122222222222222,-1.6715533833514515,17.757330075027177,-350.8732646623777
1589550337.0575657,-1.6900086592581902,-4.411889883100015,8.98941477846731,0.67,-0.2488888888888889,-0.7122222222222222,-1.9023894140568625,16.19912234810218,-353.57818588540914
1589550337.0675657,-1.8872704316863145,-4.728305457434282,9.590867770353663,0.67,-0.2488888888888889,-0.7122222222222222,-2.6160263366954646,15.82001425713921,-353.9682273268928
1589550337.0775657,-1.8456195826417559,-4.615253152884765,8.841152487551602,0.67,-0.2488888888888889,-0.7122222222222222,-1.7978846590344868,19.613216580840106,-351.84849661658933
1589550337.0875657,-1.5016631672007956,-4.504989501602386,8.044860426566471,0.6166666666666667,-0.045555555555555564,-0.7388888888888889,-2.322219306000663,13.816684163996023,-346.6390346999668
1589550337.0975657,-1.6384784320225416,-4.91820992002652,9.164540256080885,0.6166666666666667,-0.045555555555555564,-0.7388888888888889,-2.4386187999834252,13.149054199643642,-340.7944464011934
1589550337.1075656,-1.3646026896018408,-4.546604424828835,8.600798958863804,0.6166666666666667,-0.045555555555555564,-0.7388888888888889,-2.4775021690337424,14.920022774854298,-328.62383296554066
1589550337.1175656,-1.1805009251562038,-4.221182322812475,8.793686948593495,0.6166666666666667,-0.045555555555555564,-0.7388888888888889,-2.242610482422032,13.269037770507628,-320.61185507226946
1589550337.1275656,-1.2940221959956106,-4.284413317597366,9.297206658798682,0.6169335799555068,-0.006052388807218305,-0.7354190161339674,-2.342874557425927,13.264667060065843,-310.75525265544445
1589550337.1375656,-1.3770696797224935,-4.374185498265584,9.272279661873169,0.6177777777777778,0.11888888888888888,-0.7244444444444444,-3.094774020812986,12.655225979187014,-300.37823098036574
1589550337.1475656,-1.3461914717751737,-4.490668060485244,8.743719064520835,0.6177777777777778,0.11888888888888888,-0.7244444444444444,-0.11984915155345943,14.486914717751738,-280.98899632907086
1589550337.1575656,-1.273857391567633,-4.5270504377665075,8.736483485983904,0.6177777777777778,0.11888888888888888,-0.7244444444444444,-0.04376088108394527,11.979434751343577,-264.18141290086544
1589550337.1675656,-7.279890152937145,-12.241109079928837,7.544272120391076,0.6177777777777778,0.11888888888888888,-0.7244444444444444,-23.33827957954527,26.32017236032448,-296.4287075423964
1589550337.1775656,-19.1393939920125,-26.762652543844418,4.476884528563986,0.6162809901410353,0.12612336246647757,-0.7228478709652525,-75.20271097412746,52.523495832609825,-399.6541044452162
1589550337.1875656,-15.912486047471173,-16.616952593975984,6.992011118591066,0.5844444444444444,0.28,-0.6888888888888889,-234.27690747898978,-5.748145996655737,-743.4755912180503
1589550337.1975656,-4.7058084486525855,-7.397596504005827,2.958758193736344,0.5844444444444444,0.28,-0.6888888888888889,-217.5544200655499,108.92527767662054,-418.095707392571
1589550337.2075655,-0.33733374368444,-1.6531345695160422,7.68078351414429,0.5844444444444444,0.28,-0.6888888888888889,-130.60037572773203,39.0647633428227,-318.4050309686851
1589550337.2175655,-0.55,-1.36,12.21,0.5844444444444444,0.28,-0.6888888888888889,-91.875,44.8125,-299.4375
1589550337.2275655,0.2257747804265997,-1.241258962179602,8.481531412439505,0.5844444444444444,0.28,-0.6888888888888889,-20.531426442910913,49.56214151281592,-284.1001159481986
1589550337.2375655,0.2631399808245446,-1.5885666347075742,8.376742016372889,0.46,0.5111111111111111,-0.6622222222222223,81.65398674312264,45.35004194630873,-263.3197507190796
1589550337.2475655,0.5647435282837967,-2.091239213806328,8.925815141234605,0.46,0.5111111111111111,-0.6622222222222223,138.92966041927872,40.95165687919463,-252.0096176893576
1589550337.2575655,8.296437034131031,-16.70798299986923,6.455196809206225,0.46,0.5111111111111111,-0.6622222222222223,224.35811265855892,34.013593566104355,-228.80841506473126
1589550337.2675655,1.1844006357896595,-3.0723106980440633,7.4042957746478875,0.46,0.5111111111111111,-0.6622222222222223,222.9244061547971,45.09272622411585,-189.8735002097223
1589550337.2775655,-1.5015528616196603,2.413297047666172,1.3028319313871022,0.43822429307090366,0.5288165924459838,-0.6605941319845328,89.39964745175655,67.13074694870527,-129.0516709962065
1589550337.2875655,0.5769078163813932,-0.5323330043896962,6.367232449722667,0.3411111111111111,0.6077777777777778,-0.6533333333333333,-79.6170691972641,-42.665049596760475,-66.38391976043829
1589550337.2975655,2.6457737664339254,0.033217429885809,14.614804194007894,0.3411111111111111,0.6077777777777778,-0.6533333333333333,8.871097307521659,-6.900205497045981,-55.730426698269625
1589550337.3075655,4.138951887415536,-2.5682583955697806,7.563000304831581,0.3411111111111111,0.6077777777777778,-0.6533333333333333,21.941685083574658,24.508362228826904,-42.33599108367627
1589550337.3175654,9.607770945426594,-7.6460980705177475,10.328651136206863,0.3411111111111111,0.6077777777777778,-0.6533333333333333,-10.732565186542896,-6.309516594729892,-22.956932783460456
1589550337.3275654,6.619374902328489,-4.846824503828723,8.350457884044381,0.3327354968658297,0.5985916202184369,-0.6603580420551822,-7.028832630098453,-1.7340209407719955,-20.607536333802155
1589550337.3375654,0.7851067427128655,0.3224993800581618,9.15797538267319,0.30666666666666664,0.57,-0.6822222222222222,6.72787934804662,3.9775496517054036,-19.45575869609324
1589550337.3475654,2.240835422454096,-1.681590216139305,8.916425232061792,0.30666666666666664,0.57,-0.6822222222222222,-1.4728174334304494,-0.28854427806761973,-5.302213903380988
1589550337.3575654,2.0627832351015063,-3.7183497053045187,8.477581314123555,0.30666666666666664,0.57,-0.6822222222222222,-4.362652805064396,-0.125,3.976724514298188
1589550337.3675654,1.9423445785851292,-3.396758433938847,8.758414757982624,0.30666666666666664,0.57,-0.6822222222222222,2.571547444431908,-0.0008603181766896201,6.140513934333747
1589550337.3775654,1.8882603439660868,-3.3561952579745653,8.967991167131412,0.30666666666666664,0.57,-0.6822222222222222,1.6419746619171192,0.3794194564884511,5.422207693299592
1589550337.3875654,1.945012148133605,-3.467578962868432,8.847408888997963,0.2788888888888889,0.5911111111111111,-0.6877777777777778,-0.5010629616904312,-0.25,3.5317814808452157
1589550337.3975654,1.9390420937406707,-3.376781570305503,8.894444820380137,0.2788888888888889,0.5911111111111111,-0.6877777777777778,0.4169083988456563,-0.3488979002885859,2.776102099711414
1589550337.4075654,1.9689204465168857,-3.4226706231454007,8.67,0.2788888888888889,0.5911111111111111,-0.6877777777777778,-0.8835223258442844,-0.6335223258442844,2.363280698035891
1589550337.4175653,1.9501109904216452,-3.5638512886343436,8.72933405747013,0.2788888888888889,0.5911111111111111,-0.6877777777777778,-0.02545793423521281,-0.04328527698232448,1.4615705539646489
1589550337.4275653,1.9320824221597417,-3.4470933562428407,8.877071488076643,0.2784261284089463,0.5922680123109677,-0.6877777777777778,0.8515454154951577,0.2630151384983859,0.7318334765177549
1589550337.4375653,1.9347220251310338,-3.365277974868966,8.956249113089653,0.2766666666666667,0.5966666666666667,-0.6877777777777778,0.6701265706896158,0.1970442997413655,0.17100632853448078
1589550337.4475653,1.937814930157169,-3.378218506984283,8.841899688575644,0.2766666666666667,0.5966666666666667,-0.6877777777777778,-0.28340299404469216,-0.19180598808938426,0.08046267460707716
1589550337.4575653,2.0142013149028393,-3.3705798685097164,8.635656449762333,0.2766666666666667,0.5966666666666667,-0.6877777777777778,-0.4266274654428236,-0.4782549308856472,-0.11050328725709813
1589550337.4675653,1.97,-3.5276598644831196,8.715358843167854,0.2766666666666667,0.5966666666666667,-0.6877777777777778,-0.35306122952924673,-0.1351403073823117,0.0625
1589550337.4775653,1.97,-3.395088797139527,8.806501451966575,0.2766666666666667,0.5966666666666667,-0.6877777777777778,0.8897925268169338,0.17557313170423344,0.0625
1589550337.4875653,1.9277986152861548,-3.4135833834338576,8.86679169171693,0.25555555555555554,0.5866666666666667,-0.6877777777777778,0.729948073230805,0.2712240366154025,0.0
1589550337.4975653,1.921381962370599,-3.3287524283471273,8.815854112888204,0.25555555555555554,0.5866666666666667,-0.6877777777777778,0.3712809697421295,0.11636273518375602,-0.0028790882720813264
1589550337.5075653,1.9560695353525297,-3.4978609292949403,8.725447848485603,0.25555555555555554,0.5866666666666667,-0.6877777777777778,-0.9336144570817053,-0.10991824494163908,-0.05301635101167218
1589550337.5175653,1.9848544865289555,-3.4364318918388057,8.718009297148656,0.25555555555555554,0.5866666666666667,-0.6877777777777778,-0.49818108161194224,-0.31068108161194224,0.008039864798507218
1589550337.5275652,1.9573931973679903,-3.4707585032900123,8.814123809212033,0.25555555555555554,0.5866666666666667,-0.6877777777777778,-0.1549149670998789,0.0325850329001211,0.05094812911251514
1589550337.5375652,1.9474946357989835,-3.339186335403727,8.86668097120271,0.2766666666666667,0.5866666666666667,-0.6877777777777778,0.9998658949745907,0.30206098249576513,0.0520609824957651
1589550337.5475652,1.9258188253104478,-3.4283623493791042,8.91090587344776,0.2766666666666667,0.5866666666666667,-0.6877777777777778,0.20339702542910332,0.11476468361940222,-0.026132341809701108
1589550337.5575652,1.950624769672997,-3.388122005748962,8.788750460654006,0.2766666666666667,0.5866666666666667,-0.6877777777777778,-0.2890481045623173,-0.1875,0.12109518954376827
1589550337.5675652,1.96,-3.5018429393880584,8.766737175755223,0.2766666666666667,0.5866666666666667,-0.6877777777777778,-0.7934293938805874,-0.17730367423507343,0.05230367423507342
1589550337.5775652,1.96,-3.4114037130474157,8.730561485218967,0.2766666666666667,0.5866666666666667,-0.6877777777777778,0.11096286952584256,-0.06425464130926968,-0.06074535869073032
1589550337.5875652,1.9443240575528644,-3.4413518848942712,8.83973159712995,0.2653451526770687,0.5962464092732496,-0.6834233493202401,0.4679112410310922,0.23142392088379332,-0.01351267985270111
1589550337.5975652,1.9405842223673706,-3.382921111836853,8.92123666448944,0.26222222222222225,0.5988888888888889,-0.6822222222222222,0.6327291530590028,0.29424305101966763,0.12134861020393352
1589550337.6075652,1.9481941722911678,-3.4209708614558387,8.807087415632484,0.26222222222222225,0.5988888888888889,-0.6822222222222222,-0.08070365229697363,0.05643211590100877,0.07378642318020176
1589550337.6175652,1.9689791143246198,-3.4520417713507605,8.734083542701521,0.26222222222222225,0.5988888888888889,-0.6822222222222222,-0.5369778581154945,-0.28697785811549453,-0.012761070942252737
1589550337.6275651,1.9609349648069656,-3.468130070386069,8.766260140772136,0.26222222222222225,0.5988888888888889,-0.6822222222222222,-0.3358741201741432,-0.0858741201741432,-0.1133129399129284
1589550337.6375651,1.93,-3.42945181116189,8.85879015736509,0.2766666666666667,0.5755555555555556,-0.6877777777777778,0.5109876967063643,0.03296309011909318,0.10302460658727121
1589550337.6475651,1.9311931983443338,-3.3823863966886676,8.888068016556662,0.2766666666666667,0.5755555555555556,-0.6877777777777778,0.5102975724353954,0.15021255173956818,0.0
1589550337.657565,1.9418665927390193,-3.4037331854780386,8.79813340726098,0.2766666666666667,0.5755555555555556,-0.6877777777777778,0.07444644665155972,-0.1327774697459139,0.0038887348729569455
1589550337.667565,1.9693485523385301,-3.46260579064588,8.76869710467706,0.2766666666666667,0.5755555555555556,-0.6877777777777778,-0.6712138084632516,-0.23371380846325168,0.0625
1589550337.677565,1.9603664125406888,-3.498534349837245,8.750732825081377,0.2766666666666667,0.5755555555555556,-0.6877777777777778,-0.44666031351721774,-0.009160313517217744,0.0625
1589550337.687565,1.9643067007174997,-3.4328833758968744,8.844269974461875,0.25555555555555554,0.5755555555555556,-0.6877777777777778,0.24087468077344035,0.20529156025781345,0.11610421987109328
1589550337.697565,1.93,-3.39,8.857618674959326,0.25555555555555554,0.5755555555555556,-0.6877777777777778,0.5367055728319294,0.27810743044257263,0.05390185761064316
1589550337.707565,1.9300534658277753,-3.3901069316555508,8.78,0.25555555555555554,0.5755555555555556,-0.6877777777777778,0.3737747414468177,0.06227722571760322,-0.00011138714119839062
1589550337.717565,1.9618479249837526,-3.4509239624918764,8.78,0.25555555555555554,0.5755555555555556,-0.6877777777777778,-0.3355990622969084,-0.0625,-0.0625
1589550337.727565,1.977424194596602,-3.458712097298301,8.78,0.25555555555555554,0.5755555555555556,-0.6877777777777778,-0.5303024324575248,-0.0625,-0.0625
1589550337.737565,1.9636839038941063,-3.46,8.75552585584116,0.27731035036341367,0.5954974507960922,-0.6778068301575095,-0.10360979702174267,-0.0625,0.09046340099275244
1589550337.747565,1.94,-3.407841202291995,8.837121603055992,0.2822222222222222,0.6,-0.6755555555555556,0.5490075143249673,0.17850500954997822,-0.008994990450021782
1589550337.757565,1.94,-3.386759374057568,8.809012498743424,0.2822222222222222,0.6,-0.6755555555555556,0.41724608785979966,0.09066405857319974,-0.09683594142680026
1589550337.767565,1.951681430324899,-3.422802383874832,8.8,0.2822222222222222,0.6,-0.6755555555555556,-0.1495208589047781,0.055494040312920545,0.125
1589550337.777565,1.9702894071368362,-3.453815678561394,8.8,0.2822222222222222,0.6,-0.6755555555555556,-0.42088718741219444,-0.022039196403484132,0.125
1589550337.787565,1.9730804264568884,-3.456160852913777,8.813839147086224,0.2737649656695304,0.5915427434473082,-0.6947765931753097,-0.2597686574888728,-0.019252665355553256,-0.004742003933340233
1589550337.797565,1.9557678629162625,-3.4357678629162627,8.862696411251212,0.27,0.5877777777777777,-0.7033333333333334,0.23080342709343682,0.1779017135467184,-0.1069754283866796
1589550337.807565,1.9402692094569634,-3.4005384189139267,8.810538418913927,0.27,0.5877777777777777,-0.7033333333333334,0.61322208625785,0.24158720446989287,-0.1807697635759143
1589550337.817565,1.9499531307720723,-3.4199062615441447,8.829906261544146,0.27,0.5877777777777777,-0.7033333333333334,0.1895505287218323,-0.06103533662726268,0.06132826930181012
1589550337.827565,1.95,-3.444734814814815,8.805265185185187,0.27,0.5877777777777777,-0.7033333333333334,-0.173216049382716,-0.2170925925925926,0.010969135802469138
1589550337.837565,1.9571805899474346,-3.4715417698423043,8.8,0.28755255320484047,0.5933626810702269,-0.692163526748435,-0.29487868717146704,-0.29487868717146704,0.0
1589550337.847565,1.9502105725681065,-3.421263435408639,8.839157709727573,0.29444444444444445,0.5955555555555555,-0.6877777777777778,0.17697137159467313,-0.06776431420266343,0.06118392144933414
1589550337.857565,1.9336414743259827,-3.42,8.799103685814956,0.29444444444444445,0.5955555555555555,-0.6877777777777778,0.4431019636565185,0.14198157092521477,0.1136203927313037
1589550337.867565,1.93,-3.3913291305489888,8.818670869451012,0.29444444444444445,0.5955555555555555,-0.6877777777777778,0.14161413186235883,-0.05142391209176078,0.005538043954119609
1589550337.877565,1.93,-3.4291624040920716,8.827832480818415,0.29444444444444445,0.5955555555555555,-0.6877777777777778,-0.26662404092071607,-0.20935901534526855,0.04895300511508951
1589550337.887565,1.9583013312066744,-3.468301331206675,8.811132445862217,0.28291427247135487,0.5829771861303669,-0.6877777777777778,-0.43396110668057175,-0.19103889331942825,0.0625
1589550337.897565,1.9695301136093548,-3.4509397727812905,8.81,0.2822222222222222,0.5822222222222222,-0.6877777777777778,0.21769531064315262,-0.008810369824594738,0.0625
1589550337.9075649,1.92001689753004,-3.41998310246996,8.76005069259012,0.2822222222222222,0.5822222222222222,-0.6877777777777778,0.49957756174899864,0.18760560956275033,0.0625
1589550337.9175649,1.928766688918558,-3.411233311081442,8.786300066755674,0.2822222222222222,0.5822222222222222,-0.6877777777777778,0.28083277703604803,0.242291805740988,0.0625
1589550337.9275649,1.9411513106991427,-3.4378782767478566,8.801151310699142,0.2822222222222222,0.5822222222222222,-0.6877777777777778,0.0757607703258952,0.18030430813035808,0.0625
1589550337.9375648,1.9604296203718168,-3.4547851898140918,8.815214810185909,0.2758485653283341,0.5787456820982833,-0.6912543179017168,-0.3232405092954226,0.027222309014216517,0.029907436338072177
1589550337.9475648,1.97,-3.4587241794728647,8.828724179472864,0.27,0.5755555555555556,-0.6944444444444444,-0.23534326976757852,-0.0625,-0.05452612170540358
1589550337.9575648,1.9502042696570059,-3.410510674142515,8.770612808971018,0.27,0.5755555555555556,-0.6944444444444444,0.12180828660928161,-0.0006383426781436732,-0.12436165732185633
1589550337.9675648,1.95,-3.4029071295679927,8.81965009302405,0.27,0.5755555555555556,-0.6944444444444444,0.21366088040008877,0.13299132060013313,0.05232176080017753
1589550337.9775648,1.9437789376420347,-3.4124421247159304,8.82755787528407,0.27,0.5755555555555556,-0.6944444444444444,0.13335508078815272,-0.006908198686412126,0.008355080788152738
1589550337.9875648,1.9460824882597154,-3.438247464779147,8.82,0.27743415231743007,0.5877205320749865,-0.6903894522713008,-0.12757775811610972,-0.125,0.05154665486966584
1589550337.9975648,1.959350486945318,-3.45,8.782598052218727,0.2822222222222222,0.5955555555555555,-0.6877777777777778,-0.1915594565917617,-0.06655945659176171,0.008118913183523438
1589550338.0075648,1.96,-3.4591288463284013,8.761742307343196,0.2822222222222222,0.5955555555555555,-0.6877777777777778,0.21188702686756827,0.10866586865752928,0.057055289552509755
1589550338.0175648,1.96,-3.4137112174736997,8.78777326951578,0.2822222222222222,0.5955555555555555,-0.6877777777777778,0.30786097815787555,0.125,0.1782219563157511
1589550338.0275648,1.96,-3.4243075791022815,8.825768947755702,0.2822222222222222,0.5955555555555555,-0.6877777777777778,0.13365526122148638,-0.00913355408388522,0.008655261221486382
1589550338.0375648,1.9512947250723494,-3.43,8.831294725072349,0.29286200268935075,0.5887847861673828,-0.6771379973106493,-0.2639478097868982,-0.0625,0.15513187319126548
1589550338.0475647,1.9776447483270294,-3.4668596644360394,8.820785083890991,0.29444444444444445,0.5877777777777777,-0.6755555555555556,-0.2549067743186888,-0.17768645136262246,0.07231354863737756
1589550338.0575647,1.9672321826188788,-3.450848273928318,8.762544821784955,0.29444444444444445,0.5877777777777777,-0.6755555555555556,-0.01060342410397666,-0.06780171205198833,0.0625
1589550338.0675647,1.9442531267206795,-3.4242531267206795,8.824481239675922,0.29444444444444445,0.5877777777777777,-0.6755555555555556,0.371044894989381,0.0,0.11170897899787618
1589550338.0775647,1.94,-3.414738782328207,8.855261217671792,0.29444444444444445,0.5877777777777777,-0.6755555555555556,0.3059695582051725,0.0,0.125
1589550338.0875647,1.94,-3.4172643216080405,8.856367839195979,0.29242657733109995,0.59060279173646,-0.6755555555555556,0.005891959798994956,0.02270100502512563,0.05689698492462311
1589550338.0975647,1.9632122954707139,-3.453212295470714,8.834525136352857,0.2888888888888889,0.5955555555555555,-0.6755555555555556,-0.21578210220535926,-0.03421789779464074,-0.11085894889732037
1589550338.1075647,1.9410415259959486,-3.4382811444969614,8.757603814989873,0.2888888888888889,0.5955555555555555,-0.6755555555555556,-0.05175715310600945,0.027995231262660375,-0.034504768737339625
1589550338.1175647,1.9357789035280926,-3.43,8.782010131752834,0.2888888888888889,0.5955555555555555,-0.6755555555555556,0.2528270293540507,-0.009736294101157339,0.03611814705057867
1589550338.1275647,1.9459788496259995,-3.4240211503740006,8.825978849625999,0.2888888888888889,0.5955555555555555,-0.6755555555555556,0.36276437967500647,0.0869712406499871,0.13723562032499353
1589550338.1375647,1.95,-3.431094681612211,8.835547340806105,0.2851906616848186,0.5912409571508068,-0.6755555555555556,0.20848735988552347,0.11815823992368232,0.04881647984736465
1589550338.1475646,1.9578306348188521,-3.44,8.793016191086886,0.2822222222222222,0.5877777777777777,-0.6755555555555556,-0.11970733808913112,-0.08432440285347867,0.03538293523565246
1589550338.1575646,1.9413455891740075,-3.4586544108259925,8.724036767522023,0.2822222222222222,0.5877777777777777,-0.6755555555555556,-0.12920496616877314,-0.06670496616877314,-0.05409006766245372
1589550338.1675646,1.9573909965711758,-3.4426090034288244,8.746086494856764,0.2822222222222222,0.5877777777777777,-0.6755555555555556,0.09238745713969693,-0.11684686428492423,-0.0625
1589550338.1775646,1.946627093806229,-3.44,8.82355098406574,0.2822222222222222,0.5877777777777777,-0.6755555555555556,0.20858066371106865,-0.04141933628893135,-0.020709668144465676
1589550338.1875646,1.9550976519640113,-3.4324511740179946,8.852451174017993,0.2914485650891181,0.5877777777777777,-0.700718308828908,0.014099188062321716,0.0,0.04718016238753566
1589550338.1975646,1.96,-3.446322586817182,8.833677413182818,0.29444444444444445,0.5877777777777777,-0.7088888888888889,-0.2665323352147709,-0.20403233521477088,-0.03951616760738544
1589550338.2075646,1.96,-3.458704546032069,8.725545447615175,0.29444444444444445,0.5877777777777777,-0.7088888888888889,-0.14928976189871165,-0.25,-0.11690341270042945
1589550338.2175646,1.96,-3.4341341788739648,8.796219403753453,0.29444444444444445,0.5877777777777777,-0.7088888888888889,0.03666138203772171,-0.03445149061637104,-0.125
1589550338.2275646,1.9549171753626662,-3.4249171753626664,8.815082824637335,0.29444444444444445,0.5877777777777777,-0.7088888888888889,0.15780296195000915,0.0,-0.02969703804999084
1589550338.2375646,1.94748298592553,-3.41748298592553,8.83510208444682,0.29136809390898116,0.5863794366252945,-0.7074905477364056,0.21853732406912524,0.0,0.04676866203456262
1589550338.2475646,1.94,-3.4231133375078273,8.814433312460864,0.2822222222222222,0.5822222222222222,-0.7033333333333334,-0.038916718847839704,0.040979179711959926,0.040979179711959926
1589550338.2575645,1.9540662287779267,-3.45109934316689,8.723735084888292,0.2822222222222222,0.5822222222222222,-0.7033333333333334,-0.21291392986204233,0.018543035068978843,-0.025413929862042314
1589550338.2675645,1.9662291653190158,-3.4350833387239366,8.743604157233111,0.2822222222222222,0.5822222222222222,-0.7033333333333334,-0.055338583780753375,-0.03893228324384932,-0.0625
1589550338.2775645,1.9536759895868099,-3.4254413368043966,8.824413368043967,0.2822222222222222,0.5822222222222222,-0.7033333333333334,0.16452506508243775,-0.0625,0.03952506508243776
1589550338.2875645,1.94,-3.421116309883649,8.865558154941823,0.2797545305232358,0.5881446822997897,-0.6964237965761713,0.2222384683864022,-0.11802306322719557,0.06947693677280443
1589550338.2975645,1.9460205790859058,-3.41,8.835917683656376,0.2766666666666667,0.5955555555555555,-0.6877777777777778,-0.0006430964345537082,-0.11224276142617852,0.03762861928691074
1589550338.3075645,1.9604312496940624,-3.4204312496940625,8.788706250917812,0.2766666666666667,0.5955555555555555,-0.6877777777777778,-0.125,-0.0625,0.09509765529394487
1589550338.3175645,1.9651151449471687,-3.4348848550528315,8.769769710105662,0.2766666666666667,0.5955555555555555,-0.6877777777777778,-0.15553034408019506,0.029091032240585207,0.09446965591980493
1589550338.3275645,1.9492161867937985,-3.423824280190698,8.812351439618604,0.2766666666666667,0.5955555555555555,-0.6877777777777778,-0.01900291865310258,0.09130058373062053,0.12989883253875895
1589550338.3375645,1.946557574843526,-3.416557574843526,8.853115149687051,0.2722949501043159,0.5984700332637893,-0.6979784497565963,0.20696968554407663,0.10348484277203832,0.10553031445592338
1589550338.3475645,1.9580510845028953,-3.411948915497105,8.86,0.27,0.6,-0.7033333333333334,0.04872288742761802,0.0746807218569045,0.1128192781430955
1589550338.3575644,1.9668986507050827,-3.430695952115248,8.756520239423761,0.27,0.6,-0.7033333333333334,0.0,-0.023733133813533536,-0.04746626762706707
1589550338.3675644,1.964568570322528,-3.445431429677472,8.742588578064831,0.27,0.6,-0.7033333333333334,-0.03394643548419959,0.03933930645259877,-0.057107129031600826
1589550338.3775644,1.9564330744632252,-3.4428661489264507,8.798535404294197,0.27,0.6,-0.7033333333333334,-0.040206715395157605,0.1027067153951576,0.0
1589550338.3875644,1.95,-3.4322383894757826,8.854476778951565,0.2714922596505216,0.5990051602329856,-0.6998513941487831,0.0559597368945585,0.09047986844727925,0.02797986844727925
1589550338.3975644,1.9440342934206722,-3.44,8.852102880262017,0.2766666666666667,0.5955555555555555,-0.6877777777777778,0.17542866775840477,0.11292866775840478,0.08771433387920238
1589550338.4075644,1.9333991641952009,-3.44,8.773991641952009,0.2766666666666667,0.5955555555555555,-0.6877777777777778,-0.040020895119978445,-0.061265671339983827,0.02124477622000539
1589550338.4175644,1.9409967806098385,-3.4454983903049192,8.734501609695082,0.2766666666666667,0.5955555555555555,-0.6877777777777778,-0.125,-0.1593649394057457,0.06872987881149138
1589550338.4275644,1.945048793778174,-3.45,8.774560855996434,0.2766666666666667,0.5955555555555555,-0.6877777777777778,-0.0631099222271759,-0.09466488334076387,0.0631099222271759
1589550338.4375644,1.936235287954458,-3.4349411518178328,8.835058848182168,0.27415685863630546,0.5905359394948331,-0.68568627108581,0.09411780113854643,-0.023529450284636606,0.07058835085390983
1589550338.4475644,1.9372198209323865,-3.4172198209323867,8.867219820932386,0.27,0.5822222222222222,-0.6822222222222222,0.2349587063908614,-0.047458706390861374,0.14237611917258414
1589550338.4575644,1.9559843826080683,-3.44,8.833781356512958,0.27,0.5822222222222222,-0.6822222222222222,0.03691434780256442,0.025097608699572595,-0.025097608699572595
1589550338.4675643,1.9564295676429568,-3.433570432357043,8.756429567642957,0.27,0.5822222222222222,-0.6822222222222222,-0.1875,0.04240760111576011,-0.02231520223152022
1589550338.4775643,1.97,-3.424163663796929,8.790818318984645,0.27,0.5822222222222222,-0.6822222222222222,-0.10943130380757966,0.026022898730806782,0.03647710126919322
1589550338.4875643,1.963507860903198,-3.43,8.836230347742005,0.27216404636560065,0.584025594193556,-0.6822222222222222,0.08115173871002399,0.042212065322494004,0.060863804032517996
1589550338.4975643,1.9451543903104598,-3.42515439031046,8.850617561241839,0.2766666666666667,0.5877777777777777,-0.6822222222222222,0.15914481832112345,0.030285060559625515,0.06635975776149794
1589550338.5075643,1.9454922770776082,-3.42,8.775077229223918,0.2766666666666667,0.5877777777777777,-0.6822222222222222,0.13115346347010332,-0.0748069269402066,0.04048019520515493
1589550338.5175643,1.9450680829828189,-3.4397276680687248,8.744795751051544,0.2766666666666667,0.5877777777777777,-0.6822222222222222,0.03337759321308906,-0.1566755186426178,0.0941755186426178
1589550338.5275643,1.94,-3.4577128488214575,8.776010058249797,0.2766666666666667,0.5877777777777777,-0.6822222222222222,-0.125,-0.15358938973178002,0.07679469486589001
1589550338.5375643,1.94,-3.4506106068816043,8.825725751828772,0.2766666666666667,0.5877777777777777,-0.6822222222222222,-0.125,-0.24236741397995124,0.12118370698997562
1589550338.5475643,1.9502410658422582,-3.4246384012366127,8.855361598763388,0.26222222222222225,0.5755555555555556,-0.6877777777777778,0.09149000772882854,0.06400666151411431,0.09299666924294284
1589550338.5575643,1.94,-3.44,8.771381429165952,0.26222222222222225,0.5755555555555556,-0.6877777777777778,0.10172678645744082,-0.04288660677127959,-0.04654642708511836
1589550338.5675642,1.9467524518327883,-3.4197426445016346,8.780514710996732,0.26222222222222225,0.5755555555555556,-0.6877777777777778,0.020297176045071988,0.06410847186478405,-0.040594352090143976
1589550338.5775642,1.95,-3.4203229620870594,8.81032296208706,0.26222222222222225,0.5755555555555556,-0.6877777777777778,-0.0645185130441209,0.09274074347793955,0.0
1589550338.5875642,1.9447450051699409,-3.4352549948300592,8.841019979320237,0.2663094404233793,0.5790588854422616,-0.6848583362055227,-0.026468846936393037,0.0625,0.032843717687868985
1589550338.5975642,1.9343413907149565,-3.4343413907149567,8.87697582785513,0.27,0.5822222222222222,-0.6822222222222222,0.027133691968478216,-0.008232616063043569,0.0625
1589550338.6075642,1.9411303692539563,-3.43,8.82878296910324,0.27,0.5822222222222222,-0.6822222222222222,0.03478240391861341,-0.0625,0.02771759608138659
1589550338.6175642,1.9550866925012984,-3.440173385002597,8.78,0.27,0.5822222222222222,-0.6822222222222222,-0.06466731253245975,-0.09429182813311493,0.03179182813311494
1589550338.6275642,1.9559644510620477,-3.4419289021240957,8.788071097875905,0.27,0.5822222222222222,-0.6822222222222222,-0.08661127655119466,-0.09977781913779867,0.01205563827559733
1589550338.6375642,1.9396492842860316,-3.435175357856984,8.831052147141905,0.27632543738075843,0.5914228584124163,-0.6960231765075133,0.12719197321230202,0.002191973212302037,-0.0625
1589550338.6475642,1.9345109053185567,-3.44,8.850978189362886,0.2822222222222222,0.6,-0.7088888888888889,0.2438863164819594,0.006113683518040584,-0.034306841759020296
1589550338.6575642,1.94,-3.44,8.809149044771766,0.2822222222222222,0.6,-0.7088888888888889,0.248227176607846,-0.0625,-0.08569709785620534
1589550338.6675642,1.9441338126760805,-3.4358661873239194,8.75413381267608,0.2822222222222222,0.6,-0.7088888888888889,0.04749101232348721,-0.010827341548991475,-0.14665468309798296
1589550338.6775641,1.9522446918912855,-3.4322446918912854,8.773468151347712,0.2822222222222222,0.6,-0.7088888888888889,-0.04847067567946596,0.07652932432053404,-0.014029324320534036
1589550338.6875641,1.9570061372824197,-3.4429938627175805,8.83197545087032,0.2858813877659314,0.5963408344562907,-0.7009052549753415,0.018711641984876733,0.08757671603024653,-0.04378835801512326
1589550338.6975641,1.9533874312146104,-3.443225137570779,8.856612568785389,0.29444444444444445,0.5877777777777777,-0.6822222222222222,0.0413285549086849,0.0423428901826302,-0.0211714450913151
1589550338.707564,1.9544092943277265,-3.4355907056722734,8.788502237604991,0.29444444444444445,0.5877777777777777,-0.6822222222222222,0.03494191045170962,0.15994191045170963,-0.0625
1589550338.717564,1.9443689370220192,-3.434368937022019,8.773786377867886,0.29444444444444445,0.5877777777777777,-0.6822222222222222,-0.0782765744495201,-0.02366486167428014,-0.09769414361238002
1589550338.727564,1.9494517248572891,-3.43,8.804725862428645,0.29444444444444445,0.5877777777777777,-0.6822222222222222,-0.15796335982097137,-0.039816799104856915,-0.006853439283885515
