time,acc_x,acc_y,acc_z,mag_x,mag_y,mag_z,gyr_x,gyr_y,gyr_z
1589550516.3045914,0.27,-4.15,8.97,0.3977777777777778,0.3055555555555556,-0.6233333333333333,0.25,-0.3125,1.4375
1589550516.3145914,0.2629572663924104,-4.15,8.857316262278566,0.3977777777777778,0.3055555555555556,-0.6233333333333333,0.029914574762824275,-0.2684829149525648,1.2174145747628242
1589550516.3245914,0.26,-4.111061054653117,8.80026526366328,0.3977777777777778,0.3055555555555556,-0.6233333333333333,0.05918420420901016,-0.12831579579098984,1.125
1589550516.3345914,0.26,-4.11,8.827203980427369,0.3977777777777778,0.3055555555555556,-0.6233333333333333,0.01999378058223636,-0.21001243883552728,0.9549751223289454
1589550516.3445914,0.26,-4.11,8.84,0.40952249173805627,0.29381084159527704,-0.6188161356563031,0.20327389546635866,0.05491084319953793,0.875
1589550516.3545914,0.277312582407233,-4.1273125824072325,8.848656291203616,0.4122222222222222,0.2911111111111111,-0.6177777777777778,0.08769453993219062,0.125,0.875
1589550516.3645914,0.26812554026198554,-4.119062770130993,8.793748919476029,0.4122222222222222,0.2911111111111111,-0.6177777777777778,0.25,0.4375,0.6074269399561141
1589550516.3745914,0.25418079659551834,-4.1120903982977595,8.821638406808963,0.4122222222222222,0.2911111111111111,-0.6177777777777778,0.25,0.4375,0.4766949680829842
1589550516.3845913,0.25699071649607236,-4.11,8.878935015472507,0.4122222222222222,0.2911111111111111,-0.6177777777777778,0.20630802189954772,0.21904010949773864,0.3938080218995477
1589550516.3945913,0.2495189515046494,-4.0990379030092985,8.949037903009298,0.3977777777777778,0.2911111111111111,-0.6166666666666667,0.2530065530959412,0.18148689380811756,0.05348034071217631
1589550516.4045913,0.24071093598917037,-4.082132807967511,8.922890640108296,0.3977777777777778,0.2911111111111111,-0.6166666666666667,0.285839900406111,0.035839900406111,-0.12055665006768516
1589550516.4145913,0.24921729258030764,-4.109217292580308,8.826086462901538,0.3977777777777778,0.2911111111111111,-0.6166666666666667,-0.06739192137307717,-0.3418515282384631,-0.04782423588076846
1589550516.4245913,0.2402115361931349,-4.1,8.780634608579405,0.3977777777777778,0.2911111111111111,-0.6166666666666667,-0.1269831518106397,-0.6875,0.125
1589550516.4345913,0.256703102268706,-4.1,8.830109306806118,0.3977777777777778,0.2911111111111111,-0.6166666666666667,-0.28159158376911886,-0.6875,0.125
1589550516.4445913,0.2506084182245606,-4.081216836449121,8.858783163550878,0.3748205778822593,0.2973721656280706,-0.6364933393037053,-0.19510522780700773,-0.5701052278070078,0.24239477219299227
1589550516.4545913,0.2502507495230308,-4.1,8.878244753338786,0.37333333333333335,0.2977777777777777,-0.6377777777777778,0.05623126192423004,-0.24529844644317253,0.1875
1589550516.4645913,0.25660170800399745,-4.1,8.833788043972019,0.37333333333333335,0.2977777777777777,-0.6377777777777778,-0.1025427000999364,-0.1262179749250477,0.1875
1589550516.4745913,0.2531913407821229,-4.0931913407821225,8.816808659217877,0.37333333333333335,0.2977777777777777,-0.6377777777777778,0.025270600558659234,0.10771648044692736,0.14494587988826815
1589550516.4845912,0.25,-4.09,8.879850553168904,0.37333333333333335,0.2977777777777777,-0.6377777777777778,0.125,0.08548201164391514,0.1930119922373899
1589550516.4945912,0.25554269064141394,-4.095542690641413,8.924457309358585,0.3838028601004486,0.30208875938776636,-0.6414729048720538,0.1596418165088372,0.06928363301767435,0.2153581834911628
1589550516.5045912,0.26,-4.1,8.912169994059765,0.3922222222222223,0.3055555555555556,-0.6444444444444445,0.08962492574704925,-0.02181261137942611,0.13856246287352464
1589550516.5145912,0.26,-4.109152704251487,8.836778365988103,0.3922222222222223,0.3055555555555556,-0.6444444444444445,-0.05190880314359003,-0.29131760628718006,0.125
1589550516.5245912,0.26,-4.096058833031211,8.823029416515606,0.3922222222222223,0.3055555555555556,-0.6444444444444445,-0.0625,-0.2689338532225353,0.037867706445070634
1589550516.5345912,0.26,-4.111021554977774,8.834014369985182,0.3922222222222223,0.3055555555555556,-0.6444444444444445,-0.1938847186110878,-0.3375898124073919,0.1313847186110878
1589550516.5445912,0.2736306316133959,-4.12,8.887707210646886,0.4005520526526309,0.29571121050143634,-0.6300565555191933,-0.25,-0.20461710483255155,0.1875
1589550516.5545912,0.26036334913112164,-4.1101816745655615,8.841271721958925,0.4044444444444445,0.2911111111111111,-0.6233333333333333,0.056822669826224304,0.4886453396524486,0.1875
1589550516.5645912,0.25067511308144114,-4.119324886918559,8.774725791570088,0.4044444444444445,0.2911111111111111,-0.6233333333333333,0.0625,0.5,0.01265837027702138
1589550516.5745912,0.25,-4.0928859543260305,8.842304121797252,0.4044444444444445,0.2911111111111111,-0.6233333333333333,0.006012404845896768,0.2740496193835871,0.05648759515410323
1589550516.5845912,0.25,-4.097101416600909,8.85,0.4044444444444445,0.2911111111111111,-0.6233333333333333,0.04438385375568331,0.20561614624431668,0.10688385375568331
1589550516.5945911,0.24214905397802977,-4.1157018920439405,8.904956622153792,0.4044444444444445,0.29634507512575786,-0.6250779880048822,-0.08470523791194148,0.1875,-0.022205237911941483
1589550516.6045911,0.2479618492333119,-4.112038150766688,8.912038150766689,0.4044444444444445,0.2977777777777777,-0.6255555555555555,0.12380778854099717,0.28702311541639886,-0.012738442291800572
1589550516.6145911,0.2558024323043715,-4.098395135391257,8.863580541565028,0.4044444444444445,0.2977777777777777,-0.6255555555555555,0.2962956057069652,0.3125,0.03626520190232174
1589550516.624591,0.2527489238443899,-4.104502152311221,8.83725107615561,0.4044444444444445,0.2977777777777777,-0.6255555555555555,0.23904232208231083,0.26718077402743695,0.0625
1589550516.634591,0.25,-4.097845743760169,8.846077128119916,0.4044444444444445,0.2977777777777777,-0.6255555555555555,0.07355384775158376,0.17403589850105583,-0.05144615224841624
1589550516.644591,0.25,-4.075241521855623,8.879516956288755,0.39542537446732506,0.29285828506298534,-0.6132568237685745,0.046120244201178905,0.07887975579882109,-0.07887975579882109
1589550516.654591,0.25938169959100754,-4.088763399182015,8.85247320163597,0.3922222222222223,0.2911111111111111,-0.6088888888888889,0.003864377556203051,0.41431373466278165,-0.12113562244379694
1589550516.664591,0.251537656680404,-4.106924686639192,8.80768828340202,0.3922222222222223,0.2911111111111111,-0.6088888888888889,-0.10577929149494993,0.4375,-0.019220708505050074
1589550516.674591,0.24370672946291097,-4.116293270537089,8.818879811611268,0.3922222222222223,0.2911111111111111,-0.6088888888888889,-0.0463341182863871,0.4375,-0.0786658817136129
1589550516.684591,0.246424597714901,-4.113575402285099,8.842849195429801,0.3922222222222223,0.2911111111111111,-0.6088888888888889,0.0,0.31703879284560627,-0.04469252856373751
1589550516.694591,0.25,-4.104085593136771,8.855914406863228,0.39550800381290474,0.2871681732022921,-0.6134889831158444,0.0,-0.008755300266245936,0.0
1589550516.704591,0.25,-4.116897114427861,8.86,0.3977777777777778,0.28444444444444444,-0.6166666666666667,0.0,-0.029089552238805966,-0.05280348258706468
1589550516.714591,0.2588813408968882,-4.12,8.842237318206223,0.3977777777777778,0.28444444444444444,-0.6166666666666667,0.05550838060555128,-0.22203352242220512,-0.0625
1589550516.724591,0.26,-4.093672934284499,8.901429820002834,0.3977777777777778,0.28444444444444444,-0.6166666666666667,-0.15689221429583786,-0.4693922142958379,-0.0625
1589550516.734591,0.24661959014304954,-4.07661959014305,8.903309795071525,0.3977777777777778,0.28444444444444444,-0.6166666666666667,-0.39656890401485095,-0.5418137808029702,-0.14612756160594037
1589550516.744591,0.24,-4.049191556450906,8.906936147849699,0.3977777777777778,0.28444444444444444,-0.6212907652331319,-0.7167546203030568,-0.5625,-0.14414907593938864
1589550516.754591,0.10351819282337085,-3.738303373609557,8.845350722916335,0.3977777777777778,0.28444444444444444,-0.6233333333333333,-1.0369766565405085,-0.697185993924305,-0.3045813252324068
1589550516.764591,-0.18023008696653803,-3.006053101422565,8.854108161032078,0.3977777777777778,0.28444444444444444,-0.6233333333333333,-1.231588003225249,-0.4302359903242527,-0.5881760064504982
1589550516.774591,-0.07991945227547323,-3.0071204188481673,9.041280708819976,0.3977777777777778,0.28444444444444444,-0.6233333333333333,-2.177003624647604,-1.0960028191703584,-0.470499395892066
1589550516.784591,0.09468123617349332,-2.710178320037541,8.935318763826507,0.3977777777777778,0.28444444444444444,-0.6233333333333333,-1.8514823691090703,-0.4409272977140176,0.41916521418515784
1589550516.794591,0.11544737152055279,-2.6897960425582035,8.92682894271917,0.40186988252435235,0.28853654919101895,-0.6233333333333333,-1.7642269639982726,-0.1875,1.5314966039809979
1589550516.804591,0.020665455452246087,-2.8907356346407327,8.926199636635674,0.4044444444444445,0.2911111111111111,-0.6233333333333333,-2.2587568130811158,-0.6833409034234619,2.9550136261622315
1589550516.814591,0.017365525525525526,-2.886586186186186,8.876586186186186,0.4044444444444445,0.2911111111111111,-0.6233333333333333,-1.126852852852853,-0.6496981981981982,5.032587087087087
1589550516.824591,0.006904911556074348,-2.7883343808925205,8.837262278890186,0.4044444444444445,0.2911111111111111,-0.6233333333333333,-0.4055120319655203,-0.2157784861273233,8.46350565681961
1589550516.834591,0.017850707176532213,-2.763800942902043,8.879502357255108,0.4044444444444445,0.2911111111111111,-0.6233333333333333,0.24688973284442117,-0.037188973284442116,15.331456259821897
1589550516.844591,0.034938089732592395,-2.829380897325924,8.964442807593331,0.4044444444444445,0.28781905128938284,-0.6162005370529221,0.25309551337038005,-0.8032134598888598,25.757462564800655
1589550516.854591,0.06996031746031746,-2.8979761904761907,8.962063492063491,0.4044444444444445,0.28444444444444444,-0.6088888888888889,0.0,-1.5625,32.8125
1589550516.864591,0.07892747313499879,-2.9210725268650015,8.819274731349989,0.4044444444444445,0.28444444444444444,-0.6088888888888889,0.3460164645312878,-1.4932967070937424,35.64983500915656
1589550516.8745909,0.0941686674669868,-2.94812650060024,8.881054171668668,0.4044444444444445,0.28444444444444444,-0.6088888888888889,0.20960102791116447,-2.306061487094838,42.091489720888354
1589550516.8845909,0.11574489889285387,-2.931275505535731,9.00872449446427,0.4044444444444445,0.28444444444444444,-0.6088888888888889,0.2247449446426938,-2.264604492634276,46.284630341293806
1589550516.8945909,0.05772780276528403,-2.9956242711977343,8.936591704147926,0.3992550946748848,0.2801199863031447,-0.6149431302867086,0.19424922955189072,-2.5422523113443276,49.321006163584876
1589550516.9045908,0.04,-3.062584546212136,8.995169092424272,0.3977777777777778,0.2788888888888889,-0.6166666666666667,-0.18551231613015756,-3.149230120738774,51.33884377604217
1589550516.9145908,0.024784313725490198,-3.0191372549019606,8.832196078431371,0.3977777777777778,0.2788888888888889,-0.6166666666666667,0.21053921568627454,-2.694362745098039,53.3639705882353
1589550516.9245908,-0.003558454967850941,-3.0942338198714037,8.872086638194022,0.3977777777777778,0.2788888888888889,-0.6166666666666667,0.22775965645093163,-2.941721030647205,55.039502862908904
1589550516.9345908,-0.06752709340402309,-3.12,9.00227038827382,0.3977777777777778,0.2788888888888889,-0.6166666666666667,0.10760125916107906,-3.0225506295805395,56.57348111258381
1589550516.9445908,-0.1,-3.125263961899627,8.981040571505593,0.4088905862325461,0.28532262009954423,-0.6312887830545197,0.5559964280900391,-2.53940333378263,58.56599047490677
1589550516.9545908,-0.09351800640089489,-3.104072025603579,8.871108038405369,0.4188888888888889,0.2911111111111111,-0.6444444444444445,0.5138504800671162,-2.7731993599105116,61.00588625982662
1589550516.9645908,-0.09,-3.082474563774883,8.8048473826493,0.4188888888888889,0.2911111111111111,-0.6444444444444445,-0.07923783484885721,-3.219067952813959,62.91038338658147
1589550516.9745908,-0.0954635835375992,-3.101854334150397,8.85009941891359,0.4188888888888889,0.2911111111111111,-0.6444444444444445,0.22226876531994033,-3.147557808670015,63.68812136820995
1589550516.9845908,-0.14896833386062297,-3.1511616670022145,8.926710000287613,0.4188888888888889,0.2911111111111111,-0.6444444444444445,0.6181458339325261,-3.090322916966263,64.3060520866289
1589550516.9945908,-0.22350423274114703,-3.1427351854059857,8.953247883629427,0.4271414755640343,0.2693542916948187,-0.6444444444444445,0.18109127220698706,-3.125,65.40491236437343
1589550517.0045907,-0.21759335850866152,-3.113796679254331,8.925186717017322,0.4311111111111111,0.2588888888888889,-0.6444444444444445,0.0925830186417311,-3.3963952826230295,66.40910282922735
1589550517.0145907,-0.25473175487465183,-3.1355610027855154,8.814146239554317,0.4311111111111111,0.2588888888888889,-0.6444444444444445,0.5868906685236769,-3.282926532033426,67.61128133704736
1589550517.0245907,-0.31346418510137164,-3.1633856740405486,8.873778229344664,0.4311111111111111,0.2588888888888889,-0.6444444444444445,0.8125,-3.208660462753429,68.85727439615758
1589550517.0345907,-0.3346401572422135,-3.1467992137889325,8.855757484124585,0.4311111111111111,0.2588888888888889,-0.6444444444444445,0.9865058965830058,-2.872987224070154,69.74301670698519
1589550517.0445907,-0.34850173625815195,-3.1965156263233676,8.889024307614127,0.43961284736926304,0.25605497680283823,-0.6387766202723432,0.7624131870924028,-3.1282660709748455,70.5250434064538
1589550517.0545907,-0.3725916061877178,-3.3566622278447302,8.99963357524913,0.4511111111111111,0.25222222222222224,-0.6311111111111111,0.030104922653527766,-3.8264073839802917,70.96989507734648
1589550517.0645907,-0.3732208531314596,-3.403558293737081,8.929325118788757,0.4511111111111111,0.25222222222222224,-0.6311111111111111,0.48830568306891087,-3.1366943169310892,70.80828199242973
1589550517.0745907,-0.38234031154702053,-3.3297879749443666,8.87914922113245,0.4511111111111111,0.25222222222222224,-0.6311111111111111,0.7885634735844391,-2.7207461056622435,70.26330179057116
1589550517.0845907,-0.42596471545788517,-3.305689082469918,8.911378164939837,0.4511111111111111,0.25222222222222224,-0.6311111111111111,0.7803886469126026,-2.8818908246991795,69.48621835060165
1589550517.0945907,-0.4515222732614037,-3.2876113663070186,8.955761136630702,0.4558209592992201,0.23762169283908413,-0.6400598226685184,0.7764928960581134,-3.1514928960581137,68.70857814336075
1589550517.1045907,-0.4455287733933779,-3.185769812852977,8.97764386696689,0.4622222222222222,0.21777777777777774,-0.6522222222222223,0.5015064966224945,-3.5676031707947287,67.82873232807944
1589550517.1145906,-0.4998600142075133,-3.1749300071037565,8.975069992896245,0.4622222222222222,0.21777777777777774,-0.6522222222222223,0.21104686390038024,-3.6023280473026618,66.89215609460533
1589550517.1245906,-0.5531314694785721,-3.178434265260714,8.861691254716069,0.4622222222222222,0.21777777777777774,-0.6522222222222223,0.6935008948437651,-2.6423557366740833,66.45407123681919
1589550517.1345906,-0.5288903101344126,-3.0775031978024283,8.861941957264778,0.4622222222222222,0.21777777777777774,-0.6522222222222223,1.0303830547925097,-2.351552506867412,66.31076610958502
1589550517.1445906,-0.49,-2.99,8.970965809832792,0.46612372792058343,0.20347225688378667,-0.6645769902670328,0.7073870726229099,-2.6981532318442727,65.73792737709009
1589550517.1545906,-0.49593769431662726,-2.99,8.916872279567217,0.4688888888888889,0.19333333333333333,-0.6733333333333333,0.5742211789578411,-2.898442357915682,64.78123056833728
1589550517.1645906,-0.5252964580300825,-3.0261377971858323,8.874455118874332,0.4688888888888889,0.19333333333333333,-0.6733333333333333,0.4894832605531295,-3.1581028626880157,64.1717248908297
1589550517.1745906,-0.5793010530662812,-3.0866177988849883,8.9,0.4688888888888889,0.19333333333333333,-0.6733333333333333,0.271138756968821,-3.3740837290935373,63.8177846892422
1589550517.1845906,-0.7198421862202602,-3.0591943506662136,8.927583051998642,0.4688888888888889,0.19333333333333333,-0.6733333333333333,0.7107038694340678,-2.572570616672327,64.2389430472043
1589550517.1945906,-0.8292392834049676,-3.0992392834049673,8.973509185652885,0.48018815057117137,0.18264484255279584,-0.6733333333333333,1.1187882735536876,-2.2609662051652655,65.50912622190103
1589550517.2045906,-0.8842448419177675,-3.1415103161644646,8.91302063232893,0.51,0.15444444444444444,-0.6733333333333333,0.672197380139528,-2.496423667804661,67.13851445376281
1589550517.2145905,-0.8769292123629112,-3.0951445663010966,8.911784646061815,0.51,0.15444444444444444,-0.6733333333333333,0.12188434695912262,-3.2178464606181456,68.2673853439681
1589550517.2245905,-0.9230831951113051,-3.074262767350502,8.779865735486686,0.51,0.15444444444444444,-0.6733333333333333,-0.24631383675250984,-3.1360584897424704,69.24078459188128
1589550517.2345905,-1.0273519978417913,-3.2008503941728366,8.826641587482388,0.51,0.15444444444444444,-0.6733333333333333,0.06855497437127189,-3.403659962231348,69.98270997572016
1589550517.2445905,-1.1430906246846302,-3.4283996871530933,9.089127813099202,0.4958425000840986,0.147955590316323,-0.6810019791211133,0.8456816404278938,-3.5377324275910786,71.48385937026946
1589550517.2545905,-1.2146646244850534,-3.430670751029893,9.01849846836379,0.4833333333333333,0.14222222222222222,-0.6877777777777778,0.25838438787366635,-3.419731039400021,72.61142323333685
1589550517.2645905,-1.2996902143781186,-3.4633547403437444,9.010993577896876,0.4833333333333333,0.14222222222222222,-0.6877777777777778,0.4689506907226021,-3.5186295855664387,73.62733754158197
1589550517.2745905,-1.3023782848075398,-3.4561079989421297,8.799350852306878,0.4833333333333333,0.14222222222222222,-0.6877777777777778,1.008446433294064,-2.8422285600942465,74.72871787319981
1589550517.2845905,-1.2637779778223333,-3.3705192520152214,8.88547894758378,0.4833333333333333,0.14222222222222222,-0.6877777777777778,0.6180618069479111,-3.47498874749376,75.09120412046319
1589550517.2945905,-1.092994974550609,-3.1441543714966818,8.997197989820243,0.5077563372921275,0.11710141815031964,-0.7101073813972468,0.6192638199858257,-3.504226129115392,74.70923869273886
1589550517.3045905,-1.0486131824633653,-3.076459886847524,8.95392335219208,0.5222222222222223,0.10222222222222224,-0.7233333333333334,1.064895243997521,-3.1004790487995044,73.39860758481437
1589550517.3145905,-1.086000591509155,-3.0519952679267606,8.968001774527465,0.5222222222222223,0.10222222222222224,-0.7233333333333334,0.5499371521522868,-3.4250295754577476,71.33736691044014
1589550517.3245904,-1.1800851043598155,-3.039303950934246,8.960696049065753,0.5222222222222223,0.10222222222222224,-0.7233333333333334,0.08478343555365378,-3.3837006133219227,69.23100306660962
1589550517.3345904,-1.3281126350285228,-3.0990563175142616,8.928197192215883,0.5222222222222223,0.10222222222222224,-0.7233333333333334,0.3350350973014524,-3.1137324513492737,67.88116225674636
1589550517.3445904,-1.4184147238202343,-3.1484147238202347,8.931036809550587,0.5081976825218315,0.10222222222222224,-0.7312805724968882,0.4047239283706043,-3.157776071629396,67.3125
1589550517.3545904,-1.4471841523550417,-3.154271949214986,8.945679873037466,0.4888888888888889,0.10222222222222224,-0.7422222222222222,0.2233003174063368,-3.1780982542651475,67.18719888907782
1589550517.3645904,-1.476304,-3.121168,8.920272,0.4888888888888889,0.10222222222222224,-0.7422222222222222,0.366,-2.6875,66.7359
1589550517.3745904,-1.3627048266485384,-2.9590572399728075,8.851762066621346,0.4888888888888889,0.10222222222222224,-0.7422222222222222,0.7358480625424881,-2.207158395649218,65.54520904146838
1589550517.3845904,-1.4568947129772378,-2.9929696200235787,8.77976113176748,0.4888888888888889,0.10222222222222224,-0.7422222222222222,0.2939398748526345,-2.637588419334361,64.57742926453251
1589550517.3945904,-1.6052597619312494,-3.0723701190343755,8.927337857381243,0.4888888888888889,0.08484304891163275,-0.7477326918085068,-0.2976867560351541,-3.5567168900878854,63.889813243964845
1589550517.4045904,-1.6138465322183964,-3.016924085915724,8.918466961797016,0.4888888888888889,0.05666666666666665,-0.7566666666666667,0.331714215445155,-2.572142974258075,64.31729586817511
1589550517.4145904,-1.591622751287367,-2.959056878218418,8.820526984551595,0.4888888888888889,0.05666666666666665,-0.7566666666666667,0.6233531732762656,-2.190793653447469,64.75
1589550517.4245903,-1.5696900114810564,-2.899070034443169,8.980619977037888,0.4888888888888889,0.05666666666666665,-0.7566666666666667,0.13917192881745122,-2.901406429391504,64.70167192881745
1589550517.4345903,-1.5233205814843152,-2.8058301453710786,9.069188982402448,0.4888888888888889,0.05666666666666665,-0.7566666666666667,0.23455432287681716,-2.150822494261668,64.48431522570773
1589550517.4445903,-1.5489163054351451,-2.804076358786262,9.11,0.4888888888888889,0.02994387017894853,-0.7575725241747249,0.48606827275758585,-1.6480910303434477,63.94188687895965
1589550517.4545903,-1.5878291530836273,-2.767105537444836,8.906251302862971,0.4888888888888889,-0.008888888888888889,-0.7588888888888888,0.14042090790144812,-1.3324435056438915,62.44120622934824
1589550517.4645903,-1.659301095579902,-2.8044758216849264,8.75979032867397,0.4888888888888889,-0.008888888888888889,-0.7588888888888888,-0.0625,-1.5598791084246317,60.8806785984133
1589550517.4745903,-1.7829054189162168,-2.89374325134973,8.854135172965407,0.4888888888888889,-0.008888888888888889,-0.7588888888888888,0.052027094581083774,-1.7084458108378324,59.48986452709458
1589550517.4845903,-1.7832166562399867,-2.883216656239987,8.996958359400033,0.4888888888888889,-0.008888888888888889,-0.7588888888888888,-0.04685425790011749,-1.5044583594000336,58.410749843599795
1589550517.4945903,-1.7192176938218107,-2.8192176938218108,9.156955765445474,0.4888888888888889,-0.008888888888888889,-0.7588888888888888,-0.6068451790591575,-1.6644557654454735,57.45076540732716
1589550517.5045903,-1.7980257581595025,-2.742017172106335,8.662145962903848,0.4955555555555556,-0.054444444444444434,-0.7644444444444445,-0.3253756398260774,-1.5881618415983267,55.76207069734163
1589550517.5145903,-1.8672805327756068,-2.788187021850405,9.05458968572844,0.4955555555555556,-0.054444444444444434,-0.7644444444444445,-1.3353411029775992,-3.367624800484341,54.60782445373989
1589550517.5245903,-1.992287871327753,-2.8448585808851687,8.978856064336124,0.4955555555555556,-0.054444444444444434,-0.7644444444444445,-0.8065551087769207,-1.2089487936976857,53.60893306526615
1589550517.5345902,-1.8546118496635484,-2.7530745664423657,9.047694075168227,0.4955555555555556,-0.054444444444444434,-0.7644444444444445,-0.3285133668873206,0.08176390940423439,53.32210802013239
1589550517.5445902,-1.9699381879087574,-2.758527277077684,9.03466182804275,0.4934424239201716,-0.0633195973130572,-0.7616973733184453,-0.23159096347104796,-1.011113714308502,52.089727229223165
1589550517.5545902,-2.144951564828614,-2.8785145305514157,9.29217436661699,0.4844444444444445,-0.10111111111111112,-0.75,-1.7066738077496275,-3.0822792473919525,50.8935683681073
1589550517.5645902,-2.2432559890621597,-2.8630239562486377,8.910928131254087,0.4844444444444445,-0.10111111111111112,-0.75,-0.6715006836150356,-0.9200504785305249,51.77909822260091
1589550517.5745902,-2.247493502377179,-2.8774675118858957,8.85757147385103,0.4844444444444445,-0.10111111111111112,-0.75,-0.4536529318541997,-0.8913153724247227,53.0786529318542
1589550517.5845902,-2.279727781878175,-2.88767333825381,9.154530022142144,0.4844444444444445,-0.10111111111111112,-0.75,-1.261138909390874,-2.3330764555203403,53.98545836408631
1589550517.5945902,-2.3617594155744497,-2.92083305196599,9.101386169004574,0.48251027417116005,-0.12093635641227649,-0.759187308798101,-0.6105255686178214,-1.7077431013843274,55.57986931765861
1589550517.6045902,-2.394380558966916,-2.89190279483458,8.78522235867664,0.48,-0.14666666666666667,-0.7711111111111111,0.2690795839380745,-0.5011117933832012,57.85647631275353
1589550517.6145902,-2.41825100375599,-2.9169581660406685,8.973497992488019,0.48,-0.14666666666666667,-0.7711111111111111,-0.32058023572076155,-1.8151146224582309,59.255229244916464
1589550517.6245902,-2.4343302127659574,-2.876995987841945,8.930338237082067,0.48,-0.14666666666666667,-0.7711111111111111,-0.670838905775076,-2.47919452887538,60.76674468085106
1589550517.6345901,-2.4025314784527776,-2.8168671303868056,9.028195826518749,0.48,-0.14666666666666667,-0.7711111111111111,-0.6520978245876766,-2.7770978245876767,62.658217403298586
1589550517.6445901,-2.419862384384507,-2.7984141535822937,9.075517691977867,0.46970146985092776,-0.15986165842016548,-0.7662836751037335,-0.428448557486167,-2.553448557486167,64.71895481552565
1589550517.6545901,-2.360023680988982,-2.7299644785165267,8.99018944791186,0.4088888888888889,-0.23777777777777775,-0.7377777777777778,-0.37514800618113947,-2.5016280679925345,66.75162806799254
1589550517.6645901,-2.3768584559192436,-2.7047123161211344,9.12486764735395,0.4088888888888889,-0.23777777777777775,-0.7377777777777778,-0.4803653494952738,-3.6590188444480125,67.90901884444801
1589550517.67459,-2.375818202010106,-2.66909101005053,9.028909434171803,0.4088888888888889,-0.23777777777777775,-0.7377777777777778,-0.11060673367020193,-2.780682575378977,69.80795366205786
1589550517.68459,-2.3525281803542675,-2.5526409017713365,8.632979066022545,0.4088888888888889,-0.23777777777777775,-0.7377777777777778,0.665727321524423,-1.907306763285024,70.8268921095008
1589550517.69459,-2.5207811592519453,-2.5607811592519454,9.312343477755837,0.4054104554665015,-0.23777777777777775,-0.7213131929118106,-0.7342352479962829,-4.4733527413172265,71.66469138401672
1589550517.70459,-2.474118781865785,-2.4601240181893345,8.966501309080888,0.3922222222222223,-0.23777777777777775,-0.6588888888888889,0.2585262505167425,-2.7023907950943915,73.7803930687612
1589550517.71459,-2.641762722675293,-2.4710508451410087,8.916135587042689,0.3922222222222223,-0.23777777777777775,-0.6588888888888889,1.2521185475420293,-2.234745888195362,75.87182217868695
1589550517.72459,-2.7695647558386414,-2.44671502712904,8.948694267515924,0.3922222222222223,-0.23777777777777775,-0.6588888888888889,0.14915811512149094,-3.9088080915310215,78.29617834394904
1589550517.73459,-2.7691185143738566,-2.411008816368503,9.124201763273701,0.3922222222222223,-0.23777777777777775,-0.6588888888888889,-0.11318561253345832,-4.873163571612201,82.03017867134453
1589550517.74459,-2.635919820950595,-2.347580867119331,9.111516173423865,0.3922222222222223,-0.23777777777777775,-0.6588888888888889,0.32288153855459956,-4.595666293647073,85.24121860208388
1589550517.75459,-2.4005999206903716,-2.15784995373605,9.050199973563457,0.4222222222222222,-0.22666666666666666,-0.6377777777777778,0.5490622108503125,-4.342291859433125,91.18125082614196
1589550517.76459,-2.1648211012288683,-2.0159596713965646,8.993370222011,0.4222222222222222,-0.22666666666666666,-0.6377777777777778,-0.45563599022336887,-5.145087921786951,94.14055392423111
1589550517.77459,-2.7113797406919504,-2.2470345975178536,9.42,0.4222222222222222,-0.22666666666666666,-0.6377777777777778,0.05172727587880466,-5.669390903418152,97.09914286209526
1589550517.78459,-2.785448603189142,-2.2058945001873513,9.007596486115158,0.4222222222222222,-0.22666666666666666,-0.6377777777777778,1.8286772971397642,-1.782388421666181,100.37833069653192
1589550517.79459,-2.436026500355114,-1.9791787997159092,8.249646661931818,0.4254186888415404,-0.22790973701862374,-0.6400863370028409,2.2280079234730112,0.14406793767755688,103.11986749822444
1589550517.80459,-2.2753152329983033,-2.0479832919984338,9.880640908497584,0.44222222222222224,-0.2344444444444445,-0.6522222222222223,-0.46264358438846104,-7.6626827437671325,103.72498694687377
1589550517.81459,-2.169675229126377,-1.84,9.220381106533255,0.44222222222222224,-0.2344444444444445,-0.6522222222222223,-0.6934134049440848,-7.147773375094593,103.82530033423022
1589550517.82459,-2.629905191873589,-1.9073769751693004,8.771733634311513,0.44222222222222224,-0.2344444444444445,-0.6522222222222223,2.1737866817155758,-2.26808690744921,103.95389390519188
1589550517.83459,-3.0928462800988927,-2.0182914009099786,9.321564830781377,0.44222222222222224,-0.2344444444444445,-0.6522222222222223,0.38767451644401973,-5.273577898738911,102.95062379240854
1589550517.84459,-2.736919913038369,-1.7946119043422057,8.893084200011751,0.437606204829896,-0.23880401642608592,-0.6504271043474287,-0.6441477172571831,-5.735549239085728,103.69715097831835
1589550517.85459,-2.621605359317905,-1.6524080389768574,9.066160535931791,0.4222222222222222,-0.2533333333333333,-0.6444444444444445,1.2070234470158343,-5.590426309378806,103.62663063337394
1589550517.86459,-2.56,-1.56,9.06,0.4222222222222222,-0.2533333333333333,-0.6444444444444445,0.9375,-6.4375,102.125
1589550517.87459,-2.707623949925877,-1.4812672267061988,8.508870586943392,0.4222222222222222,-0.2533333333333333,-0.6444444444444445,0.2608902295063965,-5.57636029209905,97.45024158568056
1589550517.88459,-2.411955092126311,-1.4259214112210439,9.234246993305291,0.4222222222222222,-0.2533333333333333,-0.6444444444444445,-0.43714915723680314,-6.638271854079033,91.90885123526276
1589550517.89459,-2.3871058712009003,-1.382435274601576,9.370917708395048,0.4222222222222222,-0.2533333333333333,-0.6444444444444445,-0.2430146187570354,-7.065367838734522,89.88985203507316
1589550517.90459,-2.764861933668937,-1.3382092093574178,8.911322179449215,0.42777777777777776,-0.28444444444444444,-0.6444444444444445,1.447228031536867,-3.509728031536867,86.11234314850459
1589550517.91459,-2.53974589132366,-1.2295324992596979,8.81817071365117,0.42777777777777776,-0.28444444444444444,-0.6444444444444445,1.4957444199733492,-3.558244419973349,84.80240066071957
1589550517.9245899,-2.618714942025815,-1.2261448260774448,9.411506891271056,0.42777777777777776,-0.28444444444444444,-0.6444444444444445,-0.27077225989936554,-5.652050973528769,83.48079741850799
1589550517.9345899,-2.5335552349546577,-1.138118507831822,8.989584501236603,0.42777777777777776,-0.28444444444444444,-0.6444444444444445,0.8887069765045342,-3.3186083058532563,83.82055595630668
1589550517.9445899,-2.2267961274344255,-1.090353934481594,8.509071484858719,0.4261817203897582,-0.28521055199069384,-0.6444444444444445,3.2133991894630194,-1.4281056512439492,84.00649273893954
1589550517.9545898,-1.1932518046113954,-0.44173803349919405,9.152522951853669,0.4,-0.2977777777777777,-0.6444444444444445,0.5476075758637606,-5.38796516924802,82.01309219286566
1589550517.9645898,-2.53892014498877,-0.9910291534167983,9.441257310591741,0.4,-0.2977777777777777,-0.6444444444444445,-2.444724421267985,-6.870072994729703,61.326315072605574
1589550517.9745898,-2.913044402335348,-0.7844701935880365,8.084277373758066,0.4,-0.2977777777777777,-0.6444444444444445,3.406189183652566,1.3916172667212945,54.74879487606268
1589550517.9845898,-2.6750013732491076,-0.724165064542708,8.727488327382588,0.4,-0.2977777777777777,-0.6444444444444445,2.668019173990662,0.9779400405108487,55.32164712647624
1589550517.9945898,-2.5022068113155727,-0.9257587201318318,10.196242103817633,0.4,-0.2977777777777777,-0.6444444444444445,-3.6767811470063165,-8.516761149066191,51.226775997322164
1589550518.0045898,-2.68,-0.81,8.91,0.3922222222222223,-0.33555555555555555,-0.6377777777777778,-1.25,-4.3125,42.1875
1589550518.0145898,-2.951490959666203,-0.8654063182992252,9.092840850387443,0.3922222222222223,-0.33555555555555555,-0.6377777777777778,-0.21113153188952904,-2.858084144645341,39.48644198291277
1589550518.0245898,-2.918712198924952,-0.8811616265233269,8.939747650896557,0.3922222222222223,-0.33555555555555555,-0.6377777777777778,-0.6504105801977761,-3.4963699171146034,35.89914627015715
1589550518.0345898,-3.04778876533585,-0.8983718353781134,9.232321201427926,0.3922222222222223,-0.33555555555555555,-0.6377777777777778,-1.0268838988962292,-3.442588014443396,33.47896064995281
1589550518.0445898,-3.0741742716906484,-0.8858257283093518,8.94816602280574,0.3922222222222223,-0.33555555555555555,-0.6377777777777778,-0.17660801933449044,-2.507313420301215,32.40840261836777
1589550518.0545897,-3.437930297671677,-0.8696485411140583,9.099531388152078,0.37777777777777777,-0.3655555555555556,-0.6522222222222223,1.3676779398762158,0.301028772472738,33.87768475537872
1589550518.0645897,-3.028451407309166,-0.8001143899204244,9.006819186560566,0.37777777777777777,-0.3655555555555556,-0.6522222222222223,-0.08095020999115832,-1.9684886623194813,34.408848410330094
1589550518.0745897,-3.154585118815738,-0.8827074405921309,9.272321776392676,0.37777777777777777,-0.3655555555555556,-0.6522222222222223,-1.7382645111024542,-3.863264511102454,33.81836774444877
1589550518.0845897,-3.38,-0.7713537880575879,8.69857399103139,0.37777777777777777,-0.3655555555555556,-0.6522222222222223,0.39756313429313195,-1.704873731413736,34.963842341279204
1589550518.0945897,-3.3821651045716856,-0.8306495313715057,9.075629271886383,0.3775732956793408,-0.36574800929526097,-0.6524507610381224,1.347936192853927,0.21008088445954243,38.81926595178652
1589550518.1045897,-3.5538304751770147,-0.8821491425531044,9.521959235460239,0.36136045512217085,-0.381007153349068,-0.6705709946020182,-0.7978809397126838,-2.9549993860762083,39.35572023492817
1589550518.1145897,-3.4559342786307683,-0.813821060414945,8.913334130746813,0.3588888888888889,-0.38333333333333336,-0.6733333333333333,0.04319081379670306,-1.726628082728024,41.73628267582967
1589550518.1245897,-3.163909659308409,-0.776872272553273,9.259218068138319,0.3588888888888889,-0.38333333333333336,-0.6733333333333333,-0.19933807579430904,-2.7520639275232868,42.61908096210284
1589550518.1345897,-3.2040370355196854,-0.7292666639354336,9.205874062845671,0.3588888888888889,-0.38333333333333336,-0.6733333333333333,-1.6037962431889876,-3.929490659183088,41.752870355196855
1589550518.1445897,-3.1610784956368554,-0.6519412921463394,8.887980867712729,0.3588888888888889,-0.38333333333333336,-0.6733333333333333,-0.10024734728993412,-1.6204691404809703,41.32328495636855
1589550518.1545897,-2.8537778145763903,-0.637555629152781,9.300815342261597,0.3322222222222222,-0.4977777777777778,-0.6588888888888889,-0.7462948396845439,-3.030554635590238,39.093521661733355
1589550518.1645896,-2.8196539024505407,-0.5891378252042117,8.974656971528402,0.3322222222222222,-0.4977777777777778,-0.6588888888888889,-1.6336140752632324,-3.517228150526465,36.7607388214741
1589550518.1745896,-2.7031439464139155,-0.5825710200947817,9.11371687273305,0.3322222222222222,-0.4977777777777778,-0.6588888888888889,-1.0839251674565142,-2.3428622488152286,33.2625476556088
1589550518.1845896,-2.618941240857754,-0.6013987428893643,8.93262749390517,0.3322222222222222,-0.4977777777777778,-0.6588888888888889,-1.2971406123024363,-2.0,29.57099959367796
1589550518.1945896,-2.556336633663366,-0.5527062706270627,8.890891089108912,0.3322222222222222,-0.4977777777777778,-0.6588888888888889,-1.2101897689768977,-2.0,26.788572607260726
1589550518.2045896,-1.960245041438945,-0.49330485207707897,8.767014343263286,0.25,-0.81,-0.5688888888888889,-0.22054852077079004,0.49280591691683984,23.833225887152643
1589550518.2145896,-2.2888700993100146,-0.5883017588641167,9.788863319108204,0.25,-0.81,-0.5688888888888889,-1.0760529254576636,-3.040658776372991,16.249344414310215
1589550518.2245896,-2.5732521038567384,-0.571573405655486,9.186642603597496,0.25,-0.81,-0.5688888888888889,0.021745253858732383,0.25273576157619715,7.623787291109959
1589550518.2345896,-2.28886482316639,-0.5747027059102776,9.021567568636758,0.25,-0.81,-0.5688888888888889,0.9499997527494264,0.8260134801012738,-6.517230892475671
1589550518.2445896,-1.965307381913126,-0.5995917398528364,9.029863913284279,0.25,-0.81,-0.5688888888888889,-0.9685299469894768,0.5667527098662869,-15.539505696653217
1589550518.2545896,-2.066921766818468,-0.63818634529231,9.129284497760006,0.5173044170461698,-1.2707818998605402,-0.2523665156881862,-1.2863975896923248,0.5147670683846125,-24.804489938539007
1589550518.2645895,-2.477097048657272,-0.6821504918904547,8.703584153150757,0.6,-1.413333333333333,-0.15444444444444444,0.7410396171231055,2.7860642116458387,-40.293897899494816
1589550518.2745895,-2.2094469555969156,-0.7267588407338473,8.77793140122308,0.6,-1.413333333333333,-0.15444444444444444,0.5551714969423026,4.830613533634672,-48.98323251794736
1589550518.2845895,-2.4159498467989033,-0.8248580874052571,9.152227060151588,0.6,-1.413333333333333,-0.15444444444444444,-0.8464108611514272,2.2464521851314303,-64.8820301161103
1589550518.2945895,-2.7287806402193193,-0.8671325189485567,9.084587969682309,0.6,-1.413333333333333,-0.15444444444444444,-0.05376526971456219,3.303312973713917,-75.82053927793905
1589550518.3045895,-2.827787839586028,-0.9981047865459249,9.145051746442432,0.5488888888888889,-0.7288888888888889,-0.6666666666666666,-0.27433699870633893,4.382236416558862,-92.23609314359638
1589550518.3145895,-3.040590197587888,-1.0617705927636645,9.226358737490377,0.5488888888888889,-0.7288888888888889,-0.6666666666666666,-0.893235180908391,4.566605722350526,-104.75967090069284
1589550518.3245895,-2.8660624171530893,-1.09,8.766027534243388,0.5488888888888889,-0.7288888888888889,-0.6666666666666666,-0.36377351689495596,6.42573428524918,-117.35416472872724
1589550518.3345895,-1.6097529709838934,-1.112248446642939,9.309364330095917,0.5488888888888889,-0.7288888888888889,-0.6666666666666666,-1.6091082523979008,5.063566990408397,-129.0260847107438
1589550518.3445895,-2.204348193279846,-1.3336402847318574,9.303038849007661,0.5488888888888889,-0.7288888888888889,-0.6666666666666666,-1.4509712251915303,5.696115099233879,-139.85847107438016
1589550518.3545895,-1.8982432384150916,-1.3543509950337633,8.622594233448854,0.4822729961373714,-0.5143338057411443,-0.7038677496317998,0.08492622101539893,9.406494515702597,-161.21901684590375
1589550518.3645895,-1.7890051148330157,-1.6858146625213117,9.14759863604453,0.4633333333333333,-0.4533333333333333,-0.7144444444444444,-1.5600340988867716,8.682461638752383,-186.83318624009627
1589550518.3745894,-1.9152000802326747,-2.0475735633336676,9.113946645271286,0.4633333333333333,-0.4533333333333333,-0.7144444444444444,-2.401333868217832,7.73599939825494,-203.76434409788385
1589550518.3845894,-2.1275170034106545,-2.168217683547081,8.897897959590722,0.4633333333333333,-0.4533333333333333,-0.7144444444444444,-0.6349489897680356,11.015136027285239,-222.74647091968006
1589550518.3945894,-2.3366589544647662,-2.3857253126433573,8.872800925464228,0.4633333333333333,-0.4533333333333333,-0.7144444444444444,-0.007523136605700365,12.688271635718133,-233.15128298462213
1589550518.4045894,-1.7172107218683652,-2.6925447376402794,9.201990066727328,0.47746057021534727,-0.3465942102247835,-0.7207232163920062,-1.615109379739157,10.932504928723082,-240.71390421216256
1589550518.4145894,-1.911209977093408,-3.086114532960041,9.34524425214219,0.4833333333333333,-0.3022222222222222,-0.7233333333333334,-4.113191439721727,8.398485619750574,-255.22173262916772
1589550518.4245894,-2.3809203359633493,-3.342320183252736,9.145973190803428,0.4833333333333333,-0.3022222222222222,-0.7233333333333334,-0.9995811063035545,12.001377576991601,-261.89375477220665
1589550518.4345894,-1.8168744703643893,-3.2127625793454104,8.087766816430296,0.4833333333333333,-0.3022222222222222,-0.7233333333333334,0.8479665989799018,17.093723518219466,-268.86883524135396
1589550518.4445894,-1.7363992772972194,-3.5413696177030203,9.060175399325264,0.4833333333333333,-0.3022222222222222,-0.7233333333333334,-1.457312369090066,13.069963864860977,-271.92856914442865
1589550518.4545894,-2.1610584091095273,-3.8405496846071925,9.133035143769968,0.5282891419313145,-0.19662834621301073,-0.7233333333333334,-1.0297882362578847,13.955189645285492,-278.84049623167033
1589550518.4645894,-2.289433692049593,-3.8417138589958673,8.703979090797494,0.5311111111111111,-0.19,-0.7233333333333334,-0.9375,14.125,-279.1875
1589550518.4745893,-2.223243732230551,-4.293060509462681,9.082700094770397,0.5311111111111111,-0.19,-0.7233333333333334,-1.7809637144252033,12.61881479566928,-276.6571088567244
1589550518.4845893,-2.22,-4.232679462207231,8.829378117725309,0.5311111111111111,-0.19,-0.7233333333333334,-0.9668066178915864,12.804126680602405,-264.5415726400304
1589550518.4945893,-2.207164164924948,-4.185074577237318,8.73656707201216,0.5311111111111111,-0.19,-0.7233333333333334,-1.2985078614858445,11.64925244632339,-258.9906659699791
1589550518.5045893,-2.2875108091414456,-4.319110562075355,9.063909820877084,0.5549776954224144,-0.09541761032187221,-0.7171457003637361,-1.7983323038912908,10.00555898702903,-247.47336318715256
1589550518.5145893,-2.4222496960665123,-4.493213851523589,8.653498176399076,0.5611111111111111,-0.07111111111111111,-0.7155555555555555,-0.661155829640378,11.042645054708029,-229.82037898545042
1589550518.5245893,-2.4798207772853837,-4.575458253264834,8.998924663712303,0.5611111111111111,-0.07111111111111111,-0.7155555555555555,-1.5864053492293815,8.935132260088631,-217.2267049688223
1589550518.5345893,-2.14858258367043,-4.283294290486828,8.77377628851456,0.5611111111111111,-0.07111111111111111,-0.7155555555555555,-0.3986168970999618,8.202908339874016,-197.83489806597032
1589550518.5445893,-18.904173358288556,-15.543726579323394,-0.7899941636982017,0.5611111111111111,-0.07111111111111111,-0.7155555555555555,9.6779506027491,59.42985620559883,-106.88200607780395
1589550518.5545893,-6.439633898913726,-3.4746822874584797,-0.16014723045156654,0.5631830505431367,0.010385173215229776,-0.7148649090782137,-26.789782520872613,11.500262590896853,-190.72503478768292
1589550518.5645893,-0.03265281857602487,1.6549223667645823,4.428865225905721,0.5644444444444444,0.06,-0.7144444444444444,-45.50176598125612,-15.417359508322843,-185.30685672821375
1589550518.5745893,2.314754266211604,-0.5117341676147138,15.905339021615472,0.5644444444444444,0.06,-0.7144444444444444,16.884264789533567,-37.33586224876754,-152.2168325748957
1589550518.5845892,-0.9795944144270576,0.9636036067644371,10.930765560311558,0.5644444444444444,0.06,-0.7144444444444444,59.4036997403691,54.20830994316188,-144.58423093116272
1589550518.5945892,-0.5260710384322556,0.5115280214505611,6.022885563904797,0.5644444444444444,0.06,-0.7144444444444444,8.806932536661265,21.942988844384118,-123.31018487867854
1589550518.6045892,1.6416208602969167,-1.099657403882756,12.327396269508945,0.5520040603984265,0.14319506830774437,-0.6996714883897983,-19.62671298058622,-12.812642748382185,-96.82933955081842
1589550518.6145892,0.4755387149917625,-2.0455980230642505,9.082803953871498,0.5466666666666666,0.17888888888888888,-0.6933333333333334,12.898558484349259,22.03179571663921,-76.45576606260296
1589550518.6245892,-0.1656293611848917,-2.6412652500787828,8.628908972223474,0.5466666666666666,0.17888888888888888,-0.6933333333333334,-0.8691067730608193,0.4389560730203037,-43.64360537748165
1589550518.6345892,-0.15827186155556627,-2.808626190361096,10.817708222555229,0.5466666666666666,0.17888888888888888,-0.6933333333333334,-9.088712113887949,-7.0390462609368205,-15.0374148015662
1589550518.6445892,-0.17106975703444033,-2.5741861679315297,9.124559100486678,0.5466666666666666,0.17888888888888888,-0.6933333333333334,2.214819640493017,2.577320572824405,-1.8720981185552592
1589550518.6545892,-0.6107733761691323,-2.9815433842008447,9.154815918335622,0.5361964804403335,0.19459416822838851,-0.699316296891238,3.189864173381351,1.532400510402363,6.412297264036065
1589550518.6645892,-0.8656193024485859,-3.1022659531439594,8.73060483494602,0.5311111111111111,0.20222222222222225,-0.7022222222222222,-3.0893096045549298,-0.6633311035748732,17.664457001960113
1589550518.6745892,-0.5569250682481408,-2.703260378424174,8.659208086227997,0.5311111111111111,0.20222222222222225,-0.7022222222222222,0.4134366468982398,-1.5458086227995858,29.554652934670052
1589550518.6845891,-0.5734280439481267,-2.713428043948127,9.085594830691644,0.5311111111111111,0.20222222222222225,-0.7022222222222222,1.8357010987031699,-1.190719560518732,35.65708021884006
1589550518.6945891,-0.5947789602947195,-2.6978315595579208,9.083494678673762,0.5311111111111111,0.20222222222222225,-0.7022222222222222,1.6767102435530086,-1.0326314981580025,39.48566056078592
1589550518.7045891,-0.46511648136569983,-4.038835186343001,9.163146220132111,0.5170056451101385,0.20751177197258694,-0.690761531096432,1.017015181993639,-1.7438429336450376,42.744439272025446
1589550518.714589,-7.066020831760887,-25.041158578005888,8.03215261529172,0.5133333333333333,0.2088888888888889,-0.6877777777777778,-4.795427956826931,-9.930103215337006,5.185622499811309
1589550518.724589,-0.24557659790327957,-3.1962225228271883,11.106983429151166,0.5133333333333333,0.2088888888888889,-0.6877777777777778,-1.936231822793372,1.500612952316537,-44.28307828880622
1589550518.734589,-0.5154550765763888,-1.1754550765763887,8.297790134791136,0.5133333333333333,0.2088888888888889,-0.6877777777777778,9.782558006092726,12.521427565413346,-43.533586936109835
1589550518.744589,-1.2226454799934134,-2.148956034908612,8.230873373950272,0.5133333333333333,0.2088888888888889,-0.6877777777777778,3.299913551786597,5.967540754157747,-28.88562489708546
1589550518.754589,-1.1963476664918722,-2.8553002097535396,9.478993183009964,0.5211065955835227,0.20709505913884518,-0.6955510400279672,-3.7465013765076036,-2.135045228106974,-5.987021499737807
1589550518.764589,-1.98476754428893,-5.390550063619457,8.632401879220906,0.5277777777777778,0.20555555555555555,-0.7022222222222222,0.3946119213076247,0.5631698394832143,1.0908687726338453
1589550518.774589,-0.5643343619432535,-3.0805923154646497,8.899148529451924,0.5277777777777778,0.20555555555555555,-0.7022222222222222,-1.2081945165078238,-1.6924052404489474,-5.765372825582348
1589550518.784589,-0.5974540202527263,-3.196734897005366,9.012692574000347,0.5277777777777778,0.20555555555555555,-0.7022222222222222,-0.733767796866886,-1.1685624296780337,-3.906228362471871
1589550518.794589,-0.8833300155790202,-3.7594114592348973,9.048994287692574,0.5277777777777778,0.20555555555555555,-0.7022222222222222,0.11705361779470302,-0.17593744590617977,-0.9567141249783626
1589550518.804589,-0.9280201087514107,-3.935997127321227,9.215925310351903,0.5371066424996865,0.21421807279732796,-0.6975577898612678,0.07514363393864781,-0.9244972812147327,-0.24991022878834512
1589550518.814589,-1.0687446275071635,-3.883751790830946,8.870014326647564,0.5433333333333333,0.22,-0.6944444444444444,0.07588646131805157,0.4843078438395416,-0.07367030802292263
1589550518.824589,-1.0467240855642816,-3.88581897860893,8.767909489304465,0.5433333333333333,0.22,-0.6944444444444444,-0.7153832385993838,-0.08755477936390865,-0.049434308152904935
1589550518.834589,-1.0161364172763747,-3.938522539532688,8.853181496341751,0.5433333333333333,0.22,-0.6944444444444444,-0.6342341279206987,-0.24502891196601367,-0.14914739202265753
1589550518.844589,-1.0261005300250452,-3.9492663133166364,8.92220106005009,0.5433333333333333,0.22,-0.6944444444444444,0.3721120430232785,-0.019786145572446456,-0.12041445822897859
1589550518.854589,-1.028482512582022,-3.8881713066190993,8.978793718544944,0.5446130541575531,0.22,-0.7014829089776532,1.125,0.16099214818118113,-0.0625
1589550518.864589,-1.01271125595132,-3.8791549761947195,9.014577488097359,0.5455555555555556,0.22,-0.7066666666666667,0.2594616442192632,0.14194534969575068,-0.0625
1589550518.874589,-1.0152992176651878,-3.916496088325939,8.914015646696244,0.5455555555555556,0.22,-0.7066666666666667,-0.2612206624445423,0.19124022081484743,-0.09562011040742371
1589550518.884589,-1.0367938901168299,-3.967989816861383,8.82,0.5455555555555556,0.22,-0.7066666666666667,-0.5074745421534576,0.11005091569308495,-0.055025457846542475
1589550518.894589,-1.028007142857143,-3.9812028571428573,8.859587142857142,0.5455555555555556,0.22,-0.7066666666666667,-0.0676607142857143,0.0,0.027491071428571427
1589550518.904589,-1.0053752655180552,-3.9581744158602787,8.914300212414444,0.5468695093488579,0.21928329793092596,-0.7043971101145989,0.6364099008732593,0.04703357328298324,0.055780918102430965
1589550518.914589,-1.0435708561506611,-3.8728582876986777,8.937141712301322,0.5577777777777778,0.21333333333333332,-0.6855555555555556,0.7276320622412181,0.4776821490583678,-0.04018214905836783
1589550518.924589,-1.0468463948469646,-3.921078369081787,8.834150472142497,0.5577777777777778,0.21333333333333332,-0.6855555555555556,-0.5038792914576168,-0.18463948469644853,-0.0625
1589550518.934589,-1.025604810144517,-3.9595161518843867,8.829032303768772,0.5577777777777778,0.21333333333333332,-0.6855555555555556,-1.0289819619580618,-0.5609879746387079,-0.0625
1589550518.944589,-1.0143547365231524,-3.9656452634768478,8.877177368261576,0.5577777777777778,0.21333333333333332,-0.6855555555555556,-0.6539852078340633,-0.37827796600831887,-0.040070724182574444
1589550518.954589,-1.032189121338912,-3.9126619246861924,8.925148953974896,0.5451935843793585,0.21593695955369593,-0.6855555555555556,0.5292259414225942,0.013682008368200833,0.024408995815899583
1589550518.9645889,-1.0249011056276063,-3.87,8.984901105627607,0.5255555555555556,0.22,-0.6855555555555556,0.7255489881020697,-0.09313191017253912,0.09313191017253912
1589550518.9745889,-1.023139863828155,-3.918020953202915,8.907678365937858,0.5255555555555556,0.22,-0.6855555555555556,-0.3967653193325661,-0.2107517021480629,-0.0036275532220943485
1589550518.9845889,-1.034354814630505,-3.975887036576263,8.84129037073899,0.5255555555555556,0.22,-0.6855555555555556,-0.7948587957203285,-0.25,-0.017641204279671557
1589550518.9945889,-1.0222977090404197,-3.97229770904042,8.859503818265967,0.5255555555555556,0.22,-0.6855555555555556,-0.48058204450786796,-0.3237595456649182,0.0
1589550519.0045888,-1.0156904709507042,-3.954309529049296,8.936904709507044,0.5407301447574334,0.22,-0.6855555555555556,0.07008899097711269,-0.3394345565580986,0.035565443441901406
1589550519.0145888,-1.0142750386718664,-3.9099252707030656,8.98,0.5522222222222222,0.22,-0.6855555555555556,0.4914050415041722,-0.09781395019499334,-0.009062016601668887
1589550519.0245888,-1.0224251758113299,-3.896566901081773,8.913732395672907,0.5522222222222222,0.22,-0.6855555555555556,0.39202795353756514,0.03661421705972946,-0.010728434119458924
1589550519.0345888,-1.032274284862932,-3.9393142878426697,8.82,0.5522222222222222,0.22,-0.6855555555555556,-0.13064287842669844,0.04828571960667461,0.0383571401966627
1589550519.0445888,-1.0237202711389002,-3.9662797288611,8.834881084555601,0.5522222222222222,0.22,-0.6855555555555556,-0.32124152690936714,0.07849661076374687,-0.02325169461812657
1589550519.0545888,-1.0298476304563782,-3.960152369543622,8.859390521825512,0.5522222222222222,0.22,-0.6855555555555556,-0.12976154823818148,0.0019046192952726082,-0.061547690352363696
1589550519.0645888,-1.0190275427542754,-3.8980550855085507,8.990972457245725,0.5377777777777778,0.21333333333333332,-0.6711111111111111,0.6028667866786679,-0.18142214221422143,-0.05642214221422143
1589550519.0745888,-1.0036731356770945,-3.892653728645811,8.93040449244804,0.5377777777777778,0.21333333333333332,-0.6711111111111111,0.29207097981840874,-0.006371293945522619,-0.07908580403631825
1589550519.0845888,-1.020553696128259,-3.925692120160324,8.87972315193587,0.5377777777777778,0.21333333333333332,-0.6711111111111111,-0.29076665220445436,0.030384849799595055,-0.02865454939878516
1589550519.0945888,-1.04,-3.958327830295355,8.878327830295355,0.5377777777777778,0.21333333333333332,-0.6711111111111111,-0.5469265909810485,-0.05204893934596771,-0.015573409018951559
1589550519.1045887,-1.036461261814434,-3.973538738185566,8.897077476371132,0.5405301296998848,0.21765845778235857,-0.6762226218235955,-0.17209463608254205,-0.125,-0.03653154536084735
1589550519.1145887,-1.021575358649789,-3.954726075949367,8.943698565400844,0.5455555555555556,0.2255555555555556,-0.6855555555555556,0.4441350210970464,-0.125,0.019691983122362866
1589550519.1245887,-1.0239007025936169,-3.92,8.929763622094328,0.5455555555555556,0.2255555555555556,-0.6855555555555556,0.4222814205097541,-0.009160811719859482,-0.06708040585992975
1589550519.1345887,-1.030227969702568,-3.924886015148716,8.864886015148715,0.5455555555555556,0.2255555555555556,-0.6855555555555556,-0.05680075743580268,0.125,-0.030537594679475335
1589550519.1445887,-1.0252224493588553,-3.9352224493588555,8.85955510128229,0.5455555555555556,0.2255555555555556,-0.6855555555555556,-0.3451403084928452,0.05971938301430961,0.00278061698569039
1589550519.1545887,-1.03,-3.935220360938558,8.893016751552977,0.5455555555555556,0.2255555555555556,-0.6855555555555556,-0.10614530279388817,0.0,0.032627255865987574
1589550519.1645887,-1.0241899642437187,-3.924189964243719,8.945810035756281,0.5455555555555556,0.2255555555555556,-0.6855555555555556,0.5143145112908258,-0.14525089390703366,-0.07262544695351683
1589550519.1745887,-1.0140113008169855,-3.8960452032679416,8.89610170735287,0.5455555555555556,0.2255555555555556,-0.6855555555555556,0.5628531505307959,-0.17514126021231838,-0.08757063010615919
1589550519.1845887,-1.026943860968006,-3.896943860968006,8.882591814624007,0.5455555555555556,0.2255555555555556,-0.6855555555555556,0.01390347579985407,-0.125,0.008099420700024312
1589550519.1945887,-1.0311348294470222,-3.941028096935423,8.882269658894044,0.5455555555555556,0.2255555555555556,-0.6855555555555556,-0.47872194786833666,-0.125,-0.020610973934168345
1589550519.2045887,-1.0260649694236024,-3.9739350305763974,8.872129938847204,0.5431969563352658,0.22184918535224302,-0.6811752998607317,-0.5169227349611831,-0.08709394110248514,-0.08709394110248514
1589550519.2145886,-1.0269586019004586,-3.950218951425344,8.919562097149313,0.5377777777777778,0.21333333333333332,-0.6711111111111111,0.03801747624426874,0.08150873812213437,-0.020377184530533592
1589550519.2245886,-1.0046786632390745,-3.9253213367609257,8.913213367609254,0.5377777777777778,0.21333333333333332,-0.6711111111111111,0.43348329048843187,0.13303341902313626,-0.09174164524421594
1589550519.2345886,-1.0139771160738902,-3.92,8.879885580369452,0.5377777777777778,0.21333333333333332,-0.6711111111111111,0.3260011717673008,0.0,-0.10014302453818583
1589550519.2445886,-1.023511564565101,-3.927023129130202,8.9064884354349,0.5377777777777778,0.21333333333333332,-0.6711111111111111,-0.09113094972316485,0.06584183559564208,-0.0625
1589550519.2545886,-1.0273304039629407,-3.9453391920741185,8.891991211888822,0.5377777777777778,0.21333333333333332,-0.6749671942757524,-0.32494507430513814,0.13744507430513814,-0.045815024768379384
1589550519.2645886,-1.0226937571686057,-3.9519187284941832,8.880775028674423,0.5377777777777778,0.21333333333333332,-0.6855555555555556,-0.052812141569719806,-0.016835982303785024,0.0
1589550519.2745886,-1.0257973187357263,-3.9257973187357265,8.880581231150085,0.5377777777777778,0.21333333333333332,-0.6855555555555556,0.4175670316068409,-0.03623324209828978,0.0
1589550519.2845886,-1.02,-3.92,8.860350988724194,0.5377777777777778,0.21333333333333332,-0.6855555555555556,0.4534768461203868,0.0,0.0
1589550519.2945886,-1.02,-3.9274097224702644,8.913704861235132,0.5377777777777778,0.21333333333333332,-0.6855555555555556,0.0717230864021145,0.0694661481587313,-0.0694661481587313
1589550519.3045886,-1.02,-3.9450666061156525,8.92,0.5360889090725603,0.21333333333333332,-0.6875259023783094,-0.20416572055706933,0.1875,-0.1400005676657584
1589550519.3145885,-1.02,-3.9500655202486636,8.924967239875668,0.5311111111111111,0.21333333333333332,-0.6933333333333334,-0.189138006216597,0.032273753885373124,0.0
1589550519.3245885,-1.02,-3.9352072494143755,8.896450745900628,0.5311111111111111,0.21333333333333332,-0.6933333333333334,0.24222814696091727,-0.09504530883984712,-0.02995469116015288
1589550519.3345885,-1.02,-3.9252634930743513,8.883682534628244,0.5311111111111111,0.21333333333333332,-0.6933333333333334,0.28948415857347554,0.02630950485591467,-0.03289683171469511
1589550519.3445885,-1.02,-3.9228233969064426,8.91,0.5311111111111111,0.21333333333333332,-0.6933333333333334,0.01912261600840967,0.10735376933473495,-0.052938691995795165
1589550519.3545885,-1.02,-3.9291220904039648,8.91,0.5311111111111111,0.21333333333333332,-0.6933333333333334,-0.21707839014867097,0.06798693497522151,-0.1710391950743355
1589550519.3645885,-1.03,-3.95,8.91817093577037,0.5577777777777778,0.22,-0.6788888888888889,-0.32660252284721325,0.13205126142360663,-0.10651708714120221
1589550519.3745885,-1.0250660500356694,-3.940132100071339,8.870264200142678,0.5577777777777778,0.22,-0.6788888888888889,0.1533603109394603,-0.06167437455413151,-0.0008256254458684914
1589550519.3845885,-1.02,-3.9201963125387462,8.874509218653134,0.5577777777777778,0.22,-0.6788888888888889,0.4056365233164191,-0.06372695336716185,-0.029409569949257225
1589550519.3945885,-1.02,-3.9138732021270335,8.9116196063811,0.5577777777777778,0.22,-0.6788888888888889,0.21963238035437474,0.0,-0.07658497341208328
1589550519.4045885,-1.0261643599279224,-3.9261643599279226,8.92794521335736,0.5566362296429773,0.22,-0.68185691403937,-0.163527249549515,0.0,-0.025684833033010005
1589550519.4145885,-1.0495994670327453,-3.9502002664836278,8.91919893406549,0.5522222222222222,0.22,-0.6933333333333334,-0.3074933379093148,-0.002503331045342593,-0.1237483344773287
1589550519.4245884,-1.0270369376771014,-3.951110813031304,8.874073875354203,0.5522222222222222,0.22,-0.6933333333333334,0.04861483710870039,-0.08796172096376653,-0.08101913951811673
1589550519.4345884,-1.0200043594171795,-3.9300130782515383,8.860008718834358,0.5522222222222222,0.22,-0.6933333333333334,0.3123365218557704,-5.449271474321227e-05,-0.12497275364262839
1589550519.4445884,-1.012887216126563,-3.905774432253126,8.92,0.5522222222222222,0.22,-0.6933333333333334,0.2847744960449094,-0.07086469762694565,-0.0625
1589550519.4545884,-1.0210150271323222,-3.9220300542646442,8.923045081396966,0.5534628109395049,0.22056390396240125,-0.6933333333333334,0.030780402114929738,0.04346824126895784,-0.06884391957701405
1589550519.4645884,-1.033991132468047,-3.9439911324680472,8.942017735063905,0.5644444444444444,0.2255555555555556,-0.6933333333333334,-0.2001108441494105,-0.10005542207470525,-0.0751108441494105
1589550519.4745884,-1.0357450494453935,-3.941490098890787,8.891705445008542,0.5644444444444444,0.2255555555555556,-0.6933333333333334,-0.07181311806741897,-0.035906559033709484,-0.026593440966290512
1589550519.4845884,-1.0233929453069286,-3.9266964726534646,8.866428218772286,0.5644444444444444,0.2255555555555556,-0.6933333333333334,0.1445293214109386,0.0,-0.0625
1589550519.4945884,-1.0113623099370297,-3.9186376900629702,8.926811549685148,0.5644444444444444,0.2255555555555556,-0.6933333333333334,0.4119566886806942,0.01702887421287053,-0.0625
1589550519.5045884,-1.0216996620991314,-3.913399324198263,8.964901013702606,0.559912012180094,0.22461129883381592,-0.6944664413994209,0.18626267128257218,0.09313133564128609,-0.0625
1589550519.5145884,-1.0292673724735322,-3.9321978825794033,8.934138979788257,0.5377777777777778,0.22,-0.7,-0.14331568816169393,-0.053342155919153034,-0.053342155919153034
1589550519.5245883,-1.0243865979381443,-3.946840206185567,8.846840206185567,0.5377777777777778,0.22,-0.7,-0.21050257731958763,0.0625,0.0625
1589550519.5345883,-1.0338767504725515,-3.9338767504725514,8.853260502835308,0.5377777777777778,0.22,-0.7,0.09691876181378427,0.0625,0.03827030954655393
1589550519.5445883,-1.0347071602947435,-3.934707160294743,8.90587851911577,0.5377777777777778,0.22,-0.7,0.23345987592107326,0.012879627763219784,-0.01654012407892674
1589550519.5545883,-1.02,-3.922748943874472,8.944502112251056,0.5399158452357005,0.22,-0.701832629249648,0.13595730235365117,-0.1078191007845504,-0.0453191007845504
1589550519.5645883,-1.0267177948621788,-3.9333588974310896,8.93,0.5455555555555556,0.22,-0.7066666666666667,-0.08397243577723608,-0.02051378211138196,-0.06297932683292705
1589550519.5745883,-1.0381574340730702,-3.9436851318538597,8.907889208876842,0.5455555555555556,0.22,-0.7066666666666667,-0.21545188887006606,0.03946792591337738,-0.1759839629566887
1589550519.5845883,-1.027417535666937,-3.9496701426677485,8.838407107663691,0.5455555555555556,0.22,-0.7066666666666667,0.0020616083265726087,-0.07864040208164315,-0.07657879375507054
1589550519.5945883,-1.0192257448102147,-3.9192257448102144,8.922322765569357,0.5455555555555556,0.22,-0.7066666666666667,0.19717818987231825,-0.1056436202553635,0.047982715191522626
1589550519.6045883,-1.0119395465994963,-3.911939546599496,8.94418136020151,0.5455555555555556,0.22,-0.7066666666666667,0.2882556675062972,0.07651133501259444,-0.08863350125944586
1589550519.6145883,-1.0205152404309363,-3.9305152404309363,8.940515240430935,0.5455555555555556,0.21333333333333332,-0.6933333333333334,0.04639873653323991,-0.125,0.003220252693352019
1589550519.6245883,-1.0296995708154506,-3.9396995708154505,8.94969957081545,0.5455555555555556,0.21333333333333332,-0.6933333333333334,-0.2406115879828326,-0.125,0.06062231759656653
1589550519.6345882,-1.0245016256063424,-3.927749187196829,8.855755689622198,0.5455555555555556,0.21333333333333332,-0.6933333333333334,-0.048432419980179775,-0.07656758001982022,0.020297259940539318
1589550519.6445882,-1.0390861832153973,-3.9204569083923015,8.90680164125389,0.5455555555555556,0.21333333333333332,-0.6933333333333334,-0.0028556774518837882,-0.12214432254811622,-0.11643296764434863
1589550519.6545882,-1.0384171546675853,-3.93,8.940791422666207,0.5455555555555556,0.21289365407432922,-0.6938609484441383,0.12005360833620393,0.05260721667240785,-0.057553608336203925
1589550519.6645882,-1.0203569583189804,-3.93,8.949821520840509,0.5455555555555556,0.20787693286638342,-0.6998810138936732,0.06361549474681363,-0.06026901050637272,-0.0011154947468136403
1589550519.6745882,-1.030568982362318,-3.949431017637682,8.881706947086954,0.5455555555555556,0.20777777777777776,-0.7,-0.1678520465881627,-0.0625,0.0232040931763254
1589550519.6845882,-1.016216073245168,-3.9575678535096643,8.829324109867752,0.5455555555555556,0.20777777777777776,-0.7,-0.04729908443540183,-0.10135045778229909,-0.043074771108850454
1589550519.6945882,-1.028224134515923,-3.9282241345159234,8.867758654840769,0.5455555555555556,0.20777777777777776,-0.7,0.13609915927548033,-0.1875,0.0
1589550519.7045882,-1.0213303672686034,-3.9186696327313966,8.952660734537206,0.5464424670679577,0.20940378221718184,-0.7,0.1875,-0.17087040914245835,-0.008314795428770828
1589550519.7145882,-1.0323302593659942,-3.9146605187319885,8.960678962536024,0.5522222222222222,0.22,-0.7,0.15837175792507205,-0.047935878962536024,-0.0625
1589550519.7245882,-1.0394197991391678,-3.9311604017216646,8.92477819225251,0.5522222222222222,0.22,-0.7,0.04799497847919656,0.007252510760401722,-0.06612625538020087
1589550519.7345881,-1.0319322493799419,-3.948067750620058,8.845796748139826,0.5522222222222222,0.22,-0.7,-0.16334688275072606,0.06461720687681513,-0.10084688275072605
1589550519.7445881,-1.04,-3.938706509072748,8.872586981854502,0.5522222222222222,0.22,-0.7,-0.04228920426169469,-0.18345784085233893,-0.004042159147661062
1589550519.7545881,-1.04,-3.924741801231896,8.900516397536208,0.5522222222222222,0.22,-0.7,0.17590935575162311,-0.13981812884967537,-0.047681871150324615
1589550519.764588,-1.0202467287053874,-3.9298766356473065,8.949506542589225,0.5258845271627387,0.22,-0.7,0.25,-0.06327102720433558,-0.0625
1589550519.774588,-1.02,-3.9468576118011796,8.899427164596462,0.5255555555555556,0.22,-0.7,0.03927985248525864,-0.16786007375737066,0.095540110636056
1589550519.784588,-1.0384072729835443,-3.9331854540329116,8.851592727016456,0.5255555555555556,0.22,-0.7,-0.19745454385284894,-0.125,-0.019909087705697874
1589550519.794588,-1.031017477712393,-3.947965044575214,8.858982522287606,0.5255555555555556,0.22,-0.7,-0.24364076429754394,-0.125,-0.11228152859508791
1589550519.804588,-1.02,-3.93,8.922412993039444,0.5262928589842742,0.22033513792214487,-0.699597834493426,0.30495939675174016,-0.07004060324825986,-0.11745939675174014
1589550519.814588,-1.02,-3.93,8.956860973656655,0.5368186308395331,0.22511957967453525,-0.6938565043905578,0.19730945732295752,-0.17769054267704248,-0.009809457322957515
1589550519.824588,-1.0242264013809395,-3.938452802761879,8.926754792404832,0.5377777777777778,0.2255555555555556,-0.6933333333333334,0.1478774870536931,-0.013207504315435633,0.0625
1589550519.834588,-1.0394687017352595,-3.968937403470519,8.842922140456073,0.5377777777777778,0.2255555555555556,-0.6933333333333334,0.004980921231943297,-0.06083969292268557,0.0625
1589550519.844588,-1.0282683534952444,-3.938268353495244,8.901731646504755,0.5377777777777778,0.2255555555555556,-0.6933333333333334,-0.05167720934527657,0.08170883738110629,-0.019208837381106292
1589550519.854588,-1.020521931849663,-3.930521931849663,8.909478068150337,0.5377777777777778,0.2255555555555556,-0.6933333333333334,-0.0032620740603933884,-0.11195170375842645,0.17445170375842645
1589550519.864588,-1.0280130185348633,-3.9159609443954104,8.963973962930275,0.5377777777777778,0.21333333333333332,-0.6855555555555556,0.17508136584289496,-0.07532546337157989,-0.07491863415710504
1589550519.874588,-1.022873774509804,-3.94,8.958446691176471,0.5377777777777778,0.21333333333333332,-0.6855555555555556,0.08907781862745098,0.11601945465686274,-0.125
