time,acc_x,acc_y,acc_z,mag_x,mag_y,mag_z,gyr_x,gyr_y,gyr_z
1589550641.9354706,-0.06,-4.14,8.95,0.5077777777777778,0.3033333333333333,-0.6144444444444445,-0.3125,-0.6875,-3.875
1589550641.9454706,-0.11781519941187282,-4.072548934019482,8.815097868038963,0.5077777777777778,0.3033333333333333,-0.6144444444444445,-0.2522758339459658,-0.5670516678919316,-3.8147758339459656
1589550641.9554706,-0.11591966173361523,-4.140560253699789,8.844640591966174,0.5034754521963825,0.30098661028893586,-0.6070131548038525,-0.014006342494714608,0.15499471458773784,-4.154003699788584
1589550641.9654706,-0.10276727964489536,-4.142976960473473,8.834675121538787,0.4955555555555556,0.2966666666666667,-0.5933333333333334,-0.5,-0.14360600295920523,-4.464098499260198
1589550641.9754705,-0.19082700193584645,-4.078684248870756,8.65966174725755,0.4955555555555556,0.2966666666666667,-0.5933333333333334,-0.3155546824587332,0.07377812701650674,-4.795112508066027
1589550641.9854705,-0.14322108416272103,-4.082259638612427,8.76205140593294,0.4955555555555556,0.2966666666666667,-0.5933333333333334,-0.4227265315489419,-0.3790568533191613,-4.966396209778723
1589550641.9954705,-0.0885228267667292,-4.13852282676673,8.829185324160933,0.4955555555555556,0.2966666666666667,-0.5933333333333334,-0.4170210548259329,-0.3371195538878466,-4.878077444235981
1589550642.0054705,-0.1146602374359464,-4.164660237435946,8.788057863076483,0.4878425651852559,0.2925135180057361,-0.604606165413002,-0.28762054807600496,0.1875,-4.54551187179732
1589550642.0154705,-0.08374398922869783,-4.16,8.856256010771302,0.4811111111111111,0.2888888888888889,-0.6144444444444445,-0.24371994614348913,-0.009420080784766305,-4.082759905751106
1589550642.0254705,-0.08378025249462484,-4.16,8.794391091019351,0.4811111111111111,0.2888888888888889,-0.6144444444444445,0.023626578091405254,0.16920378741937264,-3.7560987375268757
1589550642.0354705,-0.07003064351378957,-4.199969356486211,8.808488253319714,0.4811111111111111,0.2888888888888889,-0.6144444444444445,0.22318692543411645,0.241317671092952,-3.4465653728294177
1589550642.0454705,-0.046739358584688355,-4.233369679292345,8.883260641415312,0.4811111111111111,0.2888888888888889,-0.6144444444444445,0.18681851326854665,0.12636297346290667,-3.144016035382791
1589550642.0554705,-0.05817279777562731,-4.239086398887814,8.871827202224372,0.4811111111111111,0.2888888888888889,-0.6144444444444445,0.079630020853494,0.340739958293012,-2.858180055609317
1589550642.0654705,-0.07606367080248844,-4.13823445591353,8.801447190074027,0.4811111111111111,0.3033333333333333,-0.6055555555555555,0.02234082299377889,0.5848408229937789,-2.4799204114968894
1589550642.0754704,-0.12083639528137691,-4.006654418874493,8.714581802359312,0.4811111111111111,0.3033333333333333,-0.6055555555555555,-0.19795494101721137,0.16136264745697154,-2.3020450589827886
1589550642.0854704,-0.0933154255319149,-3.9149731382978725,8.771140957446809,0.4811111111111111,0.3033333333333333,-0.6055555555555555,-0.42713929521276595,-0.46891788563829784,-2.1492869015957448
1589550642.0954704,-0.07,-3.88,8.81,0.4811111111111111,0.3033333333333333,-0.6055555555555555,-0.5,-0.6875,-2.125
1589550642.1054704,-0.07683910875195309,-3.8526435649921877,8.804741336872071,0.4817257288537869,0.3033333333333333,-0.6066969885062391,-0.13487778515014662,-0.6003055371246334,-1.8799388925750733
1589550642.1154704,-0.040929774619550094,-3.9962809015217995,8.858605338070674,0.4887080993795319,0.3033333333333333,-0.6196642480540514,-0.24709445431390598,-0.3197638642152351,-1.9360472271569529
1589550642.1254704,-0.03861937579379125,-4.099916092360865,8.791548439484478,0.4888888888888889,0.3033333333333333,-0.62,-0.33943554935559767,-0.009153324033396491,-1.794717774677799
1589550642.1354704,-0.01,-4.162545936103294,8.745091872206588,0.4888888888888889,0.3033333333333333,-0.62,-0.18727031948352924,0.15636484025823538,-1.75
1589550642.1454704,-0.029714443174395817,-4.188171334095363,8.835771554539516,0.4888888888888889,0.3033333333333333,-0.62,-0.0985722158719791,0.25,-1.7746430539679947
1589550642.1554704,-0.07244177005510294,-4.157558229944897,8.872441770055103,0.4778295377287974,0.29457801366492753,-0.62,-0.3536814171258578,0.14631858287414218,-1.8643407085629289
1589550642.1654704,-0.09,-4.086644040870852,8.876661010217713,0.4622222222222222,0.2822222222222222,-0.62,-0.6389478102321551,-0.2501060584178792,-1.909710437953569
1589550642.1754704,-0.10179095032169602,-3.92960271420033,8.80497556516542,0.4622222222222222,0.2822222222222222,-0.62,-0.9107579193474669,-0.5133710403262666,-1.8258710403262666
1589550642.1854703,-0.11436410970791751,-3.6885539747425153,8.770723012628743,0.4622222222222222,0.2822222222222222,-0.62,-1.3090702002786088,-0.7897431432551554,-1.292083913768298
1589550642.1954703,-0.12831573036712213,-3.579473782721463,8.81,0.4622222222222222,0.2822222222222222,-0.62,-1.5763155431963423,-1.2151310863926843,-0.40329119762560495
1589550642.2054703,-0.16196074761357257,-3.523398753977379,8.81,0.4622222222222222,0.2822222222222222,-0.62,-1.7165031150565524,-1.4955062301131046,0.5780218053958661
1589550642.2154703,-0.21527234389396838,-3.3384008434332695,8.81,0.4622222222222222,0.3088888888888889,-0.6411111111111111,-1.5954521493373024,-1.5659042986746048,3.3886171946984196
1589550642.2254703,-0.2524321355163371,-3.2566493018640585,8.81,0.4622222222222222,0.3088888888888889,-0.6411111111111111,-1.8277008469771068,-2.0304016939542135,5.246606775816854
1589550642.2354703,-0.21802791887187867,-2.950984264554399,8.77831065960999,0.4622222222222222,0.3088888888888889,-0.6411111111111111,-2.517604695769545,-2.4876744929492416,8.308987940894399
1589550642.2454703,-0.16891215121512151,-2.7332635463546358,8.885216201620162,0.4622222222222222,0.3088888888888889,-0.6411111111111111,-1.1969160666066607,-1.5108100810081009,13.013854635463547
1589550642.2554703,-0.15,-2.79,8.854729925155397,0.46554041749474956,0.3079129491028514,-0.6399399833678662,0.7027067740707852,-0.3378345807433718,19.335280032982368
1589550642.2654703,-0.16269918043799542,-2.828097541313986,8.868097541313986,0.4811111111111111,0.3033333333333333,-0.6344444444444445,0.04860271395942495,-0.9881096332124144,23.446493349455864
1589550642.2754703,-0.20353192421421532,-2.9066170189464464,8.912787208410908,0.4811111111111111,0.3033333333333333,-0.6344444444444445,0.003723579016537082,-1.4365691052458658,27.124336053006243
1589550642.2854702,-0.2297803401286043,-2.900054914967849,8.840604064646339,0.4811111111111111,0.3033333333333333,-0.6344444444444445,0.4958813774113303,-1.3135296556471674,29.79019079431137
1589550642.2954702,-0.21560102094559008,-2.9756010209455903,8.862800510472795,0.4811111111111111,0.3033333333333333,-0.6344444444444445,0.41248404772515496,-1.6850223331847831,34.84766590365839
1589550642.3054702,-0.22774894514767932,-3.0012552742616037,8.883506329113924,0.48286193155180496,0.30183263009845285,-0.6326936240037506,0.17343090717299578,-2.070345464135021,37.89095464135021
1589550642.3154702,-0.2327951574887508,-3.0613252624812515,8.887349475037498,0.4888888888888889,0.2966666666666667,-0.6266666666666667,0.1516565781015642,-2.285843421898436,41.671985483179775
1589550642.3254702,-0.27171594811140787,-3.09,8.801045402518122,0.4888888888888889,0.2966666666666667,-0.6266666666666667,0.21012077928271652,-2.1821376621518502,44.631038964135826
1589550642.3354702,-0.31,-3.10038243270962,8.75,0.4888888888888889,0.2966666666666667,-0.6266666666666667,0.25,-2.1273902044351254,47.922804088702506
1589550642.3454702,-0.31816664869112365,-3.122041662172781,8.776541608246152,0.4888888888888889,0.2966666666666667,-0.6266666666666667,0.30104155431952295,-2.301041554319523,51.08958176047332
1589550642.3554702,-0.344016301249557,-3.128504075312389,8.860552979061062,0.4888888888888889,0.2966666666666667,-0.6266666666666667,0.46260188280973147,-2.4626018828097314,53.35142635933624
1589550642.3654702,-0.39241513273517714,-3.2291416150217374,8.858962168162057,0.4955555555555556,0.2888888888888889,-0.6266666666666667,0.40518915918971415,-3.082959485709,58.550527240773285
1589550642.3754702,-0.3783863961019901,-3.1461287987006634,8.900162808445687,0.4955555555555556,0.2888888888888889,-0.6266666666666667,0.15321996751658415,-3.2268225446646968,62.49088727667652
1589550642.3854702,-0.4218274340015182,-3.167309736006073,8.81,0.4955555555555556,0.2888888888888889,-0.6266666666666667,0.5342643875284658,-2.7842643875284656,65.45749458798392
1589550642.3954701,-0.4219409899006761,-3.2,8.836863366997747,0.4955555555555556,0.2888888888888889,-0.6266666666666667,0.5531831650112679,-3.222923274351056,68.71729457057008
1589550642.4054701,-0.4073354498855998,-3.2073354498856,8.911222574980933,0.4962347638782963,0.28807383890160004,-0.6276175583185037,0.21806437452333233,-3.9694356254766676,70.77507937070999
1589550642.4154701,-0.4519706993490715,-3.251970699349071,8.918661783224845,0.5003676573471362,0.28311436673899204,-0.6334036091748797,0.40404458062113124,-3.783455419378869,72.44890122559018
1589550642.42547,-0.4442131555748024,-3.1872335555314972,8.924086177830706,0.5011111111111111,0.2822222222222222,-0.6344444444444445,0.1957483335137727,-3.8494613885580833,74.47525499945868
1589550642.43547,-0.4182651530383408,-3.219668558702074,8.852729170855437,0.5011111111111111,0.2822222222222222,-0.6344444444444445,-0.047514190265555145,-4.295442682153518,75.20504257079666
1589550642.44547,-0.4703182554042472,-3.249787829730502,8.838620893248262,0.5011111111111111,0.2822222222222222,-0.6344444444444445,0.7526521283687267,-3.4348478716312734,75.49270664698601
1589550642.45547,-0.4942834015808018,-3.233811065612799,8.734771926483193,0.5011111111111111,0.2822222222222222,-0.6344444444444445,0.9523616798400152,-3.235138320159985,74.94350538043996
1589550642.46547,-0.5107897092676272,-3.302892616591355,8.860523488788472,0.52,0.25,-0.6344444444444445,0.23192114630403274,-4.0937220244692645,73.62167224401057
1589550642.47547,-0.5197297297297298,-3.2224324324324325,8.753243243243244,0.52,0.25,-0.6344444444444445,0.7347972972972974,-3.0320945945945947,72.16891891891892
1589550642.48547,-0.5705068990559187,-3.258387073347858,8.828893972403776,0.52,0.25,-0.6344444444444445,0.9311637618010167,-3.2632489106753813,69.29032316630357
1589550642.49547,-0.5957021762317322,-3.2734684979697235,8.877766321737992,0.52,0.25,-0.6344444444444445,0.6565148949308584,-2.990693007241631,67.62394042027657
1589550642.50547,-0.5800052394229149,-3.1400445350947774,8.760039295671863,0.52,0.25,-0.6344444444444445,0.9998853876237346,-2.5001637319660936,66.25045844950506
1589550642.51547,-0.609589978828511,-3.169589978828511,9.006583156904258,0.5397266525523406,0.21164262003711545,-0.661842572989362,0.4451878969654198,-3.1164578922606445,64.21568895553987
1589550642.52547,-0.6328673183299235,-3.115734636659847,8.88265363340153,0.54,0.2111111111111111,-0.6622222222222223,0.26792073956202167,-2.9466829582480867,61.24777411532924
1589550642.53547,-0.6620316483314577,-3.1331473783330654,8.799800188328243,0.54,0.2111111111111111,-0.6622222222222223,0.2731577708366827,-2.9873021979283894,58.74328650008039
1589550642.54547,-0.7196178596965123,-3.1568312544688966,8.893933026138079,0.54,0.2111111111111111,-0.6622222222222223,0.2325837173274013,-2.416997696035592,55.86096518233098
1589550642.55547,-0.7545902452637128,-3.1950817028929337,8.78,0.5393624659355954,0.21034607023382565,-0.6622222222222223,0.375,-1.6700838733682677,52.9846264456916
1589550642.56547,-0.8048688855829651,-3.0978426626995583,8.756209783067256,0.5344444444444445,0.20444444444444448,-0.6622222222222223,0.4493444279148256,-2.6301027488509447,50.43567511157493
1589550642.57547,-0.8498277589579656,-3.167026337134405,8.731940216613388,0.5344444444444445,0.20444444444444448,-0.6622222222222223,0.4560853929099671,-2.968211746743642,48.896814912448114
1589550642.58547,-0.8921382661859225,-3.2601152218216023,8.872483931650729,0.5344444444444445,0.20444444444444448,-0.6622222222222223,-0.011923890891989336,-2.961347781783979,47.534331399905945
1589550642.59547,-0.9410136577037985,-3.2989863422962014,9.034526248399487,0.5344444444444445,0.20444444444444448,-0.6622222222222223,0.20143779342723006,-2.5409597737942806,46.41722684592403
1589550642.60547,-0.975439443185922,-3.264560556814078,8.84862700679602,0.5344444444444445,0.20444444444444448,-0.6622222222222223,0.6747923438064283,-1.8094118322991561,45.72871113628156
1589550642.61547,-1.0798078668086954,-3.329423600426086,9.108559001065215,0.5522222222222222,0.17,-0.6622222222222223,-0.31129916755434567,-3.432696670217383,44.24579708644021
1589550642.62547,-1.063260346392078,-3.279781039176234,8.984452597940585,0.5522222222222222,0.17,-0.6622222222222223,-0.20787716495048725,-3.019008659801949,43.8838200773267
1589550642.63547,-1.1493259907594195,-3.3917016984447192,8.9276242923147,0.5522222222222222,0.17,-0.6622222222222223,0.7054554809006313,-1.579558672805362,43.40890890381987
1589550642.64547,-1.1015611375024403,-3.3098190928613263,8.961742044641115,0.5522222222222222,0.17,-0.6622222222222223,1.3451633370208889,-0.25749577015682945,43.28096733259582
1589550642.65547,-1.1389182618329536,-3.143245214501139,8.754759647935003,0.5522222222222222,0.17,-0.6622222222222223,0.643930417923309,-1.2827522004062288,42.088191281467346
1589550642.66547,-1.0586159715826866,-3.0314879621102486,9.084578783493399,0.5351416236655021,0.15894784799271047,-0.6752838564126552,-0.7879171600228039,-3.2905840240319257,41.214749703986314
1589550642.6754699,-1.1102202643171806,-2.932802863436123,8.830110132158591,0.5333333333333333,0.15777777777777774,-0.6766666666666666,-0.17411205947136563,-2.122935022026432,40.672735407488986
1589550642.6854699,-1.0229141944317663,-2.835225924235509,8.86894568690096,0.5333333333333333,0.15777777777777774,-0.6766666666666666,0.2682137151985395,-2.9029552715654954,40.222044728434504
1589550642.6954699,-0.9426254211905652,-2.793938131785848,9.076061868214152,0.5333333333333333,0.15777777777777774,-0.6766666666666666,-0.16795558779483338,-3.2917534397229504,39.37379785192812
1589550642.7054698,-0.9731804086099963,-2.8390383679922166,9.030961632007784,0.5339842177091356,0.1569641723080249,-0.6797583674517276,0.5580612306943937,-1.289479584701447,37.85956121549313
1589550642.7154698,-1.111397761052432,-3.0201688697742077,8.908305188370965,0.5377777777777778,0.15222222222222226,-0.6977777777777778,1.2778102797630342,-0.5010554360887989,35.58157427318533
1589550642.7254698,-1.233010883821533,-3.145660737706804,8.878072205987253,0.5377777777777778,0.15222222222222226,-0.6977777777777778,0.2326718861455625,-1.7552794012747648,33.47513604776916
1589550642.7354698,-1.1186160300108912,-2.9475442700980192,8.860312210076236,0.5377777777777778,0.15222222222222226,-0.6977777777777778,-0.5385018756806905,-2.4933015005445522,31.86355431406559
1589550642.7454698,-1.110156710096406,-2.871410390867654,8.801096970674843,0.5377777777777778,0.15222222222222226,-0.6977777777777778,-0.009794381025372112,-2.0703355048202976,30.647527076358354
1589550642.7554698,-1.1623515665983117,-2.941983404072679,8.806543945824789,0.5377777777777778,0.15222222222222226,-0.6977777777777778,-0.08179932280986217,-1.9807006771901379,29.888806094711242
1589550642.7654698,-1.1437690512151586,-2.92452286145819,9.02266236441027,0.5336683601080141,0.13270248829084474,-0.7111333852045097,-0.7606755457915694,-2.2842321158863106,28.51759233832212
1589550642.7754698,-1.1115606324701197,-2.830288222111554,8.92531810258964,0.5333333333333333,0.13111111111111112,-0.7122222222222222,-0.28938931772908366,-1.0061511765438247,27.127174894173308
1589550642.7854698,-1.1235375259566895,-2.9447167012755857,8.895519133788193,0.5333333333333333,0.13111111111111112,-0.7122222222222222,1.1919219074458618,0.3139739691486206,26.07193711064966
1589550642.7954698,-1.2401841070898842,-3.100245476119846,8.747766797686147,0.5333333333333333,0.13111111111111112,-0.7122222222222222,1.3377301338623555,0.3625767112874518,24.322238393651734
1589550642.8054698,-1.3302520328336354,-3.240063008208409,9.040189024625226,0.5334453479260601,0.13102009925452063,-0.7123132340788126,-1.1214557882770049,-1.4933053778565648,21.04911075571313
1589550642.8154697,-1.3625792901460558,-3.248144822536514,9.064434467609543,0.5478130178426914,0.11934636744725766,-0.7239869658860757,-0.6668537323210914,-0.6346126054953949,19.33172521099079
1589550642.8254697,-1.3591995630747347,-3.2091995630747348,8.83712061169537,0.5511111111111111,0.11666666666666667,-0.7266666666666667,0.6400081923487273,0.2305098308184728,16.336019661636946
1589550642.8354697,-1.4021338084787378,-3.258535233914952,8.812007127181069,0.5511111111111111,0.11666666666666667,-0.7266666666666667,-0.36505345385802135,-0.7141726059842246,13.97988418330762
1589550642.8454697,-1.411088262608267,-3.2812938991338627,8.928911737391733,0.5511111111111111,0.11666666666666667,-0.7266666666666667,-1.1343720978716145,-0.7104753804749541,11.892458967458257
1589550642.8554697,-1.4190375831548623,-3.2176993347611016,8.920962416845137,0.5511111111111111,0.11666666666666667,-0.7266666666666667,-0.2897567897958797,0.034773420768341445,10.650377632052765
1589550642.8654697,-1.4851463864955161,-3.3030292772991032,9.00030969755583,0.5511111111111111,0.09777777777777777,-0.7588888888888888,-0.3825308818357658,0.10036596623879022,8.600471744768772
1589550642.8754697,-1.5542960431832813,-3.3051225672262663,8.872642995097312,0.5511111111111111,0.09777777777777777,-0.7588888888888888,-1.0526791462387957,0.369323527955232,6.990179146238796
1589550642.8854697,-1.3877197765061053,-3.138897174784842,8.68551412607579,0.5511111111111111,0.09777777777777777,-0.7588888888888888,-0.29824860316315954,0.8483615329157843,5.946256984184203
1589550642.8954697,-1.4544832630098452,-3.1341383966244725,8.728620534458509,0.5511111111111111,0.09777777777777777,-0.7588888888888888,-0.7025879043600562,-0.3383579465541491,3.9806012658227847
1589550642.9054697,-1.5311722925457103,-3.204928270042194,8.705023909985934,0.5511111111111111,0.09777777777777777,-0.7588888888888888,-0.9606759845288326,0.2884273909985935,3.6487737341772153
1589550642.9154696,-1.5860866786498902,-3.2986934291991212,8.793473537048133,0.5511111111111111,0.06937327741162373,-0.7629466746554823,-1.3152087078090673,0.6114165168763731,4.046167864989015
1589550642.9254696,-1.559524643482612,-3.348001751313485,9.069718288716537,0.5511111111111111,0.05111111111111112,-0.7655555555555555,-0.6845290217663247,0.2589129347010258,5.0559529021766325
1589550642.9354696,-1.4775266189561878,-3.165376156397277,8.656128469191831,0.5511111111111111,0.05111111111111112,-0.7655555555555555,-0.2392433234421365,1.8232566765578635,4.899197067551056
1589550642.9454696,-1.5287748298132309,-3.201982021295165,8.765946063885494,0.5511111111111111,0.05111111111111112,-0.7655555555555555,-1.0171179525222551,1.0453820474777449,4.212837100715657
1589550642.9554696,-1.6174312504924748,-3.330448611877183,8.927655556431066,0.5511111111111111,0.05111111111111112,-0.7655555555555555,-1.6714453155779687,0.12219617576760433,3.0946093688440626
1589550642.9654696,-1.696570940419499,-3.36997128212585,8.93002871787415,0.5518507882268833,0.028920797637944758,-0.752981044587428,-1.5835726489512523,0.2080341888109346,3.1871410265731215
1589550642.9754696,-1.7223751092692718,-3.3037510926927185,8.782751966846893,0.5522222222222222,0.017777777777777778,-0.7466666666666667,-0.7851664939942371,1.40857804254217,4.599200310810373
1589550642.9854696,-1.7065650840482938,-3.2665650840482936,8.585498466555379,0.5522222222222222,0.017777777777777778,-0.7466666666666667,-0.3525794382545906,1.9599205617454094,6.721348606312357
1589550642.9954696,-1.8099275482321768,-3.4098695868179183,8.969826115757225,0.5522222222222222,0.017777777777777778,-0.7466666666666667,-2.1241849176119896,-0.8743660470315475,8.940941458971599
1589550643.0054696,-1.766515483977809,-3.331727871160056,8.865637161546742,0.5522222222222222,0.017777777777777778,-0.7466666666666667,-1.6357991947503518,-0.49451048480582926,11.003014511054069
1589550643.0154696,-1.8126548015116768,-3.373572951322717,8.918982202267514,0.5722222222222222,0.0,-0.7944444444444444,-0.9713078184049873,-0.0739768726380051,14.263968070674117
1589550643.0254695,-1.7584631286540262,-3.326155237572273,8.83769469298104,0.5722222222222222,0.0,-0.7944444444444444,-0.7596215963047902,-0.1586513614780839,16.21148131399593
1589550643.0354695,-1.7397382613072554,-3.2895139138563314,8.978878262745381,0.5722222222222222,0.0,-0.7944444444444444,-1.0617989142158626,-0.7483641331703459,18.63014129575034
1589550643.0454695,-1.671164821168108,-3.1609318569344866,8.683106189781622,0.5722222222222222,0.0,-0.7944444444444444,-0.8793680793804055,-0.3280309489081086,20.00922150091419
1589550643.0554695,-1.8004137477658855,-3.2643309982127082,9.02776999404236,0.5722222222222222,0.0,-0.7944444444444444,-1.36405155412207,-2.0513499702118043,21.032442169813258
1589550643.0654695,-1.8701313985089885,-3.28,8.96,0.5066666666666667,-0.09,-0.6966666666666667,-1.2360389084199765,-2.044432705014087,23.799274440870672
1589550643.0754695,-1.881888473756768,-3.283776947513536,8.959055763121617,0.5066666666666667,-0.09,-0.6966666666666667,-0.1934014804899003,-0.7347118439192024,27.65638923298236
1589550643.0854695,-1.9154086831431938,-3.3508173662863876,8.942295658428403,0.5066666666666667,-0.09,-0.6966666666666667,-0.29815213482248104,-1.5727170785798485,30.43228157279575
1589550643.0954695,-1.8587074804334738,-3.2646560806742926,8.926379440096328,0.5066666666666667,-0.09,-0.6966666666666667,-0.5678854981938591,-1.9854497478928357,32.685326986754966
1589550643.1054695,-1.7935813804360499,-3.18358138043605,8.78160924565699,0.5066666666666667,-0.09,-0.6966666666666667,0.31401203800862776,-1.2600577853561852,35.52000080156232
1589550643.1154695,-2.0127791651801643,-3.3736817695326433,8.923982637650136,0.501278260065274,-0.06629101095387219,-0.6341611500905115,-0.46427191104768695,-2.089271911047687,37.88672850517303
1589550643.1254694,-1.929231094893454,-3.305734532185553,8.996013749168396,0.5011111111111111,-0.06555555555555556,-0.6322222222222222,-0.757866207689051,-2.17657324153781,39.43312400459649
1589550643.1354694,-1.919953033385186,-3.250187866459256,8.78108023214072,0.5011111111111111,-0.06555555555555556,-0.6322222222222222,1.0536937597223885,-0.9433708268517411,42.36267126361135
1589550643.1454694,-1.8665834327595023,-3.1698751491392536,8.646458581898756,0.5011111111111111,-0.06555555555555556,-0.6322222222222222,0.8399309698312596,-1.2713535452531106,43.98862546872337
1589550643.1554694,-1.8521148282291422,-3.2230813741668634,9.166191680418336,0.5011111111111111,-0.06555555555555556,-0.6322222222222222,-0.41955808919654536,-2.8402520306037164,44.631040912110755
1589550643.1654694,-1.840178111005564,-3.1013336273578505,8.63960035282942,0.5222222222222223,-0.031111111111111114,-0.64,0.8786109886008956,-1.094998897408061,45.834165931605376
1589550643.1754694,-1.7192269982358528,-2.994612057266929,8.511534468720315,0.5222222222222223,-0.031111111111111114,-0.64,0.9230783094721129,-1.4952047852490162,46.10096985683268
1589550643.1854694,-1.8136882539254668,-2.9886474829840286,9.367621133499561,0.5222222222222223,-0.031111111111111114,-0.64,-1.3901079924523216,-5.802757935170834,45.35194841296583
1589550643.1954694,-1.866578720963579,-2.912368798394035,8.781187266991683,0.5222222222222223,-0.031111111111111114,-0.64,-0.2870124749067966,-3.185868941783768,46.671046028104385
1589550643.2054694,-1.710803658843604,-2.771562561190523,8.6422990852891,0.5222222222222223,-0.031111111111111114,-0.64,1.1728509888388488,-0.7887843016587877,48.86021112478671
1589550643.2154694,-1.806268003725282,-2.931510255355093,9.155072014901128,0.5432668895097692,-0.02760366656318661,-0.6128173047535851,0.6844718546273635,-2.374290680297156,49.68073438955188
1589550643.2254694,-1.8022124352331608,-2.8423177892918825,8.628630397236616,0.5488888888888889,-0.02666666666666667,-0.6055555555555555,0.7506584628670121,-0.9460600172711572,50.62170768566494
1589550643.2354693,-1.9712400690846286,-3.0193943580886584,8.52399424294761,0.5488888888888889,-0.02666666666666667,-0.6055555555555555,0.8009643062751871,-1.6000359815774323,50.37017846862406
1589550643.2454693,-1.9693150581483159,-3.0355890348889893,9.01263026733122,0.5488888888888889,-0.02666666666666667,-0.6055555555555555,-0.5606167874943364,-5.106507702763933,50.36335617731461
1589550643.2554693,-1.609700242918799,-2.606381689111106,8.763407230961533,0.5488888888888889,-0.02666666666666667,-0.6055555555555555,-0.7731686752670928,-4.653024103205113,51.74972288389425
1589550643.2654693,-1.3459213653056816,-2.3627370922445454,8.670796068265284,0.5488888888888889,-0.01950805309522095,-0.5973742829024747,1.2633600669691076,-1.2686730395333763,50.85448395981854
1589550643.2754693,-1.5226789096598865,-2.5185940459524008,9.12761241044223,0.5488888888888889,-0.01888888888888889,-0.5966666666666667,1.0862624042658322,-3.3081327719673888,47.08709364448654
1589550643.2854693,-1.5873145027550422,-2.585971754132563,9.265971754132563,0.5488888888888889,-0.01888888888888889,-0.5966666666666667,0.24249050446691278,-3.2257061466859254,43.48210894452469
1589550643.2954693,-1.6127171862182117,-2.4915588597210827,8.550622436423298,0.5488888888888889,-0.01888888888888889,-0.5966666666666667,1.7814614950779328,-0.19069678014766245,42.35258793068088
1589550643.3054693,-1.56601176386199,-2.4384047055447957,9.00565059895273,0.5488888888888889,-0.01888888888888889,-0.5966666666666667,0.9965367441360018,-2.4218088731080982,40.032955849652105
1589550643.3154693,-1.6417543319553172,-2.44148605858035,9.231899023660832,0.5401353094672647,-0.014114209204366651,-0.6173569452995964,-0.08023737795760401,-4.140222315067288,36.41473249626176
1589550643.3254693,-1.7246189863045769,-2.4015334191735924,8.619181786257755,0.5366666666666666,-0.012222222222222223,-0.6255555555555555,0.1971423972843263,-2.1055981505326,35.341310136954235
1589550643.3354692,-1.9090249183316872,-2.499311707057662,8.628738129605713,0.5366666666666666,-0.012222222222222223,-0.6255555555555555,1.0581981691103852,-2.928537852313302,35.995339683202914
1589550643.3454692,-1.7664268169091502,-2.3636054760636926,8.500784135218234,0.5366666666666666,-0.012222222222222223,-0.6255555555555555,2.1841654928972636,-0.5147025353419106,37.256265352044935
1589550643.3554692,-1.6734737053047435,-2.3026947410609484,8.712989321805846,0.5366666666666666,-0.012222222222222223,-0.6255555555555555,-0.2514457072514382,-3.53473454810913,37.61302639489279
1589550643.3654692,-1.6320548651279994,-2.1230141458106635,8.912465494530668,0.5646118015386671,-0.0132572272174815,-0.6141705006077035,-1.4871570929500029,-5.989723526716683,38.43578546475001
1589550643.3754692,-1.721435867257939,-2.1931235156890354,8.504382421554823,0.5666666666666667,-0.013333333333333334,-0.6133333333333333,1.409323049116244,-1.0231368613522207,40.83784887875412
1589550643.3854692,-1.7127124235597038,-2.0940278001287416,8.611013035082072,0.5666666666666667,-0.013333333333333334,-0.6133333333333333,1.2751737508046346,-2.0892050712101704,42.46369463107499
1589550643.3954692,-1.1814855570839065,-2.315983493810179,9.745392022008252,0.5666666666666667,-0.013333333333333334,-0.6133333333333333,-0.5260488308115543,-4.63058803301238,42.00687757909216
1589550643.4054692,-1.1265327268132423,-2.2381572740291467,8.220533653441159,0.5666666666666667,-0.013333333333333334,-0.6133333333333333,4.034659043046078,2.575596516721422,32.45748304692107
1589550643.4154692,-1.2051596298610492,-2.823670742955756,8.529841113987324,0.5604609876322811,-0.04332744866619723,-0.6391903293099401,3.1103703621053884,4.459108795263173,14.449122630842929
1589550643.4254692,-0.7450537482983617,-2.860701074965967,9.52919142843731,0.56,-0.045555555555555564,-0.6411111111111111,-1.5376076726282681,-3.8152959677040794,4.1879298103553495
1589550643.4354692,-1.0377942060343792,-3.3563740834234883,8.672810674359898,0.56,-0.045555555555555564,-0.6411111111111111,0.4078525063108547,0.7135518091116717,-7.680123812958287
1589550643.4454691,-0.7321707096684507,-3.1441280322513383,9.028892982090314,0.56,-0.045555555555555564,-0.6411111111111111,0.7332444220476819,1.1194148073492274,-19.365143011051643
1589550643.4554691,-0.6604112095131179,-3.1991775809737644,8.777042950397073,0.56,-0.045555555555555564,-0.6411111111111111,-0.09126179784624333,0.7291120951311796,-31.819277264978588
1589550643.4654691,-0.5571002203100969,-3.0474718377187515,8.879163860830527,0.562949199355235,-0.071361049913862,-0.6366873120782586,-0.47839246373196986,1.9106665939227667,-48.0424239826246
1589550643.475469,-0.36493663756688255,-2.96,9.032170012471337,0.5644444444444444,-0.08444444444444445,-0.6344444444444445,-0.8539219334593877,2.4653593555135376,-66.89258056080783
1589550643.485469,-0.36197196153400535,-3.140593210520218,9.298376781369482,0.5644444444444444,-0.08444444444444445,-0.6344444444444445,-1.1684118294519754,2.5052354883559262,-96.15999739311783
1589550643.495469,-0.2813374509068983,-3.0203259293059337,8.552478203477666,0.5644444444444444,-0.08444444444444445,-0.6344444444444445,0.025797304564640022,6.375720100060297,-119.10738657660154
1589550643.505469,-0.22658149438637246,-2.541086122549537,8.486965121599269,0.5644444444444444,-0.08444444444444445,-0.6344444444444445,-0.5431316650828846,7.9586654876289025,-146.00799370006686
1589550643.515469,-0.7374155187791102,-2.5970072341690615,9.595510851253593,0.5756009205122276,-0.10241876699809511,-0.6301058148625288,-4.056975274997523,3.4247411059359827,-176.10716232286197
1589550643.525469,-1.0278905484818806,-2.743793258243552,8.593835292197193,0.5844444444444444,-0.11666666666666667,-0.6266666666666667,-4.936359880019588,6.19548083986288,-203.84772639160954
1589550643.535469,-1.0650753427564839,-2.922433464917866,8.523244619890487,0.5844444444444444,-0.11666666666666667,-0.6266666666666667,-1.9962328621758139,10.302941550999618,-214.34856901820962
1589550643.545469,-0.9264562886101677,-3.201785360896425,8.872966598026368,0.5844444444444444,-0.11666666666666667,-0.6266666666666667,-1.1433724226459498,8.929948452918996,-221.2523099243174
1589550643.555469,-1.055317072180848,-3.49886178696808,8.246959353882993,0.5844444444444444,-0.11666666666666667,-0.6266666666666667,0.49288616855049816,13.69351042026015,-224.57494191237646
1589550643.565469,-0.9013580131501044,-3.472071920476146,8.545212053223645,0.7275708315588656,-0.26483271529920127,-0.5641748638420603,-1.2053476831510395,12.835278972297528,-229.4629296375931
1589550643.575469,-0.88,-3.46,8.6,0.7422222222222222,-0.28,-0.5577777777777778,-1.4375,12.5625,-229.875
1589550643.585469,-0.8885478674440013,-3.7420796256520403,8.18115449524394,0.7422222222222222,-0.28,-0.5577777777777778,-0.6895615986498926,13.043317543725069,-233.13387446302548
1589550643.595469,-0.8644978902953586,-3.79,8.50528270042194,0.7422222222222222,-0.28,-0.5577777777777778,-1.1602056962025316,11.531118143459915,-234.20551160337553
1589550643.605469,-0.8941907327307105,-3.8231430495480327,9.221621901629154,0.7422222222222222,-0.28,-0.5577777777777778,-3.536916586806185,7.724983164547126,-234.36190396021652
1589550643.615469,-1.1006643598615917,-4.206843661528782,8.751163258886441,1.4033311313830346,-0.18949617280067108,-0.2776468840655692,-3.151163888015099,9.011314485687322,-229.9833910034602
1589550643.625469,-1.2659719292011815,-4.302268538053254,8.693286548668636,1.5944444444444446,-0.16333333333333333,-0.19666666666666666,-0.5329912389793243,11.705435663683405,-221.35678951342467
1589550643.635469,-1.307743447063992,-4.183848294040123,9.00553375311173,1.5944444444444446,-0.16333333333333333,-0.19666666666666666,-2.9864822814467713,8.460966100453946,-209.21781190511055
1589550643.645469,-1.3503846153846155,-4.093461538461539,8.603461538461538,1.5944444444444446,-0.16333333333333333,-0.19666666666666666,-2.2091346153846154,8.485576923076923,-191.31971153846155
1589550643.655469,-1.2717452052071947,-3.9781675444698403,8.863385670277253,1.5944444444444446,-0.16333333333333333,-0.19666666666666666,-1.5154886713703668,7.264943356851834,-174.55421097088345
1589550643.665469,-1.2836410104011888,-4.029619019316493,8.779457949479939,1.024828000660393,0.14829539375928674,-0.5466104011887073,-1.518681277860327,5.748306092124814,-154.71067236255573
1589550643.675469,-1.249089143564462,-4.089091917963164,8.918189384723734,0.8511111111111112,0.2433333333333333,-0.6533333333333333,-1.653412243634889,4.99998266000811,-136.69838284567942
1589550643.685469,-0.8876091672408952,-3.7576091672408953,9.007443278973025,0.8511111111111112,0.2433333333333333,-0.6533333333333333,-1.5944590128371998,3.696008154046398,-116.93908550902177
1589550643.695469,-0.7632522404463984,-3.498297049374366,8.348719563747041,0.8511111111111112,0.2433333333333333,-0.6533333333333333,-0.2551215864896854,4.788572402350355,-100.7193497421373
1589550643.705469,-0.7038068884693014,-3.5899342405104497,8.617866397551923,0.8511111111111112,0.2433333333333333,-0.6533333333333333,0.34798408099485645,5.067745295917703,-89.90931619897128
1589550643.715469,-0.6411223967560332,-3.683214834061651,9.231505846226527,0.7763438884733322,0.27237514708519783,-0.6653825964857026,0.034440081099169295,3.6136840085036024,-79.56267469784655
1589550643.7254689,-0.7077412576231699,-3.4770489481738656,8.863132865855052,0.5822222222222222,0.3477777777777778,-0.6966666666666667,-0.2831293826088943,2.6267045065210937,-64.18330440145269
1589550643.7354689,-0.7539881755671229,-3.8397635113424586,8.872023648865754,0.5822222222222222,0.3477777777777778,-0.6966666666666667,0.32477829188355506,2.0451911027568923,-48.064859665188614
1589550643.7454689,-0.76,-4.021460700645952,8.61415719741619,0.5822222222222222,0.3477777777777778,-0.6966666666666667,0.2454353104813994,2.2248072752133528,-30.53106876797586
1589550643.7554688,-0.4956043808757922,-3.9846613820437704,8.736759530511037,0.5822222222222222,0.3477777777777778,-0.6966666666666667,0.30278878740881154,1.2318233385030732,-14.534036513680663
1589550643.7654688,-0.2332187984925737,-3.8290234981157174,8.71482819773886,0.5548008817951181,0.35799357127022835,-0.686988546515924,0.7984177565949899,0.25603524717357573,2.103481766792287
1589550643.7754688,-0.13,-3.7128067526763657,8.771311419160034,0.5255555555555556,0.3688888888888889,-0.6766666666666666,0.7297256725226462,-0.4577743274773538,18.73615066566017
1589550643.7854688,-0.1660749914000688,-3.6767100103199177,8.991009975920193,0.5255555555555556,0.3688888888888889,-0.6766666666666666,0.166937564499484,-2.32828087375301,26.818717750257996
1589550643.7954688,-0.19448909634599956,-3.6455109036540008,8.67501713952301,0.5255555555555556,0.3688888888888889,-0.6766666666666666,0.37944898256874043,-1.9866530522937786,32.965342608124864
1589550643.8054688,-0.09625515880136372,-3.6705131885878344,8.741387044679705,0.5255555555555556,0.3688888888888889,-0.6766666666666666,0.5762829714695855,-1.5487170285304146,38.76863897362283
1589550643.8154688,0.001286672254819786,-3.677485331098072,8.882514668901928,0.5276413337058768,0.3661078513551272,-0.6891813355685945,0.5467833193629505,-2.9470085917854147,44.8556422883487
1589550643.8254688,-0.07503328894806924,-3.741274966711052,8.931577063914782,0.5288888888888889,0.3644444444444445,-0.6966666666666667,0.017409079560585905,-3.923867135486019,48.49663989680426
1589550643.8354688,-0.2069787583529324,-3.9197713443088062,8.876276552058835,0.5288888888888889,0.3644444444444445,-0.6966666666666667,-0.15551853511031472,-3.8430185351103145,50.58287952178296
1589550643.8454688,-0.3117718896521644,-4.123543779304328,8.78354377930433,0.5288888888888889,0.3644444444444445,-0.6966666666666667,0.2341733907607313,-3.870247701086759,54.37890270054156
1589550643.8554688,-0.3352556356514855,-4.128466186091087,8.756932372182174,0.5288888888888889,0.3644444444444445,-0.6966666666666667,-0.02556356514854785,-4.512781782574274,61.51151089628735
1589550643.8654687,-0.36644184683286785,-4.463575393951933,9.050354470535499,0.5259509059074592,0.34755104230122336,-0.7010736411388113,0.5742000275852557,-4.626053842970932,68.17812316816662
1589550643.8754687,-0.40495221370961476,-4.510267603226158,8.930573435484623,0.5244444444444445,0.3388888888888889,-0.7033333333333334,1.2497610685480738,-4.281787595766834,71.30999121975478
1589550643.8854687,-0.42639747634069397,-4.35198738170347,8.666025236593061,0.5244444444444445,0.3388888888888889,-0.7033333333333334,1.8703470031545741,-3.0993690851735014,73.66072555205048
1589550643.8954687,-0.40079076277116865,-4.326403079076277,8.915689293212036,0.5244444444444445,0.3388888888888889,-0.7033333333333334,2.3097883135059485,-2.580519594121763,77.94117389783065
1589550643.9054687,-1.771599327610014,0.5336789337815935,3.448672630125473,0.5244444444444445,0.3388888888888889,-0.7033333333333334,-66.45584063756979,-5.574409407456325,-124.41723824818393
1589550643.9154687,-1.9158073281656705,-1.384049655330224,8.21267698292383,0.519986810700177,0.32360557319425776,-0.6995125044096756,-150.4205507565573,-47.87858613884042,-505.66646227224624
1589550643.9254687,-9.654407450007064,-12.89675262828662,6.581948866961277,0.5166666666666667,0.31222222222222223,-0.6966666666666667,-143.0361919103255,10.119657666929001,-561.532024991424
1589550643.9354687,-9.687782958160318,-10.232569631626234,6.218231951628177,0.5166666666666667,0.31222222222222223,-0.6966666666666667,-110.22139609285836,98.5270938053957,-379.3541029236784
1589550643.9454687,-0.8459220892511518,-1.1317076029768558,9.082976037946732,0.5166666666666667,0.31222222222222223,-0.6966666666666667,-32.189130523675814,50.51526592699615,-254.5411242946324
1589550643.9554687,-0.045304696138359794,-1.7165234806917988,6.6573928191433875,0.5166666666666667,0.31222222222222223,-0.6966666666666667,55.65747240940479,26.311130901466633,-218.0493853399537
1589550643.9654686,-0.8737627958531656,-1.6956435417617526,8.813168807459085,0.4525962269891983,0.40163920946440346,-0.6649834822107756,133.62007522657626,40.842197382147745,-184.21966893786268
1589550643.9754686,-1.35,-1.67,9.37,0.4155555555555556,0.4533333333333333,-0.6466666666666666,162.8125,34.5,-173.6875
1589550643.9854686,-1.4266230618038873,1.6188975758899322,3.6232703647084508,0.4155555555555556,0.4533333333333333,-0.6466666666666666,81.10579274950862,37.594392880541605,-114.19411307053943
1589550643.9954686,-0.5370746913428732,1.217550624677843,3.4428236911219656,0.4155555555555556,0.4533333333333333,-0.6466666666666666,-20.899666490758698,-6.828238138484579,-52.904546402886524
1589550644.0054686,0.8905237161545254,-1.1214969091916,7.614367843618566,0.4155555555555556,0.4533333333333333,-0.6466666666666666,-29.90925240604092,-27.53851536423643,-36.81047937465387
1589550644.0154686,2.1147061112691024,-1.6237255841104008,9.792784721078863,0.4155555555555556,0.4533333333333333,-0.6466666666666666,13.643390497073838,-2.191661926928205,-35.084068304620494
1589550644.0254686,3.8042647988808618,-8.039039342314547,5.96455397351628,0.3622222222222222,0.4833333333333333,-0.6911111111111111,11.918285169499644,18.870822394266334,-19.13795800356438
1589550644.0354686,1.992549466080402,-2.243384500628141,7.891714431532663,0.3622222222222222,0.4833333333333333,-0.6911111111111111,-7.9667576162060305,-5.915797247958543,3.0344790358040203
1589550644.0454686,2.1970495333811915,-2.1072481454893515,8.934791816223976,0.3622222222222222,0.4833333333333333,-0.6911111111111111,-0.2527219430485761,-5.997397702799713,15.812006460875807
1589550644.0554686,1.9755081396312981,-3.658834471131257,8.294832370581243,0.3622222222222222,0.4833333333333333,-0.6911111111111111,1.3802220087891435,2.1802154445703548,19.984366794726515
1589550644.0654685,1.4738620414337942,-3.8196346178089673,8.626870403832415,0.35981029354773947,0.4865492382326437,-0.685483277537318,0.4029473252931042,0.6753030844224062,20.308434361474134
1589550644.0754685,1.6375668508287293,-4.034179005524861,8.866961325966852,0.3555555555555556,0.4922222222222222,-0.6755555555555556,-0.23639502762430942,-0.9733701657458563,18.73806629834254
1589550644.0854685,1.4516347866166641,-3.9177760784395885,8.72911629758438,0.3555555555555556,0.4922222222222222,-0.6755555555555556,-0.38052314009763044,-0.9375,18.030835568079446
1589550644.0954685,1.2781375410434148,-4.016388179496534,8.646275082086829,0.3555555555555556,0.4922222222222222,-0.6755555555555556,0.6765664903319957,-0.5019039584093397,18.29444089748267
1589550644.1054685,1.2046368376379288,-4.052942079948264,8.767615698637888,0.3555555555555556,0.4922222222222222,-0.6755555555555556,1.1814472939654823,-0.2164802352370559,17.08671082413807
1589550644.1154685,1.1662738245477786,-4.113136912273889,8.875840533281558,0.34839206549525936,0.49998266978754313,-0.6713768530203827,0.43013421027084764,-0.17818456136944635,15.155870789243762
1589550644.1254685,1.12,-4.09,8.7,0.3422222222222222,0.5066666666666667,-0.6677777777777778,-0.4375,-0.0625,14.375
1589550644.1354685,1.2126415586674784,-4.054849091067235,8.846887014003654,0.3422222222222222,0.5066666666666667,-0.6677777777777778,-0.22429220666260763,-0.5716980516656519,13.077123380012177
1589550644.1454685,1.1510214040146391,-4.0387479205944325,8.516416768326494,0.3422222222222222,0.5066666666666667,-0.6677777777777778,-0.4243720195186869,-0.6598023178440723,11.46591854275258
1589550644.1554685,1.2135880315276872,-4.191091420252021,8.826875847181084,0.3422222222222222,0.5066666666666667,-0.6677777777777778,0.4785129775591144,-0.5732435112204428,10.332964129725388
1589550644.1654685,0.9699734773438998,-4.057086022879785,8.871443727232057,0.3422222222222222,0.5015805656746413,-0.670002946961789,0.3571191761999105,-0.625,8.678642471400268
1589550644.1754684,0.9481606461602312,-3.9562579213689406,8.824904943572717,0.3422222222222222,0.4888888888888889,-0.6755555555555556,-0.13728809839258066,-0.6641120085558766,9.144952072724951
1589550644.1854684,1.0084168435838907,-3.969648187463087,8.664221750442959,0.3422222222222222,0.4888888888888889,-0.6755555555555556,-1.0997134739093652,-0.7478011716442926,9.856309958976487
1589550644.1954684,1.1677153558052435,-4.02145443196005,8.655549313358302,0.3422222222222222,0.4888888888888889,-0.6755555555555556,-0.07603776529338327,-0.9133895131086143,11.0625
1589550644.2054684,1.1317152357545592,-4.097654226646564,8.783125425969144,0.3422222222222222,0.4888888888888889,-0.6755555555555556,0.3925847807678804,-0.5439406534624838,10.918940653462483
1589550644.2154684,0.933993371996686,-3.9660011046672192,8.800002761668049,0.34733192181410905,0.4913326582589217,-0.6755555555555556,0.6500448771057719,-0.3249792874896437,10.649993095829881
1589550644.2254684,1.000749368126238,-3.945612405218936,8.74391215246943,0.36777777777777776,0.5011111111111111,-0.6755555555555556,-0.027422467381651754,-0.6158591775394494,10.622028485552292
1589550644.2354684,0.849517447886675,-3.95903489577335,8.640241276056662,0.36777777777777776,0.5011111111111111,-0.6755555555555556,-0.26882269952781296,-0.48117730047218704,10.220621472993205
1589550644.2454684,0.8921924529519998,-4.029037735240001,8.641924529519997,0.36777777777777776,0.5011111111111111,-0.6755555555555556,-0.3552830143000097,-0.4358254785499855,11.417099083249944
1589550644.2554684,0.9837711814428937,-3.9760381364261845,8.709528602319638,0.36777777777777776,0.5011111111111111,-0.6755555555555556,0.02476164733634756,-0.9622616473363476,13.779462355022607
1589550644.2654684,1.1283460929250264,-3.9383460929250265,8.713307814149946,0.3661591795729203,0.4978739147013962,-0.6690811627361258,0.33317383843716997,-0.906489242344245,15.0
1589550644.2754683,1.0153690303907381,-4.004034410676958,8.788806882135392,0.3622222222222222,0.49,-0.6533333333333333,0.4524139733076057,-0.3456142466634507,14.735528219971057
1589550644.2854683,0.9870874009657797,-4.098161046888392,8.74685891673809,0.3622222222222222,0.49,-0.6533333333333333,-0.03448037084265318,-0.38649345694755105,14.363506543052448
1589550644.2954683,1.0866367050900143,-4.116996244009844,8.680269654189873,0.3622222222222222,0.49,-0.6533333333333333,-0.24887644087553426,-0.4579588136251781,13.997752881751069
1589550644.3054683,1.1050270249549585,-4.136817571970713,8.718101353164412,0.3622222222222222,0.49,-0.6533333333333333,0.21507599570667382,-0.4336570897381838,13.245819277801203
1589550644.3154683,1.1562376461867896,-4.035049415252841,8.693828240816998,0.3629189544098538,0.4876311105620527,-0.6551448370211753,0.6091176288914512,-0.5938529484434195,12.428838175341788
1589550644.3254683,1.130329846812716,-4.138680612749135,8.857910970186131,0.3677166950346822,0.4713187924376361,-0.6676189626457293,0.06937180859825398,-0.8097512765606985,10.647676968374238
1589550644.3354683,0.9756328052190121,-4.033872553588071,8.86,0.36777777777777776,0.4711111111111111,-0.6677777777777778,-0.05809937092264679,-0.5713012581547064,8.936608807082944
1589550644.3454683,0.886617527568195,-4.06323505513639,8.676617527568196,0.36777777777777776,0.4711111111111111,-0.6677777777777778,-0.4163595473012188,-0.6865786419036564,9.191185432385375
1589550644.3554683,0.8884176898020546,-4.06122358640274,8.69805896600685,0.36777777777777776,0.4711111111111111,-0.6677777777777778,-0.18209460870291488,-0.5625,9.897942245051366
1589550644.3654683,0.9128519745611029,-4.081444076316691,8.771425987280551,0.37078819537005303,0.4728539844540073,-0.6707881953700531,0.33923726151033934,-0.5535875794965536,10.473149682013785
1589550644.3754683,0.9288247838836209,-4.033525648349138,8.77941239194181,0.3876483829882665,0.48261514570665714,-0.6876483829882665,0.48898234890894554,-0.5036725503636849,10.672809798545261
1589550644.3854682,1.023546180159635,-4.103363740022805,8.76290763968073,0.3888888888888889,0.4833333333333333,-0.6888888888888889,-0.20966362599771948,-0.7295467502850628,9.830672748004561
