time,acc_x,acc_y,acc_z,mag_x,mag_y,mag_z,gyr_x,gyr_y,gyr_z
1589550651.8058176,-0.39,-2.64,9.36,0.4988888888888889,0.3,-0.6166666666666667,-7.6875,-9.4375,2.375
1589550651.8158176,-0.35,-2.716198632209647,9.13181504569388,0.4722222222222222,0.3,-0.6166666666666667,-3.264634902862676,-3.326037947104037,6.954302336137506
1589550651.8258176,-0.35,-2.7667236391320897,8.441709173962694,0.4722222222222222,0.3,-0.6166666666666667,2.1230443471640656,1.8536353254663114,12.617883993148078
1589550651.8358176,-0.286708708467847,-2.7794742435483544,8.532113653225322,0.4722222222222222,0.3,-0.6166666666666667,2.165220017645525,1.3930064566581781,21.9047066431393
1589550651.8458176,-0.22765328091360104,-2.853572966395207,8.897399606852009,0.4722222222222222,0.3,-0.6166666666666667,-1.055497051390059,-2.6827436113451277,27.825318262660304
1589550651.8558176,-0.2434223199560198,-2.9468446399120394,8.877063441451346,0.4722222222222222,0.3022815466373465,-0.6208495021684687,-0.7660830126443101,-2.925519516217702,33.15032847718527
1589550651.8658175,-0.23110887793235563,-2.997782244135289,8.780903181232924,0.4722222222222222,0.30666666666666664,-0.6288888888888889,1.0777721948308892,-0.7597529284301102,38.14463147316522
1589550651.8758175,-0.2333126182693962,-3.1171073456046794,8.93716949079649,0.4722222222222222,0.30666666666666664,-0.6288888888888889,0.4051318166179254,-1.9905720475658009,42.71306500516085
1589550651.8858175,-0.2880770615772416,-3.1257688152682754,8.876442203817069,0.4722222222222222,0.30666666666666664,-0.6288888888888889,-0.30649081742888007,-2.875,46.68270615772416
1589550651.8958175,-0.31774907056216906,-3.0716236058432536,8.840627323594576,0.4722222222222222,0.30666666666666664,-0.6288888888888889,-0.15705739043899508,-2.72970492695933,50.44902995794059
1589550651.9058175,-0.36861181044647695,-3.0929701392651134,8.824850696325568,0.48014259359585854,0.3027064809798485,-0.6189884246718436,0.2431901112208802,-2.53712674081392,54.125555706045446
1589550651.9158175,-0.4560323256510027,-3.1198383717449865,8.875870697395989,0.4988888888888889,0.2933333333333333,-0.5955555555555555,0.20141424723136786,-2.922575576174798,58.89653920981742
1589550651.9258175,-0.4459543342717491,-3.1580913314565016,8.85954334271749,0.4988888888888889,0.2933333333333333,-0.5955555555555555,-0.011929178396863506,-3.4129281162023526,62.93698725366587
1589550651.9358175,-0.43146600113991607,-3.1870679977201677,8.71466001139916,0.4988888888888889,0.2933333333333333,-0.5955555555555555,0.16917498575104925,-3.548756239313287,66.74017470077203
1589550651.9458175,-0.4225114364135407,-3.205013723696249,8.737543458371455,0.4988888888888889,0.2933333333333333,-0.5955555555555555,0.8280821134492223,-3.1563357731015556,73.32911139066789
1589550651.9558175,-0.4485613398555185,-3.232842009783278,8.88953221678707,0.5027017756037161,0.2895204466185061,-0.5980974800321069,0.6636694580323301,-3.5328221678706795,77.28933153001392
1589550651.9658175,-0.4086446120909369,-3.1542369252727087,8.93576307472729,0.5188888888888888,0.2733333333333333,-0.6088888888888889,0.5805096085227852,-3.9735192170455704,81.31149964318483
1589550651.9758174,-0.4299815561959654,-3.140018443804035,8.949797118155619,0.5188888888888888,0.2733333333333333,-0.6088888888888889,0.6247694524495677,-4.062845821325649,83.62972622478387
1589550651.9858174,-0.4513781752075861,-3.161766815702845,8.808621824792414,0.5188888888888888,0.2733333333333333,-0.6088888888888889,0.5980567975237066,-4.1764574018572205,86.99646857957057
1589550651.9958174,-0.5099234718403292,-3.186615647893553,8.766615647893552,0.5188888888888888,0.2733333333333333,-0.6088888888888889,0.8947172976714672,-3.7317176053223604,88.87021699002058
1589550652.0058174,-0.5344978578629033,-3.211244644657258,8.806987147177418,0.5216375798051075,0.2700848804323477,-0.6133867467517922,0.9063838835685484,-3.5825648153981855,90.65912062121976
1589550652.0158174,-0.5617127544586561,-3.238287245541344,8.93123401188975,0.5311111111111111,0.2588888888888889,-0.6288888888888889,-0.0625,-5.375,92.5
1589550652.0258174,-0.5971005127969278,-3.1789587692873735,8.877396923218432,0.5311111111111111,0.2588888888888889,-0.6288888888888889,0.21538333295007706,-5.268121795019201,93.01301538390783
1589550652.0358174,-0.6165918921637662,-3.0832398652047077,8.753744593099286,0.5311111111111111,0.2588888888888889,-0.6288888888888889,0.4566976410823861,-5.209151179458807,94.2723521904235
1589550652.0458174,-0.626254115446806,-3.0741694102978707,8.893957647425532,0.5311111111111111,0.2588888888888889,-0.6288888888888889,0.10158822154253766,-5.330058833843097,94.92579411077126
1589550652.0558174,-0.7243445504771472,-3.1648367654445,8.898442993470619,0.5270126681176405,0.2522858418438529,-0.6302550365533791,0.7402687091913611,-4.771000753390256,95.40522978402812
1589550652.0658174,-0.7715472153839008,-3.223924938455107,8.893924938455108,0.5111111111111111,0.22666666666666666,-0.6355555555555555,1.2931598077012403,-3.7551906730456595,96.32924485577593
1589550652.0758173,-0.7878982035928144,-3.1695968063872257,8.783800399201596,0.5111111111111111,0.22666666666666666,-0.6355555555555555,1.36000499001996,-3.4631112774451096,96.36000499001996
1589550652.0858173,-0.8474674211802748,-3.2749348423605498,8.773798868229587,0.5111111111111111,0.22666666666666666,-0.6355555555555555,1.0766996766370251,-4.056214632174616,96.13209983831851
1589550652.0958173,-0.8437780238029339,-3.220710766675893,8.841334071408802,0.5111111111111111,0.22666666666666666,-0.6355555555555555,0.38139011901466924,-4.840554940492665,95.45721699418766
1589550652.1058173,-0.885732694128065,-3.173275825216037,8.943448349567925,0.5142049460373683,0.22220790456706055,-0.637375458453354,0.5778554307001741,-4.714170661699594,94.58001198509878
1589550652.1158173,-0.963368927198752,-3.22718862068411,8.875729540228036,0.5488888888888889,0.17222222222222222,-0.6577777777777778,0.6425711207243137,-4.431865421417429,93.17207878359036
1589550652.1258173,-1.01058456491324,-3.287894440602737,8.895964813534246,0.5488888888888889,0.17222222222222222,-0.6577777777777778,0.26315974623289323,-4.853433615296785,92.45541285399547
1589550652.1358173,-1.0617876357330076,-3.2074865498689475,8.731787635733008,0.5488888888888889,0.17222222222222222,-0.6577777777777778,0.6875,-4.533518169993891,91.38373642669924
1589550652.1458173,-1.070788228139295,-3.1499283428964278,8.741003199450011,0.5488888888888889,0.17222222222222222,-0.6577777777777778,0.6798864327454454,-4.694665710357228,90.55399071895079
1589550652.1558173,-1.1763051702395964,-3.1372288776796973,8.882771122320303,0.5482730839288216,0.17058007566204286,-0.6583935827378451,-0.34613414249684743,-5.635541456494325,89.31149511349307
1589550652.1658173,-1.141044136191677,-3.110783102143758,8.909216897856242,0.5423962449208352,0.15490850497407874,-0.6642704217458315,-0.07065731399747793,-5.139683165195461,88.70544609079445
1589550652.1758173,-1.1771833553621074,-3.0225354359418444,8.93211248347842,0.5422222222222223,0.15444444444444444,-0.6644444444444444,0.7121484891299393,-4.469628777175152,87.01188129529191
1589550652.1858172,-1.286018283392585,-3.108028731045491,8.843994776173547,0.5422222222222223,0.15444444444444444,-0.6644444444444444,1.0,-3.600195893491983,85.50040811144163
1589550652.1958172,-1.2586829742426697,-3.021792685890167,8.863585371780333,0.5422222222222223,0.15444444444444444,-0.6644444444444444,1.0896342945083428,-2.943978565932286,83.82423710108537
1589550652.2058172,-1.3912504058800956,-3.029583198039968,8.878332792159874,0.5435189394312103,0.15222150065760776,-0.6662042749423568,1.4505047672462141,-2.7343902205035864,81.78642958349323
1589550652.2158172,-1.3999218547722725,-2.9976909497469695,8.880156290455455,0.5733333333333334,0.10111111111111112,-0.7066666666666667,0.18701159232670356,-4.021647346122161,79.31776215134754
1589550652.2258172,-1.336311774539119,-2.928415699385492,9.009480375768135,0.5733333333333334,0.10111111111111112,-0.7066666666666667,-0.0527570456525322,-4.513308454783038,77.39171503072541
1589550652.2358172,-1.3699305358661753,-2.95205557130706,8.948152821094414,0.5733333333333334,0.10111111111111112,-0.7066666666666667,0.6130209810036858,-3.674652679330876,75.30356003685851
1589550652.2458172,-1.4322936018751626,-2.946473652226756,8.89483375292994,0.5733333333333334,0.10111111111111112,-0.7066666666666667,0.27766624707005816,-3.9011253146974565,72.91907934716555
1589550652.2558172,-1.5488120496570883,-3.0848393089677923,9.076893827589199,0.5733333333333334,0.10111111111111112,-0.7066666666666667,0.09560617241079955,-4.037670370691901,71.18950863790259
1589550652.2658172,-1.58,-2.97483258355726,8.90825337399233,0.5544444444444444,0.06222222222222223,-0.6844444444444444,1.2197963527671265,-1.9429582062739652,68.3800053213973
1589550652.2758172,-1.58,-3.000159717399837,8.794281271700733,0.5544444444444444,0.06222222222222223,-0.6844444444444444,1.0615017662510189,-2.2991210259352073,66.44089663657498
1589550652.2858171,-1.55181406665535,-2.901554914276014,8.658033723759408,0.5544444444444444,0.06222222222222223,-0.6844444444444444,-0.07707732133763368,-3.400915237933571,61.31116321507384
1589550652.2958171,-1.6371216955332726,-2.956886964448496,8.955330446672745,0.5544444444444444,0.06222222222222223,-0.6844444444444444,-0.6444564721969006,-4.2874458751139475,55.89125170920693
1589550652.3058171,-1.7304557573897532,-2.94,8.936836360846296,0.5545963635743622,0.061893064107400524,-0.6854065989339232,-0.7556969673719142,-3.8125,52.16312124757831
1589550652.315817,-1.7465465252335373,-2.94,9.17819787850306,0.5599599528556235,0.05027195399800084,-0.7193759977152454,-0.9568315654192162,-3.8125,49.095818627356955
1589550652.325817,-1.6790254584297668,-2.8011393982552963,8.842601210610646,0.5611111111111111,0.04777777777777778,-0.7266666666666667,0.947151504361759,-1.5,45.39327265444187
1589550652.335817,-1.8134342175538545,-2.950482463948727,8.790331137617946,0.5611111111111111,0.04777777777777778,-0.7266666666666667,0.5737938401281824,-1.5,42.87310842086523
1589550652.345817,-1.9556768612160351,-3.0175691482880467,8.87716522480809,0.5611111111111111,0.04777777777777778,-0.7266666666666667,-0.14444605215060313,-1.4569460521506032,38.79394114780066
1589550652.355817,-1.866559662478217,-2.893279831239109,8.651318903054205,0.5610200046878026,0.046137862158223526,-0.7261200281268153,1.4128794827111804,0.0696310648445382,36.73351371182243
1589550652.365817,-1.9477244538559606,-2.9454489077119215,8.920897815423842,0.56,0.027777777777777776,-0.72,0.11564775600164223,-1.394833509799261,32.92927677780419
1589550652.375817,-1.9844874214587762,-2.9936218553646943,8.986457940129489,0.56,0.027777777777777776,-0.72,-0.6427255297799651,-1.6427255297799652,30.177677867501256
1589550652.385817,-2.0651603844480477,-3.022128307558438,8.89516038444805,0.56,0.027777777777777776,-0.72,0.18185144168018036,-0.7612971166396393,28.17219327215916
1589550652.395817,-2.1481074239607643,-3.0884859391686112,8.978107423960765,0.56,0.027777777777777776,-0.72,0.49290283985286554,-0.13919432029426893,26.72062008068663
1589550652.405817,-2.057765358937814,-2.9747066986722674,8.795530717875629,0.56,0.027777777777777776,-0.72,0.5,0.06715550221288727,25.534566986722677
1589550652.415817,-2.1022790672032636,-2.92,8.88746513038205,0.5377777777777778,0.0011111111111111113,-0.7533333333333333,-0.4359012349082088,-1.2594478747450246,23.094912894867413
1589550652.425817,-2.1219640029663482,-2.918035997033652,8.727151905076864,0.5377777777777778,0.0011111111111111113,-0.7533333333333333,0.11160007415869962,0.13727501853967491,22.15404966628585
1589550652.435817,-2.1343993694792256,-2.914399369479226,8.505744877018708,0.5377777777777778,0.0011111111111111113,-0.7533333333333333,0.2059527704250067,0.03970868155726737,21.157200800047587
1589550652.445817,-2.2301311976963913,-2.9936602177629803,9.072417169081255,0.5377777777777778,0.0011111111111111113,-0.7533333333333333,-1.4419891118509853,-2.053910960136777,19.516747277962747
1589550652.455817,-2.313164222082246,-3.008757131287681,8.876157293260146,0.5377777777777778,0.0011111111111111113,-0.7533333333333333,-0.6871434356159453,-0.2139746243138667,19.328035858903988
1589550652.465817,-2.259293811485914,-2.941705537921653,8.86758827356426,0.5166992400992756,-0.016594860538830733,-0.7642941729261544,-0.05587948268044085,0.22206025865977957,19.50220683910652
1589550652.475817,-2.318670726863498,-3.008504567721435,8.87,0.51,-0.022222222222222227,-0.7677777777777778,-0.5510765589831854,-0.3021150536210777,19.623961505362107
1589550652.485817,-2.413047431939377,-3.0487697633080737,8.963047431939376,0.51,-0.022222222222222227,-0.7677777777777778,-1.192508653756198,-0.8455842454860136,19.818848816540367
1589550652.495817,-2.2024028875902375,-2.830800962530079,8.851601925060157,0.51,-0.022222222222222227,-0.7677777777777778,0.11999398418700584,0.6300060158129942,21.252578205568923
1589550652.505817,-2.227847046690797,-2.839282348896932,8.868564697793865,0.51,-0.022222222222222227,-0.7677777777777778,0.06698531939417224,0.6830146806058277,21.941690847875762
1589550652.515817,-2.2099789739276705,-2.8359873843566024,8.88997897392767,0.5255555555555556,-0.07222222222222223,-0.7477777777777778,-0.7593552880571909,0.1781447119428091,23.199842304457526
1589550652.525817,-2.386358284272498,-2.941814970563499,9.066358284272498,0.5255555555555556,-0.07222222222222223,-0.7477777777777778,-0.9247108915054667,0.012789108494533241,24.522687132043735
1589550652.535817,-2.4356205227068592,-2.921873507568953,8.835316231077616,0.5255555555555556,-0.07222222222222223,-0.7477777777777778,-0.03322644423510855,1.3808547111529783,27.62865440226083
1589550652.545817,-2.489534217126478,-2.939347903977069,8.78832318165532,0.5255555555555556,-0.07222222222222223,-0.7477777777777778,0.2406843425295593,1.4177042278753136,30.713700286635614
1589550652.555817,-2.4553797921891793,-2.8915317090648514,8.665367251881046,0.5255555555555556,-0.07222222222222223,-0.7477777777777778,-0.4424041562164098,-0.03385883195987116,32.63488668935865
1589550652.5658169,-2.5502422468704653,-2.889903101251814,9.317771328791718,0.5333333333333333,-0.09,-0.7411111111111112,-2.7421269767098693,-3.67659889082905,36.33490783551807
1589550652.5758169,-2.601786483602762,-2.870297747267127,8.856427032794475,0.5333333333333333,-0.09,-0.7411111111111112,-1.093364352867755,-1.4095861937068428,41.08265179272442
1589550652.5858169,-2.6524494192015786,-2.87874156986693,8.755101161596844,0.5333333333333333,-0.09,-0.7411111111111112,-0.19620820163871722,-0.6179778249753387,45.19901531012824
1589550652.5958169,-2.640086120818772,-2.810086120818772,8.76051672491263,0.5333333333333333,-0.09,-0.7411111111111112,-0.9321174488267598,-1.8712322141787319,50.64868322516226
1589550652.6058168,-2.6575361957064403,-2.82753619570644,8.865217174238643,0.5333333333333333,-0.09,-0.7411111111111112,0.15851223165252115,-1.1077914378432352,55.4474538192711
1589550652.6158168,-2.6472173033588247,-2.7852605617558863,8.675476853741195,0.5049273407973882,-0.1120146442153575,-0.7581547066326783,-0.08695927003672882,-1.3994592700367288,59.08099859827179
1589550652.6258168,-2.5625543965300928,-2.7057880775710648,9.016929060472453,0.4888888888888889,-0.12444444444444445,-0.7677777777777778,-1.6677980607233753,-4.238789117109366,63.65421013012152
1589550652.6358168,-2.5193598749469297,-2.600559458103362,8.675277123779383,0.4888888888888889,-0.12444444444444445,-0.7677777777777778,-0.38548983943803306,-3.1509887973291137,68.11202188428732
1589550652.6458168,-2.5923631328552155,-2.6423631328552153,8.798603990626997,0.4888888888888889,-0.12444444444444445,-0.7677777777777778,0.946966200383441,-1.797730419654903,73.46778030249237
1589550652.6558168,-2.716694640222914,-2.7666946402229144,9.173600885100802,0.4888888888888889,-0.12444444444444445,-0.7677777777777778,-0.2560881412883136,-3.37075889198492,76.20311936567776
1589550652.6658168,-2.7881406715676533,-2.8381406715676536,9.148342539241009,0.4418538976091132,-0.18323818354416407,-0.7053659624257678,0.8941511027220346,-1.502523345916948,81.36681899463541
1589550652.6758168,-2.61968567570375,-2.692910356289602,8.883236314532045,0.4311111111111111,-0.19666666666666666,-0.6911111111111111,2.0382712683078843,-0.6330762438973719,84.42731380492366
1589550652.6858168,-2.4003359733642737,-2.4701119911214247,8.723359733642738,0.4311111111111111,-0.19666666666666666,-0.6911111111111111,-0.06459983352671139,-3.569499445089038,85.36170105433082
1589550652.6958168,-2.4182894228226153,-2.468289422822615,8.993790612983947,0.4311111111111111,-0.19666666666666666,-0.6911111111111111,-0.2918234899192318,-4.236294071572437,84.07597069354871
1589550652.7058167,-2.239093239476736,-2.289093239476736,8.592732488352695,0.4311111111111111,-0.19666666666666666,-0.6911111111111111,-0.9318098590116575,-4.9829448355136,82.36934037596892
1589550652.7158167,-2.4540212326463946,-2.423013882884181,9.369074314262383,0.45511328881843366,-0.20366730183130244,-0.6541077538123222,-2.0125918720276696,-7.819000096075323,79.54351011192774
1589550652.7258167,-2.3821140444052955,-2.3029596621674133,9.058667582061712,0.4577777777777778,-0.20444444444444448,-0.65,-1.0849617218062644,-5.249600054405555,78.27114044405296
1589550652.7358167,-2.6542354010911295,-2.424652455041423,8.833935744594868,0.4577777777777778,-0.20444444444444448,-0.65,0.49565568801778137,-3.2138361285108106,77.73061477066074
1589550652.7458167,-2.5576949482963216,-2.257365655195796,9.083578784539752,0.4577777777777778,-0.20444444444444448,-0.65,0.11882575436514664,-4.245883836243431,76.798093426852
1589550652.7558167,-2.433266655365316,-2.1151618918460757,8.736957111374808,0.4577777777777778,-0.20444444444444448,-0.65,-0.21446431598576027,-4.0236904560094935,76.02041659603323
1589550652.7658167,-2.354458156800249,-2.063587864889027,8.801953978310724,0.4504953507555832,-0.20120781021235798,-0.6435267315358271,0.1596365199984452,-3.8634544933338515,74.66307527111594
1589550652.7758167,-2.5229425749817116,-2.10460314557425,9.205018288222385,0.4477777777777778,-0.2,-0.6411111111111111,-0.27876965983906365,-4.919566111923921,71.83608037673739
1589550652.7858167,-2.4142753291880026,-2.021504663496708,9.128311997073885,0.4477777777777778,-0.2,-0.6411111111111111,0.2405958531455742,-3.681079119422092,71.23681247713972
1589550652.7958167,-2.1897530714025057,-1.8863641892713783,9.09,0.4477777777777778,-0.2,-0.6411111111111111,1.457638973360905,-1.0408177229047562,68.96901988809147
1589550652.8058167,-2.1420276108189333,-1.750184072126221,8.359122839969947,0.4477777777777778,-0.2,-0.6411111111111111,2.748274323816679,0.4732168012772351,66.56566373966942
1589550652.8158166,-2.3392539345640944,-1.8334796363781987,8.818181890993554,0.46521560565811904,-0.2,-0.6193138262606845,0.5982364542869729,-4.022218273196908,61.42746836330143
1589550652.8258166,-2.3823260445456023,-1.8455586490001625,9.191419484636645,0.4744444444444445,-0.2,-0.6077777777777778,-2.206386664769956,-6.262649111933019,56.30757956023411
1589550652.8358166,-2.2133618374340136,-1.697474454357423,8.872798752816967,0.4744444444444445,-0.2,-0.6077777777777778,0.20157711542617252,-2.2826382243077203,52.09983059611645
1589550652.8458166,-2.142821845535038,-1.558465536605114,8.44751299396662,0.4744444444444445,-0.2,-0.6077777777777778,2.389771658787578,-0.9683639355394782,48.30059321701883
1589550652.8558166,-2.5320906438591586,-1.7695707605611286,9.227706726349865,0.4744444444444445,-0.2,-0.6077777777777778,-0.04858918508452925,-3.829168498461293,45.41588815395068
1589550652.8658166,-2.4943549020708233,-1.7193097255738257,9.129580784555811,0.46214552506375844,-0.21165160783433415,-0.6077777777777778,-0.7135887255177058,-3.5326617655311745,43.522339216566586
1589550652.8758166,-2.262754708827025,-1.5693081715705695,8.765685525984082,0.4533333333333333,-0.22,-0.6077777777777778,0.10778306983109454,-1.8663521446321174,40.08073882666474
1589550652.8858166,-2.6098732626420516,-1.704233661442271,9.031326728908791,0.4533333333333333,-0.22,-0.6077777777777778,1.6424752334079675,-2.1248019728782053,37.08096536901694
1589550652.8958166,-2.568791976560739,-1.6785418075276086,9.086833446022087,0.4533333333333333,-0.22,-0.6077777777777778,1.3247408158665765,-0.7744816317331531,35.2835953346856
1589550652.9058166,-2.472986455495227,-1.5621810376933178,8.34066997275418,0.4533333333333333,-0.22,-0.6077777777777778,1.6350677225238646,0.8190039594644922,34.369231089636784
1589550652.9158165,-2.585489626652417,-1.6409792533048346,8.896102269823201,0.4777777777777778,-0.22666666666666666,-0.6077777777777778,-0.6130758776107613,-5.601468299142717,32.025189926352716
1589550652.9258165,-2.254178612085589,-0.9783572241711777,9.344346583648909,0.4777777777777778,-0.22666666666666666,-0.6077777777777778,-4.328144239481449,-8.463898020584066,29.2845657249727
1589550652.9358165,-1.7955307982251063,-1.424469201774894,8.737454554129492,0.4777777777777778,-0.22666666666666666,-0.6077777777777778,-0.23784829906006966,-3.313123240612625,24.680608569111122
1589550652.9458165,-1.988851521573959,-1.4217145199344183,9.29341264445955,0.4777777777777778,-0.22666666666666666,-0.6077777777777778,1.3142432618866715,0.2195447774623105,11.834290148758347
1589550652.9558165,-1.7858141236736187,-1.3080814733504085,9.099680448835224,0.4777777777777778,-0.22666666666666666,-0.6077777777777778,2.80141633125991,3.1949475545798265,0.09411970972069739
1589550652.9658165,-1.6362341558222073,-1.3724683116444143,9.001213030251817,0.48005910465138113,-0.22666666666666666,-0.6187281467710739,3.039227543518675,4.194413342910258,-17.490570073516984
1589550652.9758165,-1.8124084994851635,-1.8296339979406535,9.351143249399357,0.4833333333333333,-0.22666666666666666,-0.6344444444444445,-2.126045274423539,-0.6117546569315735,-52.88994196386783
1589550652.9858165,-2.1043317837860376,-1.749426528527652,8.77554022221759,0.4833333333333333,-0.22666666666666666,-0.6344444444444445,-0.6142474098934771,2.4422841404181694,-74.9454996247733
1589550652.9958165,-2.489633027522936,-2.1225229357798168,9.053486238532109,0.4833333333333333,-0.22666666666666666,-0.6344444444444445,-1.8815940366972477,2.368692660550459,-91.00688073394495
1589550653.0058165,-2.700541211063126,-2.308376366810622,9.587035743820639,0.4833333333333333,-0.22666666666666666,-0.6344444444444445,-3.0855883794296917,1.364852292566388,-102.0063305920549
1589550653.0158165,-2.5859071304542653,-2.1027244720775218,9.1663550477044,0.47479784495188065,-0.2174746022558715,-0.6469193890019522,0.2727809518474955,5.582455796411434,-104.34375641815568
1589550653.0258164,-2.3852020935207823,-1.9953063875305623,8.292542405256723,0.4688888888888889,-0.2111111111111111,-0.6555555555555556,2.1466753896699267,9.72514660375917,-106.5382984413203
1589550653.0358164,-2.2772450146068843,-2.2910199415724626,9.35864600533469,0.4688888888888889,-0.2111111111111111,-0.6555555555555556,-2.433506922392989,1.1386463228756512,-111.89954591642322
1589550653.0458164,-2.253488006883941,-2.32,9.653375927718619,0.4688888888888889,-0.2111111111111111,-0.6555555555555556,-5.45499892438421,-1.3495993331182103,-117.07059804237926
1589550653.0558164,-2.3477429418788276,-2.170127489119131,8.673473404460193,0.4688888888888889,-0.2111111111111111,-0.6555555555555556,-2.0495560990640525,4.3399814158610335,-120.13953751492508
1589550653.0658164,-2.1374413573217943,-2.3525586426782055,9.279825780004556,0.4910202687314963,-0.20004542118980745,-0.6505256965004176,-0.05067182874060579,4.506860624003644,-122.26854645866545
1589550653.0758164,-2.1508871845364563,-2.2845965694149353,8.718546924392394,0.4933333333333334,-0.1988888888888889,-0.65,-2.1494500440482978,4.1875,-124.71749494740115
1589550653.0858164,-2.604701338265695,-2.6065128930475465,9.303496899140464,0.4933333333333334,-0.1988888888888889,-0.65,-1.5268333151996516,5.039855565226852,-128.63592780981395
1589550653.0958164,-2.4884877672895396,-2.624401849354652,8.87634367173955,0.4933333333333334,-0.1988888888888889,-0.65,-0.05304854555962235,6.669439895973801,-127.01608553265267
1589550653.1058164,-2.5091283890185365,-2.667513043808223,8.878692583527805,0.4933333333333334,-0.1988888888888889,-0.65,-0.04230818487107975,7.091988492989546,-125.62467390479443
1589550653.1158164,-2.647984986020146,-2.8067133938488644,9.0041702095063,0.4933333333333334,-0.19770713376826213,-0.6454418016775825,-0.2365300279597074,7.394665153778391,-121.65086033551648
1589550653.1258163,-2.8218897442947486,-2.9217772889744293,8.925331866923289,0.4933333333333334,-0.19111111111111112,-0.62,-1.3777426450371184,4.450013747594171,-112.7174474154523
1589550653.1358163,-2.7219731903485256,-2.921447233731416,9.07894808676578,0.4933333333333334,-0.19111111111111112,-0.62,-2.416938825249817,3.5123324396782842,-104.47529246892518
1589550653.1458163,-2.6893571352294168,-2.91,9.06046435054996,0.4933333333333334,-0.19111111111111112,-0.62,-1.285045429466415,4.039508284982024,-97.42745857508989
1589550653.1558163,-2.6603568019485864,-2.906035680194859,8.870892004871466,0.4933333333333334,-0.19111111111111112,-0.62,-0.2866079951285343,4.342852029228794,-89.86515215101544
1589550653.1658163,-2.478297182839256,-2.856534708156877,9.085108451482233,0.5155489269420406,-0.3166775097690214,-0.5910231387712515,-2.3934381329405268,1.318567022647763,-79.26535398637452
1589550653.1758163,-2.325372387675908,-2.894875870774697,8.888695123661694,0.5188888888888888,-0.33555555555555555,-0.5866666666666667,-1.5656032306325682,2.6267503155827763,-71.75580906073215
1589550653.1858163,-2.219291471698113,-2.8716535849056606,8.638897962264151,0.5188888888888888,-0.33555555555555555,-0.5866666666666667,0.8656462264150946,4.9030481132075465,-66.71260471698113
1589550653.1958163,-2.093012363375739,-2.8927407274681958,8.484246909156065,0.5188888888888888,-0.33555555555555555,-0.5866666666666667,0.9331795377172551,4.63009317326644,-62.220576509586095
1589550653.2058163,-1.845701502616917,-2.8478507513084583,9.237193989532331,0.5188888888888888,-0.33555555555555555,-0.5866666666666667,-3.981716251416994,-0.9753729408359666,-61.69776114903162
1589550653.2158163,-1.8491326075316796,-2.667823189957761,8.810417038491284,0.5757983487681864,-0.7963386016750285,0.14856683919328928,0.4267617050389667,3.2283932714617167,-61.66031590219525
1589550653.2258162,-1.7020428070525284,-2.6220045864699135,8.70598318294365,0.5877777777777777,-0.8933333333333333,0.3033333333333333,3.674493577280356,5.774675125047776,-60.66272932349569
1589550653.2358162,-1.6529471417384496,-2.7708649177760374,8.980806186374314,0.5877777777777777,-0.8933333333333333,0.3033333333333333,1.5029365700861392,4.089629013312451,-59.53794048551292
1589550653.2458162,-1.4440870399732955,-2.6398314278561297,8.12205040474005,0.5877777777777777,-0.8933333333333333,0.3033333333333333,-0.9382901819243928,3.759568242510223,-58.41889030292915
1589550653.2558162,-1.3110840195426292,-2.6962059316007982,8.55723558960479,0.5877777777777777,-0.8933333333333333,0.3033333333333333,-0.6639003257104846,4.2246499185723785,-57.90035008142762
1589550653.2658162,-1.4424555054172299,-2.9407501660672972,9.683000664269189,0.9963585322959538,-0.2719924512551124,-0.11541112154599115,-1.7989411778179902,-0.7947594314771971,-59.18459954875507
1589550653.2758162,-1.3834209735166307,-2.7913042171144333,8.867367788133045,1.257777777777778,0.12555555555555556,-0.38333333333333336,-1.6862837874771106,1.5539216021208562,-60.53053513351007
1589550653.2858162,-1.1676317222937507,-2.804875210458552,8.834486976329602,1.257777777777778,0.12555555555555556,-0.38333333333333336,1.0135885040110924,3.672351626720808,-61.45247505447163
1589550653.2958162,-1.2895065831198154,-3.0195065831198153,8.89892386920013,1.257777777777778,0.12555555555555556,-0.38333333333333336,1.497758060833608,2.4910322433344327,-63.654987125497854
1589550653.3058162,-1.4089380530973452,-3.171828908554572,8.916047197640117,1.257777777777778,0.12555555555555556,-0.38333333333333336,-1.1115412979351031,2.825589970501475,-66.09845132743362
1589550653.3158162,-1.2436539222148977,-3.0157175346077785,8.71778114700066,0.8618402182670476,0.06206445469860106,-0.5940885153446129,-1.8918733520105473,2.2817588167435727,-69.5555187046803
1589550653.3258162,-1.2766313276413224,-3.0610698822482094,8.826043377979202,0.7588888888888888,0.045555555555555564,-0.6488888888888888,-0.03542164043216123,3.235632561809574,-71.22527111237001
1589550653.3358161,-1.354172057832986,-3.1265032346997916,8.819324707467223,0.7588888888888888,0.045555555555555564,-0.6488888888888888,0.37653217468945316,3.604677391563151,-72.25997333134917
1589550653.3458161,-1.4239833610648918,-3.1809750415973377,8.774280643372158,0.7588888888888888,0.045555555555555564,-0.6488888888888888,-0.14142401552967276,3.4271699944536884,-73.26642401552968
1589550653.3558161,-1.426751286293887,-3.2836378884380877,8.823891747319749,0.7588888888888888,0.045555555555555564,-0.6488888888888888,-0.45209405244905826,3.7581427502889913,-73.81736468414968
1589550653.365816,-1.4082773483947681,-3.327069337098692,8.776554696789537,0.6717003980050205,0.041628146056282206,-0.6598856354868542,-0.4159668549346016,3.712249646997622,-74.17351692553508
1589550653.375816,-1.4363064400287286,-3.3789193200861862,9.126128800574575,0.6355555555555555,0.04,-0.6644444444444444,-1.4117937514962893,2.248488747905195,-75.19032200143644
1589550653.385816,-1.3319732239778073,-3.2107707152333855,8.906433482089012,0.6355555555555555,0.04,-0.6644444444444444,-0.8843776384030877,2.2559100229164155,-75.94206066819443
1589550653.395816,-1.2401192793332334,-3.116013874332485,8.505298198333083,0.6355555555555555,0.04,-0.6644444444444444,0.313990991665419,3.4412274791635475,-76.09486824374906
1589550653.405816,-1.284137094750927,-3.2443782231762053,8.663134669528615,0.6355555555555555,0.04,-0.6644444444444444,-0.37325600033451345,3.1952722102974382,-76.29417842109665
1589550653.415816,-1.3384920834380498,-3.31849208343805,8.992883471559018,0.6261787346532257,0.055770107881191064,-0.6755261418744706,-2.153273435536567,1.7414027812683255,-76.54794965234146
1589550653.425816,-1.3111636119645442,-3.36185471624819,8.774217254652681,0.6111111111111112,0.0811111111111111,-0.6933333333333334,-0.8707909559628493,2.0362525161563725,-76.01749832256242
1589550653.435816,-1.333625369870063,-3.520700887688151,8.4576011835842,0.6111111111111112,0.0811111111111111,-0.6933333333333334,1.2295317123375789,4.868768493503152,-74.57749260259874
1589550653.445816,-1.3694750437463545,-3.6768502624781267,8.918975918673443,0.6111111111111112,0.0811111111111111,-0.6933333333333334,-0.11933901341554876,3.3748385551204065,-74.61515707024415
1589550653.455816,-1.397072064931359,-3.8106080973970387,9.243919026029612,0.6111111111111112,0.0811111111111111,-0.6933333333333334,-1.1867965505215434,1.2690030436574617,-74.69059715925303
1589550653.465816,-1.22704426743275,-3.6259339905980674,8.6840885348655,0.6064199384811817,0.11238559531064102,-0.6980245059632628,1.1712302494123792,6.053075623530948,-72.98152667145469
1589550653.475816,-1.0750226056659338,-3.42412584512008,8.632241901364635,0.6044444444444445,0.12555555555555556,-0.7,1.2785889087062923,6.321472271765731,-72.84080633788211
1589550653.485816,-0.9844413232733604,-3.39469274521184,9.044217991874637,0.6044444444444445,0.12555555555555556,-0.7,-0.5432965757399884,2.7313189204875217,-73.6559010446895
1589550653.495816,-1.1259319325371975,-3.635412788563284,8.82467229576522,0.6044444444444445,0.12555555555555556,-0.7,-1.0532978275422722,1.6247341114734275,-74.02813829442633
1589550653.505816,-1.223171132372855,-3.8808775279152883,8.993849090949453,0.6044444444444445,0.12555555555555556,-0.7,-0.8338402113348281,2.128963915466069,-73.85365978866517
1589550653.515816,-1.0388611593196806,-3.9062870531065603,9.35645643873655,0.5843226117474642,0.14706510085232752,-0.6909798681013537,-0.9219411662617146,1.4380293300937175,-73.25817641443943
1589550653.525816,-2.206335266500967,-2.3578951486697965,3.9238193869096936,0.5722222222222222,0.16,-0.6855555555555556,-0.7630805256374851,6.23317971554819,-71.32120788456227
1589550653.535816,-3.885908588787628,-0.30669209702660405,-3.1998881524440783,0.5722222222222222,0.16,-0.6855555555555556,-0.6122567718401914,13.201237140983153,-69.05885157760287
1589550653.545816,-2.2147304068951694,-0.7379401349635865,-1.2356059998663724,0.5722222222222222,0.16,-0.6855555555555556,-9.482357018774637,17.6712809848333,-177.7274566546402
1589550653.555816,-0.31695320797151244,-2.9345108390079337,6.378127381770476,0.5722222222222222,0.16,-0.6855555555555556,-39.41869377459861,-16.96374632973074,-389.525369760105
1589550653.565816,-3.492827629087415,-3.9483333804369334,14.472256450837973,0.5659071996281956,0.1871545971543145,-0.6767145239239183,-56.17550447955233,-26.947919905039143,-504.81882365825396
1589550653.575816,-2.1178633670268385,-1.6992924363889856,10.542607180202161,0.5611111111111111,0.20777777777777776,-0.67,14.98006709654932,89.0374695015685,-413.7867941791565
1589550653.585816,-1.3272863313476222,-1.014058015517206,6.057785420377081,0.5611111111111111,0.20777777777777776,-0.67,73.96502615201949,77.46966672808041,-367.8551352125939
1589550653.595816,-1.0546515702220014,-1.6852257929555736,7.814618361530215,0.5611111111111111,0.20777777777777776,-0.67,30.780217948382713,26.18363164500693,-303.83103116910286
1589550653.605816,-0.30629664447556737,-1.8600746311609078,9.053687047944285,0.5611111111111111,0.20777777777777776,-0.67,-22.51330746503463,-0.05895070314448603,-244.39090228881685
1589550653.6158159,-0.2495905679811654,-1.7737772218952326,7.351637728075339,0.5100163903603427,0.29334604505918516,-0.67,-8.40413938346086,1.997949161271336,-184.3539260226604
1589550653.6258159,-0.20620384498016478,-2.5281202319194387,8.465495880378395,0.4688888888888889,0.3622222222222222,-0.67,4.25,12.8125,-157.875
1589550653.6358159,0.0062064532080603335,-2.79497317344542,9.68446383978242,0.4688888888888889,0.3622222222222222,-0.67,-2.5975213252565217,3.694117010755347,-135.51574669303994
1589550653.6458158,0.9446033819241982,-9.466868804664722,9.357719183673469,0.4688888888888889,0.3622222222222222,-0.67,-5.505064139941691,0.9627725947521872,-53.49862682215743
1589550653.6558158,1.4282084552431837,-6.254409956324471,7.5160145019717595,0.4688888888888889,0.3622222222222222,-0.67,1.995653648814824,2.410769940211169,26.503914366280796
1589550653.6658158,1.5480034316019342,1.2919864295741694,7.537017236000624,0.4408885769250767,0.3840002426385206,-0.6723333593303177,6.065606233426923,-2.181277784277024,51.59680992629855
1589550653.6758158,1.6826677800310152,-1.9452713825599428,10.087647143027556,0.3888888888888889,0.4244444444444445,-0.6766666666666666,1.4489278897769295,-5.490750626267446,38.69679708934749
1589550653.6858158,-0.06584960582171012,-6.03415403274712,8.756225591267434,0.3888888888888889,0.4244444444444445,-0.6766666666666666,-1.8690797453001817,0.4322013341419042,38.36387204366282
1589550653.6958158,0.2005334214045206,-4.301043643569461,8.329385703468608,0.3888888888888889,0.4244444444444445,-0.6766666666666666,3.5461799793784534,-0.2482308565997,59.82224891656329
1589550653.7058158,0.699787760877255,-1.7023040807794962,8.350569829887128,0.3888888888888889,0.4244444444444445,-0.6766666666666666,3.601577322571309,-3.0942996912885485,69.54063092902852
1589550653.7158158,0.32901209297314765,-4.292251339922971,9.425300169678689,0.3978091399056144,0.43881595997139106,-0.6736932496610916,-1.2769937245818632,-2.98914931724528,71.4862371730992
1589550653.7258158,0.11055149772224059,-3.801207085231466,8.919895910213016,0.4088888888888889,0.4566666666666666,-0.67,0.6318937215280076,-4.9804402183595045,81.50317009390986
1589550653.7358158,0.04914701952502046,-3.7151773630446963,8.965954484720486,0.4088888888888889,0.4566666666666666,-0.67,1.4175466574716606,-4.908678505236844,89.73009784061031
1589550653.7458158,-0.05859297406658084,-3.7714070259334194,8.848517564833548,0.4088888888888889,0.4566666666666666,-0.67,0.23241217583226037,-4.928234780209674,98.57820259334191
1589550653.7558157,0.009686513533481095,-3.9263071730807977,8.946376183759822,0.4088888888888889,0.4566666666666666,-0.67,-0.17813486466518905,-5.490634864665189,106.63655844919067
1589550653.7658157,0.022285926275673672,-4.028984857171765,8.841111935516508,0.41260665744831543,0.45141805222982917,-0.6684691541225891,0.2972201612087282,-5.089088479309298,112.95256272975617
1589550653.7758157,0.010362531476972386,-4.066722024515618,8.650543797215459,0.42777777777777776,0.43,-0.6622222222222223,0.858525316850846,-5.159082277163847,120.41701265322261
1589550653.7858157,0.23550247977029498,-2.96337509788567,8.82353171495693,0.42777777777777776,0.43,-0.6622222222222223,-2.4635375880971027,-9.834940289741581,105.43206734534064
1589550653.7958157,0.19152592768791626,-1.4461667459562322,9.630881303520457,0.42777777777777776,0.43,-0.6622222222222223,0.23697668886774448,-3.050086227402476,56.61987095623216
1589550653.8058157,0.0,-2.19,10.25,0.42777777777777776,0.43,-0.6622222222222223,6.25,7.25,39.75
1589550653.8158157,-0.7168892558571576,-3.857811332438848,7.977567550830839,0.436205616908063,0.4226526530659052,-0.6581163518766987,3.2530472701001134,3.631392558571576,16.247582309835895
1589550653.8258157,0.2786877089960036,-4.452733871625479,9.194520022836636,0.4711111111111111,0.3922222222222223,-0.6411111111111111,-4.276731098605334,-6.1472504281869345,3.5073658347606234
1589550653.8358157,0.11619749612592775,-4.204722494086942,8.972164994698637,0.4711111111111111,0.3922222222222223,-0.6411111111111111,-1.0696874235380474,-1.9780936505994617,-0.8755938544980015
1589550653.8458157,-0.09000454490364805,-4.1263652890558715,8.661812810568415,0.4711111111111111,0.3922222222222223,-0.6411111111111111,0.8750094685492668,0.6420661131984002,-0.20454717609986667
1589550653.8558156,0.08849114095474551,-4.057877214761314,8.846982281909492,0.4711111111111111,0.3922222222222223,-0.6411111111111111,0.14210444645073922,-0.14018592709626454,-0.07576740774178986
1589550653.8658156,0.04898197504236636,-4.117903866892621,8.785927900169465,0.46978044814187164,0.3922222222222223,-0.6497604204111675,-0.5744742720690186,-0.17439916807887845,-0.07484979201971961
1589550653.8758156,0.05192980805419647,-4.219157884832518,8.815789424162588,0.4666666666666667,0.3922222222222223,-0.67,-0.758332941287166,-0.4684206812194204,-0.18223678020323675
1589550653.8858156,0.023351258605176707,-4.194973112092235,8.72,0.4666666666666667,0.3922222222222223,-0.67,0.15709024711765815,0.25,-0.052027316858822795
1589550653.8958156,0.03925308620630036,-4.1685061724126005,8.724481482762199,0.4666666666666667,0.3922222222222223,-0.67,0.9001543103150178,0.2313271551575089,-0.009336422421245548
1589550653.9058156,0.03775392786014605,-4.139661429519806,8.808431068820536,0.4666666666666667,0.3922222222222223,-0.67,0.30826786899756586,-0.03230803275060854,-0.14115401637530428
1589550653.9158156,0.059172723713551326,-4.111103035048599,8.886966653616355,0.4666666666666667,0.3922222222222223,-0.67,-0.04871206189252214,-0.12155301547313054,-0.18577650773656526
1589550653.9258156,0.015552074675532254,-4.2,8.76779170129787,0.4666666666666667,0.38,-0.6622222222222223,-0.33339859983377024,0.0277995332779234,-0.0173502333610383
1589550653.9358156,0.03498698400892525,-4.192519523986612,8.714986984008926,0.4666666666666667,0.38,-0.6622222222222223,0.046590275195239866,-0.07808432502789141,-0.07808432502789141
1589550653.9458156,0.028650940895838858,-4.1486509408958385,8.74707924728333,0.4666666666666667,0.38,-0.6622222222222223,0.5618042671614101,-0.044941028359395715,-0.07162735223959714
1589550653.9558156,0.006314673157162725,-4.110527990264256,8.788944019471488,0.4666666666666667,0.38,-0.6622222222222223,0.5559664029902642,0.003299939151599443,-0.03946670723226704
1589550653.9658155,0.02051904226257432,-4.092076169050297,8.828442873212277,0.4666666666666667,0.38063438498759083,-0.6626259217597801,-0.029196127269805562,-0.11526795757673147,-0.1217559858589105
1589550653.9758155,0.028944038245219347,-4.125776152980877,8.803167885264342,0.4666666666666667,0.39093160229971263,-0.6691786964129485,-0.5031021512935884,0.04270071709786277,-0.06909976096737908
1589550653.9858155,0.022235602869902008,-4.176586382780588,8.8,0.4666666666666667,0.3922222222222223,-0.67,-0.6110274820631124,-0.18013741031556224,-0.0625
1589550653.9958155,0.05319017100507244,-4.179785256507609,8.71872702973605,0.4666666666666667,0.3922222222222223,-0.67,0.2832632202411688,0.16621928439085137,0.0
1589550654.0058155,0.022770883461851802,-4.135541766923704,8.82385441730926,0.4666666666666667,0.3922222222222223,-0.67,0.5595017619976885,0.0105459350902787,0.0
1589550654.0158155,0.03084523703240782,-4.150845237032408,8.860845237032407,0.4666666666666667,0.3922222222222223,-0.6693425934192384,0.030803611284706725,-0.10386907418980448,-0.01056546290509776
1589550654.0258155,0.03879391748884765,-4.159698479372212,8.867587834977694,0.4666666666666667,0.3922222222222223,-0.6622222222222223,-0.31061549607632444,0.12311549607632444,-0.12123099215264889
1589550654.0358155,0.012612905456808909,-4.156306452728405,8.771080641814786,0.4666666666666667,0.3922222222222223,-0.6622222222222223,-0.23686155681582405,-0.029469102289231622,-0.013138443184175947
1589550654.0458155,0.05612525070890104,-4.178062625354451,8.705812123936647,0.4666666666666667,0.3922222222222223,-0.6622222222222223,-0.1915361971782281,-0.34674661975240334,-0.05846380282177191
