time,acc_x,acc_y,acc_z,mag_x,mag_y,mag_z,gyr_x,gyr_y,gyr_z
1589552806.262182,0.0,-4.18,8.84,0.4811111111111111,0.3655555555555556,-0.6088888888888889,1.625,2.6875,-7.8125
1589552806.272182,0.0,-4.188069624102835,8.945791127691496,0.4774648455275761,0.35761956575609716,-0.6076019716241119,-0.7717575321357609,-1.231407891001987,2.4758703012854304
1589552806.282182,0.00202304495655459,-4.18,8.968651303362298,0.4622222222222222,0.3244444444444444,-0.6022222222222222,1.147301190026445,-1.4907442387608614,1.8186626369474879
1589552806.292182,0.032167930603698554,-4.18,8.923984832755616,0.4622222222222222,0.3244444444444444,-0.6022222222222222,-5.0331189625745605,4.0913190839828975,-4.845232963243186
1589552806.302182,0.0395479738884099,-4.18,8.83542431333908,0.4622222222222222,0.3244444444444444,-0.6022222222222222,2.30079905160734,2.0618071806872766,-1.3397124030052963
1589552806.312182,0.0057957734379474254,-4.184204226562053,8.85448943359487,0.4622222222222222,0.3244444444444444,-0.6022222222222222,-0.5163292480384858,-4.968662304564458,1.1071745604490006
1589552806.322182,0.021647377749973933,-4.171647377749974,8.893294755499948,0.46533393574995074,0.3281052838888309,-0.6022222222222222,-0.023485559378584098,-1.8038199874882703,-2.391252215618809
1589552806.332182,0.03,-4.184029427645788,8.91,0.4811111111111111,0.3466666666666667,-0.6022222222222222,-0.33566752159827207,-3.900361096112311,1.5935897003239745
1589552806.342182,0.03,-4.186468929791184,8.87822036812066,0.4811111111111111,0.3466666666666667,-0.6022222222222222,-2.588276755220391,-2.2761291745937147,6.79608384715887
1589552806.352182,0.024365092402464067,-4.18,8.825634907597536,0.4811111111111111,0.3466666666666667,-0.6022222222222222,-3.876981519507187,-2.8968275154004104,2.255699435318275
1589552806.362182,0.01,-4.18,8.851481433988532,0.4811111111111111,0.3466666666666667,-0.6022222222222222,-6.287553353239664,-1.3279289325688326,8.149946646760336
1589552806.372182,0.01,-4.18,8.920632178644048,0.4811111111111111,0.3466666666666667,-0.6022222222222222,-3.5023150268369085,-5.937978576269945,10.935184973163091
1589552806.382182,0.007923499792119001,-4.182076500207881,8.917923499792119,0.4666666666666667,0.3388888888888889,-0.6166666666666667,-0.14617210236984324,-1.3411875779553748,-1.6195373492862752
1589552806.3921819,0.001464868111054651,-4.188535131888946,8.911464868111056,0.4666666666666667,0.3388888888888889,-0.6166666666666667,-7.210300503533977,-3.7631744583545066,3.0629706194853785
1589552806.4021819,0.02239653598044125,-4.163594803970662,8.820784411911987,0.4666666666666667,0.3388888888888889,-0.6166666666666667,1.4204763026893281,-6.112608250611211,-2.5748917493887893
1589552806.4121819,0.04244655389233703,-4.19,8.902446553892338,0.4666666666666667,0.3388888888888889,-0.6166666666666667,0.00920348058902265,-3.9416580463267206,-2.3910338322988927
1589552806.4221818,0.05,-4.188728678398617,8.91,0.4661016348438293,0.33804134115463286,-0.6111576063940025,3.4428304003460113,0.9671508798961965,-0.23624064012110402
1589552806.4321818,0.040844596196708875,-4.18,8.912288850950823,0.4622222222222222,0.3322222222222222,-0.5733333333333334,4.537795798359179,-0.0022170057381324937,-0.4277872622943045
1589552806.4421818,0.01,-4.1816948176928745,8.90305182307125,0.4622222222222222,0.3322222222222222,-0.5733333333333334,1.4258157501843756,-0.8082773460687497,1.6271113269656252
1589552806.4521818,0.01,-4.189239472595471,8.827605274045293,0.4622222222222222,0.3322222222222222,-0.5733333333333334,3.877828593527962,0.32342088932059787,2.192960444660299
1589552806.4621818,0.007289681852300941,-4.174859787901534,8.87,0.4622222222222222,0.3322222222222222,-0.5733333333333334,-2.033878976846238,-2.9737102315376176,1.9392526512308255
1589552806.4721818,0.028387176477855332,-4.188387176477856,8.874838470566432,0.46258062744936546,0.33374544443758103,-0.5768277842979801,-1.6491985298659584,-4.996008091914263,1.2157522082895793
1589552806.4821818,0.01872664723589278,-4.164182235176072,8.92418223517607,0.4666666666666667,0.3511111111111111,-0.6166666666666667,0.2635816331406182,2.3853654020736776,-2.3660889196808257
1589552806.4921818,0.03481235455891686,-4.157781468161625,8.884061772794585,0.4666666666666667,0.3511111111111111,-0.6166666666666667,2.7086101121218533,-2.3449227840067697,3.490617727945843
1589552806.5021818,0.01641514799017707,-4.181792426004911,8.811792426004912,0.4666666666666667,0.3511111111111111,-0.6166666666666667,4.30778402481582,-1.630908297789841,0.6999127568825125
1589552806.5121818,0.002822291450328834,-4.1871777085496715,8.834111457251645,0.4666666666666667,0.3511111111111111,-0.6166666666666667,3.5413776393215644,2.0801393215645554,-7.232255970924195
1589552806.5221817,0.014436829352717204,-4.175563170647282,8.892184146763586,0.4666666666666667,0.3511111111111111,-0.6166666666666667,1.6540152301834548,2.1527301834544827,-1.2435098650051923
1589552806.5321817,0.028692867655833565,-4.17,8.92,0.4628031699307406,0.34048649508731454,-0.598315057171018,1.945269302677115,2.5134825370937586,-1.8521470623334264
1589552806.5421817,0.04581577034883721,-4.1816315406976745,8.90854605741279,0.4622222222222222,0.3388888888888889,-0.5955555555555555,2.359045694040698,-0.7490972474563954,4.952137082122093
1589552806.5521817,0.08642341201876536,-4.2478588626604115,8.93532876610321,0.4622222222222222,0.3388888888888889,-0.5955555555555555,3.1605853004691338,2.308239940923871,5.356130699729441
1589552806.5621817,0.11139854166666668,-4.217564583333334,9.150413333333333,0.4622222222222222,0.3388888888888889,-0.5955555555555555,3.7072421875,0.280765625,-6.30989453125
1589552806.5721817,-0.08957833333333332,-4.130183333333333,8.591173333333334,0.4622222222222222,0.3388888888888889,-0.5955555555555555,-1.8633125000000001,0.936125,0.7352187499999996
1589552806.5821817,0.007109115797777316,-4.159132734739333,8.910460082132666,0.4665381829243457,0.3388888888888889,-0.5955555555555555,3.1018421846360873,3.729387079186098,-10.114082329876338
1589552806.5921817,0.0013403720462543992,-4.188659627953746,8.830617395676219,0.4666666666666667,0.3388888888888889,-0.5955555555555555,-6.1892785319255905,4.42582327802916,0.8097599296128708
1589552806.6021817,0.008369532428355959,-4.181630467571644,8.781413273001508,0.4666666666666667,0.3388888888888889,-0.5955555555555555,0.35662707390648585,1.0869720965309204,-6.087603695324283
1589552806.6121817,0.012797586058254819,-4.175198390705503,8.84399798838188,0.4666666666666667,0.3388888888888889,-0.5955555555555555,1.8647032863271549,1.3425100580906049,-3.09702978426422
1589552806.6221817,-0.03885953568569493,-4.14076030954287,8.800950386928589,0.4666666666666667,0.3388888888888889,-0.5955555555555555,-4.484817928033336,1.5577480653570621,6.96534705544266
1589552806.6321816,0.04116995096678694,-4.228404292719031,8.98191414561939,0.4811111111111111,0.3466666666666667,-0.6022222222222222,-0.285912202793968,1.3723390230363586,-0.2433805162364695
1589552806.6421816,0.0954952354519382,-4.22064353779258,9.137129244148396,0.4811111111111111,0.3466666666666667,-0.6022222222222222,1.3632482190766955,1.6633673327782403,5.868213988343048
1589552806.6521816,-0.015171421449774534,-4.152975006231447,8.72190002492579,0.4811111111111111,0.3466666666666667,-0.6022222222222222,-3.2774551902290905,-2.996695916702545,1.994553148580363
1589552806.6621816,0.043900651465798045,-4.205120521172638,8.945120521172639,0.4811111111111111,0.3466666666666667,-0.6022222222222222,-1.5212744299674268,1.8552320846905537,-1.4632939739413682
1589552806.6721816,0.0012062296416938054,-4.170964983713355,8.910964983713356,0.4811111111111111,0.3466666666666667,-0.6022222222222222,0.07976638843648187,3.02932868485342,1.4185794991856677
1589552806.6821816,-0.02741126804607286,-4.1577661958617815,8.85,0.4622222222222222,0.3466666666666667,-0.6088888888888889,3.4352817011518217,-2.365475321832491,3.805845103455465
1589552806.6921816,-0.011784915208163436,-4.202860339167346,8.81430169583673,0.4622222222222222,0.3466666666666667,-0.6088888888888889,3.2008029609183866,-2.647730955816239,1.7860339167346257
1589552806.7021816,-0.01869937809118065,-4.17065031095441,8.659104353361736,0.4622222222222222,0.3466666666666667,-0.6088888888888889,3.8079734097252826,1.4893400176289113,-0.6911757504529651
1589552806.7121816,0.006828839745531657,-4.181517519943451,8.803657679491062,0.4622222222222222,0.3466666666666667,-0.6088888888888889,-0.8448449964657174,0.21935650812884985,10.20245127739069
1589552806.7221816,0.08306573765525599,-4.19845905281228,8.956131475310512,0.4622222222222222,0.3466666666666667,-0.6088888888888889,-1.9036908007674442,-2.2159888417651215,1.9963962940523068
1589552806.7321815,0.03010547339601894,-4.191443639056574,8.944330917169722,0.4622222222222222,0.3343074786372737,-0.6088888888888889,2.7059985188842264,0.557226330199053,6.865111869123225
1589552806.7421815,0.018458936587216285,-4.170770531706392,8.910753619523298,0.4622222222222222,0.3322222222222222,-0.6088888888888889,-0.27910634127837136,-2.0625,-0.22089365872162864
1589552806.7521815,0.005200101156982991,-4.177399949421508,8.831200606941898,0.4622222222222222,0.3322222222222222,-0.6088888888888889,-1.6049898843017005,-2.0625,1.1049898843017005
1589552806.7621815,0.0,-4.161528819331232,8.735350867659314,0.4622222222222222,0.3322222222222222,-0.6088888888888889,1.684681012933377,2.6707400463717716,0.23966144984240834
1589552806.7721815,-0.00624185157327316,-4.153758148426727,8.761209257866366,0.4622222222222222,0.3322222222222222,-0.6088888888888889,-1.6670877992979816,-0.5265646546320668,2.465694339977435
1589552806.7821815,-0.023334323260821143,-4.136665676739179,8.759998515108768,0.48000131990331707,0.34481574974633106,-0.5851834253140957,-2.374888633157621,-1.604086235058282,-1.2087107431880622
1589552806.7921815,0.020650818736555603,-4.173414987488476,8.909188287457747,0.4888888888888889,0.3511111111111111,-0.5733333333333334,-2.6199267966109137,-1.0625,-5.01627046841389
1589552806.8021815,0.14851313362817598,-4.059070708517609,9.017769700442264,0.4888888888888889,0.3511111111111111,-0.5733333333333334,0.052979910114773765,-3.136388968468549,-1.1222224211713727
1589552806.8121815,0.0884325592221884,-4.021520349513867,8.927648838833283,0.4888888888888889,0.3511111111111111,-0.5733333333333334,-2.8571729126752494,-1.071119223262726,4.040951941843184
1589552806.8221815,0.013911261152640464,-4.0170110923559195,8.787822522305282,0.4888888888888889,0.3511111111111111,-0.5733333333333334,-1.0332017120810222,0.8770798167349891,2.119453822040029
1589552806.8321815,0.01988344163232282,-4.049883441632322,8.896888068569694,0.46896659446734035,0.3511111111111111,-0.5899352453512904,1.0588575510100882,2.7449005714141235,-6.052081489722131
1589552806.8421814,-0.04925183476619837,-3.982518347661984,8.84,0.4622222222222222,0.3511111111111111,-0.5955555555555555,-2.65990249528203,-1.5634173830991822,-8.014822289788215
1589552806.8521814,-0.04045690920528413,-3.8945690920528415,8.84,0.4622222222222222,0.3511111111111111,-0.5955555555555555,-0.13136139651918644,2.8340453973579365,-11.862602222688194
1589552806.8621814,-0.03186345044572627,-3.7517992658626116,8.94279517566859,0.4622222222222222,0.3511111111111111,-0.5955555555555555,-2.217771368641846,-3.599749606712113,-10.661495804929208
1589552806.8721814,-0.06705422128998428,-3.030388463555323,8.995581331934977,0.4622222222222222,0.3511111111111111,-0.5955555555555555,0.7514499213424224,2.778577608809649,-12.531005506030414
1589552806.8821814,0.025282970876255882,-2.9485408453092545,8.98,0.4566666666666666,0.3511111111111111,-0.5955555555555555,-4.242925728093603,1.235144028996566,-6.921306011276442
1589552806.8921814,0.1432936348770479,-3.0337127826972323,8.974131930517418,0.4566666666666666,0.3511111111111111,-0.5955555555555555,-1.1459573910092253,-4.8566767455493505,-4.17590478541236
1589552806.9021814,0.039765820246212696,-2.9366554564808247,8.883545092715437,0.4566666666666666,0.3511111111111111,-0.5955555555555555,-1.4694818117305855,2.17997940514023,-1.1024227885594398
1589552806.9121814,0.015401570517804384,-2.7799265277561807,8.941606282071218,0.4566666666666666,0.3511111111111111,-0.5955555555555555,2.5027552091432126,4.92746073705489,2.385957665992847
1589552806.9221814,0.007909255782875688,-2.7660453721085623,8.941863883674314,0.4566666666666666,0.3511111111111111,-0.5955555555555555,3.9301043622132426,5.114768605428107,8.757588532883641
1589552806.9321814,-0.015187341659629316,-2.8231556958087025,8.854063291701854,0.4566666666666666,0.34182995787467096,-0.5896493671323664,3.615632917018534,7.3532990355126895,12.592579114627316
1589552806.9421813,-0.008703056413591287,-2.8997270768980656,9.04546069744757,0.4566666666666666,0.3388888888888889,-0.5877777777777777,1.5729530767354902,-2.6435589741505447,18.74722987115916
1589552806.9521813,0.008344171679401722,-3.027581287595513,8.985795399122095,0.4566666666666666,0.3388888888888889,-0.5877777777777777,2.531859656966347,-3.709010729962608,21.996857726385954
1589552806.9621813,0.07208178177474882,-3.0311311740321787,8.891311740321788,0.4566666666666666,0.3388888888888889,-0.5877777777777777,5.950809737932973,-0.8192712358603247,24.41884616735755
1589552806.9721813,0.08,-3.0935727897565464,8.903839796158705,0.4566666666666666,0.3388888888888889,-0.5877777777777777,0.812380896302165,-1.9274872599190631,24.48883503201079
1589552806.9821813,0.17814646280791166,-3.100185353719209,8.870741414876834,0.449033052892718,0.3465225026628376,-0.6019544890722539,1.951344648707681,-0.47225382235165636,25.787013863608784
1589552806.9921813,0.1494968639214617,-3.1999161439869104,8.89025156803927,0.4488888888888889,0.3466666666666667,-0.6022222222222222,2.5115302017998364,3.5446805972184348,13.099711105808563
1589552807.0021813,0.10660451322607034,-3.1927674188710116,8.911697743386965,0.4488888888888889,0.3466666666666667,-0.6022222222222222,3.4944799052358877,2.0255765100899916,16.271957875988548
1589552807.0121813,-0.018892968088110695,-3.0992558599265743,8.820181445919232,0.4488888888888889,0.3466666666666667,-0.6022222222222222,-3.611391556057611,-2.0788354278452412,34.23095082603784
1589552807.0221813,0.08441166201117319,-3.1128823324022346,8.93966655027933,0.4488888888888889,0.3466666666666667,-0.6022222222222222,-1.2286792946927374,0.4227915502793298,31.790077252094974
1589552807.0321813,0.03557172084564675,-3.1622141395771766,8.904014548761083,0.4826602005506302,0.3466666666666667,-0.5900270263443712,-1.727494885201182,-4.808550238690611,23.376363946351443
1589552807.0421813,0.0010847123515069779,-3.226745862945479,8.918372931472739,0.4888888888888889,0.3466666666666667,-0.5877777777777777,1.7830575296986044,-5.582838356590756,20.821184248067645
1589552807.0521812,-0.06296950438034375,-3.2789762811847116,8.871023718815287,0.4888888888888889,0.3466666666666667,-0.5877777777777777,2.8745764497269968,-3.6384318106006077,22.892712301831143
1589552807.0621812,-0.11712636982560891,-3.218620890523173,8.877126369825609,0.4888888888888889,0.3466666666666667,-0.5877777777777777,2.6848672952998145,-2.8125,20.139137419448794
1589552807.0721812,-0.11441201972964136,-3.193236059188924,8.907939901351794,0.4888888888888889,0.3466666666666667,-0.5877777777777777,1.7169532060667225,-2.253701972964137,22.718614518628023
1589552807.0821812,-0.12208422608053196,-3.18,8.94611230144071,0.48307055781307723,0.3466666666666667,-0.5935961088535894,2.913335796084226,-0.9565339859623199,25.0625
1589552807.0921812,-0.22469989047097483,-3.1517667031763414,8.932355604235122,0.4744444444444445,0.3466666666666667,-0.6022222222222222,-1.42596294267981,-6.804643574297188,27.062358525009127
1589552807.1021812,-0.17615726936940948,-3.2038427306305906,8.894104846246274,0.4744444444444445,0.3466666666666667,-0.6022222222222222,1.7145153753727023,-0.8000895598771747,27.1875
1589552807.1121812,-0.1301028129274966,-3.1062673136114913,8.8820205625855,0.4744444444444445,0.3466666666666667,-0.6022222222222222,7.560991738628592,-1.4589015475376197,34.468736640731876
1589552807.1221812,-0.13423907088857237,-3.0942390708885723,8.958314889887149,0.4744444444444445,0.3466666666666667,-0.6022222222222222,4.710275829955078,-4.749308370768051,32.97521776049085
1589552807.1321812,-0.1457411136141624,-3.1516700225274614,8.926847750244214,0.4827371641093457,0.3422013560778737,-0.6060496312983304,-0.5881960088514981,-1.9904843902633518,30.11795767628237
1589552807.1421812,-0.20829556490773715,-3.19,8.855016186468113,0.4888888888888889,0.3388888888888889,-0.6088888888888889,1.5385642602784069,-3.538766591129815,36.75539211719003
1589552807.1521811,-0.1994136222573093,-3.2380348813996114,8.898034881399612,0.4888888888888889,0.3388888888888889,-0.6088888888888889,-2.131934992105406,0.7948710096005511,34.152336164497925
1589552807.1621811,-0.23074202611138656,-3.308890431333664,9.017780862667326,0.4888888888888889,0.3388888888888889,-0.6088888888888889,-4.453710130556932,-4.247919765328046,36.57884027433482
1589552807.1721811,-0.22589575409454318,-3.341156368858185,8.962426647519987,0.4888888888888889,0.3388888888888889,-0.6088888888888889,-2.031756966545059,-1.5299231545447487,31.524119721726308
1589552807.1821811,-0.2802929907595222,-3.393066421971087,9.02474612833639,0.5118576472734687,0.32644747809724145,-0.6088888888888889,-3.476319263337519,0.8508302746385911,37.88244953153675
1589552807.192181,-0.2562956163524829,-3.3747217122643622,8.92203465723369,0.5155555555555555,0.3244444444444444,-0.6088888888888889,4.024464917386826,-1.3796763757668025,39.62847859669547
1589552807.202181,-0.27271761586387516,-3.398397019829844,8.860244172238218,0.5155555555555555,0.3244444444444444,-0.6088888888888889,1.9503725212695002,-1.24455960340312,47.141717705334045
1589552807.212181,-0.3272349523963208,-3.4696466031950943,8.861029126996934,0.5155555555555555,0.3244444444444444,-0.6088888888888889,3.12864087461675,-1.820946627400355,47.57633481926739
1589552807.222181,-0.35,-3.4944566161814063,8.885543383818595,0.5155555555555555,0.3244444444444444,-0.6088888888888889,2.520431197505835,0.26489961156447484,41.984415728231426
1589552807.232181,-0.36442976642135577,-3.4467107007359328,8.774561868629155,0.49872082806397383,0.3244444444444444,-0.6297318848308472,3.5520695250719934,0.6337791973305298,45.96968562874252
1589552807.242181,-0.39986939948759603,-3.534542898206586,8.976422545772667,0.4922222222222222,0.3244444444444444,-0.6377777777777778,5.901760607386115,1.710995594576017,45.16971817784165
1589552807.252181,-0.41,-3.5560698751227724,8.906768626350498,0.4922222222222222,0.3244444444444444,-0.6377777777777778,-0.19268275571769333,-0.9088413778588467,45.08269608530939
1589552807.262181,-0.42503946138668697,-3.5299473848177505,8.819947384817752,0.4922222222222222,0.3244444444444444,-0.6377777777777778,2.044486006784589,-1.9365134653328258,45.5
1589552807.272181,-0.45705250170460077,-3.552631254261502,8.851157505113802,0.4922222222222222,0.3244444444444444,-0.6377777777777778,2.1332612260138317,-0.49671864346245,45.65986720348063
1589552807.282181,-0.47028145894222684,-3.561407294711134,8.944296352644432,0.49924116854172507,0.3152658223343254,-0.6447967240972806,-1.1592515113904795,-2.8284346598870966,42.989808123473594
1589552807.292181,-0.46,-3.460754423151793,8.984070164813774,0.5066666666666667,0.3055555555555556,-0.6522222222222223,-5.319621382532336,-8.87905545702297,44.64221135960548
1589552807.302181,-0.46604649159084643,-3.409767542045768,8.844884201819685,0.5066666666666667,0.3055555555555556,-0.6522222222222223,-3.763097299765647,-5.177340734422387,46.39825656534326
1589552807.312181,-0.5249669113658555,-3.383129136079268,8.866804686652443,0.5066666666666667,0.3055555555555556,-0.6522222222222223,-2.0850585831555346,-0.6415556178353161,46.507657397027444
1589552807.322181,-0.55,-3.3218357244083787,8.92,0.5066666666666667,0.3055555555555556,-0.6522222222222223,-0.7304070975131527,-2.84571377958106,52.68377870746054
1589552807.332181,-0.56636,-3.29,9.03452,0.5221177777777778,0.29555777777777775,-0.6694911111111111,-2.8970000000000002,-5.051,59.57875
1589552807.342181,-0.5916248894131524,-3.2972082964710507,8.930250663521086,0.5255555555555556,0.2933333333333333,-0.6733333333333333,1.330703823847439,-0.5021072938169668,49.292244175759365
1589552807.352181,-0.6,-3.307254209810689,9.003321566781718,0.5255555555555556,0.2933333333333333,-0.6733333333333333,8.282608056165675,1.4031776226336157,46.7228748300387
1589552807.362181,-0.5848344386832268,-3.256920535391294,8.852847702881949,0.5255555555555556,0.2933333333333333,-0.6733333333333333,-0.570570059085977,-3.680876944410949,49.60244181840106
1589552807.372181,-0.588792177386035,-3.266376532158105,8.899902217325437,0.5255555555555556,0.2933333333333333,-0.6733333333333333,-3.835146674011844,-1.5208735022724142,49.762988913372816
1589552807.382181,-0.6026483767331755,-3.2978812986134596,9.037351623266824,0.5252024386577988,0.29303906925186934,-0.6733333333333333,-3.466097396009469,2.8225503043625295,49.181676952992895
1589552807.392181,-0.6692020440251573,-3.3112054507337523,8.938794549266248,0.5188888888888888,0.2877777777777778,-0.6733333333333333,-3.505306603773585,-7.657683110587002,52.912670335429766
1589552807.402181,-0.6860793825366275,-3.3460793825366277,8.93431753014651,0.5188888888888888,0.2877777777777778,-0.6733333333333333,-4.517061746337248,-10.068853352449036,50.05088205546172
1589552807.412181,-0.6947575757575757,-3.373787878787879,9.007090909090909,0.5188888888888888,0.2877777777777778,-0.6733333333333333,-0.14053030303030267,-5.142234848484848,48.4873106060606
1589552807.422181,-0.7046534159533686,-3.3488124245129445,8.907130441632097,0.5188888888888888,0.2877777777777778,-0.6733333333333333,5.238850890090847,-0.8397048784330199,51.4733694795988
1589552807.432181,-0.7381057547397994,-3.314090646919828,8.820377695499284,0.5157660272511334,0.27707082359118756,-0.6791329335177364,3.4138579827711313,0.3512858857238541,53.461178065752506
1589552807.4421809,-0.8045346335866915,-3.3780395812419335,9.029584110139108,0.5111111111111111,0.2611111111111111,-0.6877777777777778,-1.6571776853578086,2.395176036139395,53.02512369138104
1589552807.4521809,-0.8777122586648057,-3.418123317715083,9.001438706675971,0.5111111111111111,0.2611111111111111,-0.6877777777777778,-0.054287957332269876,-3.4921244143156214,52.59366588575416
1589552807.4621809,-0.9334249210056327,-3.4210963044374227,8.832192608874845,0.5111111111111111,0.2611111111111111,-0.6877777777777778,3.77053853551312,-1.398088679763704,53.89302273663965
1589552807.4721808,-1.007776383122526,-3.5144440957806315,9.054440957806314,0.5111111111111111,0.2611111111111111,-0.6877777777777778,0.47232246306845616,0.3406090084001159,60.15995974944482
1589552807.4821808,-0.9419164921378944,-3.3752913799408266,8.870916192945714,0.5195000166217879,0.2387406964159732,-0.6996620605845698,2.256777533991556,-5.252083956650377,58.73437967487783
1589552807.4921808,-0.9095508329276295,-3.335618610164469,9.003711660986813,0.5244444444444445,0.2255555555555556,-0.7066666666666667,-2.6742533285354444,-1.20148619901361,58.16991670723705
1589552807.5021808,-0.953008702859511,-3.373203481143804,9.05757563199337,0.5244444444444445,0.2255555555555556,-0.7066666666666667,-2.826564442602569,-1.495674471612101,53.205216535433074
1589552807.5121808,-0.9434129692832764,-3.326825938566553,8.861112627986348,0.5244444444444445,0.2255555555555556,-0.7066666666666667,1.3928327645051195,-4.474189419795222,49.55904436860068
1589552807.5221808,-0.9462034229055141,-3.284367237150919,8.852282640225733,0.5244444444444445,0.2255555555555556,-0.7066666666666667,2.2990097834972705,-5.064052569816197,49.407875913082464
1589552807.5321808,-1.0323274437523835,-3.3737239100038137,9.030930977500953,0.5244444444444445,0.21160157055492002,-0.7293418922926994,2.7776884454048556,1.2298350705478578,54.62730710563112
1589552807.5421808,-1.0744076297957512,-3.371706817140515,8.932560225710771,0.5244444444444445,0.1988888888888889,-0.75,3.8560490969157684,2.861696387663074,54.69433944633341
1589552807.5521808,-1.1379036847516797,-3.3269759211879197,8.851317280791946,0.5244444444444445,0.1988888888888889,-0.75,1.5524078812080058,-1.1186261088926615,60.10959655436264
1589552807.5621808,-1.2196071793084564,-3.363685743446765,8.883685743446765,0.5244444444444445,0.1988888888888889,-0.75,3.062682034303353,-1.2762487242040277,55.34387057827786
1589552807.5721807,-1.2502432670727797,-3.38512163353639,8.94097306829112,0.5244444444444445,0.1988888888888889,-0.75,2.503203651009939,-0.8185816768194935,58.342338539996796
1589552807.5821807,-1.2290805953665822,-3.3149100173188426,8.922578248537938,0.5303338548508097,0.1753312472634277,-0.7436198053931042,0.8427718932757712,0.9803892347079644,62.07340585075676
1589552807.5921807,-1.2059669314313504,-3.2519338628627006,9.068214729561786,0.5377777777777778,0.14555555555555555,-0.7355555555555555,0.15330685686497003,2.963740071324364,53.58874007132437
1589552807.6021807,-1.2123660596667958,-3.2570981790003875,8.893570864006199,0.5377777777777778,0.14555555555555555,-0.7355555555555555,0.32450019372336314,2.151227237504843,51.177870980240215
1589552807.6121807,-1.2030053220774453,-3.2252593136355294,8.356349788952102,0.5377777777777778,0.14555555555555555,-0.7355555555555555,2.790475316571848,1.217918425399156,47.984125527619746
1589552807.6221807,-1.2609897213666643,-3.2929985316238093,9.133958885466658,0.5377777777777778,0.14555555555555555,-0.7355555555555555,-0.7987518802378055,-1.414041795000358,45.38792215815486
1589552807.6321807,-1.315392900485437,-3.287057038834951,9.260970873786407,0.5370587243797196,0.13896423274002156,-0.7345968176914779,-6.574730734223301,4.966777912621359,43.348035497572816
1589552807.6421807,-1.3786824221523482,-3.2248378131656357,8.768466173039862,0.5311111111111111,0.08444444444444445,-0.7266666666666667,-2.369342732528654,-2.221791003144335,45.436949741353075
1589552807.6521807,-1.4381255445832122,-3.3281255445832123,9.028573918094686,0.5311111111111111,0.08444444444444445,-0.7266666666666667,0.7934985840836479,-0.7622758132442637,46.52505763505663
1589552807.6621807,-1.48,-3.324168616351172,8.98251010291062,0.5311111111111111,0.08444444444444445,-0.7266666666666667,-1.375,1.9686370069206984,40.52612031871206
1589552807.6721807,-1.4522580075884586,-3.247053736874614,8.735075443395393,0.5311111111111111,0.08444444444444445,-0.7266666666666667,-1.3287633459807642,5.040186843730698,39.15121216800494
1589552807.6821806,-1.3389987670323418,-3.19,9.06050678132212,0.5351105631254852,0.07594560891389952,-0.7361653652008051,-1.2937268818564067,2.7499229395213556,39.66316272011634
1589552807.6921806,-1.2767762225592323,-3.116776222559232,8.896266315292246,0.54,0.06555555555555556,-0.7477777777777778,-0.9660766228277353,1.7594551003157397,28.83027745319842
1589552807.7021806,-1.3840566343042071,-3.139059870550162,8.718441747572815,0.54,0.06555555555555556,-0.7477777777777778,-1.7538632686084141,3.21084142394822,32.52708333333334
1589552807.7121806,-1.5955464609191545,-3.2503643072794364,8.884412613217041,0.54,0.06555555555555556,-0.7477777777777778,-1.3335038577658502,2.4471192552834617,31.794796209325728
1589552807.7221806,-1.7,-3.3159097302135274,9.14365298555172,0.54,0.06555555555555556,-0.7477777777777778,1.8520809359416954,-1.5341148830072882,22.846526978647233
1589552807.7321806,-1.6005455960421358,-3.200076711414992,9.042344423135718,0.5336023482834122,0.010884713613805587,-0.7367272884491262,1.4003620167319824,-1.3125,19.151800355763083
1589552807.7421806,-1.5342955400532998,-3.08056356795736,8.9685222997335,0.5277777777777778,-0.03888888888888889,-0.7266666666666667,-0.19982804906725193,-3.0131878037309923,22.599400866123215
1589552807.7521806,-1.6435719086021505,-3.1567674731182795,8.85319556451613,0.5277777777777778,-0.03888888888888889,-0.7266666666666667,0.9097782258064516,-4.372647849462366,32.35433467741935
1589552807.7621806,-1.7675007977026165,-3.284375199425654,8.896251196553925,0.5277777777777778,-0.03888888888888889,-0.7266666666666667,4.566534630264837,-1.2967603302488833,29.48803570716337
1589552807.7721806,-1.7414472521646935,-3.2317367025976322,8.910578900865877,0.5277777777777778,-0.03888888888888889,-0.7266666666666667,6.897817635624668,0.7236813041173351,22.7445728043824
1589552807.7821805,-1.5932125817282206,-3.0538550980738646,8.851285032691289,0.5277777777777778,-0.03888888888888889,-0.7266666666666667,2.960334202155858,-2.982185456794487,23.300452818519172
1589552807.7921805,-1.5741556314821181,-3.043543052382589,9.102003315609648,0.4922222222222222,-0.06555555555555556,-0.65,1.8768625032852841,0.7682118452176374,16.76345197420294
1589552807.8021805,-1.5647064715194985,-2.9612358243675487,8.940175115505152,0.4922222222222222,-0.06555555555555556,-0.65,3.9823632515912246,3.011778698588091,17.607363251591224
1589552807.8121805,-1.591213841885819,-2.995317899381885,8.902832459968526,0.4922222222222222,-0.06555555555555556,-0.65,2.877165836564513,3.592846047145476,16.656428965427732
1589552807.8221805,-1.5153851130592308,-2.9401109565554946,9.094836800051757,0.4922222222222222,-0.06555555555555556,-0.65,-1.052219131109889,1.614719131109889,12.482865218516482
1589552807.8321805,-1.4800043833100252,-2.821821369680018,8.806352877329939,0.493737595116668,-0.05737254192554867,-0.645756955895552,0.7612191863741676,0.005856154376004508,9.53434245131395
1589552807.8421805,-1.5846955807043055,-2.9136757918695073,8.737968009104128,0.4977777777777778,-0.03555555555555556,-0.6344444444444445,-1.65049472086995,1.559836726307138,15.163336915976481
1589552807.8521805,-1.6572887666699114,-3.03,8.891878711184658,0.4977777777777778,-0.03555555555555556,-0.6344444444444445,0.29019638859145336,-3.85064611116519,15.757563820208313
1589552807.8621805,-1.6446902609410314,-3.0346902609410313,8.69699095952332,0.4977777777777778,-0.03555555555555556,-0.6344444444444445,0.2920369324018903,-4.090154355866036,11.10121738237107
1589552807.8721805,-1.6699765192072884,-3.036004696158542,8.888037569268338,0.4977777777777778,-0.03555555555555556,-0.6344444444444445,-2.7984737484737483,-4.737441298018221,11.186619470273316
1589552807.8821805,-1.6824712744650199,-3.0370114902139917,8.864540215748972,0.511800758205762,-0.024259265766346134,-0.6250957908257884,-3.56681102638884,-2.0517257282406267,10.143320215046206
1589552807.8921804,-1.6277857734643153,-3.0333393300982365,8.976642679607053,0.5377777777777778,-0.0033333333333333327,-0.6077777777777778,1.8182950645046754,2.437724878683868,9.144746419694638
1589552807.9021804,-1.61,-2.9885406842483166,8.985058120354738,0.5377777777777778,-0.0033333333333333327,-0.6077777777777778,4.206467951330267,3.454288438027595,12.461337592905242
1589552807.9121804,-1.631974214180177,-2.977467767725221,8.935493553545044,0.5377777777777778,-0.0033333333333333327,-0.6077777777777778,3.828326451717368,4.660140516525998,12.429454581334628
1589552807.9221804,-1.6922477823990576,-3.05,8.935389414406124,0.5377777777777778,-0.0033333333333333327,-0.6077777777777778,3.740264639846884,2.8953540800176674,9.009016480179616
1589552807.9321804,-1.707685597556038,-3.05,8.835043615885752,0.5377777777777778,-0.0033333333333333327,-0.6077777777777778,6.248909602856196,2.605895045824285,6.06618296588023
1589552807.9421804,-1.6218694468974715,-2.974299385441635,9.084859877088327,0.5366666666666666,0.04777777777777778,-0.5933333333333334,1.857506037450214,-0.9550153639591256,4.9298957413448194
1589552807.9521804,-1.6899010579054552,-3.0498900643393947,9.09997801286788,0.5366666666666666,0.04777777777777778,-0.5933333333333334,8.8023996611819,0.9347516084848704,2.378710328545425
1589552807.9621804,-1.7460074606885965,-3.0896828314919595,8.788302247130847,0.5366666666666666,0.04777777777777778,-0.5933333333333334,8.736590170810501,-7.144472754207793,3.61613820122441
1589552807.9721804,-1.7010901886590393,-2.992362075427919,8.975457547254003,0.5366666666666666,0.04777777777777778,-0.5933333333333334,1.6714775911614037,-2.793112026344441,6.797778303318043
1589552807.9821804,-1.4890659911125879,-2.871691307778562,8.98266497778147,0.5385611251851544,0.04619906234570465,-0.5914388748148456,2.701451472237219,2.9906012500519124,1.4159303750155738
1589552807.9921803,-1.2698665962224278,-2.769733192444855,8.560465592392022,0.5433333333333333,0.042222222222222223,-0.5866666666666667,-0.704158961828028,-2.9966814159292037,-4.329976225069343
1589552808.0021803,-1.368125645500196,-2.881094234125147,9.122188468250293,0.5433333333333333,0.042222222222222223,-0.5866666666666667,-3.191007959685174,1.3538876918693685,-15.90509143844154
1589552808.0121803,-1.4961700635205175,-2.955105412883364,9.214676746814233,0.5433333333333333,0.042222222222222223,-0.5866666666666667,-2.127679162932076,-2.4135628970032346,-17.859012704103503
1589552808.0221803,-1.5951397807740808,-2.936354835580561,8.983831021437577,0.5433333333333333,0.042222222222222223,-0.5866666666666667,-1.4229071684935497,-0.10222742264041118,-15.961443883984867
1589552808.0321803,-1.7278143121529919,-3.020661937075879,9.18986674892042,0.5429359791623827,0.05175872232503941,-0.5942163959147303,1.9544648365206663,-0.46898519432449115,-17.78559531153609
1589552808.0421803,-1.7275311489701768,-2.999860329107487,8.921785571579061,0.5422222222222223,0.06888888888888889,-0.6077777777777778,-2.126557448508845,-4.463311417051109,-17.145573758581858
1589552808.0521803,-1.847936397105497,-3.082539672464136,8.81809508696204,0.5422222222222223,0.06888888888888889,-0.6077777777777778,-4.496040688079217,-0.4652786593880919,-15.771827789767677
1589552808.0621803,-1.8808715874130957,-3.027472929434849,8.952331096630411,0.5422222222222223,0.06888888888888889,-0.6077777777777778,2.906588382064388,2.86723159564933,-10.427024539134226
1589552808.0721803,-1.7495427622814748,-2.8247426885004,8.93302850818765,0.5422222222222223,0.06888888888888889,-0.6077777777777778,0.6457099379009281,3.3496390363371793,-13.070188090504786
1589552808.0821803,-1.3669419049763567,-2.527947984688133,8.890339788335961,0.547432084865771,0.06888888888888889,-0.6096165528284421,-5.030063611799145,-1.6830865795991894,-30.457989473091644
1589552808.0921803,-0.8233095714523929,-2.4924387193596798,9.151465315991329,0.5611111111111111,0.06888888888888889,-0.6144444444444445,-4.889470777055195,-0.904006690845423,-43.91124207937302
1589552808.1021802,-1.5806352165184974,-3.4913865787209635,9.68663428448523,0.5611111111111111,0.06888888888888889,-0.6144444444444445,1.6694418554631487,7.214876236736449,-31.412568110123317
1589552808.1121802,-1.9645229068652081,-4.042066413922258,8.475166034805646,0.5611111111111111,0.06888888888888889,-0.6144444444444445,0.19016923217466752,-1.7060161923902617,-35.33223518932992
1589552808.1221802,-1.6452199333120177,-3.952661581327365,8.251653953318414,0.5611111111111111,0.06888888888888889,-0.6144444444444445,7.414399008815602,-3.2227053167679167,-36.40988272507194
1589552808.1321802,-1.340402903429413,-3.743601935619609,9.002048530752507,0.5588198486725733,0.06717044205998551,-0.616449299078165,-7.026972000140263,4.683616487832246,-38.04020048741146
1589552808.1421802,-1.1653845683914716,-3.6776921823772577,8.87230741034883,0.5522222222222222,0.06222222222222223,-0.6222222222222222,-2.7451967132995296,4.365384517482233,-44.96153552446698
1589552808.1521802,-1.1879051748649416,-3.7579051748649417,9.058229314756895,0.5522222222222222,0.06222222222222223,-0.6222222222222222,0.04644405743531421,3.4396769263576914,-51.97804858544214
1589552808.1621802,-1.1506370841626385,-3.7206370841626386,8.99114675149275,0.5522222222222222,0.06222222222222223,-0.6222222222222222,-1.351109343901052,0.36505944341768526,-66.93186997974126
1589552808.1721802,-0.6966887783305694,-3.0330237700386955,8.841387506909895,0.5522222222222222,0.06222222222222223,-0.6222222222222222,-4.071655610834715,2.945930071862908,-78.8587271973466
1589552808.1821802,-1.0856989465153972,-3.329405051323609,8.962551998919503,0.5613596254276967,0.060889684254757194,-0.6197475088540729,3.439694759589411,7.264650020259319,-87.29982104267964
1589552808.1921802,-1.191580395892876,-3.529209802053562,8.932734024910905,0.6055555555555555,0.054444444444444434,-0.6077777777777778,0.8157351540171484,1.3960626830387075,-92.70254004798701
1589552808.2021801,-1.1612724962947278,-3.550939374691227,8.56636248147364,0.6055555555555555,0.054444444444444434,-0.6077777777777778,1.5882736960971133,-4.518195532500529,-101.23163684804855
1589552808.2121801,-1.3118405291199706,-3.5958633106742606,9.05620503398861,0.6055555555555555,0.054444444444444434,-0.6077777777777778,-4.46833777328679,1.900142384714312,-99.67895691714128
1589552808.2221801,-1.3977666603737964,-3.6810194449688503,8.923883330186898,0.6055555555555555,0.054444444444444434,-0.6077777777777778,-1.2190626769869737,1.5703818198980555,-104.49786435718332
1589552808.23218,-1.29,-3.7088359373297597,8.856814843869168,0.6179035589161758,0.04125928831361268,-0.6077777777777778,-3.70846680176941,0.0025781198927893323,-99.81270020265411
1589552808.24218,-1.2958834215554234,-3.8002959877219906,8.842654806276819,0.6711111111111111,-0.015555555555555557,-0.6077777777777778,-1.5220855388855827,3.062613540263727,-95.57707230557209
1589552808.25218,-1.3662346682429438,-3.928845869661593,9.021154130338408,0.6711111111111111,-0.015555555555555557,-0.6077777777777778,-1.5144266292300872,4.830473252549136,-88.50431321117186
1589552808.26218,-1.43,-4.06040690638776,8.87918618722448,0.6711111111111111,-0.015555555555555557,-0.6077777777777778,0.6504316492350246,2.08284531938802,-84.19125059426052
1589552808.27218,-1.407270670373004,-4.062321632512337,8.875356734975327,0.6711111111111111,-0.015555555555555557,-0.6077777777777778,1.2751982459542741,2.4311297325834467,-83.00736149718793
1589552808.28218,-1.3444054521720652,-4.007797273913967,8.988810904344131,0.7460037980362195,-0.08726652702306144,-0.5549123517129952,-1.1332837497343737,2.090641222185119,-75.53192070671807
1589552808.29218,-1.3404927408710956,-3.964236691597008,8.974483062032556,1.0111111111111108,-0.3411111111111111,-0.36777777777777776,-4.614523757149142,6.097915750109987,-71.94459414870215
1589552808.30218,-1.297912846373268,-3.9108715362673188,8.877912846373269,1.0111111111111108,-0.3411111111111111,-0.36777777777777776,-5.556911229115729,2.535264491646292,-67.10263854930726
1589552808.31218,-1.301614543279501,-4.024843629838503,8.8746458173118,1.0111111111111108,-0.3411111111111111,-0.36777777777777776,0.886327223788772,1.0497361787575836,-64.40208173118003
1589552808.32218,-1.3457622646035745,-4.165930190716085,8.907286793810723,1.0111111111111108,-0.3411111111111111,-0.36777777777777776,1.2458018471872376,4.20445753868298,-64.26284184958618
1589552808.33218,-1.346156706929434,-4.316018436109346,8.966202797202797,1.1013598926326198,-0.24223560782651687,-0.37905887546796635,-1.55092180546726,3.3634218054672598,-54.262730451366814
1589552808.34218,-1.1641516203870483,-4.283108491721544,8.797239217833623,1.4644444444444444,0.15555555555555556,-0.4244444444444445,-0.538856146519302,1.3861271020361112,-49.80945952274594
1589552808.35218,-1.049317117454645,-4.240801043272764,8.81537098145453,1.4644444444444444,0.15555555555555556,-0.4244444444444445,-0.010013040909549353,-1.5602844863610814,-39.15704839546378
1589552808.36218,-0.8037385914531859,-4.062492394302123,8.80370816866168,1.4644444444444444,0.15555555555555556,-0.4244444444444445,3.658436638139376,0.3254154701316426,-38.78020421654204
1589552808.37218,-0.8414872101165712,-4.0937846521398855,8.922974420233142,1.4644444444444444,0.15555555555555556,-0.4244444444444445,-1.2026918482514315,5.528651089508589,-40.98647382296
1589552808.38218,-0.879016088170972,-4.142951735487084,9.001967823658056,1.4014740873866527,0.15894458518887422,-0.4480583283411164,-0.5635055106857502,2.0625,-40.115717634194404
1589552808.39218,-0.8694426109277594,-4.16984074597936,9.017929697731677,0.8244444444444444,0.19,-0.6644444444444444,-0.03284614175703285,2.013728456178951,-38.323448713919014
1589552808.40218,-0.8100687914480847,-4.1610756705928935,8.762013758289617,0.8244444444444444,0.19,-0.6644444444444444,-3.533458502425022,-3.2947546520835393,-40.02102871671781
1589552808.41218,-0.8913187267465895,-4.252283312663635,8.776141656331816,0.8244444444444444,0.19,-0.6644444444444444,1.5088535207385974,3.1404936612925454,-42.415219787791095
1589552808.42218,-0.8262975403059116,-4.194486702494143,8.747243351247072,0.8244444444444444,0.19,-0.6644444444444444,-0.29729054705801294,-0.02025845735152254,-38.03532042338432
1589552808.43218,-0.8697717908082409,-4.42904912836767,9.028896988906498,0.8244444444444444,0.19,-0.6644444444444444,0.9933438985736924,-4.299187797147384,-37.3110736925515
1589552808.44218,-0.7237648027605679,-4.252748804015371,8.774711199121638,0.6111111111111112,0.22666666666666666,-0.6788888888888889,3.3767400596031685,2.6095600345070977,-37.78710003137009
1589552808.45218,-0.5489987318074764,-3.9954942931336435,8.83550697505888,0.6111111111111112,0.22666666666666666,-0.6788888888888889,-0.4688688930490972,0.5000792620327315,-35.99397985989492
1589552808.46218,-0.53,-3.8796408919779903,8.90263494397291,0.6111111111111112,0.22666666666666666,-0.6788888888888889,-1.491022299449754,1.1620538996190604,-40.35703067566664
1589552808.47218,-0.5388272496584033,-3.7917696662112044,8.802068124146007,0.6111111111111112,0.22666666666666666,-0.6788888888888889,0.668978137809877,-0.5808901034550068,-41.46242924067929
1589552808.4821799,-0.5879504196759711,-3.857267226234628,8.924876049189928,0.6111111111111112,0.22666666666666666,-0.6788888888888889,-1.1731407378489167,-0.6832300409916064,-30.819075736872925
1589552808.4921799,-0.8306176203451408,-4.105075010178834,8.97275454915594,0.5544444444444444,0.2644444444444444,-0.6788888888888889,1.1458666102915844,-3.8087397037176234,-40.76534067775377
1589552808.5021799,-0.6401407811080836,-3.8160756678881267,8.867663879232046,0.5544444444444444,0.2644444444444444,-0.6788888888888889,-2.6308293400983436,6.330867902220552,-47.333507547997115
1589552808.5121799,-0.6885189051055483,-3.8292403764824443,8.934405132542695,0.5544444444444444,0.2644444444444444,-0.6788888888888889,5.256807097737866,-0.587343882160275,-39.58370188241222
1589552808.5221798,-0.8319344215091691,-4.055685928698688,8.813634171360698,0.5544444444444444,0.2644444444444444,-0.6788888888888889,-0.49868402109165455,3.0923963413536812,-40.71592964349344
1589552808.5321798,-0.6528056951423786,-3.977567001675042,8.987776381909548,0.5544444444444444,0.2644444444444444,-0.6788888888888889,3.672581658291457,3.5770519262981573,-40.11343174204355
1589552808.5421798,-0.7346268695539082,-4.125453505007153,8.78495981271947,0.54,0.2966666666666667,-0.7,7.757104304851086,2.6519085706853947,-36.42702399531799
1589552808.5521798,-0.6286204845462241,-4.035129143693807,8.859267690055136,0.54,0.2966666666666667,-0.7,-5.18318901420695,6.875816442085516,-21.476564823499807
1589552808.5621798,-0.7708101840550701,-4.158101840550701,8.560532392715912,0.54,0.2966666666666667,-0.7,-5.422453986232486,0.8026625738417223,-20.123118866865205
1589552808.5721798,-0.7722820185244331,-4.236279144043436,8.728880549345257,0.54,0.2966666666666667,-0.7,-3.14643883743213,-3.5303417438518045,-22.23537807409773
1589552808.5821798,-0.6969292957521558,-4.102318748003833,9.206114460236346,0.54,0.2966666666666667,-0.7,-3.3557519562440117,-3.216372065633983,-15.380373433008623
1589552808.5921798,-0.6384018084907812,-3.8899352925316797,8.842203164858867,0.5611111111111111,0.3022222222222222,-0.7055555555555556,0.9241346413090819,0.878376661758301,-13.994864363191406
1589552808.6021798,-0.7417846709512933,-4.001784670951293,9.01196898071918,0.5611111111111111,0.3022222222222222,-0.7055555555555556,-0.7932025813990545,2.9797332288734264,-6.237431614171137
1589552808.6121798,-0.7861100476234942,-4.019592865813801,8.737372770566813,0.5611111111111111,0.3022222222222222,-0.7055555555555556,1.4961831170043889,-6.620169075077039,-2.0183286254552244
1589552808.6221797,-0.6965459948179956,-3.749000742874744,8.701549709191717,0.5611111111111111,0.3022222222222222,-0.7055555555555556,-0.6340503886503235,2.0829562338062364,-3.1590318167817215
1589552808.6321797,-0.7573428638727329,-3.832596437825008,9.180325052997771,0.5611111111111111,0.3022222222222222,-0.7055555555555556,3.9257147904549656,2.27294644960229,3.4906257360801582
1589552808.6421797,-0.7076216482918197,-3.78475670341636,8.474123281611542,0.5111111111111111,0.31222222222222223,-0.6855555555555556,1.0151528685177624,0.028523547025997006,10.241164548455151
1589552808.6521797,-0.6576691166462502,-3.8846617667074996,8.980784674016606,0.5111111111111111,0.31222222222222223,-0.6855555555555556,3.9587841976316867,-0.6850840479107119,16.619032428201987
1589552808.6621797,-0.5397906867797245,-3.696326431181486,8.904814204066335,0.5111111111111111,0.31222222222222223,-0.6855555555555556,4.473438817577064,-2.849056029232643,11.06911482244917
1589552808.6721797,-0.5319310409444392,-4.309378806333739,9.085586058277897,0.5111111111111111,0.31222222222222223,-0.6855555555555556,31.63833973578188,-55.852542630937876,-40.31331982572847
1589552808.6821797,-13.311782410188634,-33.69179382434218,4.235860266730747,0.5111111111111111,0.31222222222222223,-0.6855555555555556,-175.0933745344227,-229.5382036224919,-628.1771033581641
1589552808.6921797,-4.7503531084603825,-7.356014298127814,10.29753416541591,0.5005023215806058,0.32106288016430995,-0.6687583054655888,-105.59004710087684,-4.162876955130741,-501.90296429417805
1589552808.7021797,-2.2590488809861684,-4.899563849612748,4.411102258544341,0.4977777777777778,0.3233333333333333,-0.6644444444444444,-49.508200259877924,185.44769849886302,-267.58600655678845
1589552808.7121797,-9.45165415719195,-13.927968677871052,11.682589546752382,0.4977777777777778,0.3233333333333333,-0.6644444444444444,25.698627092273767,-1.0006935064712934,-198.20569145480346
1589552808.7221797,2.5832919934342513,1.2133175269013314,6.53189859565931,0.4977777777777778,0.3233333333333333,-0.6644444444444444,110.98558043042131,29.238259164690863,-175.62675542586175
1589552808.7321796,1.0108650981822604,-0.7585907957930575,6.786886740835309,0.4977777777777778,0.3233333333333333,-0.6644444444444444,149.3400472673111,88.09802267615053,-148.16240728919692
1589552808.7421796,-1.716047876319508,0.24080525309616824,13.072089269387416,0.4133333333333333,0.44222222222222224,-0.65,-75.1151701853545,-18.349689344194164,-49.1774343362979
1589552808.7521796,-0.65622973983875,1.0565863186767517,4.105470035741002,0.4133333333333333,0.44222222222222224,-0.65,-45.13347290333306,-39.7900891447095,-38.9801710165406
1589552808.7621796,1.75234282362307,-2.7380778497056544,12.673587455219659,0.4133333333333333,0.44222222222222224,-0.65,23.571353937527498,36.24451637232104,-9.47640914042696
1589552808.7721796,1.866573858755997,-7.070070182054344,10.485623782288982,0.4133333333333333,0.44222222222222224,-0.65,-2.9544104707435075,-0.8256512789893833,17.928055538097333
1589552808.7821796,1.6889545532843364,-4.022944418925126,9.257805035599448,0.4133333333333333,0.44222222222222224,-0.65,-6.7065889483808,-7.230159228582912,25.247195466812126
1589552808.7921796,1.753766910665696,-2.9424749932932204,9.309403671482773,0.40394861116433944,0.4615437090407389,-0.6604888071300519,-1.2667693442685781,-2.9574311117924346,42.575427317671405
1589552808.8021796,1.3894548325818783,-3.7970782505206784,9.092098963220653,0.3944444444444444,0.4811111111111111,-0.6711111111111111,4.066872840043027,4.692901322866363,53.376672178609844
1589552808.8121796,0.8768517131193909,-4.23883789196875,9.086817160242786,0.3944444444444444,0.4811111111111111,-0.6711111111111111,-0.4711632546975094,-6.4124568089042455,69.54862151604569
1589552808.8221796,0.8063129328665127,-3.9887458528903634,8.56739523292614,0.3944444444444444,0.4811111111111111,-0.6711111111111111,2.975618053113581,-5.851352875074533,74.83903003501155
1589552808.8321795,0.6887130532033872,-4.3233355967406935,9.04783991052884,0.3944444444444444,0.4811111111111111,-0.6711111111111111,-5.563281374820258,-2.514239495127017,73.04091358443841
1589552808.8421795,0.7955464450185331,-3.7813433674042454,8.717814219925868,0.3890195980547547,0.48731093555647076,-0.6625863524987415,0.6502255793927141,0.10557068778314416,76.05410395372347
1589552808.8521795,0.43571465939239934,-3.605979970853107,8.480730914390344,0.38666666666666666,0.49,-0.6588888888888889,3.1706821493965096,2.743976775905235,69.26184326071522
1589552808.8621795,0.32777643085981467,-4.085306087107109,8.820517793748378,0.38666666666666666,0.49,-0.6588888888888889,-0.5107368603342279,-1.6213254394319856,72.61757511472855
1589552808.8721795,0.38997616115062184,-4.130035758274067,8.750050061583694,0.38666666666666666,0.49,-0.6588888888888889,1.3741954388334858,5.060473697802852,72.75032778417895
1589552808.8821795,0.33141035940064967,-4.078734064475568,8.859855576123783,0.38666666666666666,0.49,-0.6588888888888889,1.8327315671824247,-3.9548118734937656,81.90463134364849
1589552808.8921795,0.20120932980329517,-4.051209329803295,8.864139553202197,0.4033333333333333,0.4722222222222222,-0.6711111111111111,5.810466490164759,-0.9433147167581997,93.240114160996
1589552808.9021795,0.12264661654135338,-3.975624060150376,8.815458646616541,0.4033333333333333,0.4722222222222222,-0.6711111111111111,1.8399436090225565,1.2359962406015037,99.37077067669173
1589552808.9121795,0.27978757172506413,-4.310191185447442,9.13917152972775,0.4033333333333333,0.4722222222222222,-0.6711111111111111,7.169045293614944,-3.3135621413746796,91.69944909046515
1589552808.9221795,0.18,-4.4,8.75,0.4033333333333333,0.4722222222222222,-0.6711111111111111,-1.5,-3.8125,97.3125
1589552808.9321795,0.25308530197384393,-4.599323550837757,8.982544142644048,0.4033333333333333,0.4722222222222222,-0.6711111111111111,-2.4135662746730495,-1.8192644916224372,94.57180117598085
1589552808.9421794,4.633367004223703,-10.357050786219531,8.525263345376827,0.42614034343742757,0.4421169688848178,-0.6847953171735677,-1.027632181568368,-3.3782886367105998,47.516462266551315
1589552808.9521794,1.721744564375355,-3.0531591179052846,8.580292310075917,0.4311111111111111,0.4355555555555555,-0.6877777777777778,-0.8503653875948975,2.485413546454579,5.729639002220729
1589552808.9621794,-0.2635018981302908,-3.22683550214174,8.28265555532999,0.4311111111111111,0.4355555555555555,-0.6877777777777778,-1.1652540652469598,-4.359105696420959,-3.651832660021519
1589552808.9721794,-0.033884146515545055,-4.086577782853228,8.577039712222001,0.4311111111111111,0.4355555555555555,-0.6877777777777778,3.038224084277843,8.776147686070745,-13.071812458960231
1589552808.9821794,0.18555786671104085,-4.442505200099841,9.061605166819202,0.4311111111111111,0.4355555555555555,-0.6877777777777778,8.872926460188035,2.3900347886679434,-1.6673054122639162
1589552808.9921794,0.10167410505290098,-4.293208701351394,8.98279017508817,0.4749355166470738,0.410356522372377,-0.6384753215498199,6.060163150338629,-1.7863421085484223,-1.084891233107581
1589552809.0021794,0.0967263173926287,-4.274722814498934,8.967996497106306,0.4755555555555556,0.41,-0.6377777777777778,4.840570743222663,-1.3078072646969234,-1.0704386232104781
1589552809.0121794,0.07420750521825938,-4.208905073055631,8.844754968690443,0.4755555555555556,0.41,-0.6377777777777778,-0.6804638578818403,1.7606236954351575,0.9002206416190217
1589552809.0221794,0.06186786477130442,-4.19329527878029,8.761647639390146,0.4755555555555556,0.41,-0.6377777777777778,-0.31188775134418467,-0.8963090152463726,-1.6085843706267946
1589552809.0321794,0.03541293625376937,-4.166467659365576,8.74458706374623,0.4755555555555556,0.41,-0.6377777777777778,2.8480095373898413,1.2299127492461257,-3.98681596110241
1589552809.0421793,0.11435148239810092,-4.2566831658164554,8.918702964796202,0.46192299274374127,0.42107645728459914,-0.6488542350623769,-1.5556309662104146,-2.2884899489873227,2.1929453507752923
1589552809.0521793,0.0606435676319446,-4.1934293465075765,8.883429346507576,0.4577777777777778,0.4244444444444445,-0.6522222222222223,-1.3705558986347897,4.383409882887452,-1.4106658432765045
1589552809.0621793,0.08558884885264556,-4.167941264121806,8.810293679390968,0.4577777777777778,0.4244444444444445,-0.6522222222222223,-1.0955948091354881,-0.68942862561296,-9.207783587548427
1589552809.0721793,0.05749399737617268,-4.2550120052476545,8.774496398425704,0.4577777777777778,0.4244444444444445,-0.6522222222222223,0.45024010495309286,2.1819553082997096,-4.045937090026981
1589552809.0821793,0.08389817700954,-4.222542552186644,8.858135260224804,0.4577777777777778,0.4244444444444445,-0.6522222222222223,-3.8262538962879002,3.14724544252385,-1.3495820345707
1589552809.0921793,0.07013435700575815,-4.229865642994242,8.877600767754318,0.44367455747494133,0.4244444444444445,-0.6571998293879292,0.9997600767754315,0.014275431861804577,-2.8649232245681384
1589552809.1021793,0.08905534351145039,-4.218208492366412,8.906319179389312,0.4388888888888889,0.4244444444444445,-0.6588888888888889,2.739414360687023,0.11787333015267176,-7.029923067748092
1589552809.1121793,0.07637619575067969,-4.19818809787534,8.813692880878058,0.4388888888888889,0.4244444444444445,-0.6588888888888889,0.6543902930218508,3.9584218608397945,-5.987031769207531
1589552809.1221793,0.08260248187395426,-4.2050683212493025,8.815341606246514,0.4388888888888889,0.4244444444444445,-0.6588888888888889,2.671195273284997,3.3930127579475737,-1.4555127579475737
1589552809.1321793,0.07612510445266803,-4.2308123433209985,8.846937447773666,0.4388888888888889,0.4244444444444445,-0.6588888888888889,1.9289199594126774,-2.1585591500537182,-5.226136295809956
1589552809.1421793,0.09350458878035825,-4.208660548292856,8.904844040487502,0.464134558319644,0.4079041782656738,-0.6536656469376982,-2.008945170714433,-3.991628426830348,-3.150229070144893
1589552809.1521792,0.07145779207389996,-4.2285422079261,8.870051136129325,0.4711111111111111,0.4033333333333333,-0.6522222222222223,-1.626278403233123,1.057386387067508,-3.8730823951503153
1589552809.1621792,0.0651407469853022,-4.224577759044093,8.829437012058792,0.4711111111111111,0.4033333333333333,-0.6522222222222223,-0.03259126562328185,1.4560165670930616,-4.560740662683722
1589552809.1721792,0.07,-4.21,8.822462538874753,0.4711111111111111,0.4033333333333333,-0.6522222222222223,-1.7261803788521348,2.430007774950523,-0.2160022618037889
1589552809.1821792,0.07,-4.216515493576808,8.856061974307234,0.4711111111111111,0.4033333333333333,-0.6522222222222223,-4.1079930273909655,-1.4377822008670806,6.325017980940203
1589552809.1921792,0.09399255801808272,-4.243992558018083,8.877997519339361,0.46044775199196325,0.40866501289290724,-0.674437553720447,-4.999844958710057,-8.661151140777491,-1.1095387113620792
1589552809.2021792,0.09394869368303647,-4.23184608104911,8.898153918950891,0.4577777777777778,0.41,-0.68,-2.0993468415182344,-2.8288183999729615,1.038479737722648
1589552809.2121792,0.09633162917518746,-4.22,8.821357191547376,0.4577777777777778,0.41,-0.68,-3.1325238582140424,-1.874041411042945,1.7047844239945467
1589552809.2221792,0.08480136485498416,-4.1972020472824765,8.823195223007556,0.4577777777777778,0.41,-0.68,-1.6452900316841337,-4.032491469656349,-0.09995734828174507
