time,acc_x,acc_y,acc_z,mag_x,mag_y,mag_z,gyr_x,gyr_y,gyr_z
1589550931.344614,0.22,-4.16,8.78,0.4988888888888889,0.3088888888888889,-0.6077777777777778,-0.0625,-0.3125,-0.0625
1589550931.354614,0.22696449920297557,-4.166964499202976,8.821786995217852,0.4988888888888889,0.3088888888888889,-0.6077777777777778,0.024556240037194463,-0.13838751992561107,-0.0625
1589550931.364614,0.22051357094174717,-4.160513570941747,8.802054283766989,0.49256460285005366,0.3088888888888889,-0.6531018277227635,-0.05608036322816019,-0.2403705448422403,-0.0625
1589550931.374614,0.239729665356675,-4.17,8.789188996070024,0.4922222222222222,0.3088888888888889,-0.6555555555555556,-0.125,-0.31193680282640623,0.0
1589550931.384614,0.21475467428843634,-4.17,8.714264022865308,0.4922222222222222,0.3088888888888889,-0.6555555555555556,-0.125,-0.25990557143424237,0.0
1589550931.394614,0.2292850044012835,-4.17,8.709642502200643,0.4922222222222222,0.3088888888888889,-0.6555555555555556,-0.3660625550160434,-0.25,0.06026563875401085
1589550931.404614,0.23,-4.193664953950558,8.71788831798352,0.4922222222222222,0.3088888888888889,-0.6555555555555556,-0.375,-0.29930198739699465,-0.036103974793989344
1589550931.414614,0.23637251682810703,-4.1808824495156784,8.758235100968642,0.47522884401393684,0.3053486017621627,-0.647766923876758,-0.29534353964866195,-0.19301530947299295,-0.10232823017566903
1589550931.424614,0.2312235081374322,-4.17,8.78,0.4655555555555556,0.3033333333333333,-0.6433333333333333,0.02426537070524415,-0.125,-0.125
1589550931.434614,0.23,-4.176540470859624,8.734216703982632,0.4655555555555556,0.3033333333333333,-0.6433333333333333,0.0625,0.03851177149060317,-0.043244114254698415
1589550931.444614,0.22167394412457977,-4.18,8.768282391127942,0.4655555555555556,0.3033333333333333,-0.6433333333333333,0.11453784922137641,0.17703784922137641,0.10407569844275281
1589550931.454614,0.22722246759481518,-4.18,8.801667402784446,0.4655555555555556,0.3033333333333333,-0.6433333333333333,0.1701404224675948,0.3229212674027845,-0.10070211233797408
1589550931.464614,0.23975782110010296,-4.18,8.800242178899898,0.4774817813445703,0.31525955912234804,-0.6292387028554068,0.06552723624871275,0.25302723624871276,-0.06552723624871275
1589550931.474614,0.23128650771862397,-4.18,8.765146030874496,0.4777777777777778,0.31555555555555553,-0.6288888888888889,-0.10087798027580089,0.1955406732413997,-0.008040673241399697
1589550931.484614,0.21215036096589493,-4.171075180482948,8.697526263380633,0.4777777777777778,0.31555555555555553,-0.6288888888888889,-0.18078012198157828,0.1875,-0.05578012198157829
1589550931.494614,0.23600078321162837,-4.16133307226279,8.716000783211628,0.4777777777777778,0.31555555555555553,-0.6288888888888889,-0.24166829835755915,-0.08334149178779571,-0.0625
1589550931.5046139,0.23417515143704085,-4.177474545688877,8.743299394251837,0.4777777777777778,0.31555555555555553,-0.6288888888888889,-0.28640530351849464,-0.16140530351849466,0.010310607036989314
1589550931.5146139,0.2363536174430129,-4.177292765113974,8.747292765113974,0.47001224534742875,0.31555555555555553,-0.6380663363065742,-0.27278989098116946,-0.26692021803766103,0.02278989098116948
1589550931.5246139,0.22167496782136661,-4.160837483910684,8.730837483910683,0.4655555555555556,0.31555555555555553,-0.6433333333333333,-0.078202823325312,-0.08343709776708266,-0.057265725558229334
1589550931.5346138,0.22790205108437647,-4.175804102168753,8.690489744578118,0.4655555555555556,0.31555555555555553,-0.6433333333333333,0.08566345783205859,-0.013112180722647138,-0.0625
1589550931.5446138,0.23,-4.18,8.74839519532518,0.4655555555555556,0.31555555555555553,-0.6433333333333333,0.07156625365220215,0.0,-0.009066253652202143
1589550931.5546138,0.22315974494661456,-4.173159744946615,8.807881785373699,0.4655555555555556,0.31555555555555553,-0.6433333333333333,-0.023003188167318014,-0.12825478225097703,-0.04275159408365901
1589550931.5646138,0.22,-4.17,8.83,0.4655555555555556,0.31555555555555553,-0.6466951911137958,0.0320522500755059,-0.1244651666163294,-0.0625
1589550931.5746138,0.22,-4.156079794286633,8.816079794286633,0.4655555555555556,0.31555555555555553,-0.65,-0.13600385712563784,-0.2365025714170919,0.06800192856281892
1589550931.5846138,0.22,-4.156069707081943,8.779651464590286,0.4655555555555556,0.31555555555555553,-0.65,-0.3638070077864294,-0.4263070077864294,0.049128661475713764
1589550931.5946138,0.22,-4.16,8.767679073033708,0.4655555555555556,0.31555555555555553,-0.65,-0.4375,-0.5,-0.09598841292134831
1589550931.6046138,0.23065226398342703,-4.16,8.759347736016572,0.4655555555555556,0.31555555555555553,-0.65,-0.5040766498964191,-0.6331532997928382,-0.125
1589550931.6146138,0.236042868605051,-4.136257211630306,8.761871394184846,0.4655555555555556,0.3177539618860828,-0.6473619124033674,-0.5872320712184312,-0.7252679287815688,-0.125
1589550931.6246138,0.21803708791208792,-4.028222527472527,8.75009271978022,0.4655555555555556,0.3211111111111111,-0.6433333333333333,-0.40069539835164836,-0.46319539835164836,-0.34930460164835164
1589550931.6346138,0.22633623576691225,-3.971831882116544,8.680991292699263,0.4655555555555556,0.3211111111111111,-0.6433333333333333,-0.1989492632283992,-0.05724631614199599,-0.755253683858004
1589550931.6446137,0.23,-4.03177283793797,8.677721604742246,0.4655555555555556,0.3211111111111111,-0.6433333333333333,-0.4770601778342331,-0.14478008891711655,-1.0055401185561554
1589550931.6546137,0.19757990392813324,-4.075936076857493,8.71890411528624,0.4655555555555556,0.3211111111111111,-0.6433333333333333,-0.44092463973049967,-0.2685502401796669,-1.1030251200898333
1589550931.6646137,0.18,-4.09,8.820484276361936,0.474498252929104,0.31216841373756266,-0.6433333333333333,-0.6036485123918635,-0.7697970247837269,-1.4908376198269815
1589550931.6746137,0.18803226439148768,-4.114096793174463,8.85,0.4777777777777778,0.3088888888888889,-0.6433333333333333,-0.7879033048935962,-0.5860884328724134,-2.227419829361577
1589550931.6846137,0.176540873015873,-4.086352182539683,8.775974801587301,0.4777777777777778,0.3088888888888889,-0.6433333333333333,-0.9386793154761904,-0.5841195436507937,-2.837657490079365
1589550931.6946137,0.08041257367387034,-3.920687622789784,8.822121807465619,0.4777777777777778,0.3088888888888889,-0.6433333333333333,-1.18664047151277,-1.0449410609037328,-3.762401768172888
1589550931.7046137,-0.038790134429507836,-3.8404032885234973,8.820403288523497,0.4777777777777778,0.3088888888888889,-0.6433333333333333,-1.3424897233640707,-1.0025205532718586,-4.4162037551383175
1589550931.7146137,-0.12005462671743089,-3.7716029354963303,8.81,0.4898279656912334,0.3144505140797145,-0.6368447706107034,-1.6357011808199526,-0.9375,-4.5625
1589550931.7246137,-0.3039596990539968,-3.5208054138007543,8.723020150473001,0.4922222222222222,0.31555555555555553,-0.6355555555555555,-1.551593985114065,-0.7562919801520867,-3.7923659156463683
1589550931.7346137,-0.4272431229773463,-3.279086312150633,8.695203920270668,0.4922222222222222,0.31555555555555553,-0.6355555555555555,-1.565049003383348,-0.9151715118417181,-2.7194119593998236
1589550931.7446136,-0.5600326061641177,-3.0045602049530316,8.7,0.4922222222222222,0.31555555555555553,-0.6355555555555555,-1.8558632870118779,-1.3173860725098983,-1.0765468519524881
1589550931.7546136,-0.42145243304413427,-2.6347613730667674,8.767683741984156,0.4922222222222222,0.31555555555555553,-0.6355555555555555,-2.3625914749151264,-1.286420218785364,0.5575584685024519
1589550931.7646136,-0.041408371944400085,-2.44084997603451,8.716833359961655,0.486063890220305,0.3135027782215831,-0.63795046244519,-2.1534115873142676,-0.1627606247004313,4.5357285508867236
1589550931.7746136,0.3528876047385149,-2.860697486275643,8.724495810459404,0.4722222222222222,0.3088888888888889,-0.6433333333333333,0.3877167003756139,0.4886160069344119,18.0943477318694
1589550931.7846136,0.3576121607776798,-3.013733768554478,8.78671487455624,0.4722222222222222,0.3088888888888889,-0.6433333333333333,0.4468159562555098,-0.9337920826284816,25.281840437444902
1589550931.7946136,0.31392215947023694,-3.028480539867559,8.752720809801339,0.4722222222222222,0.3088888888888889,-0.6433333333333333,-0.011484816224896666,-1.3314932516555096,28.928892026488153
1589550931.8046136,0.2140830975428146,-3.02,8.816903052866717,0.4722222222222222,0.3088888888888889,-0.6433333333333333,0.16198064035740883,-1.3345048399106478,33.30287416232316
1589550931.8146136,0.16,-3.0844371274754856,8.828450298019613,0.4722222222222222,0.32177631438398596,-0.6476291418316991,0.6610928186887137,-1.2097267953278217,38.117758303691595
1589550931.8246136,0.18055269533615992,-3.1268508984453867,8.806850898445386,0.4722222222222222,0.3288888888888889,-0.65,0.6643637694326671,-1.4872268069856651,41.70340576418332
1589550931.8346136,0.11886973735032831,-3.215356315179606,8.852678157589803,0.4722222222222222,0.3288888888888889,-0.65,-0.08630262649671683,-2.291846212340672,43.754453939745076
1589550931.8446136,0.10355423456818028,-3.195783061727279,8.754789006170467,0.4722222222222222,0.3288888888888889,-0.65,0.006212847230070262,-2.096573186718803,45.71235138892028
1589550931.8546135,0.10420376031154474,-3.129426322180813,8.740573677819187,0.4722222222222222,0.3288888888888889,-0.65,0.2599529961056907,-2.1285854863699174,47.741653929902434
1589550931.8646135,0.04302465717729065,-3.164097260675548,8.841219178528386,0.48646605792789954,0.31464505318321156,-0.6555392694410968,-0.043595892641933476,-2.6685958926419335,49.7557876779258
1589550931.8746135,0.00440739432473802,-3.182203697162369,8.71407394324738,0.4922222222222222,0.3088888888888889,-0.6577777777777778,0.05613446367596844,-2.3739579653832568,52.03912192393736
1589550931.8846135,0.0,-3.1947559171597635,8.719186390532544,0.4922222222222222,0.3088888888888889,-0.6577777777777778,0.2172244822485207,-2.465190458579882,53.63845229289941
1589550931.8946135,-0.04816380346686314,-3.2067890797688756,8.773210920231124,0.4922222222222222,0.3088888888888889,-0.6577777777777778,0.2522952456664211,-2.627295245666421,55.512593554892
1589550931.9046135,-0.11920624419135832,-3.1345632689066365,8.845436731093363,0.4922222222222222,0.3088888888888889,-0.6577777777777778,0.19717286517650395,-2.644345730353008,57.87078627349054
1589550931.9146135,-0.08179873701364841,-3.03,8.933481768180892,0.4930088046897988,0.3082334034992417,-0.6543692537516127,0.3198742106335303,-2.8602515787329397,59.254229476471785
1589550931.9246135,-0.1618312637108298,-3.001409422987904,8.834506208867511,0.4988888888888889,0.3033333333333333,-0.6288888888888889,0.24736349548171555,-2.9031638054219413,61.47884632801336
1589550931.9346135,-0.13684808048345967,-2.9643839731721804,8.830544241450378,0.4988888888888889,0.3033333333333333,-0.6288888888888889,0.2268989939567541,-3.1523998323261258,63.25519614350089
1589550931.9446135,-0.20913809990205678,-2.9465426052889323,8.747159647404505,0.4988888888888889,0.3033333333333333,-0.6288888888888889,0.4668217433888345,-3.0702130264446623,65.03011753183154
1589550931.9546134,-0.2916469259505951,-2.931011844429643,8.794424140627262,0.4988888888888889,0.3033333333333333,-0.6288888888888889,0.2935279169441951,-3.189854768179317,67.08853638759376
1589550931.9646134,-0.29977072485002076,-2.9579541449700044,8.92011463757499,0.4988888888888889,0.286983146450547,-0.6372849308016711,0.13635362425010394,-3.277006157562318,69.76912482428179
1589550931.9746134,-0.3680662209933149,-3.0103311049665744,8.894033110496657,0.4988888888888889,0.26222222222222225,-0.65,0.41229305939589095,-2.9516555248328724,72.21994986174792
1589550931.9846134,-0.38,-3.0641587085572164,8.835745794129378,0.4988888888888889,0.26222222222222225,-0.65,0.009919284826016561,-3.7611130012435767,74.91329864614374
1589550931.9946134,-0.3235088765064144,-3.0474464170014253,8.727232085007126,0.4988888888888889,0.26222222222222225,-0.65,0.2207593624465466,-3.6542406375534533,76.97343851237528
1589550932.0046134,-0.3858514685152644,-3.15715179485199,8.833777202772897,0.4988888888888889,0.26222222222222225,-0.65,0.5,-3.4082817599011337,77.95781759901134
1589550932.0146134,-0.4478496705492927,-3.2378496705492927,8.948924835274646,0.5099640536142425,0.2517623444260549,-0.6463082784248821,0.5346098897667302,-3.5413296693001906,79.32290658276864
1589550932.0246134,-0.4928006268026253,-3.2828006268026253,8.877199373197374,0.5188888888888888,0.2433333333333333,-0.6433333333333333,0.5625,-3.703500783503282,80.69775509277133
1589550932.0346134,-0.515571485014393,-3.276714455043179,8.84,0.5188888888888888,0.2433333333333333,-0.6433333333333333,0.35208415645989727,-3.840178218660044,81.51100990574025
1589550932.0446134,-0.5177047360631475,-3.2255738159842133,8.773607239763196,0.5188888888888888,0.2433333333333333,-0.6433333333333333,0.5122911013813518,-3.6055361988159844,82.47745475148002
1589550932.0546134,-0.5364225326777792,-3.248619738577767,8.786591617699964,0.5188888888888888,0.2433333333333333,-0.6433333333333333,0.798767463125075,-3.5005283906943276,83.26831004916657
1589550932.0646133,-0.5301353579565895,-3.2989171363472836,8.956345335172085,0.5188888888888888,0.2433333333333333,-0.6433333333333333,0.4451138850581604,-4.050656178798417,83.73984815325579
1589550932.0746133,-0.6098182200273196,-3.329939406675773,8.804666736716753,0.5288888888888889,0.2311111111111111,-0.6433333333333333,0.5617425834471648,-3.5617425834471645,83.68863612482926
1589550932.0846133,-0.6272684469268586,-3.3272684469268583,8.783610681561152,0.5288888888888889,0.2311111111111111,-0.6433333333333333,0.6079277932928658,-3.568141689939299,83.10213896646432
1589550932.0946133,-0.6455360421100516,-3.32,8.74,0.5288888888888889,0.2311111111111111,-0.6433333333333333,0.589100043864637,-3.526600043864637,82.3695991665719
1589550932.1046133,-0.692476954160879,-3.3387154312413183,8.78158984720293,0.5288888888888889,0.2311111111111111,-0.6433333333333333,0.4950317274908448,-3.7054650997600707,81.33658566422528
1589550932.1146133,-0.7628109048723898,-3.419776102088167,8.96281090487239,0.5288888888888889,0.2137313740654808,-0.6541956689868522,0.26476943155452437,-3.9852305684454756,79.59266241299304
1589550932.1246133,-0.7919095092024541,-3.376683282208589,8.91954754601227,0.5288888888888889,0.17777777777777778,-0.6766666666666666,1.057475396216769,-2.947549207566462,78.46733608128834
1589550932.1346133,-0.7304133828084272,-3.1751574718635958,8.682578735931799,0.5288888888888889,0.17777777777777778,-0.6766666666666666,1.2822341991474746,-2.1797490723419912,76.90661895488975
1589550932.1446133,-0.68933781565163,-3.0846689078258147,8.680871706668752,0.5288888888888889,0.17777777777777778,-0.6766666666666666,0.6778081268079118,-2.822191873192088,75.27231793839418
1589550932.1546133,-0.6036157404473734,-2.9670246921403374,8.985857254504362,0.5288888888888889,0.17777777777777778,-0.6766666666666666,0.40489486302093236,-2.9721064888156645,71.97811054432546
1589550932.1646132,-0.7348745425046221,-3.014808512243897,8.90986793947855,0.5488624767845988,0.1677909838299228,-0.6916468575884491,0.5632428404331585,-3.154805588046636,68.87714598347357
1589550932.1746132,-0.8685571654284465,-3.1551803543214443,8.875049921000437,0.5688888888888889,0.15777777777777774,-0.7066666666666667,-0.12049114196389552,-3.978894930581235,66.07521136585201
1589550932.1846132,-0.9400865566675684,-3.1972788747633216,8.815961590478766,0.5688888888888889,0.15777777777777774,-0.7066666666666667,-0.16941100892615635,-3.875540979172302,63.8991581011631
1589550932.1946132,-1.0230076836158193,-3.1985604519774014,8.733393446327684,0.5688888888888889,0.15777777777777774,-0.7066666666666667,0.3598968926553673,-2.819409604519774,61.57390819209039
1589550932.2046132,-1.0921784276329731,-3.228539944903581,8.863070565797837,0.5688888888888889,0.15777777777777774,-0.7066666666666667,0.5590962068234795,-2.4942784488239034,59.919394998940454
1589550932.2146132,-1.13,-3.2098429206867656,8.891716698540945,0.5576387724940489,0.14652766138293782,-0.7029166278683867,0.3945301587983755,-2.8056626984979696,58.42968095279025
1589550932.2246132,-1.1437392654851086,-3.1366380412936232,8.807769961629818,0.5422222222222223,0.13111111111111112,-0.6977777777777778,-0.0934816371277179,-3.1115989859309336,57.3621357116755
1589550932.2346132,-1.176813760765106,-3.140767891548086,8.850653218505537,0.5422222222222223,0.13111111111111112,-0.6977777777777778,-0.11468464913298826,-2.741725956962789,56.8447706539149
1589550932.2446132,-1.2073135676123108,-3.1489555271276997,8.740298743321544,0.5422222222222223,0.13111111111111112,-0.6977777777777778,0.32276224697117917,-1.9188426518172925,56.38152795545188
1589550932.2546132,-1.241519960932731,-3.2374398730313763,8.81167989256501,0.5422222222222223,0.13111111111111112,-0.6977777777777778,0.5,-1.9924993895739225,55.63050146502258
1589550932.2646132,-1.2917418501370121,-3.322752716620996,8.897247283379004,0.5403432969017398,0.12815851417892427,-0.7012672105158168,0.4396059718416328,-2.4224014929604083,54.12464329585184
1589550932.2746131,-1.3624009810745419,-3.3,8.919399754731364,0.5344444444444445,0.11888888888888888,-0.7122222222222222,0.23124233535514235,-2.3900061317158863,52.63370247920188
1589550932.2846131,-1.4,-3.297538821141894,8.84600934968925,0.5344444444444445,0.11888888888888888,-0.7122222222222222,0.02979420717896683,-2.4404115856420665,50.52023501059994
1589550932.2946131,-1.4009793308874277,-3.2901224163609286,8.6525707435795,0.5344444444444445,0.11888888888888888,-0.7122222222222222,0.3079093864651822,-1.8834161248138326,49.5989865233027
1589550932.304613,-1.48,-3.2655974955598213,8.881170771963186,0.5344444444444445,0.11888888888888888,-0.7122222222222222,0.05327765917367827,-2.281325684863924,47.11958769128648
1589550932.314613,-1.48,-3.1703436587212868,8.93896902383614,0.5348644717704615,0.1181633871439504,-0.7137114100144644,0.39218293606433235,-1.476373462911543,46.036725595903505
1589550932.324613,-1.5046820432932642,-3.2258380804017763,8.924104024739007,0.5466666666666666,0.09777777777777777,-0.7555555555555555,0.875,-0.5480495361435979,44.8276741495966
1589550932.334613,-1.513832231216509,-3.217571257553301,8.853552616577357,0.5466666666666666,0.09777777777777777,-0.7555555555555555,0.7745339756014138,-0.037383493900353434,43.08353879261202
1589550932.344613,-1.46,-3.0957570061838617,8.832116797924929,0.5466666666666666,0.09777777777777777,-0.7555555555555555,0.1572138789166025,-0.8370909535176587,40.679965180534936
1589550932.354613,-1.4552049443757724,-3.0912296662546352,8.940881582200246,0.5466666666666666,0.09777777777777777,-0.7555555555555555,-0.5475154511742892,-2.050077255871446,38.32313349814586
1589550932.364613,-1.451080198019802,-3.025853795379538,8.760174587458746,0.5417421342134213,0.09244286762009533,-0.7604800880088008,-0.7077537128712872,-2.181839933993399,35.35931518151815
1589550932.374613,-1.51245717606043,-3.0169285299244626,8.768549912841372,0.5333333333333333,0.08333333333333333,-0.7688888888888888,-0.8634819872167344,-2.2486156304474143,32.26504357931435
1589550932.384613,-1.6091194056894365,-3.019266171407864,8.620733828592137,0.5333333333333333,0.08333333333333333,-0.7688888888888888,-0.28721235731110706,-0.9494247146222141,30.323507428882046
1589550932.394613,-1.7210870864142207,-3.142981552020315,8.737857569646724,0.5333333333333333,0.08333333333333333,-0.7688888888888888,-0.3311347001269699,-0.7635885801777579,29.151978769885726
1589550932.404613,-1.7826032129901537,-3.207378772548923,8.961508032475384,0.5333333333333333,0.08333333333333333,-0.7688888888888888,-0.9415393727019223,-1.5692322878365372,28.425269291513462
1589550932.414613,-1.6670359803455381,-2.9262878427643053,8.751136471707085,0.5346506754019831,0.07180659023264824,-0.7774516123351121,-0.020773894436519252,-0.20134926295767952,28.412050245680774
1589550932.424613,-1.7196602449396947,-2.938838744161186,8.965892496107458,0.5377777777777778,0.04444444444444445,-0.7977777777777778,-0.2273390114103786,-0.6258874416118613,28.700779670470126
1589550932.434613,-1.7533686690223793,-2.966461900878862,8.912923801757724,0.5377777777777778,0.04444444444444445,-0.7977777777777778,-0.9551112168161638,-1.1909429645737066,29.254501902690947
1589550932.444613,-1.6710306242638397,-2.8461216816163812,8.672243363232763,0.5377777777777778,0.04444444444444445,-0.7977777777777778,-0.9946968152577693,-0.6367445863912294,29.96704267463985
1589550932.454613,-1.668207549002467,-2.8548382772888865,8.944622647007401,0.5377777777777778,0.04444444444444445,-0.7977777777777778,-0.3237028187345805,-1.1335074402160188,30.88620281873458
1589550932.464613,-1.6111721739806129,-2.781507080832216,8.773516521941838,0.5377777777777778,0.04444444444444445,-0.7977777777777778,-0.6801739126211706,-0.2677919264914428,31.24267391262117
1589550932.474613,-1.8183453505718548,-2.9862076436740783,8.839794522980748,0.5722222222222222,-0.04,-0.8044444444444444,-0.7857786637777936,-0.2426775502592882,31.53879777296299
1589550932.484613,-1.870744680851064,-3.0601489361702128,8.97776595744681,0.5722222222222222,-0.04,-0.8044444444444444,-1.0587765957446809,-0.7490691489361702,32.00837765957447
1589550932.494613,-1.9670294576488943,-3.096454069927503,8.827060658896944,0.5722222222222222,-0.04,-0.8044444444444444,-0.7757582362118014,-0.5772747086354042,32.67272529136459
1589550932.504613,-2.073271428966815,-3.1446204090670062,8.816155102266752,0.5722222222222222,-0.04,-0.8044444444444444,-0.7355612216656057,-0.33052295812460214,33.06366070687221
1589550932.514613,-2.007618742306114,-2.9809499384489127,8.806193834632746,0.5759264008571559,-0.04635002051702914,-0.8028569393151871,-1.0833199758924907,-0.6190628846942963,34.8304315628847
1589550932.524613,-1.9881794908950394,-2.92,8.86931410906632,0.5877777777777777,-0.06666666666666668,-0.7977777777777778,-0.75,-0.981530454523499,37.42628181906004
1589550932.534613,-1.9841427052569403,-2.947160543414058,8.813964323685765,0.5877777777777777,-0.06666666666666668,-0.7977777777777778,-1.0329223272297696,-1.0695304193738924,39.84765209686946
1589550932.544613,-2.04,-3.01,8.7970581671415,0.5877777777777777,-0.06666666666666668,-0.7977777777777778,-1.3933167141500475,-1.3933864553656221,42.14723112535613
1589550932.5546129,-2.057543089297439,-3.0275430892974393,8.837616956664478,0.5877777777777777,-0.06666666666666668,-0.7977777777777778,-0.640509582239002,-1.484490417760998,44.45424070502298
1589550932.5646129,-2.1044134519597404,-3.053929442478788,8.944618529078355,0.5828119572975469,-0.07990885461394892,-0.8017090523246272,-0.6396637010064924,-1.7530250592559513,46.080188760262445
1589550932.5746129,-2.0886054405732875,-2.965816321719862,8.858843524586298,0.5611111111111111,-0.13777777777777778,-0.8188888888888889,-1.0617559874593372,-2.285607998208477,48.13743605912027
1589550932.5846128,-2.1153435773480664,-2.992328211325967,8.888625690607734,0.5611111111111111,-0.13777777777777778,-0.8188888888888889,-0.8364743396063536,-2.2979486792127073,50.12762754661602
1589550932.5946128,-2.121152762686627,-2.969230150106644,8.846541711940118,0.5611111111111111,-0.13777777777777778,-0.8188888888888889,-0.841344219083263,-2.4254836713751056,51.97599249466779
1589550932.6046128,-2.058607142857143,-2.9161785714285715,8.964785714285714,0.5611111111111111,-0.13777777777777778,-0.8188888888888889,-0.6787946428571429,-2.491294642857143,53.644642857142856
1589550932.6146128,-1.9736710235640647,-2.7385848674521354,8.7022558910162,0.5611111111111111,-0.13777777777777778,-0.8188888888888889,-0.14794389727540502,-1.960443897275405,55.18893593519882
1589550932.6246128,-2.029522510728053,-2.7191168448614444,8.772577642010328,0.4755555555555556,-0.18222222222222226,-0.72,-0.7832637828205687,-2.8709724343588623,57.203161366281186
1589550932.6346128,-2.2888253691177542,-2.8792744926903775,8.650552767473998,0.4755555555555556,-0.18222222222222226,-0.72,-0.6879318495890611,-3.061636300821878,58.68080633136955
1589550932.6446128,-1.895395605143207,-2.495767399142799,8.703021974283965,0.4755555555555556,-0.18222222222222226,-0.72,0.4976762875025512,-1.8819711374923465,62.115109871419826
1589550932.6546128,-1.810797018693274,-2.5101532728256295,9.128681853699586,0.4755555555555556,-0.18222222222222226,-0.72,-0.12787386548055538,-3.748658862775741,64.25957955160185
1589550932.6646128,-2.0974436795994995,-2.5525153601092274,8.70249487996359,0.47527834667071217,-0.1761236267556668,-0.7091888534911063,-0.6414890061440437,-2.8914890061440435,68.71599798043009
1589550932.6746128,-2.1382131607862287,-2.522402392870223,8.827762910511538,0.4744444444444445,-0.15777777777777774,-0.6766666666666666,0.07892198754730806,-2.6696709803442804,73.88964106946649
1589550932.6846128,-2.1513796997959775,-2.5491828184202854,9.00191562226756,0.4744444444444445,-0.15777777777777774,-0.6766666666666666,-0.7559863195861265,-4.488027360827747,77.23819358423201
1589550932.6946127,-2.3221365980983157,-2.6232530607171713,9.032570070225592,0.4744444444444445,-0.15777777777777774,-0.6766666666666666,-0.6110442172643092,-4.75,81.18990817848487
1589550932.7046127,-2.1037683862005974,-2.4188504937872244,9.396551481361673,0.4744444444444445,-0.15777777777777774,-0.6766666666666666,-0.6429342758738797,-4.908815862082089,85.60042124141343
1589550932.7146127,-1.8908241017718024,-2.2109020084809834,8.733919660760659,0.47695002355828764,-0.15557286815759577,-0.6729584095781788,-0.729884372637323,-4.929633312514381,86.96471393116597
1589550932.7246127,-1.9968191750278708,-2.2422657748049053,8.605381047937568,0.5022222222222222,-0.13333333333333333,-0.6355555555555555,1.6508723522853956,-1.9881521739130434,88.04275641025642
1589550932.7346127,-2.014971543027431,-2.2567046092967584,8.929649967024108,0.5022222222222222,-0.13333333333333333,-0.6355555555555555,-0.10801436283250687,-4.948331664183297,87.33996158919368
1589550932.7446127,-1.8977585444437426,-2.03982753174553,8.040844652220608,0.5022222222222222,-0.13333333333333333,-0.6355555555555555,1.1079742876997916,-1.884697390864868,88.85980636805863
1589550932.7546127,-1.4327186320432943,-1.7459768520623948,7.36633248442403,0.5022222222222222,-0.13333333333333333,-0.6355555555555555,1.4757080244667788,1.6344322729546592,91.03778167492837
1589550932.7646127,-1.7539948320413437,-2.1496985357450473,9.967789836347976,0.5013065365106709,-0.13459240118671642,-0.634868791271892,-1.946608527131783,-11.789416451335056,90.73633720930232
1589550932.7746127,-2.051346048620339,-2.061121707183616,8.125328109122176,0.4933333333333334,-0.14555555555555555,-0.6288888888888889,-0.9266334616587196,-10.454430645665598,92.26367080630033
1589550932.7846127,-2.248061439849918,-2.2250511998749314,8.903993199405924,0.4933333333333334,-0.14555555555555555,-0.6288888888888889,0.6614334987884001,-3.7947950050809034,94.26156149847573
1589550932.7946126,-2.333014664245406,-2.3254587702341203,9.246376310702361,0.4933333333333334,-0.14555555555555555,-0.6288888888888889,0.028382686036748483,-6.74720529943569,94.99286802179134
1589550932.8046126,-2.1282668463085543,-2.06338156327495,8.46014468982485,0.4933333333333334,-0.14555555555555555,-0.6288888888888889,1.6663652295315643,-3.880735848319762,96.83559838322302
1589550932.8146126,-2.4766879911542867,-2.238019192038858,9.160047980097145,0.49288959970514296,-0.14651697841663486,-0.6298503117499682,0.5416999861785728,-5.387480008292856,98.27060009674999
1589550932.8246126,-2.3110559570351064,-2.088950361331596,8.78737590332899,0.48736853190117024,-0.158479291991909,-0.6418126253252423,0.28289993286735376,-5.542760040279588,100.08220046992852
1589550932.8346126,-2.388031324531916,-2.018057428308513,8.784041766042556,0.4866666666666667,-0.16,-0.6433333333333333,1.388446261901632,-4.911260070611655,102.78642321921538
1589550932.8446126,-2.3407707186989426,-1.931412984281395,8.721027624931924,0.4866666666666667,-0.16,-0.6433333333333333,-0.03921787263610588,-6.781992384833518,104.41100654472385
1589550932.8546126,-2.2627539424182763,-1.8453197793415332,9.100112863297012,0.4866666666666667,-0.16,-0.6433333333333333,0.5617946043936766,-6.046698651098419,107.15495677472174
1589550932.8646126,-1.9643823299452698,-1.5869155590304926,8.963733385457388,0.4872378594387977,-0.16274172530622882,-0.6440187646598905,1.1507036747458952,-6.026852032838155,108.05255570758405
1589550932.8746126,-1.5797578398457033,-1.6551410815058218,8.851189370669333,0.4922222222222222,-0.18666666666666668,-0.65,0.9965979712836631,-5.165574326737624,102.92880741481534
1589550932.8846126,-2.503536774012094,-1.8137195893685838,9.259227956686823,0.4922222222222222,-0.18666666666666668,-0.65,-0.36128005906342286,-6.2174799606243845,89.62068450288285
1589550932.8946126,-1.947756334991354,-1.5619456482291911,8.559500458979997,0.4922222222222222,-0.18666666666666668,-0.65,-0.3338625835236855,-4.683610678223,80.98581298166215
1589550932.9046125,-1.7906766394155504,-1.4149571664637328,8.86237258653679,0.4922222222222222,-0.18666666666666668,-0.65,2.5919032114280744,-2.5182681227169943,80.73068821751609
1589550932.9146125,-2.4010488321037955,-1.6290577718003993,9.007066711497004,0.4924839522776668,-0.1887605071102233,-0.650680498144156,-0.7375558731037757,-4.946333389371254,70.8056654338324
1589550932.9246125,-2.2434338719566465,-1.6124667233638577,9.13149957477107,0.49709257684337294,-0.22562950363587217,-0.6626629220149918,-1.6189553212950694,-5.101874468463836,67.38376169379562
1589550932.9346125,-2.131129946627582,-1.4816321451287298,8.755021985011476,0.4977777777777778,-0.2311111111111111,-0.6644444444444444,0.780327908520229,-4.384416221896519,66.50470811094826
1589550932.9446125,-2.168497985315899,-1.4355772507923361,8.889026421825479,0.4977777777777778,-0.2311111111111111,-0.6644444444444444,0.5414632738218478,-3.760518363089076,63.957926547643694
1589550932.9546125,-2.2954178279634965,-1.54245711828505,8.882346430107185,0.4977777777777778,-0.2311111111111111,-0.6644444444444444,-0.460535483922343,-4.261517741961171,61.953929032155315
1589550932.9646125,-1.9455406265469202,-1.3779598331093983,8.92810480164062,0.4977777777777778,-0.2311111111111111,-0.6644444444444444,0.2698580369139383,-2.8139629446290924,58.604235909765926
1589550932.9746125,-1.9018000311963812,-1.3468125097488692,9.005912494150678,0.4722222222222222,-0.25555555555555554,-0.6766666666666666,0.3382028934643581,-3.375,55.47234245827484
1589550932.9846125,-2.0326470129464984,-1.3877021915457806,8.981378685072531,0.4722222222222222,-0.25555555555555554,-0.6766666666666666,-0.6329270492122914,-3.375,50.05445962018406
1589550932.9946125,-1.7833069582186105,-1.3553227832874442,8.569881311983748,0.4722222222222222,-0.25555555555555554,-0.6766666666666666,-0.2585641155871582,-2.5670293244941056,43.72628578684274
1589550933.0046124,-1.8885570374574348,-1.395061010215664,9.002175085130535,0.4722222222222222,-0.25555555555555554,-0.6766666666666666,0.27858080306469923,-1.7124006810442678,38.47725418558456
1589550933.0146124,-1.9703839741770715,-1.4173774475028376,9.188145395856981,0.4722222222222222,-0.25555555555555554,-0.6766666666666666,-0.6977633282491487,-3.2001631668558455,33.96747415046822
1589550933.0246124,-1.97,-1.3086612736151533,8.911338726384846,0.4722222222222222,-0.31555555555555553,-0.6766666666666666,-0.029031840378828985,-0.9748988802841217,27.967934568144823
1589550933.0346124,-1.97,-1.3017649089922558,8.918235091007745,0.4722222222222222,-0.31555555555555553,-0.6766666666666666,0.14337727519360724,-0.8455920436047946,24.261138583337445
1589550933.0446124,-2.3087381907090463,-1.356715305623472,9.23451501222494,0.4722222222222222,-0.31555555555555553,-0.6766666666666666,-0.8662017114914425,-2.230382640586797,15.899177261613692
1589550933.0546124,-2.11184195599022,-1.2992872371638142,8.963782689486553,0.4722222222222222,-0.31555555555555553,-0.6766666666666666,-0.7123765281173594,-0.7946809290953545,11.950997555012226
1589550933.0646124,-2.0718194509073986,-1.2654583527221963,8.92,0.4722222222222222,-0.31555555555555553,-0.6766666666666666,0.7952245230339694,1.5848941368078178,8.295922522103304
1589550933.0746124,-2.055382539410555,-1.2526912697052777,9.044248415010282,0.4811551148046608,-0.4146294551062371,-0.6726062609473764,-0.10834823723440712,-0.03875995973269353,1.8236953285640851
1589550933.0846124,-2.1272630840711844,-1.3358478711902049,9.08141521288098,0.4844444444444445,-0.4511111111111111,-0.6711111111111111,-2.0648377458285845,-1.6709787119020483,-7.019364936734753
1589550933.0946124,-1.7139597672064777,-1.2533109817813766,8.51300531376518,0.4844444444444445,-0.4511111111111111,-0.6711111111111111,-0.512583818319838,0.17897109058704452,-15.082355452935223
1589550933.1046124,-1.9258165699292358,-1.384106305160213,9.138782698576767,0.4844444444444445,-0.4511111111111111,-0.6711111111111111,-0.2799505048898784,1.1539864435079907,-22.211770493758447
1589550933.1146123,-1.6840365349447404,-1.3424200922318519,8.988712332034666,0.4844444444444445,-0.4511111111111111,-0.6711111111111111,-2.26004561898704,-0.40924654130555793,-30.3405820147889
1589550933.1246123,-1.6050201972564537,-1.3218503557587813,8.79907482212061,0.5633333333333334,-0.9633333333333334,-0.5866666666666667,-1.5,1.4375,-52.0
1589550933.1346123,-1.3728110069921469,-1.3390510365191004,8.79047448174045,0.5633333333333334,-0.9633333333333334,-0.5866666666666667,-1.5,1.4375,-52.0
1589550933.1446123,-1.4173630647911337,-1.441415973998295,9.07867220801364,0.5633333333333334,-0.9633333333333334,-0.5866666666666667,-1.418030357523444,2.55486899243393,-65.5022361865942
1589550933.1546123,-1.6322534455327875,-1.486854453794399,8.717261400448542,0.5633333333333334,-0.9633333333333334,-0.5866666666666667,-0.8417450976633633,4.371967787383312,-92.6559103586421
1589550933.1646123,-1.3428194905020223,-1.4627349575418351,8.926297034637427,0.5633333333333334,-0.9633333333333334,-0.5866666666666667,-1.545230405029807,3.8694782821215665,-102.95694521650789
1589550933.1746123,-1.3643236153788505,-1.6611352769242298,9.136424492243123,0.7688888888888888,-0.9277777777777778,-0.72,-1.0810677883534439,5.157459904069549,-118.62350577081615
1589550933.1846123,-1.3328891553623623,-1.6674221689275275,8.784358540058458,0.7688888888888888,-0.9277777777777778,-0.72,-0.4916716630442929,6.375545229708461,-127.26798227535038
1589550933.1946123,-1.3637530942782377,-1.74000495084518,8.727506188556475,0.7688888888888888,-0.9277777777777778,-0.72,-2.382963346064078,4.413888446849141,-143.55558870853667
1589550933.2046123,-1.7281703516478122,-2.1175958872174916,9.173574636205245,0.7688888888888888,-0.9277777777777778,-0.72,-3.33550557041545,6.124335905867341,-157.74601543520404
1589550933.2146122,-1.2278172149928666,-2.0201547706541008,8.780541697289353,0.7688888888888888,-0.9277777777777778,-0.72,-0.6463809389996111,9.032121395529808,-167.27438286282478
1589550933.2246122,-1.1259578532624919,-2.056168586950033,8.752126440212525,0.626907182987417,-0.5143145682844805,-0.7348222660007031,-0.49467195988299206,8.22743045191332,-177.87739537938035
1589550933.2346122,-1.436213364595545,-2.367466695086859,9.249111158478097,0.5666666666666667,-0.3388888888888889,-0.7411111111111112,-2.4815557391026326,8.525944527336673,-193.24866780347438
1589550933.2446122,-1.127851750016903,-2.526356178585112,9.227940321381082,0.5666666666666667,-0.3388888888888889,-0.7411111111111112,-2.300221428410448,8.234831027022155,-204.73253504541253
1589550933.2546122,-1.3263604606612427,-2.687053706249577,8.670225372427938,0.5666666666666667,-0.3388888888888889,-0.7411111111111112,-0.40966227941673616,11.011589777106668,-213.77177097653873
1589550933.2646122,-1.2249374840520542,-2.7863073062856167,8.826348983584248,0.5666666666666667,-0.3388888888888889,-0.7411111111111112,-1.4694012077911032,10.624739516883558,-221.4888683337586
1589550933.2746122,-1.379268067064945,-3.2654765850838308,9.062727693197148,0.5866666666666667,-0.15555555555555556,-0.7411111111111112,-2.2157713432260553,9.669760551165927,-230.57968057429176
1589550933.2846122,-1.5570953941029102,-3.3705563692426286,8.73132222008094,0.5866666666666667,-0.15555555555555556,-0.7411111111111112,-1.559022692233571,10.528585710156099,-233.30771343226056
1589550933.2946122,-1.4436245255474454,-3.4498808759124087,8.989364671532847,0.5866666666666667,-0.15555555555555556,-0.7411111111111112,-1.3959160583941606,9.647901459854015,-233.47982846715328
1589550933.3046122,-1.201299674669522,-3.620595684223531,8.721028909113372,0.5866666666666667,-0.15555555555555556,-0.7411111111111112,-1.497292344438496,11.683100059712556,-232.11247709302805
1589550933.3146122,-1.4085706049499649,-3.7155948606020672,8.885118395585389,0.5866666666666667,-0.15555555555555556,-0.7411111111111112,-1.0654779063542397,10.98140159782564,-230.11533531688835
1589550933.3246121,-1.3016448673444088,-3.7919190119018102,8.887806843540789,0.6088888888888889,-0.045555555555555564,-0.7333333333333333,-1.243146386064964,10.560786596516241,-226.64719579097445
1589550933.3346121,-1.3406446813786264,-3.8374187949417307,8.835807091495166,0.6088888888888889,-0.045555555555555564,-0.7333333333333333,-1.0806471609223902,10.520161790230597,-224.20970741383584
1589550933.3446121,-1.55750028044722,-4.05750028044722,8.896900123396776,0.6088888888888889,-0.045555555555555564,-0.7333333333333333,-1.09875014022361,9.80874901843473,-219.74124537262088
1589550933.354612,-1.3492778980398388,-3.8926477071872583,8.578424522868549,0.6088888888888889,-0.045555555555555564,-0.7333333333333333,-1.0030087581673386,10.343408039242945,-214.2297591503982
1589550933.364612,-1.3242885230274264,-3.9842754155661035,8.869967231346692,0.6088888888888889,-0.045555555555555564,-0.7333333333333333,-1.10713115405239,9.250122882449904,-211.36639326355927
1589550933.374612,3.51,-1.46,9.31,0.6133333333333333,0.054444444444444434,-0.7622222222222222,-5.6875,11.0,-266.6875
1589550933.384612,-13.301764744258874,-11.781965683716074,12.032331354384134,0.6133333333333333,0.054444444444444434,-0.7622222222222222,8.652019588335072,31.093990572807936,-255.33408427387786
1589550933.394612,-9.63427361563518,-9.841620846905537,3.147906188925081,0.6133333333333333,0.054444444444444434,-0.7622222222222222,6.444934853420197,45.86301302931596,-321.15089576547234
1589550933.404612,-0.9205339785916413,1.568081450190707,-1.3787684042160526,0.6133333333333333,0.054444444444444434,-0.7622222222222222,-52.85722890948612,-17.827333593077142,-408.1887559980314
1589550933.414612,-1.5713154563002014,-1.7663985803532514,-0.5568199082625931,0.6133333333333333,0.054444444444444434,-0.7622222222222222,-71.56872652082771,9.47924752495797,-325.93063266640377
1589550933.424612,0.8848104382077795,-3.0348276710979816,17.491610044313145,0.5722917008589091,0.1888557907981837,-0.7232326713715193,10.79768279172822,-55.49906142294435,-270.64387924667653
1589550933.434612,-0.15349641859900442,-0.8939808182590747,2.8145465582129425,0.5688888888888889,0.2,-0.72,100.79126198858808,5.5885410343571635,-229.5812795920845
1589550933.444612,-3.1911218927480807,-0.13022146750763436,14.321618196866348,0.5688888888888889,0.2,-0.72,13.383362110790827,72.32658430605898,-149.81361126173692
1589550933.454612,1.38,-1.9,16.15,0.5688888888888889,0.2,-0.72,-36.0625,-26.8125,-85.5
1589550933.464612,1.1433339267435132,-1.590513596510748,12.59636788464106,0.5688888888888889,0.2,-0.72,-22.29490631536784,-15.411567047932706,-73.30259468601184
1589550933.474612,0.5915048282150109,-1.4876447428405655,7.243130258195532,0.5467296614032906,0.2720174893281943,-0.72,7.42830204318455,8.79335032533466,-39.708553504082225
1589550933.484612,0.6831263975209958,-1.949798052714052,8.44056094512034,0.5288888888888889,0.33,-0.72,2.3583584960473267,2.196615798369633,-18.79838283712168
1589550933.494612,0.30372368206299993,-2.353109596866329,8.633495185245634,0.5288888888888889,0.33,-0.72,-3.397380447200914,-2.1069931246939775,-0.7147895585115069
1589550933.504612,0.06955182166585777,-2.380044014526467,8.52565026023798,0.5288888888888889,0.33,-0.72,1.2895409017120478,1.4641356919317858,11.793492586146302
1589550933.514612,-0.02354877434844907,-2.335596948456802,8.8326944971537,0.5288888888888889,0.33,-0.72,-0.06866214227626521,-0.24678339077566536,23.342758877744647
1589550933.524612,-0.08193432095983777,-2.45129555568073,8.884507407198782,0.5248742935466306,0.3450547325334685,-0.7260218930133874,0.0848518560243341,-1.2721265419929026,35.04287655607503
1589550933.534612,-0.13714712741149035,-2.5498026287894846,8.8781638753445,0.5244444444444445,0.3466666666666667,-0.7266666666666667,2.109823510705957,-1.2385242209031164,41.652212741149036
1589550933.544612,-0.056305471669140614,-2.587035368787429,8.89703536878743,0.5244444444444445,0.3466666666666667,-0.7266666666666667,1.0626407585606796,-2.0485329119107334,48.31428827353227
1589550933.554612,-0.15395805043646946,-2.7916180892337534,8.786041949563531,0.5244444444444445,0.3466666666666667,-0.7266666666666667,0.10026218477206594,-1.9683499030067895,53.68778946411251
1589550933.564612,3.758199406922008,-22.797263131700642,6.354998029985691,0.5244444444444445,0.3466666666666667,-0.7266666666666667,0.38212056487568175,-6.522946778508181,52.16307182257429
1589550933.574612,-1.123262694452598,-7.979074845905487,10.895613736425009,0.5413951015882333,0.35264925154094506,-0.7087189120438313,-17.055147490460815,-24.48308629292633,-48.110038156736124
1589550933.584612,-0.5283245690914402,-0.45073814392832734,6.988495958710683,0.5433333333333333,0.3533333333333333,-0.7066666666666667,5.097914536468984,23.466823692667248,-89.74439301538611
1589550933.594612,-0.903624321463931,-1.044210508347274,8.229183708306305,0.5433333333333333,0.3533333333333333,-0.7066666666666667,14.983572172339628,23.19992915912738,-76.75884444027176
1589550933.6046119,-0.5961220680139598,-3.020698604009415,9.485202296891485,0.5433333333333333,0.3533333333333333,-0.7066666666666667,2.4927461245028795,5.33401560344128,-44.9229225002029
1589550933.6146119,0.35321142293395336,-6.523304969786657,9.279541074291352,0.5433333333333333,0.3533333333333333,-0.7066666666666667,-9.690939740676145,-7.022937476877543,-26.616968800098654
1589550933.6246119,0.5064279707899977,-8.355522018145606,8.770763443239655,0.5357041134961028,0.3561075950923262,-0.7066666666666667,-5.378955521132994,-4.593106882053552,-24.696697278158886
1589550933.6346118,-0.7417662213267716,-4.063519561375984,8.407925123445576,0.5188888888888888,0.3622222222222222,-0.7066666666666667,4.551871913860585,7.30277401615114,-28.73579963007613
1589550933.6446118,-0.5120586086532998,-5.066542738858673,8.404927347999026,0.5188888888888888,0.3622222222222222,-0.7066666666666667,4.36992146278107,3.5192842357334198,-16.377739670427793
1589550933.6546118,0.005045388640232018,-4.460900838429049,9.175045388640232,0.5188888888888888,0.3622222222222222,-0.7066666666666667,-2.090651200907773,-2.3703823362541763,-3.346504050305743
1589550933.6646118,-0.14660354643214235,-4.122957944783399,8.944135939763708,0.5188888888888888,0.3622222222222222,-0.7066666666666667,2.0751818617748485,1.9556632215805907,-0.471571663231783
1589550933.6746118,-0.22221489976983455,-4.105583380874629,8.793328939861901,0.5195063355606704,0.36592690225291097,-0.7066666666666667,1.0410351051482305,1.6870057344638325,-0.10419412586312042
1589550933.6846118,-0.053406935033878056,-4.274869669190912,8.965170187325628,0.52,0.3688888888888889,-0.7066666666666667,-1.6465424471901156,-1.741356117975289,-0.1392785970506178
1589550933.6946118,-0.12749389483750875,-4.207241661970388,8.822115545536827,0.52,0.3688888888888889,-0.7066666666666667,0.2507119131786122,-0.14813877930904917,-0.009052077462984781
1589550933.7046118,-0.25216923369461874,-4.038208784940103,8.68509450465868,0.52,0.3688888888888889,-0.7066666666666667,1.7953983647081193,1.3738186917664956,0.10907967294162388
1589550933.7146118,-0.21995108789977752,-4.088975843733729,8.76897584373373,0.52,0.3688888888888889,-0.7066666666666667,0.13719055207560849,0.3600581422868774,0.05548762208302434
1589550933.7246118,-0.16878912116906838,-4.171210878830932,8.851210878830932,0.52,0.3688888888888889,-0.7066666666666667,-1.3551019890399838,-0.6401359853866451,-0.17516998173330628
1589550933.7346117,-0.22183516319737692,-4.164541209200656,8.728600278205574,0.52,0.3688888888888889,-0.7066666666666667,-0.32639941129713335,0.16786570371106369,-0.11926511500819714
1589550933.7446117,-0.22496631376323387,-4.122415784408085,8.705033686236767,0.52,0.3688888888888889,-0.7066666666666667,0.3288618864292589,0.014677574590952869,-0.0625
1589550933.7546117,-0.24307755081853702,-4.094614966120975,8.733077550818537,0.52,0.3688888888888889,-0.7066666666666667,0.4855782308719521,-0.125,-0.0625
1589550933.7646117,-0.18974738822264772,-4.095477510161577,8.844072693069972,0.52,0.3688888888888889,-0.7066666666666667,0.020717860861970472,-0.398875508078874,-0.1309688770197185
1589550933.7746117,-0.23086755918614327,-4.117037667347402,8.765302548975116,0.5282033213154157,0.3739370866214524,-0.7016184689341032,-0.3395048596929128,0.049407665834657055,-0.15200485969291277
1589550933.7846117,-0.2526463605753565,-4.1394707278849285,8.682618275482179,0.5344444444444445,0.37777777777777777,-0.6977777777777778,-0.4012880739212066,0.00017553183235841097,-0.125
1589550933.7946117,-0.17479676075163142,-4.168902429436277,8.752052834342322,0.5344444444444445,0.37777777777777777,-0.6977777777777778,-0.48030996933721204,-0.7431401839767278,-0.16438006132557592
1589550933.8046117,-0.16007420240585774,-4.165918377353556,8.75191095711297,0.5344444444444445,0.37777777777777777,-0.6977777777777778,0.16361303608786615,-0.39888696391213385,-0.17486087048901672
1589550933.8146117,-0.21831411505414125,-4.106743539783435,8.70697415913374,0.5344444444444445,0.37777777777777777,-0.6977777777777778,0.957132190883828,0.42624253361867953,-0.0625
1589550933.8246117,-0.21,-4.148952772073922,8.79523613963039,0.5249942961441935,0.3718092630618298,-0.7077253023043577,-0.2899127310061601,-0.16131930184804927,-0.14643223819301848
1589550933.8346117,-0.204030721472918,-4.165969278527082,8.775815671162492,0.5133333333333333,0.3644444444444445,-0.72,-1.0009600460286876,-0.4748079907942625,-0.17538401841147505
1589550933.8446116,-0.20475155993141606,-4.155745320205751,8.747732840754423,0.5133333333333333,0.3644444444444445,-0.72,-0.5186330051437965,-0.4109082512859491,-0.1843944991427006
1589550933.8546116,-0.2002526156661495,-4.135126307833074,8.748484306003103,0.5133333333333333,0.3644444444444445,-0.72,0.24052691251939373,-0.19065769582686876,-0.2195394239567172
