time,acc_x,acc_y,acc_z,mag_x,mag_y,mag_z,gyr_x,gyr_y,gyr_z
1589551328.5135489,0.15,-4.13,8.71,0.4566666666666666,0.3244444444444444,-0.6411111111111111,0.25,0.0625,0.9375
1589551328.5235488,0.16178406122542507,-4.128153384354521,8.778153384354521,0.4566666666666666,0.3244444444444444,-0.6411111111111111,0.24442480867054672,0.06807519132945329,0.8921165391136978
1589551328.5335488,0.2,-4.181696984570079,8.844715175312126,0.4566666666666666,0.33023030699646544,-0.6473791288758005,0.04363630786220436,0.2417424614251971,0.6768938464370073
1589551328.5435488,0.19521003262642742,-4.200420065252855,8.87084013050571,0.4566666666666666,0.3377777777777778,-0.6555555555555556,-0.032562703915171284,0.3723745921696574,0.29043892740619903
1589551328.5535488,0.1798350592174614,-4.195082470391269,8.794092825696037,0.4566666666666666,0.3377777777777778,-0.6555555555555556,0.03176543994543313,0.4692654399454331,-0.03279631983629937
1589551328.5635488,0.17626895805792572,-4.2,8.758806874173777,0.4566666666666666,0.3377777777777778,-0.6555555555555556,0.0625,0.5391809878620358,-0.125
1589551328.5735488,0.17319475568606238,-4.196597377843031,8.76659737784303,0.4566666666666666,0.3377777777777778,-0.6555555555555556,0.0625,0.5199672230378899,-0.125
1589551328.5835488,0.1623911083635989,-4.1911955541818,8.7611955541818,0.4566666666666666,0.3377777777777778,-0.6555555555555556,0.0625,0.4524444272724931,-0.125
1589551328.5935488,0.15584416725228392,-4.173766250878426,8.755844167252285,0.4711111111111111,0.3377777777777778,-0.6411111111111111,0.1875,0.1875,-0.16152604532677442
1589551328.6035488,0.1377172306495527,-4.156848308051342,8.733151691948658,0.4711111111111111,0.3377777777777778,-0.6411111111111111,0.1732326915597044,0.1732326915597044,-0.019698074679113185
1589551328.6135488,0.13,-4.176338910054663,8.720983269836012,0.4711111111111111,0.3377777777777778,-0.6411111111111111,0.0792363756832864,0.010590939208216008,0.056354563524929596
1589551328.6235487,0.13,-4.17,8.749915348554856,0.4711111111111111,0.3377777777777778,-0.6411111111111111,0.015492732116960641,-0.17200726788303936,-0.0625
1589551328.6335487,0.1397395388556789,-4.173246512951893,8.842725590663251,0.46461808520732517,0.33128475187399187,-0.6458005187082898,0.125,-0.04220929405066894,-0.04220929405066894
1589551328.6435487,0.150511668357733,-4.183162777214089,8.877348891143644,0.4511111111111111,0.31777777777777777,-0.6555555555555556,0.125,0.05930207276416872,-0.019767357588056242
1589551328.6535487,0.13411546487363785,-4.181769070252725,8.817076281010896,0.4511111111111111,0.31777777777777777,-0.6555555555555556,0.20216496638070947,0.26466496638070947,-0.0882216554602365
1589551328.6635487,0.14343571236610742,-4.166564287633893,8.766564287633893,0.4511111111111111,0.31777777777777777,-0.6555555555555556,0.3125,0.46089280915268555,-0.10352679771182861
1589551328.6735487,0.15,-4.171757421838029,8.775676562450705,0.4511111111111111,0.31777777777777777,-0.6555555555555556,0.23901611351231977,0.47803222702463954,-0.0625
1589551328.6835487,0.1475340574708468,-4.188767028735423,8.8,0.44933015261783377,0.31859975862082884,-0.6563775363986066,0.1481182112108112,0.2808242816144149,-0.07020607040360373
1589551328.6935487,0.13755541414784175,-4.168666878778238,8.781111464630396,0.43666666666666665,0.3244444444444444,-0.6622222222222223,0.3361106692120055,0.5,-0.14861066921200553
1589551328.7035487,0.14598726925525143,-4.162038192234246,8.737961807765755,0.43666666666666665,0.3244444444444444,-0.6622222222222223,0.4000795671546786,0.5501591343093571,-0.11226129853596435
1589551328.7135487,0.14,-4.170155764565689,8.739688470868622,0.43666666666666665,0.3244444444444444,-0.6622222222222223,0.4682632357322211,0.7172897071966634,0.030763235732221134
1589551328.7235487,0.14,-4.167570713732387,8.775141427464774,0.43666666666666665,0.3244444444444444,-0.6622222222222223,0.5473169608274188,0.9071339216548374,0.038841519586290646
1589551328.7335486,0.12988991052653281,-4.177472477631633,8.805055044736735,0.4386325173976186,0.3244444444444444,-0.6588521923977332,0.625,1.1098910444068775,0.0
1589551328.7435486,0.10319553511330491,-4.168402232443348,8.812011162216738,0.4444444444444444,0.3244444444444444,-0.6488888888888888,0.6150139527709222,1.2899441889163115,0.0
1589551328.7535486,0.11450602851510566,-4.157253014257553,8.745277128317975,0.4444444444444444,0.3244444444444444,-0.6488888888888888,0.5109940173291156,1.2768074084261678,-0.017168660890294778
1589551328.7635486,0.10375277787897556,-4.153752777878976,8.695011111515901,0.4444444444444444,0.3244444444444444,-0.6488888888888888,0.316362845641007,0.570225691282014,-0.0625
1589551328.7735486,0.11903311596050858,-4.1690331159605085,8.756132463842034,0.4444444444444444,0.3244444444444444,-0.6488888888888888,0.07760756311705341,0.09271512623410683,-0.0625
1589551328.7835486,0.1032777402148599,-4.16163887010743,8.791638870107429,0.447540087980701,0.3233518643728245,-0.6499814689605088,-0.125,-0.2807288145143115,-0.04201412365712569
1589551328.7935486,0.11903275486439786,-4.169516377432199,8.7995163774322,0.462419824038598,0.31810019282297847,-0.6552331405103549,-0.125,-0.42843207685372997,0.056454717902486656
1589551328.8035486,0.134770406078928,-4.16,8.793762766565896,0.4633333333333333,0.31777777777777777,-0.6555555555555556,-0.25,-0.4701849620066999,-0.11009248100334995
1589551328.8135486,0.14281189797333743,-4.16,8.713594051013333,0.4633333333333333,0.31777777777777777,-0.6555555555555556,-0.25,-0.375,-0.07373140941666025
1589551328.8235486,0.11779108587811457,-4.16,8.761164343512458,0.4633333333333333,0.31777777777777777,-0.6555555555555556,-0.32304143010732406,-0.4723885734764321,-0.10065285663089198
1589551328.8335485,0.13,-4.16,8.829824089403974,0.4633333333333333,0.3196657862924419,-0.6514648704404499,-0.4729001596499527,-0.6958003192999054,-0.044799920175023655
1589551328.8435485,0.13,-4.16,8.858988483913096,0.4633333333333333,0.3244444444444444,-0.6411111111111111,-0.5625,-0.7655650203807036,-0.021886995923859277
1589551328.8535485,0.13,-4.157368999104021,8.793689991040203,0.4633333333333333,0.3244444444444444,-0.6411111111111111,-0.5460562444001271,-0.4967249776005087,-0.0625
1589551328.8635485,0.13361361339368108,-4.160840840181043,8.734454453574724,0.4633333333333333,0.3244444444444444,-0.6411111111111111,-0.5,-0.38025525113152,-0.03991491628949334
1589551328.8735485,0.13741632554779679,-4.177416325547797,8.77550204671322,0.4633333333333333,0.3244444444444444,-0.6411111111111111,-0.5645918613050807,-0.5322959306525403,0.016147965326270167
1589551328.8835485,0.13,-4.167907093956067,8.815814187912133,0.46135669984739663,0.32374680909646675,-0.641925019017085,-0.7565403313872905,-0.6119193372254189,0.03633867445083792
1589551328.8935485,0.13,-4.150290646394221,8.78058129278844,0.44471894381676397,0.3178746599091847,-0.6487758597355808,-0.8115917300180604,-0.5018165399638792,-0.18386692007224162
1589551328.9035485,0.13256540422594795,-4.167434595774052,8.771021085209181,0.4444444444444444,0.31777777777777777,-0.6488888888888888,-1.0945675528243493,-0.798101329236524,-0.0625
1589551328.9135485,0.1494183477825942,-4.151163304434812,8.714071565521841,0.4444444444444444,0.31777777777777777,-0.6488888888888888,-1.327041305435145,-1.1431766317939314,-0.05886467364121374
1589551328.9235485,0.14067730910303436,-4.168645381793931,8.77525883627876,0.4444444444444444,0.31777777777777777,-0.6488888888888888,-1.5455672724241414,-1.4163340905301767,-0.004233181893964662
1589551328.9335485,0.2164668462562072,-4.064713900879556,8.791762033040147,0.4522857998045431,0.32117569843382054,-0.6470592393048659,-1.702202541300185,-1.577202541300185,-0.1875
1589551328.9435484,0.16379815100154083,-3.8634651600753296,8.755265365519604,0.4777777777777778,0.3322222222222222,-0.6411111111111111,-1.6270811932888205,-1.5266649546310562,-0.2612512840267078
1589551328.9535484,0.06809010470080375,-3.7689086312576023,8.714574876577071,0.4777777777777778,0.3322222222222222,-0.6411111111111111,-1.6806789453600133,-1.8816228028333613,-0.3547350878866656
1589551328.9635484,0.1821526498874565,-3.834529249937476,8.826681899824932,0.4777777777777778,0.3322222222222222,-0.6411111111111111,-2.1875,-2.8794846872655344,-0.17713093695291363
1589551328.9735484,0.12,-3.782060387222542,8.747939612777458,0.4777777777777778,0.3322222222222222,-0.6411111111111111,-2.1875,-2.7019474657746665,0.333227648309778
1589551328.9835484,0.13485570267296157,-3.7240577189308155,8.835653686415109,0.47150536998252734,0.33585361620894616,-0.6473835189063616,-2.2803481417060096,-2.7481962834120193,0.9932088850236058
1589551328.9935484,0.14332329332389573,-3.636639056640713,8.863311998313279,0.4566666666666666,0.34444444444444444,-0.6622222222222223,-2.541682354181413,-2.9999294061836417,1.2292058854535324
1589551329.0035484,0.09279031942290025,-3.497673378412976,8.755929428773664,0.4566666666666666,0.34444444444444444,-0.6622222222222223,-2.6206401259017182,-2.6446194334422675,1.4266003147542958
1589551329.0135484,-0.11369784209449785,-2.908190836571896,8.796540703620373,0.4566666666666666,0.34444444444444444,-0.6622222222222223,-3.0265903047658007,-3.052186669052976,2.2652830333401512
1589551329.0235484,0.0,-2.98,9.0,0.4566666666666666,0.34444444444444444,-0.6622222222222223,-3.625,-3.875,3.3125
1589551329.0335484,-0.2348317328869703,-2.671722755704343,8.905356576513082,0.4579108791198034,0.34214743683865345,-0.6616479703207745,-2.210211380054621,-1.7155949916306934,5.567633082988283
1589551329.0435483,-0.17949225214382428,-2.6915232435685272,8.75084624642696,0.4711111111111111,0.31777777777777777,-0.6555555555555556,-1.104901647359711,-0.6885578080336994,9.085593124717917
1589551329.0535483,-0.15,-2.7975140825560993,8.79124295872195,0.4711111111111111,0.31777777777777777,-0.6555555555555556,0.04425616400406317,-0.8959506879674947,19.913247991504292
1589551329.0635483,-0.15649376396799078,-2.8438962583807945,8.782987527935981,0.4711111111111111,0.31777777777777777,-0.6555555555555556,0.01623440991997693,-1.2905860247999423,26.181040930718765
1589551329.0735483,-0.197047282617709,-2.867047282617709,8.875905434764581,0.4711111111111111,0.31777777777777777,-0.6555555555555556,0.2726358691145496,-1.5440455163606812,34.048447683964376
1589551329.0835483,-0.19009121515166594,-2.860091215151666,8.88981756969667,0.4711111111111111,0.31777777777777777,-0.6555555555555556,0.620439242416704,-1.500570094697912,38.874219488531764
1589551329.0935483,-0.1560902238620159,-2.9808646642069765,8.847819552275968,0.4566666666666666,0.31777777777777777,-0.6555555555555556,0.5352444034496028,-1.8235431426695943,47.83529080558637
1589551329.1035483,-0.17509007578164,-2.96254503789082,8.82509007578164,0.4566666666666666,0.31777777777777777,-0.6555555555555556,0.21931297363524982,-2.578406486817625,53.83952273449199
1589551329.1135483,-0.19241822585367152,-2.9893458068293723,8.815817741463285,0.4566666666666666,0.31777777777777777,-0.6555555555555556,0.372955646341788,-2.670341734756341,59.73320768903202
1589551329.1235483,-0.19219051672438142,-3.0578094832756184,8.773841094194347,0.4566666666666666,0.31777777777777777,-0.6555555555555556,0.5462302431757946,-2.861309270472616,65.61923860053007
1589551329.1335483,-0.168741429638178,-3.077482859276356,8.863707148190889,0.4593236485416242,0.31777777777777777,-0.6555555555555556,0.46066967619306226,-3.1101249066594256,70.26958879234267
1589551329.1435483,-0.16,-3.06,8.82,0.4777777777777778,0.31777777777777777,-0.6555555555555556,0.1875,-3.875,74.3125
1589551329.1535482,-0.2030829404427155,-3.06,8.755375589335927,0.4777777777777778,0.31777777777777777,-0.6555555555555556,0.41189031480580984,-3.6954877481553523,76.9154276517474
1589551329.1635482,-0.19065820463119282,-3.101645511577982,8.761316409262385,0.4777777777777778,0.31777777777777777,-0.6555555555555556,0.32484133683486527,-4.1188293315825675,80.90094624731654
1589551329.1735482,-0.2081421038370954,-3.1453552595927383,8.79628420767419,0.4777777777777778,0.31777777777777777,-0.6555555555555556,0.6526644469455387,-3.9549177765272305,83.25034520310969
1589551329.1835482,-0.28130976895748006,-3.27934511552126,8.900327442239371,0.47817798495923003,0.31668630364654443,-0.6553372607293089,0.8043139440157498,-3.9456860559842504,85.75094193387794
1589551329.1935482,-0.31927496549071077,-3.260362517254644,8.909818741372678,0.48977846167771716,0.28504863986885215,-0.6490097279737704,0.5670314656830576,-4.1829685343169425,87.58988114095631
1589551329.2035482,-0.345426163775543,-3.3164345905611423,8.872869181122285,0.49,0.28444444444444444,-0.6488888888888888,0.783913523597144,-3.6875,90.4166407573386
1589551329.2135482,-0.36198970025749355,-3.291938201544961,8.786072098197545,0.49,0.28444444444444444,-0.6488888888888888,0.8128218669533261,-3.799420639484013,92.71076191845204
1589551329.2235482,-0.3836635517703651,-3.3419519359671948,8.76123097547512,0.49,0.28444444444444444,-0.6488888888888888,0.5503004002050311,-4.286598799384906,94.29429239610441
1589551329.2335482,-0.43966190720560266,-3.3479714432336163,8.886619072056027,0.4904883562585739,0.2838433905877381,-0.6491142840851537,0.5021130799649832,-4.4353869200350164,95.27958311950977
1589551329.2435482,-0.4378160829121516,-3.291954020728038,8.778275875631772,0.5044444444444445,0.26666666666666666,-0.6555555555555556,0.6602010364018958,-4.301724222698578,96.19827577730142
1589551329.2535481,-0.47092137042669285,-3.300307123475564,8.737370963413543,0.5044444444444445,0.26666666666666666,-0.6555555555555556,1.045224304499508,-4.028792825834153,96.48656334794406
1589551329.2635481,-0.4956443870014771,-3.2882219350073854,8.90902141802068,0.5044444444444445,0.26666666666666666,-0.6555555555555556,0.5680564531019202,-4.774164512555392,95.92638709379617
1589551329.2735481,-0.49075474218541276,-3.214779885415739,8.736603882803456,0.5044444444444445,0.26666666666666666,-0.6555555555555556,0.9021228515451064,-4.075471435568617,95.32547143556862
1589551329.283548,-0.546783328880577,-3.2396814795024786,8.979394425149167,0.5044444444444445,0.26666666666666666,-0.6555555555555556,1.3690277406714757,-3.4918403241606555,94.74184032416065
1589551329.293548,-0.5994003681284275,-3.2380511964173895,8.945952484866885,0.5155555555555555,0.2255555555555556,-0.6766666666666666,0.1371800223913167,-5.348766105618703,92.48781997760868
1589551329.303548,-0.5675644699140402,-3.1345845272206305,8.73106017191977,0.5155555555555555,0.2255555555555556,-0.6766666666666666,0.7838467048710602,-3.955945558739255,91.84115329512893
1589551329.313548,-0.6777558578577494,-3.1055117157154988,8.818976568569003,0.5155555555555555,0.2255555555555556,-0.6766666666666666,0.769805837082001,-4.459155330334399,89.76279289288746
1589551329.323548,-0.6626011236969993,-3.075202247393998,8.879595505212004,0.5155555555555555,0.2255555555555556,-0.6766666666666666,0.05942767329684018,-5.027457861362528,89.00505618484996
1589551329.333548,-0.6887750876514921,-3.07,8.794083041161691,0.5155555555555555,0.2255555555555556,-0.6766666666666666,0.23724049636970984,-4.405622808712696,88.75510380145212
1589551329.343548,-0.6976496288757044,-3.123769331976268,8.872350371124297,0.5155555555555555,0.17333333333333334,-0.7055555555555556,0.7264416751483256,-3.7786861082838916,87.26677041183626
1589551329.353548,-0.7484955041049477,-3.203398201641979,8.82830089917901,0.5155555555555555,0.17333333333333334,-0.7055555555555556,0.324335660918292,-3.9375,84.28971781199775
1589551329.363548,-0.7947822066981713,-3.223825765358537,8.814261351962195,0.5155555555555555,0.17333333333333334,-0.7055555555555556,0.6875,-3.8837001746455724,80.67666812204644
1589551329.373548,-0.842619371911118,-3.2521418842666456,8.763929057866676,0.5155555555555555,0.17333333333333334,-0.7055555555555556,0.6875,-3.3013301649998055,75.78265702222049
1589551329.383548,-0.8589415106821808,-3.2031754679534576,8.78841226602327,0.5155555555555555,0.17333333333333334,-0.7055555555555556,0.6875,-2.842270012063665,71.7021223294548
1589551329.393548,-0.8529368237503353,-3.1572862827506034,8.920223106500938,0.5277777777777778,0.16,-0.6911111111111111,0.5625,-2.5,62.1875
1589551329.403548,-0.8198308775127855,-3.0844685806876297,8.80446858068763,0.5277777777777778,0.16,-0.6911111111111111,0.6239429844549091,-2.466485644842777,61.81884209327055
1589551329.413548,-0.941826749792996,-3.1460062831815305,8.852910233305732,0.5277777777777778,0.16,-0.6911111111111111,1.222716562758755,-2.115905520919585,57.39860302712971
1589551329.423548,-1.0725973632368542,-3.24,8.87,0.5277777777777778,0.16,-0.6911111111111111,0.9569821185028035,-2.1193173208061826,52.40423738445219
1589551329.433548,-1.088487270798606,-3.24,8.87,0.5277777777777778,0.16,-0.6911111111111111,0.31145462380663735,-2.466909048719503,45.700682631838156
1589551329.443548,-1.1289782461329883,-3.2555912984531954,8.901182596906391,0.5390381599939744,0.1331483193306081,-0.7075685928117061,0.591059653663647,-1.9153263080051766,42.18785434769212
1589551329.453548,-1.152674151828315,-3.221977544515055,8.840292164944268,0.5422222222222223,0.12555555555555556,-0.7122222222222222,0.21221930643818654,-1.9480336223174222,38.95898980772745
1589551329.463548,-1.16,-3.182382251050343,8.835235497899314,0.5422222222222223,0.12555555555555556,-0.7122222222222222,0.10266639640303676,-1.6220562762585686,34.47939393380998
1589551329.473548,-0.9759575953232702,-2.8790070674461217,8.842268562952622,0.5422222222222223,0.12555555555555556,-0.7122222222222222,1.0695892592269436,-0.03635154000523516,30.296532806910392
1589551329.483548,-1.032297466865344,-2.873446200298016,8.506254215355659,0.5421087670683782,0.12531446335363675,-0.7124916782126021,-0.00319092620186652,-1.4984045368990668,26.701338375421535
1589551329.493548,-1.180319974903929,-3.0954799623558937,8.909204376127363,0.5347990135849912,0.10978123720143955,-0.7298523427356459,-0.20877774292212375,-1.395611128538938,23.56613942043761
1589551329.503548,-1.1850514289846164,-3.08360816356044,8.65876245051429,0.5333333333333333,0.10666666666666667,-0.7333333333333333,0.981316319890092,0.1771938664834867,19.33634691516477
1589551329.513548,-1.238125598799689,-3.1215182848569207,8.855895081255989,0.5333333333333333,0.10666666666666667,-0.7333333333333333,0.12833859071928266,-1.2444356821345288,16.30353721144634
1589551329.523548,-1.2228527744260236,-3.1113406833170796,8.839072546653664,0.5333333333333333,0.10666666666666667,-0.7333333333333333,0.1875,-0.1675275624390486,12.667087472520207
1589551329.5335479,-1.340711086133655,-3.2153333112944016,8.922266649035521,0.5333333333333333,0.10666666666666667,-0.7333333333333333,0.1875,-0.5574999173540058,10.760555959602637
1589551329.5435479,-1.2916412326474354,-3.1399694791769224,8.951641232647436,0.5255555555555556,0.10666666666666667,-0.7388888888888889,-0.09365462242788225,-0.28115462242788225,7.488979275376588
1589551329.5535479,-1.209051885399232,-3.040862262479078,8.869051885399232,0.5255555555555556,0.10666666666666667,-0.7388888888888889,0.21605542975287978,0.02855542975287978,5.527482278231761
1589551329.5635478,-1.2820780423602818,-3.1213853615735214,8.795887786687464,0.5255555555555556,0.10666666666666667,-0.7388888888888889,-0.3189938823758805,0.0711585098345073,1.8982625094445393
1589551329.5735478,-1.3388226495008237,-3.159215099667216,8.953720797337727,0.5255555555555556,0.10666666666666667,-0.7388888888888889,-0.4656606104406871,0.3541978301791657,-1.0159900332784295
1589551329.5835478,-1.3176742075363879,-3.145116138357592,8.840929106860736,0.5255555555555556,0.10666666666666667,-0.7388888888888889,0.15116894685535642,1.103205149752933,-2.425886164240815
1589551329.5935478,-1.1794469374672183,-3.029308671834023,8.731797453231541,0.5111111111111111,0.10666666666666667,-0.7688888888888888,-0.006049121452299085,0.4426849612448278,-5.847930568506324
1589551329.6035478,-1.155003205314995,-2.9987540066437437,8.811239582726266,0.5111111111111111,0.10666666666666667,-0.7688888888888888,-0.27340244186724166,0.6718449501719215,-7.4138571595081295
1589551329.6135478,-1.2112226578243506,-3.015611328912175,8.616655919100134,0.5111111111111111,0.10666666666666667,-0.7688888888888888,-0.3633097314329682,0.6270243285824204,-10.081376177041733
1589551329.6235478,-1.3893885377033464,-3.261808921777165,9.143152880553641,0.5111111111111111,0.10666666666666667,-0.7688888888888888,-1.1789411006920518,-0.3664411006920518,-13.156170421522514
1589551329.6335478,-1.3837522415747705,-3.215008966299083,8.964407502834176,0.5111111111111111,0.10666666666666667,-0.7688888888888888,-0.08219236318664325,1.79656678346903,-13.718693960630732
1589551329.6435478,-1.4104716289410817,-3.3314148868232456,8.93282977364649,0.5244444444444445,0.12444444444444445,-0.7911111111111111,-0.27358144705409304,1.0058953617635233,-15.63619202204404
1589551329.6535478,-1.416951813652492,-3.3548180832092362,8.982074715496479,0.5244444444444445,0.12444444444444445,-0.7911111111111111,-0.7366641847296527,1.1440511646719247,-17.161197212876658
1589551329.6635478,-1.3398407883367345,-3.2237293401724485,8.78158604967551,0.5244444444444445,0.12444444444444445,-0.7911111111111111,-0.39930344897321346,1.6259950728954093,-18.07689063850128
1589551329.6735477,-1.3596209736398615,-3.3187681643295495,8.789431460459792,0.5244444444444445,0.12444444444444445,-0.7911111111111111,-0.25059222868771663,1.9357233139368502,-20.045917596743934
1589551329.6835477,-1.329033145576562,-3.32,8.805483427211719,0.5244444444444445,0.12444444444444445,-0.7911111111111111,-0.6854713903295968,1.8407285799267563,-21.804385561318387
1589551329.6935477,-1.2434533952535927,-3.273453395253593,8.853453395253592,0.5111111111111111,0.08444444444444445,-0.7911111111111111,-0.9303054265550151,1.712681007057447,-24.938405035287236
1589551329.7035477,-1.2894653892565913,-3.319465389256591,8.89946538925659,0.5111111111111111,0.08444444444444445,-0.7911111111111111,-0.834447105715435,2.0481851299959777,-26.61592564997989
1589551329.7135477,-1.3748286334056399,-3.40482863340564,8.74163557483731,0.5111111111111111,0.08444444444444445,-0.7911111111111111,-0.9294197396963124,2.5342190889370935,-28.695336225596527
1589551329.7235477,-1.3708460509935914,-3.41,8.794077643044862,0.5111111111111111,0.08444444444444445,-0.7911111111111111,-1.2807730877403292,2.162014730969616,-30.128380169671264
1589551329.7335477,-1.3859484123676973,-3.433922618551546,8.823922618551546,0.5111111111111111,0.08444444444444445,-0.7911111111111111,-1.1131448454037836,2.125,-31.09725940703392
1589551329.7435477,-1.3536039129747193,-3.3817662607595507,8.90279217405056,0.5305223575245942,0.04966596128695399,-0.7943463188466916,-1.3809657614712063,2.125,-31.539975543908003
1589551329.7535477,-1.310230983671844,-3.2508469401300943,8.731539891145626,0.5377777777777778,0.03666666666666667,-0.7955555555555556,-1.2519248639320324,2.745187840169919,-31.811056352050976
1589551329.7635477,-1.3594547969568225,-3.373636992392056,8.73,0.5377777777777778,0.03666666666666667,-0.7955555555555556,-1.4560616539867601,1.925753384052959,-32.12159248098014
1589551329.7735476,-1.3617966093280711,-3.498440688063147,8.935084766798223,0.5377777777777778,0.03666666666666667,-0.7955555555555556,-1.2949152332017773,2.5190678754933353,-32.03368642490133
1589551329.7835476,-1.3525086882379607,-3.4226129470934876,8.785225894186976,0.5377777777777778,0.03666666666666667,-0.7955555555555556,-1.2968206985127464,2.640679301487254,-32.37456558810197
1589551329.7935476,-1.3114775759115742,-3.3745910303646296,9.028179392707406,0.548050424201358,0.03666666666666667,-0.7792905320515535,-2.468172722652776,1.0841030364629654,-32.788918180663195
1589551329.8035476,-1.247209249031785,-3.332292320736989,8.908836996127139,0.5511111111111111,0.03666666666666667,-0.7744444444444445,-1.5870004239521507,2.3218455668354836,-32.3565194101336
1589551329.8135476,-1.2418595771356926,-3.3970872513820027,8.715474440075226,0.5511111111111111,0.03666666666666667,-0.7744444444444445,-0.7427658574115232,2.6526329287057617,-32.29868353564712
1589551329.8235476,-1.2712743674823725,-3.4429085441725427,8.80019493985898,0.5511111111111111,0.03666666666666667,-0.7744444444444445,-1.7228263687266694,1.746532818332642,-32.77389439029449
1589551329.8335476,-1.2164979955175352,-3.4029571640518954,8.885875501120616,0.5511111111111111,0.03666666666666667,-0.7744444444444445,-1.7538905899807444,1.602869803339752,-32.83827811799615
1589551329.8435476,-1.1889819356382343,-3.3989819356382345,8.871018064361765,0.5382302508274515,0.012515053634804797,-0.7916189248226574,-0.7992782230729354,2.0820846791881005,-32.689620967420346
1589551329.8535476,-1.22,-3.4600337865848605,8.876040543901832,0.5244444444444445,-0.013333333333333334,-0.81,-1.1885558307768842,1.4989441692231158,-32.925337865848604
1589551329.8635476,-1.2974110596980961,-3.617619661685504,8.9,0.5244444444444445,-0.013333333333333334,-0.81,-1.5437115982704999,0.6062115982704999,-33.3400307213836
1589551329.8735476,-1.329991812702505,-3.6933115005400134,8.813368811622478,0.5244444444444445,-0.013333333333333334,-0.81,-1.0002046824373758,1.6037402449221336,-33.0834527314218
1589551329.8835475,-1.2892001225865768,-3.6311002145265094,8.725550107263254,0.5244444444444445,-0.013333333333333334,-0.81,-1.0674992338338951,1.6487511492491573,-32.65968817039534
1589551329.8935475,-1.2717284427546103,-3.6269137710184416,8.776234877904967,0.5127160016898341,-0.025061776087943667,-0.76829887020583,-1.0667430819592136,1.1917430819592136,-32.28009169835106
1589551329.9035475,-1.1702251583144399,-3.6177789070440154,8.85533265577359,0.5044444444444445,-0.03333333333333333,-0.7388888888888889,-0.6736181690250957,1.0625,-31.702789070440154
1589551329.9135475,-1.2031992713004485,-3.654332726083707,8.797934183482809,0.5044444444444445,-0.03333333333333333,-0.7388888888888889,-0.7912477228139013,1.284163630418535,-31.7912477228139
1589551329.9235475,-1.1486638002315197,-3.66,8.746188428736799,0.5044444444444445,-0.03333333333333333,-0.7388888888888889,-0.5934421436839992,1.7506157126320017,-31.593442143683998
1589551329.9335475,-1.14,-3.6092026335040233,8.79805413313826,0.5044444444444445,-0.03333333333333333,-0.7388888888888889,-0.6532095830285296,1.1321781272860276,-31.83462874908559
1589551329.9435475,-1.1233379834377135,-3.61499302484343,9.003282182185153,0.4998161065104759,0.04442274395733776,-0.6814974985076793,-1.4164632246000415,0.562587189457125,-31.364743180671397
1589551329.9535475,-1.092819118417442,-3.674361763165116,8.895035298226357,0.4988888888888889,0.06,-0.67,0.02305142564921292,1.8024172424975677,-30.68373163369671
1589551329.9635475,-1.0551153652853293,-3.706163476036003,8.76662493717732,0.4988888888888889,0.06,-0.67,0.2965144834833463,1.6104565495499612,-31.11556517567506
1589551329.9735475,-1.05,-3.7272320603086553,8.879240452314914,0.4988888888888889,0.06,-0.67,-0.9799045231491359,0.8624475499608848,-31.887552450039117
1589551329.9835474,-0.994324585751535,-3.6642017831609053,8.7987719740937,0.4988888888888889,0.06,-0.67,-0.4915573218941879,1.2877738876272184,-32.22143630667003
1589551329.9935474,-0.9452303976940755,-3.610460795388151,8.749688778093716,0.4988888888888889,0.07336657188485958,-0.6662224905542788,-0.05767489190978847,1.632705079266155,-32.780744848673706
1589551330.0035474,-0.9301854974704891,-3.6176391231028666,8.755834738617201,0.4988888888888889,0.1111111111111111,-0.6555555555555556,-0.9829258010118044,0.8920741989881956,-34.58853288364249
1589551330.0135474,-1.0359426368892417,-3.8496147829044327,8.934155764652534,0.4988888888888889,0.1111111111111111,-0.6555555555555556,0.19354523296678394,0.957428296111552,-35.454713184446206
1589551330.0235474,-0.9660826678016172,-3.7681208221715945,8.744203489973211,0.4988888888888889,0.1111111111111111,-0.6555555555555556,0.11285769721853639,2.2490063966151768,-35.824841023458426
1589551330.0335474,-0.8860556074487748,-3.6490834111731623,8.801374883240257,0.4988888888888889,0.1111111111111111,-0.6555555555555556,-0.6743049068903154,1.5931866963451715,-36.54930490689031
1589551330.0435474,-0.834895376937737,-3.6551883215120733,9.030711436823388,0.4955416058139205,0.1245002434109847,-0.6449558258181557,-0.5292883175825687,0.9367153270330275,-37.3143309035896
1589551330.0535474,-0.7409987946298682,-3.5619975892597364,8.737691924020117,0.4922222222222222,0.13777777777777778,-0.6344444444444445,0.4550090402759882,2.5612816409659587,-38.39688630034499
1589551330.0635474,-0.7477945420670004,-3.6007854455120007,8.5237009096555,0.4922222222222222,0.13777777777777778,-0.6344444444444445,-0.25736355167500824,1.4065342673437329,-39.90794875424689
1589551330.0735474,-0.7782163022471484,-3.701081511235742,8.684326044942969,0.4922222222222222,0.13777777777777778,-0.6344444444444445,-0.8638518890446777,0.5067594452233886,-41.34392644662549
1589551330.0835474,-0.8114844252037745,-3.7477813102445294,8.631843609429431,0.4922222222222222,0.13777777777777778,-0.6344444444444445,-0.1666004329150742,1.3496106300943618,-41.73613318902831
1589551330.0935473,-0.8503275529865125,-3.8987411689145794,8.959447655748233,0.500503817883394,0.17391564975380006,-0.6487490187682866,-0.1311416184971098,0.8808204881181759,-42.425537893384714
1589551330.1035473,-0.8747553673474034,-3.91573389795779,8.88178107142044,0.5044444444444445,0.19111111111111112,-0.6555555555555556,0.01027366072444963,1.4058209821733487,-42.6875
1589551330.1135473,-0.8287147071217869,-3.8807680151706703,8.725893383902234,0.5044444444444445,0.19111111111111112,-0.6555555555555556,0.16506663506110408,1.5096001896333755,-42.40703355457227
1589551330.1235473,-0.846599315800727,-3.9698556767158433,8.803169766944622,0.5044444444444445,0.19111111111111112,-0.6555555555555556,0.1875,1.2501804041051956,-41.54268895659611
1589551330.1335473,-0.8266437377561091,-3.946294354185385,8.794965606634163,0.5044444444444445,0.19111111111111112,-0.6555555555555556,0.1333046721951363,1.377183647317023,-40.781035041463525
1589551330.1435473,-0.7802597620949099,-3.8441372788029087,8.733450884788367,0.5047701511776163,0.195019591909172,-0.6565326757550708,0.08082100374091043,1.4692714682022614,-40.17671598503636
1589551330.1535473,-0.8468575503089842,-3.837430201235937,8.828854698146094,0.5066666666666667,0.21777777777777774,-0.6622222222222223,-0.4982550308984314,0.13390310568848046,-38.46420931706544
1589551330.1635473,-0.7888979098656039,-3.74816318310934,8.803210878873957,0.5066666666666667,0.21777777777777774,-0.6622222222222223,-0.4730439436977996,0.23452404926442533,-36.13528771145122
1589551330.1735473,-0.7295222929936306,-3.740636942675159,8.84063694267516,0.5066666666666667,0.21777777777777774,-0.6622222222222223,0.44944267515923575,1.1369426751592357,-33.78861464968153
1589551330.1835473,-0.6678348470912854,-3.7662149344676936,8.755934410209244,0.5066666666666667,0.21777777777777774,-0.6622222222222223,1.2736566595769143,2.3345021844102094,-31.307338971602668
1589551330.1935472,-0.5977666772806878,-3.7407904792230537,8.720514249323356,0.5097365069256488,0.23261533902952464,-0.6591523819632401,1.0584227232924692,2.184285941729024,-29.750863218436553
1589551330.2035472,-0.5659615771070294,-3.783654193963265,8.85596157710703,0.5133333333333333,0.25,-0.6555555555555556,0.31490143081065874,0.7788422892970539,-29.275240143081067
1589551330.2135472,-0.5928351530338285,-3.865670306067657,8.802912117415428,0.5133333333333333,0.25,-0.6555555555555556,-0.04453977984607124,0.41067992661535707,-29.178640146769286
1589551330.2235472,-0.5974252921827979,-3.944011477360207,8.791436769543004,0.5133333333333333,0.25,-0.6555555555555556,0.2286636573588075,0.8697555812163202,-28.849928266498704
1589551330.2335472,-0.5602700394716866,-3.922432063154699,8.804054007894338,0.5133333333333333,0.25,-0.6555555555555556,0.14020039471686657,1.2736498026415668,-28.6875
1589551330.2435472,-0.48632412871254854,-3.9570948391093146,8.732905160890686,0.5058783512100762,0.25521848748628,-0.6458640787953213,0.4407112933198579,1.878211293319858,-29.064908469989895
1589551330.2535472,-0.4395470599567609,-3.7650176595243705,8.768176466810797,0.5022222222222222,0.2577777777777778,-0.6411111111111111,0.04834562364877881,1.4006250401352827,-30.230036710405205
1589551330.2635472,-0.5033405565131741,-3.8533523762620048,8.80666732331938,0.5022222222222222,0.2577777777777778,-0.6411111111111111,-0.08331691701551344,0.3540968973159321,-31.520915414922435
1589551330.2735472,-0.5282342465469757,-4.067657534530244,8.78646849309395,0.5022222222222222,0.2577777777777778,-0.6411111111111111,0.2941438363256093,0.5147517135698163,-31.680124143215092
1589551330.2835472,-0.49356222661633414,-4.140085834981125,8.829484990113247,0.5022222222222222,0.2577777777777778,-0.6411111111111111,0.23149136407214332,0.854345489544011,-31.603272552279943
1589551330.2935472,-0.44329798070585413,-4.121236742764696,8.942579543411828,0.5022222222222222,0.2577777777777778,-0.6411111111111111,-0.2790048834561687,0.8150765474264485,-31.799617262867756
1589551330.3035471,-0.3842308436532508,-3.908803534571723,8.757991163570692,0.5344444444444445,0.3022222222222222,-0.6488888888888888,0.27537450012899894,1.3060903637770898,-32.44497790892673
1589551330.3135471,-0.38322959245619004,-3.8778258933991663,8.805714921688454,0.5344444444444445,0.3022222222222222,-0.6488888888888888,0.17391183374478933,0.9712731191063985,-33.28027742927678
1589551330.3235471,-0.3786417529237801,-3.9668675897298025,8.65864175292378,0.5344444444444445,0.3022222222222222,-0.6488888888888888,0.5042445221131873,1.4200446968678586,-33.52806660841511
1589551330.333547,-0.3803695675049984,-3.9796304324950014,8.625046195938125,0.5344444444444445,0.3022222222222222,-0.6488888888888888,0.4042289277070399,1.9071161738398401,-33.50057744922656
1589551330.343547,-0.40611388799818926,-3.9538861120018107,8.775804176019014,0.5467876551127206,0.3064652008894422,-0.6612320995571651,0.013923599977365753,1.4141796499236094,-33.54080294999717
1589551330.353547,-0.4455032085127122,-4.003819348550077,9.002361302899846,0.57,0.3144444444444445,-0.6844444444444444,-0.08919360734302656,0.6474595889854602,-33.295302473397776
1589551330.363547,-0.5761528415961306,-4.095770737605804,8.834356630390971,0.57,0.3144444444444445,-0.6844444444444444,0.08972893994357112,1.2139328899637243,-31.66982365981459
1589551330.373547,-0.5068613082970765,-4.0872108999313035,8.706396458285628,0.57,0.3144444444444445,-0.6844444444444444,-0.3720946874284406,0.9077026562857797,-28.82560968628349
1589551330.383547,-0.35444967795644744,-3.8344967795644744,8.771430355343293,0.57,0.3144444444444445,-0.6844444444444444,-0.2015524361389826,0.17256440871051137,-21.838249791876617
1589551330.393547,-0.41064765753059124,-4.1305763732703085,8.698487782563946,0.6445646069200371,0.3299201175787918,-0.6886650825719937,0.33723268402393936,0.5661023329394275,-16.403315957000725
1589551330.403547,-0.014011078853405412,-3.817049754730203,8.45460773517536,0.6877777777777778,0.3388888888888889,-0.6911111111111111,0.008563586611939789,0.6286602763039344,-10.92762455367571
1589551330.413547,0.27249391398431155,-3.5905483210324975,9.125410178136713,0.6877777777777778,0.3388888888888889,-0.6911111111111111,-1.6976288689671162,-2.034753081649214,-10.470069844275281
1589551330.423547,0.21,-3.72,9.67,0.6877777777777778,0.3388888888888889,-0.6911111111111111,-2.5625,-3.625,-12.5625
1589551330.433547,0.014856653388098856,-3.779134347458152,8.91899378728147,0.6877777777777778,0.3388888888888889,-0.6911111111111111,0.8007660116823878,0.9209529608454252,-20.878267611302604
1589551330.443547,-0.12899102683828007,-3.78853140606602,8.656244264890983,0.8421237385015856,0.38784003500841374,-0.7360662453025115,1.0458250436477323,1.7585493726907306,-28.619884079743393
1589551330.453547,-0.26432926420283054,-3.8693560936347176,9.09432926420283,1.0311111111111109,0.4477777777777778,-0.7911111111111111,-2.1216463210141523,-1.5287347407606144,-32.36795727412972
1589551330.463547,-0.3833018563156979,-3.9163204194726773,8.684148505255834,1.0311111111111109,0.4477777777777778,-0.7911111111111111,-0.7405568947093761,0.5536672796401683,-32.43159805919336
1589551330.473547,-0.40786952208671295,-3.8688521911653146,8.564921514850907,1.0311111111111109,0.4477777777777778,-0.7911111111111111,0.00614168174126159,1.3247833634825232,-29.339079914804223
1589551330.483547,-0.4663357477631018,-3.923587558585428,8.902556455048998,1.0311111111111109,0.4477777777777778,-0.7911111111111111,-0.6416968470387729,0.17104282062207077,-25.33111418832552
1589551330.493547,-0.5567549692296809,-3.993320718681474,8.809318808799604,1.4489372647033396,0.3431357037875394,-1.1599558683674833,0.14835626370517074,0.8780748213906768,-18.32473960175426
1589551330.503547,-0.58,-4.017083757981656,8.866982882339483,1.6566666666666667,0.2911111111111111,-1.3433333333333333,0.008450934919611464,0.7564958193806028,-10.772703519207969
1589551330.513547,-0.698218045644033,-4.054888009609271,8.917779975976826,1.6566666666666667,0.2911111111111111,-1.3433333333333333,-0.4527750300289691,-0.6985753903765985,-3.1946230481170073
1589551330.523547,-0.8287504381714333,-4.059318102150648,8.757158174732458,1.6566666666666667,0.2911111111111111,-1.3433333333333333,0.034094892467575355,-0.8117860383116481,5.716662886364105
1589551330.533547,-0.872764127304686,-3.9269901641796627,8.682561427128913,1.6566666666666667,0.2911111111111111,-1.3433333333333333,0.36432738696286326,-0.9403025543214032,15.877610886719772
1589551330.543547,-0.7882651609052931,-3.7171734839094706,8.6790253867695,1.4040006222997548,0.20622488484904128,-1.162402128061128,0.2819199605196713,-1.5788258045264656,30.2822814809714
1589551330.553547,-0.5977496808348657,-3.805355649515689,8.723987631619016,0.9522222222222222,0.054444444444444434,-0.8388888888888889,0.8082249440728985,-1.1217937080546738,47.72092742360534
1589551330.563547,-0.5044109207182094,-3.9183446749200623,8.954878248749692,0.9522222222222222,0.054444444444444434,-0.8388888888888889,1.1766674182175945,-1.398125563663196,59.20405120111503
1589551330.573547,-0.2917830233588864,-3.838290845220703,8.93567786733203,0.9522222222222222,0.054444444444444434,-0.8388888888888889,2.0460149953216566,-1.0109900031188956,66.99640608841248
1589551330.5835469,-0.09602611701446678,-3.63676865958264,8.838427858148766,0.9522222222222222,0.054444444444444434,-0.8388888888888889,2.084336192548969,-1.80103379848931,71.94022852387658
1589551330.5935469,-0.2058988396980962,-3.4548872366790584,8.78775126732004,0.8205294080833114,0.12735396092273416,-0.7955988634799044,-0.7868677481131012,-5.851119466035823,71.93784217641095
1589551330.6035469,-0.2,-3.3125973538248212,8.703911486018026,0.6311111111111111,0.23222222222222225,-0.7333333333333333,-0.5792588687312226,-5.272870565634388,69.39018264675295
1589551330.6135468,-0.32619527950310556,-3.237208447204969,8.68776248447205,0.6311111111111111,0.23222222222222225,-0.7333333333333333,-0.2674472049689441,-4.191919254658385,67.20207763975155
1589551330.6235468,-0.4551644869096327,-3.449265425821252,8.828898138731878,0.6311111111111111,0.23222222222222225,-0.7333333333333333,0.948019889790223,-3.605537390913606,66.379351630679
1589551330.6335468,-0.5102893731281628,-3.615241144273469,8.757299184137148,0.6311111111111111,0.23222222222222225,-0.7333333333333333,1.6868971393163277,-3.244574253846948,67.3858514923061
1589551330.6435468,-0.602609756097561,-3.548931263858093,8.912576496674058,0.6007548657304754,0.2594163587090417,-0.7244794284306479,-0.1181125277161863,-4.359465077605321,69.24704822616408
1589551330.6535468,-0.529461692690929,-3.5373991939567007,8.855425400490107,0.5777777777777777,0.28,-0.7177777777777777,0.14097783380926332,-4.118271158636612,71.96496977337627
1589551330.6635468,-0.44327419077000174,-3.6192902892400207,8.563451618459997,0.5777777777777777,0.28,-0.7177777777777777,1.926410769375323,-2.631653538374806,74.11501969243778
1589551330.6735468,-0.4498424604976745,-3.698109525972094,8.550315079004651,0.5777777777777777,0.28,-0.7177777777777777,3.1579613433139673,-1.8927231940116198,75.22341520898257
1589551330.6835468,-0.6304058914197637,-3.69138379859565,8.754797054290117,0.5777777777777777,0.28,-0.7177777777777777,-0.6636303305360507,-4.802352714505909,72.35113033053605
1589551330.6935468,-0.6591388936461723,-3.612368042473026,8.740430553176914,0.5777777777777777,0.28,-0.7177777777777777,-0.07999122281212534,-4.0840276588456925,71.76749122281213
1589551330.7035468,-0.7522320706208087,-3.678593876413585,9.0,0.5166666666666667,0.26666666666666666,-0.7377777777777778,1.2345134931051223,-4.1265360655148235,73.18289180345553
1589551330.7135468,-0.78,-3.6274986858902154,8.982490801231508,0.5166666666666667,0.26666666666666666,-0.7377777777777778,1.5468339340692348,-3.546866786813847,75.42997906810844
1589551330.7235467,-0.7510743659154784,-3.6453535527699708,8.879283756056347,0.5166666666666667,0.26666666666666666,-0.7377777777777778,0.799127541079711,-3.8995066555166646,80.77886895011811
1589551330.7335467,-0.6929742085741395,-3.7125644785646514,8.882822392823256,0.5166666666666667,0.26666666666666666,-0.7377777777777778,0.4261192098680238,-4.740231173984301,84.18171525920815
1589551330.7435467,-0.7384668490295688,-3.647517259346099,8.587220268333985,0.526779847451985,0.26243324215188224,-0.7410704412892768,0.7979109678259737,-3.5916780643480526,88.33073629021753
1589551330.7535467,-0.7642226402188783,-3.7153358413132693,9.05593707250342,0.5644444444444444,0.2466666666666667,-0.7533333333333333,-0.006957506839945282,-5.418066005471956,89.79118715800274
1589551330.7635467,-0.7530677120456165,-3.648406272273699,8.66264243288192,0.5644444444444444,0.2466666666666667,-0.7533333333333333,1.103917201235448,-4.2135631979092425,91.02224400095035
1589551330.7735467,-0.732114801527601,-3.7036958685337344,8.855297072098137,0.5644444444444444,0.2466666666666667,-0.7533333333333333,1.246790012730008,-3.884755815299155,90.79619835667168
1589551330.7835467,-0.6833625382445265,-3.586199388087575,8.791051376802956,0.5644444444444444,0.2466666666666667,-0.7533333333333333,0.8545317280565821,-4.247809631660508,89.0332702546986
1589551330.7935467,-0.6919242390078917,-3.4838484780157835,8.937636527621194,0.5642306401102343,0.23234177627458352,-0.7584646373543781,0.9735794813979707,-3.8462119503945886,86.45151634723788
1589551330.8035467,-0.7027921708022876,-3.5,8.580713878825165,0.5633333333333334,0.17222222222222222,-0.78,1.0377446624285096,-4.162744662428509,83.10146797457105
1589551330.8135467,-0.7533721598161859,-3.5347070462088332,8.806041932601481,0.5633333333333334,0.17222222222222222,-0.78,0.39988352055144244,-3.8502620787592545,79.1408124840439
1589551330.8235466,-0.9264546813425737,-3.6327136839244463,8.956259002581872,0.5633333333333334,0.17222222222222222,-0.78,-0.019712257100149483,-4.789118766136704,73.18169078679168
1589551330.8335466,-0.8021108451307091,-3.3221691846731876,8.72618668653593,0.5633333333333334,0.17222222222222222,-0.78,0.674307217933068,-3.276385564133864,70.40120325306361
1589551330.8435466,-0.6757745049858115,-3.129340033925712,8.513409692607683,0.5633333333333334,0.17222222222222222,-0.78,1.4639093438386785,-1.697181312322643,69.02978903438546
1589551330.8535466,-4.866929101486217,-7.306443973934672,11.099022139083603,0.5366666666666666,0.13111111111111112,-0.7377777777777778,1.088869817254918,-3.0657735831603183,65.11530001850063
1589551330.8635466,-20.657315649446055,-21.71614898939761,15.139718460866456,0.5366666666666666,0.13111111111111112,-0.7377777777777778,0.9694089266568717,-1.7157631140054799,63.91249801453361
1589551330.8735466,-15.54953959010328,-13.111028763553296,-1.2118858788327274,0.5366666666666666,0.13111111111111112,-0.7377777777777778,-2.746330153469966,20.407738047360127,41.87285037482707
1589551330.8835466,5.050244754114261,5.3326027352969705,2.623345727310938,0.5366666666666666,0.13111111111111112,-0.7377777777777778,-19.662485046396586,45.60854295321543,-21.69182442044683
1589551330.8935466,1.1279688132217,-1.3882806810046997,16.94087522176227,0.5316808629102818,0.1257417839888505,-0.7408459647047838,-49.74878614335958,-51.063990086837435,-100.96968665380186
1589551330.9035466,1.2,-0.74,10.72,0.5222222222222223,0.11555555555555555,-0.7466666666666667,18.3125,-29.25,-55.5
1589551330.9135466,0.14032355514813116,2.3184007666986126,9.252308846201926,0.5222222222222223,0.11555555555555555,-0.7466666666666667,66.16826091712154,20.86179762698446,-44.2340540230843
1589551330.9235466,-0.18300054168923702,0.6755648152006333,3.9742614275594805,0.5222222222222223,0.11555555555555555,-0.7466666666666667,31.378151172965538,44.18264042251761,-19.657053418892453
1589551330.9335465,0.6335164151236969,-1.1828442508168664,7.369296716975261,0.5222222222222223,0.11555555555555555,-0.7466666666666667,-21.046532207873035,-17.13235179710596,5.593560370312743
1589551330.9435465,-0.7014885697447191,-1.9170510871925308,8.214221284779304,0.5323099696364997,0.12251262273781582,-0.7494494935395708,4.9006385899066345,3.6652695493036385,9.162429433295078
1589551330.9535465,-0.9858326491948216,-2.1341673508051784,9.452485633091253,0.5544444444444444,0.13777777777777778,-0.7555555555555555,1.467749447426586,0.5148681717713925,7.91678639090622
1589551330.9635465,-0.927234783897991,-2.196282897175476,9.168186670620505,0.5544444444444444,0.13777777777777778,-0.7555555555555555,-4.248355141226185,-3.716963822373786,11.92752891244718
1589551330.9735465,-0.7907969857271184,-2.284318794290847,8.88960150713644,0.5544444444444444,0.13777777777777778,-0.7555555555555555,2.1870960799480987,0.35049811607944903,19.838684624213993
1589551330.9835465,-0.73,-2.26,8.92,0.5544444444444444,0.13777777777777778,-0.7555555555555555,4.125,0.3125,23.5625
1589551330.9935465,-0.7637907676405987,-2.26675815352812,8.865934771775041,0.5544444444444444,0.13777777777777778,-0.7555555555555555,-0.05660749552409605,-0.9546537865224534,25.040846084276197
1589551331.0035465,-0.7996264541319487,-2.368132270659743,8.889066135329871,0.5260951218094075,0.14322957059220795,-0.7337483842978348,-1.4491733083766052,-1.317169323350642,27.160651390733808
1589551331.0135465,-1.1652048788451224,-3.0226840644604587,9.129190979267241,0.5255555555555556,0.14333333333333334,-0.7333333333333333,1.4783853984467923,-0.5497504605984281,29.764507392896288
1589551331.0235465,-3.9720714259777044,-8.89089128145539,9.16080903446022,0.5255555555555556,0.14333333333333334,-0.7333333333333333,0.5080181742256437,-2.240224091288718,30.619068639021023
1589551331.0335464,-12.112720505464978,-26.03270706997349,7.119935364392317,0.5255555555555556,0.14333333333333334,-0.7333333333333333,1.459918206906569,-2.1926290896546714,30.2859036275827
1589551331.0435464,0.29331991479529207,0.35971748862733777,11.15914235684887,0.5264110324852977,0.14101132452403303,-0.7349220762028545,3.0849519820925697,6.268100359231713,-22.143920589934293
1589551331.0535464,-1.1982626904469635,-0.9501494692757597,7.986690013719402,0.5322999655009186,0.1250270777673478,-0.7458586660890076,6.681407502346739,8.113649902520038,-9.367039136399741
