time,acc_x,acc_y,acc_z,mag_x,mag_y,mag_z,gyr_x,gyr_y,gyr_z
1589552710.528807,-0.12,-4.2,8.88,0.4866666666666667,0.3422222222222222,-0.5811111111111111,-2.0,-5.3125,-1.75
1589552710.538807,-0.11006984232207964,-4.2099301576779204,8.939580946067522,0.4800465615480531,0.3422222222222222,-0.5954546722014404,0.35841244850608467,1.5144834035702441,8.118094192433354
1589552710.548807,-0.11861633983715862,-4.19,8.858930718697268,0.48,0.3422222222222222,-0.5955555555555555,1.3176061991120722,2.5255555692075817,-4.550310447076555
1589552710.558807,-0.11174505660130077,-4.19,8.803960452810406,0.48,0.3422222222222222,-0.5955555555555555,-0.8296698120935107,5.445850944447175,-2.3171433954227485
1589552710.568807,-0.12743355529542708,-4.2,8.810265778818293,0.48,0.3422222222222222,-0.5955555555555555,2.6791944119283837,-8.605300464393315,-2.0481208382107425
1589552710.5788069,-0.11133599431981732,-4.2,8.874656022720732,0.48,0.3422222222222222,-0.5955555555555555,0.6669992899771642,5.6309800234115635,-2.3499501065034254
1589552710.5888069,-0.09151256163418643,-4.2069748767316275,8.916974876731627,0.4866666666666667,0.3422222222222222,-0.5955555555555555,-1.5357419582061516,-0.11922106128199107,-0.31407020427330357
1589552710.5988069,-0.10282070627175156,-4.1928207062717515,8.887306821777118,0.4866666666666667,0.3422222222222222,-0.5955555555555555,3.8397411716031056,0.09138242595341817,-1.0752999586263963
1589552710.6088068,-0.12,-4.2114259672299905,8.817129836149952,0.4866666666666667,0.3422222222222222,-0.5955555555555555,3.5002278673758256,2.956008192502359,1.8462123080552457
1589552710.6188068,-0.12042825992150022,-4.218715220235499,8.860856519843,0.4866666666666667,0.3422222222222222,-0.5955555555555555,2.653641517662451,0.49130505887483644,8.108275185346708
1589552710.6288068,-0.12957413868294812,-4.191277583951156,8.879148277365896,0.4866666666666667,0.3422222222222222,-0.5955555555555555,0.595818796336677,-6.368104012211077,1.0773808874836464
1589552710.6388068,-0.12151693854606394,-4.198483061453937,8.896966122907873,0.4810112923640426,0.3365668479195982,-0.6068663041608037,0.9241530726968032,-5.202964245561189,6.847200420016547
1589552710.6488068,-0.1,-4.21,8.841099626400997,0.48,0.33555555555555555,-0.6088888888888889,2.3270288501452887,3.2693259651307596,2.6854244499792443
1589552710.6588068,-0.09977279536602418,-4.209772795366024,8.790681613901926,0.48,0.33555555555555555,-0.6088888888888889,-4.845254294417257,-3.2983371616898034,4.028325676620393
1589552710.6688068,-0.09057836052033863,-4.2,8.824048523642372,0.48,0.33555555555555555,-0.6088888888888889,6.836868934544704,2.434467272351848,15.067393660953954
1589552710.6788068,-0.09923890150733017,-4.2,8.884672310551311,0.48,0.33555555555555555,-0.6088888888888889,1.5864159611810864,-1.3545194094569482,1.1022713194301073
1589552710.6888068,-0.10640112196220543,-4.21,8.928200560981102,0.4933333333333334,0.3422222222222222,-0.5877777777777777,-0.6500701226378396,1.6377103679135188,-3.502927748090822
1589552710.6988068,-0.0909109614364481,-4.21,8.916356154254208,0.4933333333333334,0.3422222222222222,-0.5877777777777777,0.4850745069041457,-1.278081748621582,2.5753990580141135
1589552710.7088068,-0.11113777749200277,-4.21,8.835448890031989,0.4933333333333334,0.3422222222222222,-0.5877777777777777,2.929148113617001,2.261611061100484,-1.3014073526338636
1589552710.7188067,-0.12,-4.193036279873309,8.884818600633459,0.4933333333333334,0.3422222222222222,-0.5877777777777777,3.2578372444572414,3.494430247624532,-4.060232507918226
1589552710.7288067,-0.11371532810235394,-4.19,8.93142335948823,0.4933333333333334,0.3422222222222222,-0.5877777777777777,1.7895072217502124,-1.1188871257933926,-2.128923234544455
1589552710.7388067,-0.11,-4.206668929814139,8.94166553509293,0.48222071345724066,0.33666591228417586,-0.5822214678397315,3.396158660782483,-0.3745332258338281,-6.552854217941102
1589552710.7488067,-0.11,-4.202598173782684,8.917794521348052,0.48,0.33555555555555555,-0.5811111111111111,-0.7511413858224794,-1.9080478651947899,-4.49546244378249
1589552710.7588067,-0.12084248923266239,-4.200842489232662,8.771684978465323,0.48,0.33555555555555555,-0.5811111111111111,-2.0604399226509624,-6.959020941372946,0.6671244616331194
1589552710.7688067,-0.12994404692570097,-4.209888093851402,8.790223812297196,0.48,0.33555555555555555,-0.5811111111111111,0.04301392586737665,-2.438199413428738,1.1159076254264082
1589552710.7788067,-0.12121973541892003,-4.19243947083784,8.825121058324319,0.48,0.33555555555555555,-0.5811111111111111,6.749828396705216,-2.5472533072634995,-0.3017929944254931
1589552710.7888067,-0.09939000152881823,-4.19,8.841219996942364,0.4933333333333334,0.3422222222222222,-0.5877777777777777,2.108125668857973,0.6493750955511389,1.3856252866534169
1589552710.7988067,-0.09344056227613705,-4.191146854092046,8.85197202135568,0.4933333333333334,0.3422222222222222,-0.5877777777777777,-1.6989508008380076,0.5642486652699872,-0.33199297154828683
1589552710.8088067,-0.12062113698855491,-4.199378863011446,8.794347958919884,0.4933333333333334,0.3422222222222222,-0.5877777777777777,0.9278042819205189,4.041525169796245,0.007764212356936383
1589552710.8188066,-0.13,-4.190397624025479,8.863578616229312,0.4933333333333334,0.3422222222222222,-0.5877777777777777,5.54473270286641,-1.79833159108228,0.3933962171984603
1589552710.8288066,-0.13,-4.198592977588464,8.937336798296176,0.4933333333333334,0.3422222222222222,-0.5877777777777777,6.466709978702202,1.0700421559624065,5.925259872213212
1589552710.8388066,-0.1090622524948519,-4.180937747505148,8.950937747505147,0.4844444444444445,0.3422222222222222,-0.5811111111111111,2.289105813400919,-1.8829300649453509,8.933559718042135
1589552710.8488066,-0.10032370968568063,-4.190323709685681,8.956115483771834,0.4844444444444445,0.3422222222222222,-0.5811111111111111,3.875,-5.985181446449608,7.515529229482167
1589552710.8588066,-0.10748476208362501,-4.197484762083625,8.8701828549965,0.4844444444444445,0.3422222222222222,-0.5811111111111111,3.875,-1.509523697734374,3.7112201430742178
1589552710.8688066,-0.11,-4.19102835476426,8.81308506429278,0.4844444444444445,0.3422222222222222,-0.5811111111111111,0.17419634025717068,0.17464556544675242,-1.5500947906363338
1589552710.8788066,-0.11593385095066332,-4.201867701901326,8.833735403802653,0.4844444444444445,0.3422222222222222,-0.5811111111111111,0.19503882129974937,-2.7794254753316623,-0.7390566729840435
1589552710.8888066,-0.12,-4.21,8.85,0.475979212656365,0.3471602740986019,-0.5853437270051508,0.420638451986755,-0.606337955298013,-0.11308464403973509
1589552710.8988066,-0.12586770124716554,-4.21,8.844132298752834,0.4711111111111111,0.35,-0.5877777777777777,-1.6786954365079363,1.5924612032312926,0.41011639030612235
1589552710.9088066,-0.11665782778514351,-4.216671086107428,8.813315655570287,0.4711111111111111,0.35,-0.5877777777777777,0.544097359085534,5.315068799942667,2.209217221485649
1589552710.9188066,-0.11921022198403519,-4.1923693340478945,8.846051109920175,0.4711111111111111,0.35,-0.5877777777777777,1.2237222519955997,0.054514074972498605,-5.874710884833442
1589552710.9288065,-0.10332069200613603,-4.206679307993864,8.89169826998466,0.4711111111111111,0.35,-0.5877777777777777,1.958965399693199,-0.5625,3.9038131711266413
1589552710.9388065,-0.12021866550887095,-4.196520889660753,8.920218665508871,0.4756041478908602,0.3365208896607527,-0.5930196540208184,-0.2338443093682776,2.807277584811825,0.5241114246807843
1589552710.9488065,-0.14968217594898875,-4.200127129620404,8.899555046328585,0.4777777777777778,0.33,-0.5955555555555555,0.12738368038258444,-1.2711828733685364,-6.870232639234831
1589552710.9588065,-0.10789379296602572,-4.21684248281359,8.841051310152436,0.4777777777777778,0.33,-0.5955555555555555,0.4407965527548072,4.161306914416658,-6.243406894490386
1589552710.9688065,-0.11851982906448189,-4.210740085467759,8.83925991453224,0.4777777777777778,0.33,-0.5955555555555555,3.9724679495903534,-0.8314444459566133,4.408152780424071
1589552710.9788065,-0.10475376064057217,-4.21,8.847623119679714,0.4777777777777778,0.33,-0.5955555555555555,2.630087068060792,5.691241205737163,0.6761281921716487
1589552710.9888065,-0.1014614659544863,-4.188903900534136,8.887442434579649,0.4711111111111111,0.33555555555555555,-0.5955555555555555,1.050237892185466,-2.137809147627811,-2.633587122402262
1589552710.9988065,-0.17676646169038107,-4.132425153732214,8.755658692041834,0.4711111111111111,0.33555555555555555,-0.5955555555555555,3.6388471206068496,6.863491123928364,-9.516934388886396
1589552711.0088065,-0.10388158050676717,-4.17757401218327,8.873692431676504,0.4711111111111111,0.33555555555555555,-0.5955555555555555,-2.7914266751996957,-1.6106597691341342,0.8321852260067786
1589552711.0188065,-0.1,-4.1996832601509695,8.830791849622576,0.4711111111111111,0.33555555555555555,-0.5955555555555555,-2.386877744338645,0.2748871429276236,-1.331448270758301
1589552711.0288064,-0.1,-4.194080661573961,8.87735470740831,0.4711111111111111,0.33555555555555555,-0.5955555555555555,-1.339115775443223,0.3125,-1.301008269674516
1589552711.0388064,-0.10591352063213345,-4.207740561896401,8.939567603160668,0.4875375573114818,0.3322702663154814,-0.5870138035313628,4.216695017559263,0.01682396839332745,-6.091695017559263
1589552711.0488064,-0.1191653092175476,-4.210834690782453,8.905008144694715,0.4988888888888889,0.33,-0.5811111111111111,-3.378587878447453,-2.707960034825591,6.028959304611583
1589552711.0588064,-0.12862801098122564,-4.192743978037549,8.813719890187745,0.4988888888888889,0.33,-0.5811111111111111,-2.865098078285512,1.0529550788168618,1.343967244509387
1589552711.0688064,-0.12241802061680736,-4.2127459381495775,8.83032791753277,0.4988888888888889,0.33,-0.5811111111111111,1.260764433886226,-0.11322010350825096,-4.268962372205489
1589552711.0788064,-0.2067514024000568,-4.169395015266634,8.847229283533338,0.4988888888888889,0.33,-0.5811111111111111,-2.560498473336647,-0.5067679116665483,0.937087268337712
1589552711.0888064,-0.2341218895800933,-4.144121889580093,8.879390552099533,0.502154505788837,0.33326561689994816,-0.5726205071712459,-1.1935628888024885,0.4442165629860031,-1.3494410964230168
1589552711.0988064,-0.21541183090666105,-4.110823661813321,8.914588169093339,0.5044444444444445,0.33555555555555555,-0.5666666666666667,-1.0632253640008442,2.9771971935007384,2.8176127171695855
1589552711.1088064,-0.2537894756068604,-4.068721803137956,8.863699245648322,0.5044444444444445,0.33555555555555555,-0.5666666666666667,-0.8584586019835978,0.5596803137956856,4.53026310982849
1589552711.1188064,-0.25443000238492725,-3.947720009539709,8.949326655537007,0.5044444444444445,0.33555555555555555,-0.5666666666666667,-2.5939164480483345,1.244499761507274,3.6619166865410606
1589552711.1288064,-0.33771364802569825,-3.9060780959929913,8.938104127990655,0.5044444444444445,0.33555555555555555,-0.5666666666666667,0.6879602010804948,-0.4056666006132539,6.216539600759266
1589552711.1388063,-0.5392797916214457,-3.6257473410028216,8.830548730193184,0.4977777777777778,0.33555555555555555,-0.5955555555555555,1.7289939222921642,4.062928695463425,4.8842169524636425
1589552711.1488063,-0.348091816800521,-2.4968278706316474,8.976215758628175,0.4977777777777778,0.33555555555555555,-0.5955555555555555,-3.847322009984805,4.176731061428262,7.3309678207076185
1589552711.1588063,-0.30129994457600645,-2.495233536554643,9.30570060966393,0.4977777777777778,0.33555555555555555,-0.5955555555555555,1.6041782133319895,1.7958287146672043,25.50003463999597
1589552711.1688063,-0.323798714105396,-2.4127380482802145,8.582239862732724,0.4977777777777778,0.33555555555555555,-0.5955555555555555,4.354032719312086,-0.8906940280845692,36.32779218602083
1589552711.1788063,-0.31571337753155937,-2.5328662246844065,8.682875760603034,0.4977777777777778,0.33555555555555555,-0.5955555555555555,-1.0718145490872768,-0.6695860957224593,49.38459268004723
1589552711.1888063,-0.21879249134640988,-2.56394071181326,8.77394071181326,0.4847481336844078,0.33989877025334553,-0.5904884717414671,0.1645874012603179,-2.9998640942575663,55.801970078547974
1589552711.1988063,-0.07579533213644525,-2.6442046678635545,8.76,0.4777777777777778,0.3422222222222222,-0.5877777777777777,-5.529129263913823,-5.732814183123878,60.885942549371634
1589552711.2088063,-0.02296909620991254,-2.6970309037900875,9.117434868804665,0.4777777777777778,0.3422222222222222,-0.5877777777777777,-2.3551049562682214,-0.1687915451895048,56.42190962099125
1589552711.2188063,-0.03382520660431983,-2.71382520660432,8.932621900935203,0.4777777777777778,0.3422222222222222,-0.5877777777777777,-2.643445247661994,-4.046469522572948,57.76674328426298
1589552711.2288063,-0.08122068907136207,-2.747480459380908,9.004882756285449,0.4777777777777778,0.3422222222222222,-0.5877777777777777,-0.7280891108665593,4.668239792319197,58.32824712886932
1589552711.2388062,-0.12867104488708528,-2.7791140299247235,9.099114029924722,0.4915823549456337,0.335850878913981,-0.5877777777777777,2.2808656795018742,0.24164175521204356,63.088238824695644
1589552711.2488062,-0.18190979563072587,-2.78,8.91831571529246,0.4922222222222222,0.33555555555555555,-0.5877777777777777,-0.004198966408268667,0.24508163025604884,63.85322703782006
1589552711.2588062,-0.26636002439949225,-2.8034953921229206,8.919369240153651,0.4922222222222222,0.33555555555555555,-0.5877777777777777,2.341654714212704,-2.037039212292069,64.45146170268889
1589552711.2688062,-0.3135823500398376,-2.8456705998406493,8.927164700079675,0.4922222222222222,0.33555555555555555,-0.5877777777777777,3.6082350039837614,-4.088603122510149,66.09602999203247
1589552711.2788062,-0.32112267072774253,-2.793263975633545,8.892193323180644,0.4922222222222222,0.33555555555555555,-0.5877777777777777,3.528066768193563,-0.4195652452901215,69.83647610410499
1589552711.2888062,-0.36763345614172616,-2.7901779415223014,8.81354981578741,0.5040697917483211,0.31534499577573966,-0.5787178716695844,4.769239437171748,-5.348810946931097,69.85870747432782
1589552711.2988062,-0.36617746437490817,-2.808088732187454,8.899112678125459,0.5111111111111111,0.3033333333333333,-0.5733333333333334,4.258318642573821,-8.487200675774938,79.79042713383282
1589552711.3088062,-0.3792249569012948,-2.8219187176759712,8.855793933169497,0.5111111111111111,0.3033333333333333,-0.5733333333333334,3.3173440193669075,-5.411448208194256,85.85609617430217
1589552711.3188062,-0.3975175995132974,-2.83,8.900211194159569,0.5111111111111111,0.3033333333333333,-0.5733333333333334,1.4645701155918651,-3.7478000608378235,82.19597519772293
1589552711.3288062,-0.36356639738947033,-2.9028672052210593,8.966433602610529,0.5111111111111111,0.3033333333333333,-0.5733333333333334,2.5448734529826096,-6.815198575351188,82.6296634366668
1589552711.3388062,-0.32387074121606896,-2.885482964864276,9.000752839189287,0.5075268313813487,0.2883988344593231,-0.5810992727478186,5.0363101435939654,-6.748624294742959,79.29496694675159
1589552711.3488061,-0.3464883423826253,-2.8081069945704247,8.99540466304695,0.5044444444444445,0.27555555555555555,-0.5877777777777777,2.874828329607154,-4.721279144043437,78.95456124241457
1589552711.3588061,-0.32577532454257385,-2.841069610548911,8.928395584176632,0.5044444444444445,0.27555555555555555,-0.5877777777777777,3.421795461514873,-6.270391239905959,71.5457694469999
1589552711.3688061,-0.3829258362676056,-2.9548035871478873,8.936462918133802,0.5044444444444445,0.27555555555555555,-0.5877777777777777,4.796943772007042,-1.849612813600352,70.70742668904049
1589552711.378806,-0.44796763192651146,-2.971016184036744,9.006951447889767,0.5044444444444445,0.27555555555555555,-0.5877777777777777,5.790992331802322,4.768904374223817,71.47950383409884
1589552711.388806,-0.47,-2.925818168490113,8.890454487144243,0.5129899023219162,0.2641616117189266,-0.5911010113967945,-0.3460252991734931,4.215339628346802,69.99488587424634
1589552711.398806,-0.509577240587865,-2.9314504127642245,8.796858549587236,0.5244444444444445,0.2488888888888889,-0.5955555555555555,-6.887072890830341,-1.0285163624921334,68.36197155073484
1589552711.408806,-0.5426285988996314,-2.9621000480743547,8.816300144223066,0.5244444444444445,0.2488888888888889,-0.5955555555555555,-2.0919655734202234,1.0233895091074197,59.028580871748304
1589552711.418806,-0.5839777795476266,-2.987980248486779,8.744002468939152,0.5244444444444445,0.2488888888888889,-0.5955555555555555,-0.9752160321758522,-2.16055571041733,57.87368837607519
1589552711.428806,-0.6113075836268481,-3.011307583626848,8.892117286530157,0.5244444444444445,0.2488888888888889,-0.5955555555555555,0.24424163731518522,-3.6826719300340276,58.47882713469843
1589552711.438806,-0.6417678705296115,-3.0179005159412617,8.839392776822331,0.5324002293072276,0.2329773191633226,-0.6167709818563105,-5.300400736428982,-0.3691322705825284,56.27624355073422
1589552711.448806,-0.7188786037192204,-3.073447647750418,8.816635811157662,0.5377777777777778,0.2222222222222222,-0.6311111111111111,-6.79153074235374,-0.4450303449303681,51.84812217456822
1589552711.458806,-0.7486946588939657,-3.081736647234914,9.086969434378446,0.5377777777777778,0.2222222222222222,-0.6311111111111111,-0.787739286276981,-2.459350874428864,45.21168957775327
1589552711.468806,-0.7350672731625568,-2.990941824275796,8.992825472827388,0.5377777777777778,0.2222222222222222,-0.6311111111111111,1.5667045726598037,-1.3410910940866652,44.47813622216902
1589552711.478806,-0.7516505355138202,-2.947836402803483,8.854230407475955,0.5377777777777778,0.2222222222222222,-0.6311111111111111,2.9511135046573016,-0.5406584696137626,45.235781577110956
1589552711.488806,-0.8207318523323064,-3.0048170369169234,9.051097778498459,0.5331706994817097,0.21185629605606904,-0.6195934153709409,3.705009188692503,1.976791795038106,40.4317638235771
1589552711.498806,-0.8524167932250508,-3.012416793225051,9.148292362737779,0.5288888888888889,0.20222222222222225,-0.6088888888888889,-1.8411735179798705,-4.8261634791114325,39.20938923781822
1589552711.508806,-0.8666271339161776,-2.9934914643352895,8.91166037552054,0.5288888888888889,0.20222222222222225,-0.6088888888888889,-1.7603773470033852,-1.8943620169008604,35.299247497747366
1589552711.518806,-0.897658757507138,-3.007658757507138,9.032758196317811,0.5288888888888889,0.20222222222222225,-0.6088888888888889,-1.9986370237274786,4.349703406517673,31.664929359062715
1589552711.528806,-0.9564214680347277,-3.025802683504341,8.97011681136543,0.5288888888888889,0.20222222222222225,-0.6088888888888889,-4.748539857932123,1.8386247040252566,32.93833859510655
1589552711.538806,-1.0078340487026292,-3.043375536526972,8.884585121756572,0.5288888888888889,0.1903328564204694,-0.6282091083167373,-7.4617623428164706,0.6906652395228954,34.612254114272154
1589552711.548806,-1.0401705416653628,-3.009147291673186,8.970511624996089,0.5288888888888889,0.17555555555555555,-0.6522222222222223,-0.6760666677097351,-1.0500966142003318,35.18963177081704
1589552711.558806,-1.0345177470274098,-2.909682677839082,8.930329861623344,0.5288888888888889,0.17555555555555555,-0.6522222222222223,4.792588993302452,-1.7119261351901573,34.07875796624672
1589552711.568806,-1.0108548801215058,-2.831139840162008,8.8197150399595,0.5288888888888889,0.17555555555555555,-0.6522222222222223,1.0035620005062742,1.7501649911402017,32.22384551404911
1589552711.578806,-1.07,-2.9201275950065524,8.918999241326988,0.5288888888888889,0.17555555555555555,-0.6522222222222223,1.4398924063728533,-3.2271234223049867,37.24269777226016
1589552711.588806,-1.07,-2.949055796951514,9.258905614180287,0.5288888888888889,0.17555555555555555,-0.6522222222222223,1.9822961928408855,-5.125536674943099,32.044661485274844
1589552711.598806,-1.0234851526557927,-2.854396068590548,8.741386449184443,0.5688888888888889,0.16666666666666666,-0.6644444444444444,-3.443067754077792,-4.960272898368883,40.86064146800502
1589552711.608806,-1.018631190727081,-2.869683175272216,9.169366350544433,0.5688888888888889,0.16666666666666666,-0.6644444444444444,0.1842509659290481,-4.232178609062171,36.0703437829294
1589552711.618806,-1.0596528324154209,-2.871699121426698,8.966601757146604,0.5688888888888889,0.16666666666666666,-0.6644444444444444,0.1365722528193023,-2.232871098872279,35.340018931943355
1589552711.6288059,-1.15,-2.941449138250175,8.899784048373165,0.5688888888888889,0.16666666666666666,-0.6644444444444444,-2.5543426843815555,-1.860934864875982,37.37634969766772
1589552711.6388059,-1.2199004877195285,-2.9349644598998315,8.965376725061786,0.5644507626844744,0.1638928377889076,-0.6760945257310326,2.494491284473897,1.3162317105176826,31.505419865275684
1589552711.6488059,-1.359494421305445,-3.0179120177545373,8.844780044386344,0.56,0.16111111111111112,-0.6877777777777778,-0.9363922415103518,1.5107108655337003,33.76826186422643
1589552711.6588058,-1.3894647990255784,-3.0052394640682096,8.737802923264312,0.56,0.16111111111111112,-0.6877777777777778,-2.3996498172959804,1.2522898903775883,36.64735992691839
1589552711.6688058,-1.3093839689853248,-2.9623459922463313,8.957772139566039,0.56,0.16111111111111112,-0.6877777777777778,-1.0663501938417195,0.2610583656402866,38.80627625997118
1589552711.6788058,-1.2279541949251018,-2.881330417696647,8.882431810018803,0.56,0.16111111111111112,-0.6877777777777778,-1.0316520884832352,1.228094430711373,41.92838071242949
1589552711.6888058,-1.3285875926648458,-2.9443620756925477,9.205614514241123,0.572190575280704,0.16431915723761217,-0.6948354792560801,0.38553452984783454,1.4463275458447131,42.2755559890753
1589552711.6988058,-1.3075396465790665,-2.9071295876755774,9.237371998187584,0.5811111111111111,0.16666666666666666,-0.7,8.055915835976439,-0.2930448572723152,36.50250623017671
1589552711.7088058,-1.198077604701054,-2.814038802350527,8.669523831732114,0.5811111111111111,0.16666666666666666,-0.7,5.187279929577465,-2.0294311398190468,37.005070364238414
1589552711.7188058,-1.2947263552372823,-2.939693517865756,8.874135282549812,0.5811111111111111,0.16666666666666666,-0.7,1.2513682238135875,0.742474769025268,36.81633102667804
1589552711.7288058,-1.408080870967227,-3.0656970451606727,9.155576361285378,0.5811111111111111,0.16666666666666666,-0.7,1.1017651613109207,1.43120141117124,35.80744556454832
1589552711.7388058,-1.3746030681800043,-3.025523681816005,8.834189454528039,0.5811111111111111,0.16666666666666666,-0.7,2.4408772727998342,-6.310540483374041,37.89980823874974
1589552711.7488058,-1.3259577161666034,-2.940160146854032,8.768776427395872,0.5455555555555556,0.14888888888888888,-0.7155555555555555,0.11370901379921505,-5.712724711988859,26.98802854791746
1589552711.7588058,-1.2691658676893576,-2.8,8.89363854266539,0.5455555555555556,0.14888888888888888,-0.7155555555555555,-2.3594199424736337,-13.893396452540747,28.47845757430489
1589552711.7688057,-1.370638726333907,-2.820425817555938,9.417445094664371,0.5455555555555556,0.14888888888888888,-0.7155555555555555,1.15690834767642,0.08642426850258167,35.0079980636833
1589552711.7788057,-1.435759262203848,-2.8692148195261566,9.106281443790746,0.5455555555555556,0.14888888888888888,-0.7155555555555555,0.6819446652885992,-1.2745368898076006,36.19009182699952
1589552711.7888057,-1.4745505769750298,-2.937275288487515,8.635364902936976,0.5434363354902895,0.13193512836675972,-0.7210049785805256,3.4891165914090543,0.6990877426575586,28.638331693103314
1589552711.7988057,-1.4680867210739075,-2.9316173442147817,8.89,0.5377777777777778,0.08666666666666667,-0.7355555555555555,1.1343766684463428,-0.3620528563801388,38.60121272214171
1589552711.8088057,-1.4889243633599392,-2.923139490687951,8.7509007981756,0.5377777777777778,0.08666666666666667,-0.7355555555555555,-3.4731090839984797,-0.7183817939946788,31.558129038388444
1589552711.8188057,-1.5003896344285053,-2.904487737158723,8.802337806571032,0.5377777777777778,0.08666666666666667,-0.7355555555555555,-1.9646459972235077,2.541757288292457,27.54906293382693
1589552711.8288057,-1.5744474156314525,-2.914074569271909,9.002210337474189,0.5377777777777778,0.08666666666666667,-0.7355555555555555,-1.71304962258403,2.062332870730799,29.93525327488745
1589552711.8388057,-1.636930846930847,-2.934961581628248,8.77322282655616,0.5401051349199497,0.07137260544667953,-0.7242512494364346,-3.311059311059311,-1.321446300612967,33.31217085383752
1589552711.8488057,-1.788761911338213,-3.1297714404087835,8.972387331399899,0.5455555555555556,0.03555555555555556,-0.6977777777777778,-2.110079178750633,-3.822817405514892,42.30821450766469
1589552711.8588057,-1.8379667926029033,-3.1557675482203225,9.081535096440644,0.5455555555555556,0.03555555555555556,-0.6977777777777778,-2.4056037482600914,-8.539424463113939,35.35009445217737
1589552711.8688056,-1.8769047384007898,-3.134112537018756,8.965735932872656,0.5455555555555556,0.03555555555555556,-0.6977777777777778,-4.709415103652518,-8.348892522211253,35.02488894373149
1589552711.8788056,-1.9134284105835992,-3.1379283167573657,8.977714392944268,0.5455555555555556,0.03555555555555556,-0.6977777777777778,-4.837492963032464,-1.4999882717207733,44.24420623006193
1589552711.8888056,-1.8270324004372307,-3.0146134015303074,9.110324004372305,0.5342255770733507,0.028523155118324962,-0.7102798229995211,-0.13466496174232268,2.1039673005135398,49.893547497267306
1589552711.8988056,-1.8148600009572584,-3.0549720001914515,9.219888000765806,0.5133333333333333,0.015555555555555557,-0.7333333333333333,0.6543250131623031,-3.121150026324606,50.723824965299386
1589552711.9088056,-1.753415117486081,-3.009815985656318,8.905112767764463,0.5133333333333333,0.015555555555555557,-0.7333333333333333,-2.5130343493441543,-3.0957287439841465,54.590361658960084
1589552711.9188056,-1.7412768794282258,-2.9209576595711697,8.606523309716128,0.5133333333333333,0.015555555555555557,-0.7333333333333333,-5.015526891055953,-5.975407358025457,54.132112292832666
1589552711.9288056,-1.6632446008589012,-2.862433450644176,9.022695462085858,0.5133333333333333,0.015555555555555557,-0.7333333333333333,-1.520331080138292,-3.6588240879986356,48.60482589417218
1589552711.9388056,-1.7926923440185873,-2.9238111789040215,9.392727101003041,0.5082905902180916,-0.006678357270737177,-0.7159129480261348,-1.4803311358355844,-2.6162576267024313,45.63920857024122
1589552711.9488056,-1.8798441602599216,-2.900042501747294,8.980736696953098,0.4889235199422396,-0.09206953075972135,-0.6490085234368277,0.9955727346568692,0.05771855342941867,55.29523366516179
1589552711.9588056,-1.6750628958098377,-2.715062895809838,8.981771493016396,0.4888888888888889,-0.09222222222222222,-0.6488888888888888,0.5807126745900928,-3.4944640843237615,51.415356337295044
1589552711.9688056,-1.5671592190583592,-2.597370312940513,8.869366718353538,0.4888888888888889,-0.09222222222222222,-0.6488888888888888,5.9808134515083164,-5.426229472089089,49.47587309698336
1589552711.9788055,-1.6511361764874855,-2.6480225588387367,9.013052911775407,0.4888888888888889,-0.09222222222222222,-0.6488888888888888,5.960374815680116,-7.379878492502729,43.20582187517953
1589552711.9888055,-1.686227817469463,-2.684305139433049,9.134461857570868,0.49049576195231875,-0.0849912934367878,-0.6392476505083097,2.9433121110855036,-5.169213816547591,42.80812471191519
1589552711.9988055,-1.4541039419087136,-2.4635842323651453,9.012258091286308,0.4933333333333334,-0.07222222222222223,-0.6222222222222222,3.7074377593360994,-4.68458765560166,37.34722251037344
1589552712.0088055,-1.478499671700591,-2.4547997373604726,9.0034963887065,0.4933333333333334,-0.07222222222222223,-0.6222222222222222,-0.30999671700590936,-4.688772160210112,39.849290052527905
1589552712.0188055,-1.5923567829818996,-2.530982770417366,8.985277103937301,0.4933333333333334,-0.07222222222222223,-0.6222222222222222,-0.9191313677924986,-5.479302730608945,44.34786884990981
1589552712.0288055,-1.745845341411495,-2.6229226707057474,8.554395775339774,0.4933333333333334,-0.07222222222222223,-0.6222222222222222,-0.1473462829539871,-8.400819500163747,37.47599962133617
1589552712.0388055,-1.8313212567223323,-2.6761732238890463,9.032187376167563,0.49459125074692584,-0.06916727993206907,-0.6175499575431644,2.081142088876309,-3.569901641664308,34.29313968298896
1589552712.0488055,-1.8752499326931706,-2.719437314906219,9.159685901462801,0.5011111111111111,-0.05333333333333334,-0.5933333333333334,-8.128140985371981,-5.608218163869694,35.950781881001525
1589552712.0588055,-1.8846401519648581,-2.6747429656891843,8.62433171079188,0.5011111111111111,-0.05333333333333334,-0.5933333333333334,-6.640252879021726,-5.34261694170723,32.135839368396056
1589552712.0688055,-1.9528392119478868,-2.732839211947887,9.018392119478868,0.5011111111111111,-0.05333333333333334,-0.5933333333333334,-0.17282899813881714,-1.8340823459984565,30.873431045440103
1589552712.0788054,-1.9409820350241547,-2.713979468599034,9.228940972222222,0.5011111111111111,-0.05333333333333334,-0.5933333333333334,0.07557744565217384,-2.280367791364734,36.02882274682971
1589552712.0888054,-1.8472236608464043,-2.6155526783071914,8.946658034921574,0.505121378777416,-0.048397619282496473,-0.5874721728979646,2.6529576058005326,1.5975279298609055,39.180753366380586
1589552712.0988054,-1.84,-2.63,8.99,0.5155555555555555,-0.03555555555555556,-0.5722222222222222,1.75,0.0625,38.1875
1589552712.1088054,-1.889349462612882,-2.6485060484798306,8.943734878800424,0.5155555555555555,-0.03555555555555556,-0.5722222222222222,0.7861433083421493,-0.8242481563252226,39.26701949465679
1589552712.1188054,-1.992240773960106,-2.6870902902350395,8.8472742744124,0.5155555555555555,-0.03555555555555556,-0.5722222222222222,-1.2234526164083221,-2.6730764070956563,41.51776693037732
1589552712.1288054,-1.8535680464656241,-2.517197542035817,8.936814747785096,0.5155555555555555,-0.03555555555555556,-0.5722222222222222,3.2325727603695364,2.9614246406700477,26.13247332645889
1589552712.1388054,-1.7891947953988308,-2.553792193098246,8.997030297315986,0.5179884551721248,-0.03555555555555556,-0.5795209210719299,-2.111147777987303,-0.33955622603557734,34.72830041171664
1589552712.1488054,-1.9221235460546997,-2.704041182018233,9.013492926752594,0.5255555555555556,-0.03555555555555556,-0.6022222222222222,2.9537645394530023,-1.2337354605469977,41.58777310594153
1589552712.1588054,-2.02101461804464,-2.737004872681547,8.927787331027979,0.5255555555555556,-0.03555555555555556,-0.6022222222222222,1.9648538195535994,-2.2226461804464006,47.809669718641935
1589552712.1688054,-2.0379321439620504,-2.7974237393008146,8.656305249046095,0.5255555555555556,-0.03555555555555556,-0.6022222222222222,-1.2088996596885635,-8.21122769928844,47.41482932865835
1589552712.1788054,-1.91,-2.822528559842428,9.078271115745569,0.5255555555555556,-0.03555555555555556,-0.6022222222222222,-3.745716023635732,-5.686072007878577,44.329779283976364
1589552712.1888053,-1.9031271255060729,-2.839140890688259,9.513058299595142,0.5285147098515519,-0.03555555555555556,-0.6034631578947368,-1.4901214574898785,-4.7695445344129554,40.54102226720648
1589552712.1988053,-1.8352032388663968,-2.8306504048582997,9.147967408906881,0.5577597165991903,-0.03555555555555556,-0.6157271929824562,-5.098577935222671,-4.34502024291498,40.32876012145749
1589552712.2088053,-1.9016874741268492,-2.8174020088458938,9.208050635117765,0.56,-0.03555555555555556,-0.6166666666666667,-2.1266259232629583,4.507327548641523,28.400971196374492
1589552712.2188053,-2.124120254762773,-2.9523865772565303,9.391279986532364,0.56,-0.03555555555555556,-0.6166666666666667,-1.8351161583569484,-4.325225863471845,29.33165806234393
1589552712.2288053,-1.81,-2.6852664206642065,8.688981549815498,0.56,-0.03555555555555556,-0.6166666666666667,-2.059059040590406,-5.753053505535055,26.29588560885609
1589552712.2388053,-1.7489730078095382,-2.7312127530517856,9.994251649101525,0.5499762428286199,-0.0426311488530004,-0.6128340536305508,3.7319925695655467,3.6133236030025024,17.1644102092653
1589552712.2488053,-1.58,-2.43,9.12,0.5222222222222223,-0.06222222222222223,-0.6022222222222222,-0.125,-1.4375,13.8125
1589552712.2588053,-1.7435574614065181,-2.43,8.637116066323614,0.5222222222222223,-0.06222222222222223,-0.6022222222222222,0.6538450543167524,2.16465837621498,3.9309033733562035
1589552712.2688053,-1.6628879996733494,-2.555775999346699,8.97167775917684,0.5222222222222223,-0.06222222222222223,-0.6022222222222222,-2.684578008247928,-3.507638009881181,-4.272988036421543
1589552712.2788053,-1.4488144624555959,-2.1276289249111917,8.432212445388101,0.5222222222222223,-0.06222222222222223,-0.6022222222222222,-8.089934822996202,-9.983362510718223,-28.142187436201052
1589552712.2888052,-1.6306217951480155,-2.447920455035119,9.363108975740078,0.5222222222222223,-0.06222222222222223,-0.6022222222222222,7.717060046537682,3.9924807170250354,-33.56562136424355
1589552712.2988052,-1.8185507246376813,-2.652251950947603,9.331806020066889,0.5366666666666666,-0.0811111111111111,-0.6233333333333333,0.09378483835005569,4.865384615384615,-34.65830546265329
1589552712.3088052,-1.722063492063492,-2.3924786324786322,8.53021978021978,0.5366666666666666,-0.0811111111111111,-0.6233333333333333,-4.54502442002442,-4.736950549450549,-52.23939255189255
1589552712.3188052,-1.6635252236638718,-2.5762302683966465,9.271064686870579,0.5366666666666666,-0.0811111111111111,-0.6233333333333333,-5.803679329242588,1.1916395381516698,-53.49201074991803
1589552712.3288052,-1.7047296705222572,-2.6294593410445146,9.137230765860497,0.5366666666666666,-0.0811111111111111,-0.6233333333333333,-0.2322527821591308,2.7052472178408693,-66.11739013757449
1589552712.3388052,-1.7133626661673844,-2.6577875553891284,8.98947200898708,0.5420748646043534,-0.10274390286185829,-0.6201375800065184,-1.7554999063845722,1.887216813330837,-69.59848343006928
1589552712.3488052,-1.69,-2.65,9.41,0.5611111111111111,-0.17888888888888888,-0.6088888888888889,2.625,8.75,-74.125
1589552712.3588052,-1.6527292175378696,-2.705003565486095,8.81545843507574,0.5611111111111111,-0.17888888888888888,-0.6088888888888889,4.829334766730773,-1.5511282602588758,-78.91218099703957
1589552712.3688052,-1.7071100114527735,-2.8047016876634183,8.924220022905546,0.5611111111111111,-0.17888888888888888,-0.6088888888888889,-1.0619179073837977,-1.324541618946777,-85.8797202173866
1589552712.3788052,-1.5017287469666039,-2.82217287469666,9.027382997573282,0.5611111111111111,-0.17888888888888888,-0.6088888888888889,1.5330110550441045,10.82652825391934,-85.2952481607026
1589552712.3888052,-1.577212834224599,-2.827611000763942,9.069693506493506,0.5672163313810372,-0.19432890247007892,-0.6009255581020287,-1.365618792971734,7.348199006875477,-92.42754583651643
1589552712.3988051,-1.51,-2.792666575267343,8.676848094324102,0.7144444444444444,-0.5666666666666667,-0.4088888888888889,2.209847134631204,3.4299252810529204,-94.81476213326022
1589552712.4088051,-1.525644074262462,-2.8925152594099695,9.046424211597152,0.7144444444444444,-0.5666666666666667,-0.4088888888888889,3.254164547304171,2.8481569493896237,-104.77826567268566
1589552712.4188051,-1.7911591176896202,-3.135413970603436,8.979834411758626,0.7144444444444444,-0.5666666666666667,-0.4088888888888889,-1.6926746325429476,8.505647520310918,-103.26505100986087
1589552712.428805,-1.5534597233146719,-3.0448341276083837,8.96323856012585,0.7144444444444444,-0.5666666666666667,-0.4088888888888889,-1.113349026049137,-0.6359598389857956,-110.62648059038541
1589552712.438805,-1.3930806985970796,-2.9656452206634216,8.687871078571721,0.770768947605219,-0.5449157202521349,-0.4119283224489982,-3.8600811894147,2.830747167573316,-120.50786075095095
1589552712.448805,-1.624677287414618,-3.2229747637940203,9.16821955908217,1.3359408701105702,-0.3266621447821088,-0.44242663867188387,-6.218935334778518,8.030948351670826,-111.17966481246677
1589552712.458805,-1.6079331941544885,-3.183883089770355,9.071732776617953,1.3733333333333333,-0.31222222222222223,-0.4444444444444444,4.247129436325679,10.078549060542798,-117.27648747390397
1589552712.468805,-1.4084698013781922,-3.1841426834211592,8.61971017430077,1.3733333333333333,-0.31222222222222223,-0.4444444444444444,-0.4099614916903121,4.890010640453992,-114.48615474260235
1589552712.478805,-1.5997380421564653,-3.4533350222942842,9.165178860964733,1.3733333333333333,-0.31222222222222223,-0.4444444444444444,-1.8267632752330767,10.24729238447507,-123.73964139136604
1589552712.488805,-1.547314515477249,-3.360639295239635,8.589871696435786,1.3307022683800749,-0.2921257756584678,-0.4592951273831012,-5.42583397316738,3.465950305099814,-124.11301321425685
1589552712.498805,-1.6405362482825507,-3.4962345429564374,9.225474420108299,0.7873796438481641,-0.036001418860062695,-0.648563493987805,-1.2944162692960477,7.01473217893801,-121.5706023195668
1589552712.508805,-1.5518163629088,-3.534405034741169,9.175240277929355,0.7322222222222222,-0.01,-0.6677777777777778,3.0506293426461495,4.155141602095384,-132.12761013496308
1589552712.518805,-1.4526386918403724,-3.5038888282585763,8.931110626068609,0.7322222222222222,-0.01,-0.6677777777777778,-0.7638964676779807,3.296873294772454,-131.46006811815636
1589552712.528805,-1.5454399804994794,-3.5946949719680013,9.171669953686264,0.7322222222222222,-0.01,-0.6677777777777778,4.974311387860926,0.8689379418086733,-130.91590538923484
1589552712.538805,-1.4058920046095593,-3.4,8.85718899193327,0.7195559031016969,0.003350985018932119,-0.6677777777777778,-2.6087876584536027,4.354718281841628,-124.4625130329803
1589552712.548805,-1.394057374139033,-3.4415536462401475,8.95061847617695,0.6088888888888889,0.12,-0.6677777777777778,-0.6642139458922105,8.164027550947951,-117.68805918483278
1589552712.558805,-1.4946445297864368,-3.6213811352566503,8.999329805170476,0.6088888888888889,0.12,-0.6677777777777778,1.9273018920944174,7.612433846946422,-110.20844358842263
1589552712.568805,-1.5439121042830541,-3.7562343885785228,8.806527374301675,0.6088888888888889,0.12,-0.6677777777777778,0.679124767225326,4.022754500310366,-115.73887802607076
1589552712.578805,-1.5120599744503462,-3.821323337591609,8.930149936125865,0.6088888888888889,0.12,-0.6677777777777778,-4.735332481678209,5.919247125663954,-108.36135110603107
1589552712.588805,-1.4782190546628118,-3.8269634908895314,8.84554763665703,0.6088888888888889,0.12,-0.6677777777777778,-3.607301822093727,2.1121436495663275,-104.30749092314933
1589552712.598805,-1.497511624302542,-3.8750139491630504,9.17511624302542,0.606388113935386,0.18335296548873736,-0.6877839774058001,-2.249767513949163,4.751453037817731,-86.88590262709238
1589552712.608805,-1.429313330440353,-3.8386539375529516,8.99925877709586,0.6055555555555555,0.20444444444444448,-0.6944444444444444,-2.6418257805881016,5.120537836050668,-88.27660250449445
1589552712.618805,-1.3773898492277312,-3.9077457788784953,8.692135577904583,0.6055555555555555,0.20444444444444448,-0.6944444444444444,8.511759734935323,3.05063567830787,-90.42330653123379
1589552712.628805,-1.2229786308338493,-3.7743906357201427,8.818472029317759,0.6055555555555555,0.20444444444444448,-0.6944444444444444,-1.8846774126073047,2.348766503790224,-78.49153056443382
1589552712.638805,-1.1860090061786575,-3.772018012357315,8.86133033127378,0.6055555555555555,0.20444444444444448,-0.6944444444444444,2.1111852899081924,6.559890651726184,-70.5906159458233
1589552712.648805,-1.1512739422744906,-3.7567643653646945,9.053630288627547,0.5909257115259187,0.23714644874598567,-0.7176800790797501,7.489643633335365,1.9735746348993555,-64.6549443462718
1589552712.658805,-1.0238830928059908,-3.633590824820968,8.715240103238939,0.5866666666666667,0.2466666666666667,-0.7244444444444444,2.2912319604493074,8.529097295430587,-67.0710460667418
1589552712.668805,-1.0543771129448545,-3.7403198953069903,8.913451234141553,0.5866666666666667,0.2466666666666667,-0.7244444444444444,4.578283470864081,10.720854992911411,-63.21164664291686
1589552712.6788049,-1.1760894619477622,-4.061629390855098,9.360996842779238,0.5866666666666667,0.2466666666666667,-0.7244444444444444,5.17539962025037,11.25914600490142,-56.35259587574239
1589552712.6888049,-1.064965005630009,-4.107931247654164,8.5368237917559,0.5866666666666667,0.2466666666666667,-0.7244444444444444,-0.49657783763495456,-2.689288355816572,-55.71594534475526
1589552712.6988049,-22.48,-26.75,7.82,0.5633333333333334,0.2855555555555556,-0.6888888888888889,-205.0625,-183.3125,-814.375
1589552712.7088048,-13.376441190514084,-14.59834155658125,4.279315613560401,0.5633333333333334,0.2855555555555556,-0.6888888888888889,-161.15116186535096,-76.1151321024988,-739.7234103931244
1589552712.7188048,-2.652208144497006,-8.058378378378379,9.846747494128156,0.5633333333333334,0.2855555555555556,-0.6888888888888889,-75.48351748321149,143.92665569486255,-540.0173116047504
1589552712.7288048,-1.798168159166698,-6.636895724830454,2.838661620892502,0.5633333333333334,0.2855555555555556,-0.6888888888888889,18.479366499306835,26.725317546554763,-473.32233668365245
1589552712.7388048,-13.858459441374011,-20.619359587598208,4.712173040224045,0.5633333333333334,0.2855555555555556,-0.6888888888888889,76.2475928771469,-7.72340702371806,-257.051224937421
1589552712.7488048,0.494061967520949,-2.761609347289358,6.705006085474841,0.49519548863465135,0.3980370769629037,-0.6802364641652467,162.0058159752408,26.181679677991443,-147.2670045554126
1589552712.7588048,0.20589717223650383,-0.14767095115681234,10.938971722365038,0.4933333333333334,0.4011111111111111,-0.68,78.10424164524422,96.41401028277635,-116.28370822622108
1589552712.7688048,-0.6480579948586118,1.9138975835475578,2.399420051413882,0.4933333333333334,0.4011111111111111,-0.68,-46.05350771208225,-13.726798200514153,-82.69696143958868
1589552712.7788048,1.0276702764885557,-0.9685251299139196,8.983199650918323,0.4933333333333334,0.4011111111111111,-0.68,18.6689525566266,9.587059681066286,-66.91547661549447
1589552712.7888048,2.982647665516284,-1.134906184299258,14.939641397913444,0.4933333333333334,0.4011111111111111,-0.68,17.941035443690744,15.982331459002737,-36.966886826133525
1589552712.7988048,2.454737102985473,-7.402846303427765,8.84180386624471,0.4060843151459692,0.5004780484911647,-0.6598034680121843,1.5158090898692187,0.021540301978877352,-16.118563407938385
1589552712.8088048,1.4213515248796147,-0.17145746388442973,8.646090957731406,0.37333333333333335,0.5377777777777778,-0.6522222222222223,-7.51974986623863,-4.093425628678437,-2.3527822364901008
1589552712.8188047,2.566922735740264,-2.343845471480529,10.426437505544222,0.37333333333333335,0.5377777777777778,-0.6522222222222223,-0.6080679499689525,0.1746374079659363,15.297275569945889
1589552712.8288047,2.2639732903810965,-4.415007271646832,7.774298559744788,0.37333333333333335,0.5377777777777778,-0.6522222222222223,1.496768808544576,-7.487674363144479,13.244227641640734
1589552712.8388047,1.8573137129185104,-4.034583795956026,8.390846951381613,0.37333333333333335,0.5377777777777778,-0.6522222222222223,1.4147809905077642,-4.00319209657998,5.1684275650147775
1589552712.8488047,1.273618610441142,-4.059989885629814,8.983985839881738,0.34720125867717866,0.5489772383447012,-0.656888664125107,0.010065743406208583,-2.207505057185093,6.552244612152805
1589552712.8588047,1.054559784698193,-4.031107266435986,8.833321799307958,0.3422222222222222,0.5511111111111111,-0.6577777777777778,-6.134587658592849,-1.51770953479431,16.89172433679354
1589552712.8688047,1.07,-4.0902771977824175,8.840554395564835,0.3422222222222222,0.5511111111111111,-0.6577777777777778,0.4389654882760938,-2.710953812369501,10.540111179110568
1589552712.8788047,1.07,-3.98,8.62,0.3422222222222222,0.5511111111111111,-0.6577777777777778,4.0,-5.8125,17.375
1589552712.8888047,1.1517396575238672,-4.165276557054099,8.876117593574783,0.3422222222222222,0.5511111111111111,-0.6577777777777778,0.6622973177754203,-2.6110300803151993,17.17065085619033
1589552712.8988047,1.1783796185935638,-4.088115017878427,8.858115017878426,0.355435041716329,0.5458259833134684,-0.6577777777777778,-1.6790673420738975,-2.8360622765196664,14.807497765196663
1589552712.9088047,1.1413863999999998,-3.9989088,8.7904428,0.3644444444444445,0.5422222222222223,-0.6577777777777778,-0.998155,-3.41279,12.34347
1589552712.9188046,1.044522198731501,-4.023517265680057,8.758039464411558,0.3644444444444445,0.5422222222222223,-0.6577777777777778,-2.9337429527836507,-2.6903321000704725,17.473335095137422
1589552712.9288046,1.0527142758477797,-4.211454520339803,8.944831134746876,0.3644444444444445,0.5422222222222223,-0.6577777777777778,-6.208603840044202,-3.4706169279646386,12.65698166309828
1589552712.9388046,0.982075772914882,-4.042981854995717,8.775189432287206,0.3644444444444445,0.5422222222222223,-0.6577777777777778,-3.620057335877268,-5.0933898255587575,16.92627740246087
1589552712.9488046,0.8302972051806408,-4.019678027720972,8.839777096114519,0.37777777777777777,0.5633333333333334,-0.6644444444444444,-5.494117814133151,-5.6732589184276305,22.91536440581686
1589552712.9588046,0.9446612133605998,-3.895783685526017,8.75400408997955,0.37777777777777777,0.5633333333333334,-0.6644444444444444,-3.230663485571461,-0.19331685980458957,14.397628379913657
1589552712.9688046,1.030199906398342,-4.117233068128636,8.883666510663902,0.37777777777777777,0.5633333333333334,-0.6644444444444444,2.4722851340509466,-0.8564572608143344,16.004997659958548
1589552712.9788046,1.0445421034443036,-4.060280689628692,8.703906999961601,0.37777777777777777,0.5633333333333334,-0.6644444444444444,-3.023816380601314,3.2487064662289287,17.742521982874475
1589552712.9888046,0.9534138432685398,-4.069962841568366,8.733265209542004,0.37777777777777777,0.5633333333333334,-0.6644444444444444,2.4934972744640946,5.644362478747831,18.79081511927506
1589552712.9988046,0.7820609606140776,-4.07294146141521,8.761470730707606,0.37967317095386555,0.5358501322800611,-0.6445428160955231,3.654450944591422,3.1324081491970044,32.257135670902116
1589552713.0088046,0.9394313267385792,-4.051112491922255,9.033868867127305,0.38,0.5311111111111111,-0.6411111111111111,-1.35383009395039,0.5557022667395737,26.059644827757616
1589552713.0188046,0.7505593862733458,-4.031869035115759,8.841493903831225,0.38,0.5311111111111111,-0.6411111111111111,3.700970934745879,-0.9223223663180966,27.998848406319922
1589552713.0288045,0.8085776896106293,-4.073654272005905,8.837461708802362,0.38,0.5311111111111111,-0.6411111111111111,-1.970733760841484,-0.9533643199852371,27.86802511994833
1589552713.0388045,0.849566134561165,-4.057825399079126,8.795650798158253,0.38,0.5311111111111111,-0.6411111111111111,-1.119510760430823,-4.910449331656558,31.369675564390175
1589552713.0488045,0.9967067782269436,-4.159365422581555,8.925820563442073,0.38,0.544275467532965,-0.654275467532965,-7.847989329698224,-7.280839679107518,38.150232286672306
1589552713.0588045,0.6025336292404548,-4.125710177091354,8.82484646043752,0.38,0.5455555555555556,-0.6555555555555556,-3.967430873227954,-3.5550027741292634,33.87098175868472
1589552713.0688045,0.7097479436240319,-4.013501370917312,8.827749771513782,0.38,0.5455555555555556,-0.6555555555555556,-2.1547032084275335,-1.9531392803886671,37.18823055462023
1589552713.0788045,0.73,-4.1739110627138984,8.788592604115738,0.38,0.5455555555555556,-0.6555555555555556,1.7266656295835374,2.328239588426152,36.85935208231477
1589552713.0888045,0.6508984087612721,-4.05898787127152,8.787191053748975,0.38,0.5455555555555556,-0.6555555555555556,4.747204296554768,-4.003553748975259,39.92347418703886
1589552713.0988045,0.653662141868614,-4.100986425605842,8.941479638408763,0.39028565445985436,0.5390101390811028,-0.6387244846212485,4.573058066605812,3.9173077206207108,43.55436935013692
1589552713.1088045,0.5920708794909311,-4.1539645602545345,8.851124039109129,0.3922222222222223,0.5377777777777778,-0.6355555555555555,2.7829112380686967,6.468196253977101,47.290316774658024
1589552713.1188045,0.5486712273072776,-4.116139718230189,8.729747927383288,0.3922222222222223,0.5377777777777778,-0.6355555555555555,2.5783219317318062,5.544314887486522,46.5435271605593
1589552713.1288044,0.5219331964195761,-4.04966598209788,8.67,0.3922222222222223,0.5377777777777778,-0.6355555555555555,2.927505134265897,0.8032631650327433,49.83381931258961
1589552713.1388044,0.4425283018867925,-4.111938005390836,8.769606469002696,0.3922222222222223,0.5377777777777778,-0.6355555555555555,0.9248652291105119,-2.746832884097035,52.68012129380054
1589552713.1488044,0.5098621034581309,-4.174328736781938,8.914931051729065,0.4071323155822299,0.5358538947635832,-0.6418081753516878,1.0356039225493,-3.351551336096027,53.86284474135467
1589552713.1588044,0.6655943411866562,-4.151188682373312,8.94717925101774,0.4266666666666667,0.5333333333333333,-0.65,2.5346699025549393,-1.377476421611067,50.226238556192094
1589552713.1688044,0.5213405927742122,-4.110103122521093,8.786082786471479,0.4266666666666667,0.5333333333333333,-0.65,2.181699358188505,-3.0444535588086827,52.37884906612822
1589552713.1788044,0.2693639074550129,-4.054043393316195,8.77191321336761,0.4266666666666667,0.5333333333333333,-0.65,-1.4866246786632393,-6.78719794344473,59.77656555269923
1589552713.1888044,0.16751336741289147,-4.0449732651742165,8.846243316293554,0.4266666666666667,0.5333333333333333,-0.65,-0.020554233503730757,-7.859792731652859,63.7704716052647
1589552713.1988044,0.26084681275305704,-4.089660827280311,8.885592992736372,0.4306214436373748,0.5201507434309729,-0.6585686834365342,-3.1450894219617895,-6.54979501108873,71.48089355836335
1589552713.2088044,0.22874742743595206,-4.141154637712015,8.707494854871904,0.43333333333333335,0.5111111111111111,-0.6644444444444444,-0.42110212192179386,-4.741559328649492,70.02690103612235
1589552713.2188044,0.20761883427206007,-4.18047533708824,8.855708525345623,0.43333333333333335,0.5111111111111111,-0.6644444444444444,-3.071300563236047,-7.91359313662741,75.86586341525857
1589552713.2288043,0.1806033186104811,-4.043016593052406,8.817111615136684,0.43333333333333335,0.5111111111111111,-0.6644444444444444,4.181207472842306,-6.014399546376985,69.9196833591978
1589552713.2388043,0.19617607740785536,-4.192864599910879,8.943600483799095,0.43333333333333335,0.5111111111111111,-0.6644444444444444,4.0813904449678535,-3.5468958877076835,76.75352902794576
1589552713.2488043,0.23400748596381782,-4.275992514036182,8.87795258889582,0.4448924932418382,0.49688445276218207,-0.6413261246274347,2.8751559575795382,2.9893091079226455,75.9856441048035
1589552713.2588043,0.2607099706687904,-4.401163147569006,8.812386705774946,0.4477777777777778,0.4933333333333334,-0.6355555555555555,2.3096676443736524,-0.2222434004778462,75.88066471125269
1589552713.2688043,3.5025065731814196,-5.709114811568799,7.593085013146363,0.4477777777777778,0.4933333333333334,-0.6355555555555555,-2.958479404031551,-2.7344982471516213,31.92643514460999
1589552713.2788043,0.020064790253292664,-3.7867008615225712,9.619195051527031,0.4477777777777778,0.4933333333333334,-0.6355555555555555,6.4229133899856805,3.2899671940655884,3.0371869057959096
1589552713.2888043,-0.4117229553567847,-3.587062291925715,8.801326260478922,0.4477777777777778,0.4933333333333334,-0.6355555555555555,-5.5063725883438295,-1.5741596807187843,3.109467129276804
1589552713.2988043,-0.07707422222222221,-3.91562,8.551372,0.46470340740740745,0.4721762962962963,-0.6581230617283951,-7.858986111111111,-2.6560944444444443,1.3937999999999997
1589552713.3088043,0.08,-4.184412538744955,8.709664307854261,0.4744444444444445,0.46,-0.6711111111111111,-0.40856921457395146,2.691999532136382,2.453538949646178
1589552713.3188043,0.10426121853338198,-4.226065304633345,8.790653046333455,0.4744444444444445,0.46,-0.6711111111111111,5.453723549799344,4.009234768332726,2.161939073330901
1589552713.3288043,0.12865646908859146,-4.178061185468452,8.82134353091141,0.4744444444444445,0.46,-0.6711111111111111,4.664272625876354,3.4878824091778204,-0.7891172721478648
1589552713.3388042,0.13533747209394784,-4.137975167436313,8.823987583718157,0.4744444444444445,0.46,-0.6711111111111111,-1.839700755374782,3.295626395302609,-3.4501552035230434
1589552713.3488042,0.1398527518506598,-4.219263759253299,8.89419013517863,0.46732856810785683,0.46,-0.6607109841576368,-4.929217291599613,0.7914135420019313,-3.6810578934663662
1589552713.3588042,0.12479974379262274,-4.206999359481556,8.880699295429713,0.46,0.46,-0.65,-3.767482385742813,-5.05503042462605,-1.5262235786142195
1589552713.3688042,0.13134915096534078,-4.223372877413352,8.81865084903466,0.46,0.46,-0.65,2.2537072575017447,-4.477436613165853,2.9355082577343565
1589552713.3788042,0.13984266373948043,-4.244606659348701,8.8253933406513,0.46,0.46,-0.65,3.7682491767288693,-1.8026664837175266,4.103366264178558
1589552713.3888042,0.11827038264413478,-4.196540765288269,8.867594426033799,0.46,0.46,-0.65,-1.5658537965955168,1.5982841220179895,-1.428676183026984
1589552713.3988042,0.1361634241245136,-4.199622568093385,8.853836575875487,0.4563661910938175,0.4643605706874189,-0.6594479031560744,-4.356128404669261,-1.179620622568093,-3.8026750972762646
1589552713.4088042,0.13785021691757132,-4.216074891541214,8.870374457706072,0.4544444444444444,0.4666666666666667,-0.6644444444444444,0.7442746756232639,-1.3334795277794438,-1.6775325376356984
1589552713.4188042,0.13,-4.207673352118902,8.797550140891762,0.4544444444444444,0.4666666666666667,-0.6644444444444444,-1.4801577435217412,1.6512894358804353,-5.006930631526603
1589552713.4288042,0.14068232875147546,-4.232046986254426,8.793411643757377,0.4544444444444444,0.4666666666666667,-0.6644444444444444,0.14939982104100835,3.7642619845409895,-5.37559375356966
1589552713.4388041,0.1441826899066074,-4.2396394146731256,8.848725965140089,0.4544444444444444,0.4666666666666667,-0.6644444444444444,4.313701742995555,4.339843554911852,-2.95913449533037
1589552713.4488041,0.13021774958797383,-4.190762123557909,8.869673375618039,0.4544444444444444,0.4666666666666667,-0.6644444444444444,3.2663312190980376,3.205192154022874,-2.2608874793986913
1589552713.4588041,0.1355568925089473,-4.222227570035789,8.883329322473157,0.4866666666666667,0.4655555555555556,-0.6644444444444444,-1.4726065963223498,0.31234959274342833,-5.165338069233617
1589552713.4688041,0.13344269320508548,-4.226885386410171,8.824098852435599,0.4866666666666667,0.4655555555555556,-0.6644444444444444,-2.4221346602542737,-1.171096019237179,-4.766350411885148
1589552713.478804,0.12558371229772944,-4.22,8.786751136893189,0.4866666666666667,0.4655555555555556,-0.6644444444444444,-1.47714965210265,-0.6386316707107389,1.433141239896516
1589552713.488804,0.11749599777267349,-4.22,8.800048026727918,0.4866666666666667,0.4655555555555556,-0.6644444444444444,1.221501531286977,1.4074006403563724,9.386547730911115
1589552713.498804,0.11399092438289715,-4.212018151234205,8.886009075617103,0.47868481790087236,0.4655555555555556,-0.6644444444444444,5.227609239917068,0.9683991511168486,0.7023823494894965
1589552713.508804,0.13406022888647565,-4.223433714810793,8.889373485924319,0.4666666666666667,0.4655555555555556,-0.6644444444444444,3.441415712973018,-2.644578564865091,-0.6992471389190544
1589552713.518804,0.14503508503661416,-4.2351052551098425,8.845385935402756,0.4666666666666667,0.4655555555555556,-0.6644444444444444,1.1407882664763749,1.0388176002854377,0.5550444297194896
1589552713.528804,0.13168546916165644,-4.228314530838343,8.802471796257516,0.4666666666666667,0.4655555555555556,-0.6644444444444444,-3.8012396135918394,1.3195509356211574,0.5856836452070526
1589552713.538804,0.12829086138164203,-4.227563707927537,8.840727153454106,0.4666666666666667,0.4655555555555556,-0.6644444444444444,-5.308422061866074,-3.787950370893677,1.5604405308573446
1589552713.548804,0.14,-4.206758855585831,8.876482288828338,0.47134831970935515,0.4655555555555556,-0.6576020284589766,-2.3680858310626705,-3.110899182561308,4.432799727520436
1589552713.558804,0.14,-4.2186852644662345,8.858857892556276,0.4811111111111111,0.4655555555555556,-0.6433333333333333,0.08350020715370832,-1.3531711780140865,0.5250655986742165
1589552713.568804,0.13372680412371135,-4.223726804123712,8.808634020618555,0.4811111111111111,0.4655555555555556,-0.6433333333333333,-0.006958762886597913,-2.0454252577319587,-3.320618556701031
1589552713.578804,0.13,-4.21398624657288,8.80804126028136,0.4811111111111111,0.4655555555555556,-0.6433333333333333,-0.222936985931952,-4.368345206526136,-2.8208739718639038
1589552713.588804,0.1333980037342243,-4.213398003734224,8.84378602613957,0.4811111111111111,0.4655555555555556,-0.6433333333333333,1.861626633723134,-5.085573926410512,-0.26579850631027746
1589552713.598804,0.1392861454662867,-4.219286145466286,8.885003018264007,0.4811111111111111,0.4655555555555556,-0.6433333333333333,4.437688641500428,-3.3927331784425756,2.089458186514677
1589552713.608804,0.13598695426580684,-4.204013045734193,8.91796086279742,0.4666666666666667,0.4655555555555556,-0.65,-0.5748369283225854,-3.6316294196130756,4.066683344451857
1589552713.618804,0.12485701180599873,-4.2151429881940015,8.838284141671984,0.4666666666666667,0.4655555555555556,-0.65,2.457218211550734,1.4411320397255905,-1.5500458679004467
1589552713.628804,0.1251407359775524,-4.22,8.80056294391021,0.4666666666666667,0.4655555555555556,-0.65,1.780003215152135,3.4304632011223806,-0.8724096103820185
1589552713.638804,0.13,-4.224961492484666,8.844807462423327,0.4666666666666667,0.4655555555555556,-0.65,1.2288208665660703,2.877406719708401,0.8168320954751219
1589552713.648804,0.1335099251827185,-4.226490074817281,8.884039700730874,0.4666666666666667,0.4655555555555556,-0.6550698919305934,3.473511222592224,2.036011222592224,-2.6237512433507764
1589552713.658804,0.13560464259395727,-4.206813927781872,8.905604642593957,0.4666666666666667,0.4655555555555556,-0.6644444444444444,-0.796518054532056,0.6229642593957259,-0.9598701179071476
1589552713.668804,0.12023292350974625,-4.199767076490254,8.831630464568224,0.4666666666666667,0.4655555555555556,-0.6644444444444444,-3.229717386141508,3.0536671751402107,3.267616553097426
1589552713.678804,0.11899561063774852,-4.223493415956622,8.782489026594371,0.4666666666666667,0.4655555555555556,-0.6644444444444444,3.094694035631294,2.5330331784146654,-0.05076813839400973
1589552713.688804,0.13,-4.216313035204568,8.833686964795433,0.4666666666666667,0.4655555555555556,-0.6644444444444444,5.690455518553758,0.8457183634633685,4.391740009514748
1589552713.698804,0.12536930805380003,-4.2085227677848005,8.873892075838599,0.47335544392228884,0.4686426835196889,-0.6603282738256,0.5898395721925134,0.6960156376600226,4.495910306271269
1589552713.708804,0.12556161921669187,-4.213315142349924,8.878876761566616,0.4811111111111111,0.4722222222222222,-0.6555555555555556,-1.9030809608345935,-3.6881821618778354,1.0273987989567581
1589552713.718804,0.13,-4.215917618570066,8.811635398576424,0.4811111111111111,0.4722222222222222,-0.6555555555555556,-1.3291190714967103,-3.65691271433114,5.09418340141379
1589552713.7288039,0.12218332359913422,-4.23,8.771725014601298,0.4811111111111111,0.4722222222222222,-0.6555555555555556,5.188653073143917,0.4765670629058305,8.9375
1589552713.7388039,0.11280465639605332,-4.228597671801974,8.80262095378224,0.4811111111111111,0.4722222222222222,-0.6555555555555556,12.549677059892678,5.15328295395534,7.7367564804396745
1589552713.7488039,0.13,-4.220921920668058,8.88,0.47916483414520994,0.47027594525632105,-0.6557604268151241,2.0558559498956157,-1.0261638830897704,0.20213987473903966
1589552713.7588038,0.13488903410053488,-4.23,8.89955613640214,0.46,0.4511111111111111,-0.6577777777777778,1.2527741474866285,-1.698678271497374,-1.5611129262566859
1589552713.7688038,0.13584654660045076,-4.23415345339955,8.86185165240631,0.46,0.4511111111111111,-0.6577777777777778,1.3845908374718283,-2.6087913101577613,-2.092263507449291
1589552713.7788038,0.13,-4.23273945038519,8.798151374037024,0.46,0.4511111111111111,-0.6577777777777778,-0.9273276704610787,0.39044713694377364,-0.3903213751868462
1589552713.7888038,0.1339871019750101,-4.22,8.84196130592503,0.46,0.4511111111111111,-0.6577777777777778,-4.7279020556227325,2.0625,3.4509673518742443
1589552713.7988038,0.14,-4.22,8.867594881124145,0.4701265081655271,0.4511111111111111,-0.6657945967421534,-0.7167916065491498,1.7776919578445518,-1.5806626780001256
1589552713.8088038,0.14,-4.224316283416734,8.871367433166533,0.4866666666666667,0.4511111111111111,-0.6788888888888889,4.811977939601627,1.9599425125099788,-3.9099366712747523
1589552713.8188038,0.13347868332679885,-4.2278262277756,8.844783594429197,0.4866666666666667,0.4511111111111111,-0.6788888888888889,5.913073402314917,2.404917707924927,-1.1736507679457242
1589552713.8288038,0.11202921773519936,-4.220676405911733,8.79473484138213,0.4866666666666667,0.4511111111111111,-0.6788888888888889,4.3937362562432885,1.0643261084499598,-14.490193989397067
1589552713.8388038,0.11513292571698815,-4.2365780495220084,8.825132925716987,0.4866666666666667,0.4511111111111111,-0.6788888888888889,-2.3252816437523225,0.9094665236631423,5.198704523190218
1589552713.8488038,0.13638567037124616,-4.222409553085836,8.846385670371246,0.4866666666666667,0.4511111111111111,-0.6788888888888889,-9.365253310475289,-0.24172381177583357,0.32828387325608865
1589552713.8588037,0.13,-4.2227679031673,8.8972320968327,0.4666666666666667,0.4577777777777778,-0.6577777777777778,0.7154012104087516,0.14174931747456054,-0.5758844193283568
1589552713.8688037,0.1271733895243829,-4.201884406983745,8.908693558097532,0.4666666666666667,0.4577777777777778,-0.6577777777777778,0.5760084286574353,-3.9728326309452138,-4.255343166767008
1589552713.8788037,0.11366872330327481,-4.223417180825819,8.817085904129094,0.4666666666666667,0.4577777777777778,-0.6577777777777778,0.23754152823920283,-3.458204793545325,2.0377313716184147
1589552713.8888037,0.13949268522888156,-4.230507314771119,8.851521944313355,0.4666666666666667,0.4577777777777778,-0.6577777777777778,7.110916116092496,-1.6603055686644643,4.600489617744219
1589552713.8988037,0.13,-4.2336196225428235,8.88,0.4709202516381177,0.4577777777777778,-0.6561236058444357,0.4948867846401953,1.6394434032166674,-2.555981127141176
1589552713.9088037,0.1282037740510825,-4.215388677846753,8.88718490379567,0.4866666666666667,0.4577777777777778,-0.65,-1.1055661076623737,1.785707943420118,-1.554622594891751
1589552713.9188037,0.1238307305287803,-4.23616926947122,8.862539042068295,0.4866666666666667,0.4577777777777778,-0.65,1.6094080799023636,-4.517122157463449,-1.4652014994146803
1589552713.9288037,0.13,-4.23,8.798903421248767,0.4866666666666667,0.4577777777777778,-0.65,2.348375928641839,-1.4761964152621836,3.948413795590604
1589552713.9388037,0.13345695573266,-4.22654304426734,8.84691391146532,0.4866666666666667,0.4577777777777778,-0.65,1.1235106131144954,2.003891146531997,6.256786080643888
1589552713.9488037,0.13424602740923697,-4.22,8.86767196345435,0.4866666666666667,0.4592695484494571,-0.65,3.7294977158969203,2.976851598872156,0.38359817271753627
1589552713.9588037,0.11162660466334817,-4.218373395336652,8.896746790673305,0.4866666666666667,0.4655555555555556,-0.65,4.977362784909615,-0.07427094249410549,1.735676742205921
1589552713.9688036,0.1240403691457336,-4.218080738291468,8.847677046834132,0.4866666666666667,0.4655555555555556,-0.65,-0.010092286433400766,-4.282864704140552,1.5366061293984108
1589552713.9788036,0.13,-4.226596652319465,8.8,0.4866666666666667,0.4655555555555556,-0.65,-1.7127092300334767,2.4480021520803446,2.7394978479196554
1589552713.9888036,0.1287419039265956,-4.221258096073404,8.807548576440427,0.4866666666666667,0.4655555555555556,-0.65,-1.3701423559573607,2.258034931183376,1.702821397247335
1589552713.9988036,0.12166745378491431,-4.228332546215086,8.849995277290514,0.4866666666666667,0.4655555555555556,-0.65,2.87452772905141,-4.374262076642828,1.437529516934287
1589552714.0088036,0.12,-4.237786710355864,8.891106644822068,0.4666666666666667,0.4722222222222222,-0.65,0.7909967233102186,0.28734616703497673,5.172528671035586
1589552714.0188036,0.12,-4.221805989484111,8.899097005257945,0.4666666666666667,0.4722222222222222,-0.65,1.9895507886916102,-4.40699058904214,-5.314819401051588
1589552714.0288036,0.13216781264179261,-4.215664374716415,8.793006875850756,0.4666666666666667,0.4722222222222222,-0.65,1.9248281037311088,-2.1114686223866532,2.7342850162298
1589552714.0388036,0.13948745244494085,-4.2010250951101185,8.836924714669644,0.4666666666666667,0.4722222222222222,-0.65,0.826882133258874,4.476207200446755,-4.493859289379079
1589552714.0488036,0.1316285789335435,-4.221628578933544,8.878371421066458,0.4666666666666667,0.46986983042932606,-0.65,3.1974980299448386,-2.736423036511689,6.385884554767534
1589552714.0588036,0.13949810499455892,-4.229498104994559,8.870501895005441,0.4666666666666667,0.4585027372300816,-0.65,1.13174743892829,3.0673524334871853,-2.319778650230777
1589552714.0688035,0.13270001459073003,-4.23,8.83379991245562,0.4666666666666667,0.4577777777777778,-0.65,7.230611047614415,-1.1912479937746219,4.981241792714362
1589552714.0788035,0.1430716916973647,-4.23,8.802286766789457,0.4666666666666667,0.4577777777777778,-0.65,-0.7099036554264664,-1.300988240294701,1.5661306319070558
1589552714.0888035,0.15,-4.227103201339827,8.844483993300864,0.4666666666666667,0.4577777777777778,-0.65,-2.802580033495678,-0.7708614068184878,2.9077401004870347
1589552714.0988035,0.14542867500453144,-4.218476225001511,8.883047549996979,0.4697142166636457,0.4577777777777778,-0.65,-3.377363905504199,5.144677814029364,0.9845553138783156
1589552714.1088035,0.12,-4.221858146337297,8.894070926831352,0.4866666666666667,0.4577777777777778,-0.65,-6.061703354185793,-3.6968969511283816,-4.860107927493221
1589552714.1188035,0.12,-4.245348921421551,8.861395685686205,0.4866666666666667,0.4577777777777778,-0.65,-1.250022632041798,-0.9840718922973459,-2.686004668666908
1589552714.1288035,0.12,-4.227568649205532,8.809725403177874,0.4866666666666667,0.4577777777777778,-0.65,2.5406892657605895,7.492669493204422,-8.29143965209811
1589552714.1388035,0.12,-4.219412909401924,8.841761271794228,0.4866666666666667,0.4577777777777778,-0.65,1.683465811898746,-0.45193401704304703,-1.438594615589837
1589552714.1488035,0.12,-4.212830620988371,8.861508137034885,0.4866666666666667,0.4577777777777778,-0.65,3.740430941134006,-2.0152275152618446,4.8557186798700585
1589552714.1588035,0.12,-4.21,8.88,0.4744444444444445,0.4511111111111111,-0.6644444444444444,-1.4753949967083608,-0.9677830809743252,6.651579986833443
1589552714.1688035,0.11903282122905028,-4.210967178770949,8.870328212290504,0.4744444444444445,0.4511111111111111,-0.6644444444444444,0.1129102653631285,-2.719884776536313,0.45552548882681565
1589552714.1788034,0.11449908256880734,-4.22,8.791247706422018,0.4744444444444445,0.4511111111111111,-0.6644444444444444,-0.8435779816513761,-1.0249311926605504,3.021743119266055
1589552714.1888034,0.12849174311926606,-4.22,8.826229357798166,0.4744444444444445,0.4511111111111111,-0.6644444444444444,-3.467201834862385,-2.0743807339449543,5.033188073394495
1589552714.1988034,0.14117124639441325,-4.228243130408381,8.87175686959162,0.47398895973550603,0.45150152657591547,-0.6635985442707015,2.913266661606194,-5.050079702444208,4.345163769546075
1589552714.2088034,0.15709010171550022,-4.20436484742675,8.89563515257325,0.4677982937773055,0.45680781168294454,-0.6521015932054721,-1.6634042432063154,1.9144195005313502,5.638570764384394
1589552714.2188034,0.12669091096667698,-4.2233090890333225,8.851800010316722,0.4666666666666667,0.4577777777777778,-0.65,4.321137031878676,-0.016590580831527868,0.9893189672959868
1589552714.2288034,0.11482666599531734,-4.235173334004683,8.769653331990634,0.4666666666666667,0.4577777777777778,-0.65,-0.17700020140479844,-0.9766669394023313,-6.739083230532968
1589552714.2388034,0.13479717239838307,-4.217601413800808,8.819188689593533,0.4666666666666667,0.4577777777777778,-0.65,3.0257952629547624,5.1275353450202115,-6.618940309573626
1589552714.2488034,0.14610932660318918,-4.2151875645290815,8.881296891132271,0.46767535976954355,0.45878647088065466,-0.6507204950734835,-1.0554663301594585,4.72675519100608,0.42792101640472635
1589552714.2588034,0.12273050480316444,-4.241808485590506,8.898191514409493,0.4744444444444445,0.4655555555555556,-0.6555555555555556,0.35239393011866643,4.421767576285553,-5.291004956206442
1589552714.2688034,0.1272837264093062,-4.222716273590693,8.876539622548899,0.4744444444444445,0.4655555555555556,-0.6555555555555556,-0.5294162760448622,5.083144157852112,-5.940411257270474
1589552714.2788033,0.12284692882677933,-4.23,8.782775430614235,0.4744444444444445,0.4655555555555556,-0.6555555555555556,-3.4470669483262917,-0.5998740656483588,-0.0008937276568085628
1589552714.2888033,0.13227600875309325,-4.23,8.844552017506187,0.4744444444444445,0.4655555555555556,-0.6555555555555556,-2.430997811726691,0.3348991246906763,0.5396496717590036
1589552714.2988033,0.14087375999330293,-4.23,8.862621279979908,0.47502695110664644,0.46487596444965334,-0.6569147377673601,-0.5546099995814323,-0.8088479971537399,0.06432600142313002
1589552714.3088033,0.14965175170566322,-4.23,8.88895525511699,0.48087894558155325,0.45804863756226194,-0.6705693915421428,-1.1032344816039514,-4.539494474906869,-1.8009972374534344
1589552714.3188033,0.1315365221975201,-4.24846347780248,8.86230478329628,0.4811111111111111,0.4577777777777778,-0.6711111111111111,2.22150535169948,1.1977335495404642,1.0099184066374822
1589552714.3288033,0.13,-4.222490112063283,8.774940672379696,0.4811111111111111,0.4577777777777778,-0.6711111111111111,3.3774719841793015,0.964671226104153,-8.31151120632828
1589552714.3388033,0.13194892890406706,-4.226102142191866,8.827795715616269,0.4811111111111111,0.4577777777777778,-0.6711111111111111,1.6218080565041912,3.3316516609748525,-7.223198346786712
1589552714.3488033,0.13991782069970846,-4.210164358600583,8.860328717201165,0.4812024214447684,0.4577777777777778,-0.6711111111111111,2.1034279336734696,0.26113793731778423,0.39246310131195333
1589552714.3588033,0.13227514577259475,-4.225449708454811,8.89089941690962,0.4896942824748947,0.4577777777777778,-0.6711111111111111,0.09722576530612237,-4.515533892128279,2.016531523323615
