time,acc_x,acc_y,acc_z,mag_x,mag_y,mag_z,gyr_x,gyr_y,gyr_z
1589551703.2156448,0.0,-4.12,8.94,0.5133333333333333,0.26666666666666666,-0.6411111111111111,0.0,0.0,-0.375
1589551703.2256448,0.0,-4.107079553330766,8.946460223334617,0.5133333333333333,0.26666666666666666,-0.6411111111111111,0.0,-0.12112918752406623,-0.5365055833654216
1589551703.2356448,0.029483750583113047,-4.077887187062665,8.964741875291557,0.5182472917638522,0.26666666666666666,-0.6370161457523454,-0.1382050808583424,-0.3257050808583424,-0.44072655885554346
1589551703.2456448,0.04047886393659181,-4.07,8.944253632760898,0.52,0.26666666666666666,-0.6355555555555555,-0.11901420079260237,-0.11602130118890357,-0.8154928996036989
1589551703.2556448,0.04605923506433317,-4.073940764935667,8.836896338637416,0.52,0.26666666666666666,-0.6355555555555555,-0.006157445211979431,0.05634255478802057,-0.918102116483856
1589551703.2656448,0.010231854625457469,-4.11092741850183,8.90185483700366,0.52,0.26666666666666666,-0.6355555555555555,-0.06684727422732753,-0.010143639863764254,-1.3139490914091092
1589551703.2756448,0.01910473651921897,-4.146418946076876,8.972837892153752,0.52,0.26666666666666666,-0.6355555555555555,-0.23321380973535571,-0.39833222271583,-1.3694046032451186
1589551703.2856448,0.004422091870456047,-4.142211045935228,8.98,0.5260580753837115,0.25108875853712276,-0.6303629195123743,-0.20131903709517515,-0.2427761483807006,-1.375
1589551703.2956448,0.0012253991830672114,-4.142450798366134,8.978971407352395,0.5277777777777778,0.2466666666666667,-0.6288888888888889,0.07015874489417007,0.125,-1.17984125510583
1589551703.3056448,0.009026371556392748,-4.157079114669179,8.903894513774429,0.5277777777777778,0.2466666666666667,-0.6288888888888889,0.125,0.11282964445490935,-1.106744466682364
1589551703.3156447,-0.0006435387496655667,-4.13,8.94,0.5277777777777778,0.2466666666666667,-0.6288888888888889,0.12097788281459021,0.012066351556229378,-0.9334778828145902
1589551703.3256447,-0.00812467671452778,-4.13,8.94,0.5277777777777778,0.2466666666666667,-0.6288888888888889,0.07422077053420137,0.1523376883973959,-0.8867207705342014
1589551703.3356447,-0.0026567757009345796,-4.144686448598131,8.94,0.5220663811007269,0.26135311526479754,-0.6378639408099689,0.0625,0.14160484813084112,-0.8291048481308412
1589551703.3456447,0.0,-4.133507579435723,8.923507579435723,0.52,0.26666666666666666,-0.6411111111111111,-0.14365525705346063,0.125,-0.7094223714732697
1589551703.3556447,0.0,-4.13,8.842133362627704,0.52,0.26666666666666666,-0.6411111111111111,-0.06583337910578929,0.0033333791057892914,-0.505000068658684
1589551703.3656447,0.0,-4.13,8.831646720626312,0.52,0.26666666666666666,-0.6411111111111111,0.09412398825664134,0.2610399804277355,-0.4477920039144529
1589551703.3756447,0.005935259994041256,-4.135935259994041,8.901223119928495,0.52,0.26666666666666666,-0.6411111111111111,0.013713875111726462,0.052832375260695064,-0.32621387511172645
1589551703.3856447,0.01,-4.132897727272727,8.985511363636363,0.5294696969696969,0.2627209595959596,-0.6411111111111111,-0.10688920454545454,-0.16938920454545453,-0.29438920454545453
1589551703.3956447,0.0037142804772989715,-4.123714280477299,8.981142841431897,0.5333333333333333,0.2611111111111111,-0.6411111111111111,0.07142873508440714,-0.06964275894935572,-0.3125
1589551703.4056447,0.0,-4.12,8.886374787841381,0.5333333333333333,0.2611111111111111,-0.6411111111111111,0.23976575759913593,-0.05226575759913593,-0.20796848480172814
1589551703.4156446,0.034443754111541554,-4.126888750822308,8.925110006578466,0.5333333333333333,0.2611111111111111,-0.6411111111111111,0.25,-0.01944530736057306,-0.1875
1589551703.4256446,0.035941264422941294,-4.13,8.957029367788529,0.5333333333333333,0.2611111111111111,-0.6411111111111111,0.20606645132169155,0.04393354867830846,-0.23143354867830845
1589551703.4356446,0.017074169324143608,-4.110611253986215,8.979388746013784,0.5247161128827624,0.26470161963218236,-0.6375206025900398,0.26828644172410243,0.3048593251723074,-0.20960677913794878
1589551703.4456446,0.01,-4.128563240498538,8.904310278504386,0.52,0.26666666666666666,-0.6355555555555555,0.3125,0.4375,-0.12799324896137868
1589551703.4556446,0.00012472837896566712,-4.129875271621034,8.830498913515862,0.52,0.26666666666666666,-0.6355555555555555,0.12655910473707083,0.18983865710560627,-0.2492204476314646
1589551703.4656446,0.009238809213385485,-4.120761190786615,8.866955236853542,0.52,0.26666666666666666,-0.6355555555555555,0.24048511516731857,0.36072767275097783,-0.1922574424163407
1589551703.4756446,0.017883511074651352,-4.12,8.901534044298606,0.52,0.26666666666666666,-0.6355555555555555,0.29927194421657094,0.47354388843314194,-0.1875
1589551703.4856446,0.010423366948305623,-4.129576633051694,8.986613064413556,0.513615577965537,0.2613463149712809,-0.6291711335210927,0.25264604342691016,0.3204381302807304,-0.3072079131461797
1589551703.4956446,0.01,-4.121155297659301,8.963465892977903,0.5133333333333333,0.2611111111111111,-0.6288888888888889,0.08416183111188671,0.20194122074125784,-0.14666183111188671
1589551703.5056446,0.0008042256348489412,-4.129195774365151,8.904825353809095,0.5133333333333333,0.2611111111111111,-0.6288888888888889,0.17744717956438824,0.24497358978219413,-0.3548943591287765
1589551703.5156446,0.0,-4.122349258388798,8.930602966444809,0.5133333333333333,0.2611111111111111,-0.6288888888888889,0.23531713507001362,0.39345140521004085,-0.23154859478995912
1589551703.5256445,0.0,-4.1295048001644865,8.944752400082242,0.5133333333333333,0.2611111111111111,-0.6288888888888889,0.2202974994859791,0.4077974994859791,-0.3063100020560836
1589551703.5356445,0.0,-4.136392524903268,8.964429900386927,0.5157383167311544,0.25830529714698647,-0.6236780915269431,0.23259343870914628,0.3073598419362806,-0.41495328064542686
1589551703.5456445,0.005406628047407529,-4.1191867439051855,8.973780115857778,0.52,0.2533333333333333,-0.6144444444444445,0.2449171494074059,0.15370857470370294,-0.27362572411110886
1589551703.5556445,0.0031395103419164204,-4.116860489658084,8.891395103419164,0.52,0.2533333333333333,-0.6144444444444445,0.14462193963697761,-0.04651224145208949,-0.14462193963697761
1589551703.5656445,0.0,-4.12564304147938,8.88257216591752,0.52,0.2533333333333333,-0.6144444444444445,0.05446198150775067,-0.19553801849224933,-0.19553801849224933
1589551703.5756445,0.0,-4.119553897444039,8.915669153833942,0.52,0.2533333333333333,-0.6144444444444445,-0.032644070487378954,-0.21735592951262106,-0.21735592951262106
1589551703.5856445,0.0,-4.104352837437803,8.963882975373181,0.5162352249585354,0.25772557088170867,-0.626366232075749,-0.09779476601373055,-0.1875,-0.15220523398626945
1589551703.5956445,0.025409312355243192,-4.133879083140324,8.964590687644758,0.5133333333333333,0.2611111111111111,-0.6355555555555555,-0.019127865186486695,-0.24043606740675666,-0.17793606740675666
1589551703.6056445,0.03,-4.133024434886062,8.897219913974558,0.5133333333333333,0.2611111111111111,-0.6355555555555555,-0.0435972819621122,-0.1628054360757756,-0.1875
1589551703.6156445,0.01212510108645969,-4.12106255054323,8.887874898913541,0.5133333333333333,0.2611111111111111,-0.6355555555555555,-0.0625,-0.013281881790373054,-0.35507717731444044
1589551703.6256444,0.0033963928807750387,-4.12,8.923018035596124,0.5133333333333333,0.2611111111111111,-0.6355555555555555,0.06131763348546804,0.08254508899031202,-0.292454911009688
1589551703.6356444,-0.008057699375229694,-4.12,8.96417309812569,0.497217934582874,0.2611111111111111,-0.6301837559720691,0.07463937890481441,0.17536062109518558,-0.3003606210951856
1589551703.6456444,-0.01,-4.1274149439702255,8.977414943970226,0.4933333333333334,0.2611111111111111,-0.6288888888888889,0.0625,0.09481320037218335,-0.3125
1589551703.6556444,0.007568072289156626,-4.1212159638554215,8.87459156626506,0.4933333333333334,0.2611111111111111,-0.6288888888888889,-0.10220067771084337,-0.10220067771084337,-0.14779932228915663
1589551703.6656444,0.01,-4.11089257826578,8.905537108671103,0.4933333333333334,0.2611111111111111,-0.6288888888888889,-0.1819213858388794,-0.011157228322241183,-0.2957641575166382
1589551703.6756444,0.004949732479027677,-4.11,8.899899464958056,0.4933333333333334,0.2611111111111111,-0.6288888888888889,-0.15593582799392297,0.031564172006077015,-0.28093582799392297
1589551703.6856444,-0.02081860465116279,-4.101325581395349,8.850097674418604,0.4979596899224807,0.2620749354005168,-0.6300454780361757,-0.13584302325581396,0.019127906976744186,-0.25
1589551703.6956444,-0.03758718315957765,-4.0943386736835095,8.838561103154248,0.52,0.26666666666666666,-0.6355555555555555,-0.7884267894614129,-1.346430236818439,-0.07830663158245346
1589551703.7056444,-0.025601605066976143,-4.090798796199768,8.753589567064655,0.52,0.26666666666666666,-0.6355555555555555,-0.06243730207124454,0.005117872106060295,-0.08000501583430043
1589551703.7156444,0.000849875215972351,-4.1026943751199845,8.818860625839893,0.52,0.26666666666666666,-0.6355555555555555,0.47163203110001917,0.8639242177001344,-0.1533679688999808
1589551703.7256444,0.03673611793611794,-4.125578705978706,8.983472235872236,0.52,0.26666666666666666,-0.6355555555555555,0.29933456183456186,0.4315683865683866,-0.1046007371007371
1589551703.7356443,0.010210801359501778,-4.115105400679751,8.969578397280996,0.5265261324269989,0.26666666666666666,-0.6355555555555555,0.125,0.3098649830062278,-0.03059124575155694
1589551703.7456443,0.0,-4.11,8.99,0.5333333333333333,0.26666666666666666,-0.6355555555555555,0.125,0.3981545411504774,-0.1018454588495226
1589551703.7556443,0.0,-4.1286696362002715,8.915321455198914,0.5333333333333333,0.26666666666666666,-0.6355555555555555,0.16389507541723222,0.29720984916553556,-0.08610492458276778
1589551703.7656443,0.00779859402460457,-4.124402811950791,8.877798594024606,0.5333333333333333,0.26666666666666666,-0.6355555555555555,0.23624121265377857,0.25,-0.0625
1589551703.7756443,-0.002066283395333107,-4.113966858302334,8.886033141697666,0.5333333333333333,0.26666666666666666,-0.6355555555555555,0.28770713561041594,0.4385356780520798,-0.024792864389584036
1589551703.7856443,-0.004067595326742843,-4.11,8.925594428039544,0.5175135875379809,0.26337088629263494,-0.6316006191067175,0.2012674123764283,0.37711235396071385,0.0
1589551703.7956443,0.0,-4.117574659696703,8.957574659696704,0.5066666666666667,0.2611111111111111,-0.6288888888888889,0.07765837689560581,0.01329188447802912,-0.09468324620878836
1589551703.8056443,0.008344263974996158,-4.128344263974996,8.901590152175027,0.5066666666666667,0.2611111111111111,-0.6288888888888889,0.11465164984372597,-0.01034835015627402,-0.07284835015627403
1589551703.8156443,0.0016162570888468807,-4.113232514177694,8.931918714555765,0.5066666666666667,0.2611111111111111,-0.6288888888888889,0.125,0.15719517958412096,-0.0625
1589551703.8256443,0.019118933933661333,-4.11,8.965491911911549,0.5066666666666667,0.2611111111111111,-0.6288888888888889,0.125,0.3866555618089722,-0.10233111236179446
1589551703.8356442,0.03,-4.120409952606635,8.990409952606635,0.5101366508688784,0.2611111111111111,-0.62426224328594,0.2225933056872038,0.6301244075829384,-0.059937796208530805
1589551703.8456442,0.01710275376526156,-4.104205507530523,8.961308261295784,0.5133333333333333,0.2611111111111111,-0.62,0.39310778896711523,0.7903038944835576,-0.12091168345067285
1589551703.8556442,-0.0028071748878923768,-4.09,8.869560538116591,0.5133333333333333,0.2611111111111111,-0.62,0.5175448430493274,0.8525224215246636,-0.1875
1589551703.8656442,-0.004410821643286573,-4.09,8.841178356713426,0.5133333333333333,0.2611111111111111,-0.62,0.3529058116232465,0.7003381763527055,-0.22243236472945893
1589551703.8756442,0.015754110417803505,-4.09,8.902513701392678,0.5133333333333333,0.2611111111111111,-0.62,0.056215746518304105,0.1358261761844884,-0.47974744359296784
1589551703.8856442,0.02191162095866915,-4.094044189520665,8.954044189520665,0.5106372069862231,0.2611111111111111,-0.6235948351294804,-0.18888092252079453,-0.40165710702495344,-0.6369476309916822
1589551703.8956442,0.01,-4.107677924971158,8.96767792497116,0.5066666666666667,0.2611111111111111,-0.6288888888888889,-0.32701296893026216,-0.6729870310697379,-0.6104870310697379
1589551703.9056442,0.018799161857881694,-4.12,8.936004190710593,0.5066666666666667,0.2611111111111111,-0.6288888888888889,-0.14001047677647882,-0.5575183343588379,-0.7699921424176409
1589551703.9156442,0.02135385795474356,-4.125764094696837,8.900174331438931,0.5066666666666667,0.2611111111111111,-0.6288888888888889,0.01801279592761759,-0.33051279592761756,-0.8389744081447649
1589551703.9256442,0.0,-4.125022263450835,8.945007421150278,0.5066666666666667,0.2611111111111111,-0.6288888888888889,0.0625,-0.2501855287569573,-0.8124072356215213
1589551703.9356441,0.0,-4.103290805393466,8.960127583819602,0.5208305219471276,0.2611111111111111,-0.633361685293245,-0.10522986516335345,-0.2088649325816767,-0.875
1589551703.9456441,0.015700250528073882,-4.1,8.949066332629235,0.5277777777777778,0.2611111111111111,-0.6355555555555555,-0.28562656580046175,-0.3154177105336412,-0.875
1589551703.9556441,0.035015633549597434,-4.1,8.88987493160322,0.5277777777777778,0.2611111111111111,-0.6355555555555555,-0.500390838739936,-0.6571293871648558,-1.0003908387399358
1589551703.9656441,0.04,-4.106196794395499,8.880983971977496,0.5277777777777778,0.2611111111111111,-0.6355555555555555,-0.5475400700562573,-0.9375,-1.125
1589551703.975644,0.03469146985396461,-4.1046914698539645,8.91061706029207,0.5277777777777778,0.2611111111111111,-0.6355555555555555,-0.4668216865872788,-0.8379650597618364,-1.125
1589551703.985644,0.02157149253123855,-4.1126427612031415,8.92,0.5245000248732594,0.2634523631857671,-0.6355555555555555,-0.490178171679759,-0.7763390858398795,-1.125
1589551703.995644,0.019586407491486945,-4.13,8.92,0.52,0.26666666666666666,-0.6355555555555555,-0.5625,-0.8125,-1.125
1589551704.005644,0.03,-4.116819434372734,8.887048585931835,0.52,0.26666666666666666,-0.6355555555555555,-0.68606780275562,-0.8948785351704134,-1.2073785351704134
1589551704.015644,0.06427779830070188,-4.075722201699298,8.924844477281122,0.52,0.26666666666666666,-0.6355555555555555,-0.878541743627632,-0.9803472478758773,-1.3356944957517547
1589551704.025644,0.07463329838309145,-4.043899895149274,8.960733403233817,0.52,0.26666666666666666,-0.6355555555555555,-0.8368743446829645,-0.8993743446829645,-1.509167540422714
1589551704.035644,0.07,-3.9617431865401067,8.942697274616043,0.5017981830773619,0.2712171208973262,-0.6393476007477719,-0.9633025420621665,-1.1111235588870332,-1.8809630504745998
1589551704.045644,0.012561989428159538,-3.8233294089380103,8.88076741950985,0.4933333333333334,0.2733333333333333,-0.6411111111111111,-1.9343269461797212,-2.5833823882748677,-2.307703628063431
1589551704.055644,-0.13059723187764646,-3.683149845162106,8.880310307779814,0.4933333333333334,0.2733333333333333,-0.6411111111111111,-2.812353851987613,-3.6267932756114516,-2.632757694495355
1589551704.065644,-0.35383853111253893,-3.433838531112539,9.06220110710226,0.4933333333333334,0.2733333333333333,-0.6411111111111111,-4.288509180546631,-5.160605508327979,-2.9941926555626948
1589551704.075644,-0.3043150684931507,-3.291849315068493,9.061027397260274,0.4933333333333334,0.2733333333333333,-0.6411111111111111,-4.3090753424657535,-4.351027397260274,-3.3886986301369864
1589551704.085644,-0.1362454226723802,-2.903139332554214,9.03180911569926,0.4974744116925652,0.2733333333333333,-0.6298710412789104,-4.220776522529541,-3.5,-4.074659135177249
1589551704.095644,-0.01,-2.5802432117274696,9.174309326818072,0.5011111111111111,0.2733333333333333,-0.62,-2.9207201954578266,-2.059946878412646,-3.446893451422437
1589551704.105644,-0.0659848154606219,-2.492919572798605,8.932849825632083,0.5011111111111111,0.2733333333333333,-0.62,0.015041503196745243,0.39597863993025284,1.1961298496076727
1589551704.115644,-0.11392900856793146,-2.553451652386781,8.692080783353733,0.5011111111111111,0.2733333333333333,-0.62,1.1171970624235006,0.4895960832313342,9.530446756425949
1589551704.125644,-0.04569722437244278,-2.647161340263187,8.975756939068892,0.5011111111111111,0.2733333333333333,-0.62,0.08914353643702311,-0.8215885215083489,15.339889970142652
1589551704.135644,0.04,-2.735455479038299,9.126376706536185,0.5036358449787228,0.2733333333333333,-0.62,0.0850814002657968,-0.744499063670412,19.73835628851033
1589551704.145644,0.031084026297619406,-2.743373960553571,8.89842844705953,0.5066666666666667,0.2733333333333333,-0.62,0.7703254930803638,-0.04971143165921166,22.32232220587794
1589551704.155644,0.014538053591365837,-2.8091575176777073,8.923015909936733,0.5066666666666667,0.2733333333333333,-0.62,0.05044252419054707,-1.3192919612951246,24.626526446780797
1589551704.165644,0.027236265847099504,-2.884472531694199,8.979346139070303,0.5066666666666667,0.2733333333333333,-0.62,0.12772442054040212,-1.3536400307337688,26.388404405173517
1589551704.175644,0.10536513229718733,-2.915028087099784,8.975477480696322,0.5066666666666667,0.2733333333333333,-0.62,0.15431901188987474,-1.377808709978364,27.0
1589551704.185644,0.11947499584648613,-2.948069446751952,9.082455557401563,0.5066666666666667,0.2664719130161895,-0.6249901238670137,-0.29276042531982055,-1.7697395746801794,25.982482555241734
1589551704.195644,0.08,-2.865338959453381,8.872208323516181,0.5066666666666667,0.2611111111111111,-0.6288888888888889,0.08673988476449551,-0.9564118491228821,25.033586705078502
1589551704.205644,0.06211965429891224,-2.877481498038047,8.855162419907614,0.5066666666666667,0.2611111111111111,-0.6288888888888889,0.1514956787364029,-1.0960115233695922,24.602243518104604
1589551704.215644,0.0392849243609807,-2.881782159624413,8.859636932707355,0.5066666666666667,0.2611111111111111,-0.6288888888888889,-0.2009076682316119,-1.3660615545122587,24.040153886280645
1589551704.2256439,0.01719817989761924,-2.8816059153327376,8.815603640204762,0.5066666666666667,0.2611111111111111,-0.6288888888888889,-0.09496018526042088,-1.3900199073697896,23.70999431218006
1589551704.2356439,-0.010408036269890657,-2.9703173615432483,8.869591963730109,0.5066968915755475,0.2611111111111111,-0.6288888888888889,0.4997166414792426,-1.6829662636678815,23.624716641479242
1589551704.2456439,-0.10534056446545177,-3.061362257861807,8.945557498429004,0.5133333333333333,0.2611111111111111,-0.6288888888888889,0.2706073604546324,-1.0880423349088824,23.92966380699981
1589551704.2556438,-0.11,-3.1360701975714704,8.93861046655703,0.5133333333333333,0.2611111111111111,-0.6288888888888889,0.23013162044650703,-1.122105138660479,24.56539486133952
1589551704.2656438,-0.1484976928486886,-3.210798154278951,8.904694924267115,0.5133333333333333,0.2611111111111111,-0.6288888888888889,0.26437788393913925,-1.067488464243443,24.908744232121723
1589551704.2756438,-0.21376189299394538,-3.2618809464969725,9.043761892993945,0.5133333333333333,0.2611111111111111,-0.6288888888888889,0.15223225318176203,-1.3632440843939206,25.297618312121585
1589551704.2856438,-0.24523020365291476,-3.2821841629223316,9.066092081461166,0.5133333333333333,0.2587419683206577,-0.6370116641704434,0.03807550913228686,-1.4267265273968606,26.86459488241816
1589551704.2956438,-0.2865496086312672,-3.3165496086312674,9.069083985614554,0.5133333333333333,0.2533333333333333,-0.6555555555555556,0.09770996403638671,-1.7011450179818066,28.698090755235878
1589551704.3056438,-0.3190302103075834,-3.3129093690772495,8.94872810723175,0.5133333333333333,0.2533333333333333,-0.6555555555555556,0.08465822163359442,-1.8346582216335945,32.189189767771104
1589551704.3156438,-0.3344500446916278,-3.28,8.863350134074883,0.5133333333333333,0.2533333333333333,-0.6555555555555556,0.15968722067732644,-1.9375,35.161262290197634
1589551704.3256438,-0.34808835672997523,-3.300220891824938,8.908309248554913,0.5133333333333333,0.2533333333333333,-0.6555555555555556,0.125,-2.03860445912469,37.95130573905863
1589551704.3356438,-0.35559647529680827,-3.3035788517808498,8.945596475296808,0.5196939801268325,0.247461967062411,-0.6584912386910168,0.345176235159587,-2.0223678236303098,41.078513352167626
1589551704.3456438,-0.3599537774630711,-3.2899075549261423,8.925069333805393,0.5277777777777778,0.24,-0.6622222222222223,0.625,-1.7502888908558054,44.05614440117228
1589551704.3556437,-0.3411346555061207,-3.2687637935801725,8.893505517432068,0.5277777777777778,0.24,-0.6622222222222223,0.5734547419752155,-1.7390452580247844,46.59726830555765
1589551704.3656437,-0.28190898460339114,-3.1955271876827127,8.895327421555251,0.5277777777777778,0.24,-0.6622222222222223,0.5452275384915222,-1.8803413077372833,48.815344231144024
1589551704.3756437,-0.2528862809087486,-3.1714431404543744,8.952988264089369,0.5277777777777778,0.24,-0.6622222222222223,0.6069607443203213,-2.0180392556796787,49.902696278398395
1589551704.3856437,-0.2660477595079704,-3.1780238797539853,9.012214917785865,0.5277777777777778,0.24,-0.6622222222222223,0.5247015030751851,-2.100298496924815,50.31399248462407
1589551704.3956437,-0.2771643787688572,-3.286375722900245,9.064882586593674,0.5277777777777778,0.2344444444444445,-0.6555555555555556,0.04970646648418366,-2.5752935335158162,49.754929099178824
1589551704.4056437,-0.33758978369589826,-3.424490934162053,9.021721583074358,0.5277777777777778,0.2344444444444445,-0.6555555555555556,-0.058196042314104024,-2.683196042314104,49.269367809586534
1589551704.4156437,-0.3876988340905359,-3.497698834090536,8.976108161366248,0.5277777777777778,0.2344444444444445,-0.6555555555555556,0.0962354261316985,-2.5143822869341506,48.939156950754466
1589551704.4256437,-0.41177794226498887,-3.5208889711324947,8.830223168023686,0.5277777777777778,0.2344444444444445,-0.6555555555555556,0.3499976868985936,-2.413892487046632,49.10833179126573
1589551704.4356437,-0.4652982755757964,-3.4902806043786616,9.019403448848408,0.5371267239629867,0.2289200671531847,-0.6555555555555556,0.0515355558718186,-2.8675431106050904,48.94122844469746
1589551704.4456437,-0.5151013806706115,-3.4476520710059173,8.9658164365549,0.5522222222222222,0.22,-0.6555555555555556,0.5159418145956607,-2.197705456936226,49.40688362919132
1589551704.4556437,-0.5545016120975433,-3.4864951637073704,8.914983879024568,0.5522222222222222,0.22,-0.6555555555555556,0.4843246219517733,-2.125,49.99075598292539
1589551704.4656436,-0.56,-3.4917498527679625,8.89479976442874,0.5522222222222222,0.22,-0.6555555555555556,0.42124926383981154,-2.206561947879859,50.70937315959953
1589551704.4756436,-0.5562890602012593,-3.497734361207556,8.951132819396221,0.5522222222222222,0.22,-0.6555555555555556,0.6088867474842582,-2.2893066262578707,51.224853616194906
1589551704.4856436,-0.55,-3.453915773919468,8.988252678241595,0.5522222222222222,0.2162818618396749,-0.661977794196117,0.7065132065016624,-2.1739471739933505,51.48098679349834
1589551704.4956436,-0.5587438685322905,-3.457487737064581,8.999396460136984,0.5522222222222222,0.20777777777777776,-0.6766666666666666,0.6953508216731843,-2.0819737674902234,51.32820164334637
1589551704.5056436,-0.5739293206390188,-3.4642827174439246,8.971787961917057,0.5522222222222222,0.20777777777777776,-0.6766666666666666,0.50220873003066,-2.383966031950944,50.86824269807972
1589551704.5156436,-0.632569462820852,-3.473794654670548,8.99,0.5522222222222222,0.20777777777777776,-0.6766666666666666,0.21862595924847844,-2.6875,50.09337787774543
1589551704.5256436,-0.7332688555892242,-3.5233655722053876,8.986682786102694,0.5522222222222222,0.20777777777777776,-0.6766666666666666,0.18689552114897678,-2.6045696525673487,49.604267413141834
1589551704.5356436,-0.7579867352631253,-3.51,8.973960205789377,0.5546828791228469,0.2053171208771531,-0.6838249412866657,0.4375,-2.4375,49.575082904605466
1589551704.5456436,-0.7547126272036692,-3.5111781568009173,8.952356313601834,0.5644444444444444,0.1955555555555556,-0.7122222222222222,0.39331911996560126,-2.4522269600114663,49.56609215995414
1589551704.5556436,-0.7934766989122145,-3.5095699032633565,8.949139806526713,0.5644444444444444,0.1955555555555556,-0.7122222222222222,0.17114684100670333,-2.432123790791956,48.86424758158391
1589551704.5656435,-0.795334815913022,-3.479114570463718,8.903779754550696,0.5644444444444444,0.1955555555555556,-0.7122222222222222,0.4819104686599127,-2.0611512643110124,48.31668519891277
1589551704.5756435,-0.7746068692858908,-3.4307493616670786,8.876142492381186,0.5644444444444444,0.1955555555555556,-0.7122222222222222,0.9569259121983362,-1.4997693764928752,48.05758586607364
1589551704.5856435,-0.7872181450273323,-3.3927818549726676,8.901654435081998,0.5644444444444444,0.19074345887066738,-0.7112197020795371,0.7283814291323125,-1.9140051644468605,46.75187626468545
1589551704.5956435,-0.8439702132826096,-3.3839702132826095,9.03895159658424,0.5644444444444444,0.1688888888888889,-0.7066666666666667,0.0625,-2.3375465417459225,45.32537233396738
1589551704.6056435,-0.8970894367035847,-3.4312683101107537,9.093617958794809,0.5644444444444444,0.1688888888888889,-0.7066666666666667,0.10797755150649041,-2.140853876384423,44.52494938668572
1589551704.6156435,-0.8804394426580922,-3.3813183279742764,8.885493033226153,0.5644444444444444,0.1688888888888889,-0.7066666666666667,0.36813370846730975,-1.5164790996784565,43.95260584137192
1589551704.6256435,-0.8821326944702489,-3.326682638243778,8.970805749767761,0.5644444444444444,0.1688888888888889,-0.7066666666666667,0.4466826382437784,-1.8616706595609447,42.53258385077984
1589551704.6356435,-0.8889683664988022,-3.1557908375299464,8.909284701510781,0.5644444444444444,0.1688888888888889,-0.7066666666666667,0.2757908375299467,-1.8189477093824866,41.63540189703222
1589551704.6456435,-0.9,-3.224394222332216,9.057197111166108,0.5555555555555556,0.16111111111111112,-0.7333333333333333,-0.14100361104236506,-2.3574819447881747,40.18144222332216
1589551704.6556435,-0.8687163372588177,-3.1030745058882263,9.00175119673431,0.5555555555555556,0.16111111111111112,-0.7333333333333333,-0.04085783090070777,-1.8480092361457814,39.16050923614578
1589551704.6656435,-0.7681891815748697,-2.942441423674696,8.855513452598958,0.5555555555555556,0.16111111111111112,-0.7333333333333333,0.4980293585951073,-0.9148647696858713,37.78445907874349
1589551704.6756434,-0.7599434493820559,-2.909943449382056,8.862466223858192,0.5555555555555556,0.16111111111111112,-0.7333333333333333,0.4596292849945506,-1.018948312735199,36.2535344136215
1589551704.6856434,-0.77735938856071,-2.89303143984994,9.13831266272852,0.5543819504714267,0.15406948060633774,-0.7353871422305589,0.06601528598225034,-1.5059579635488116,34.42236624765531
1589551704.6956434,-0.8244448308410751,-2.8911118287048536,9.03703694503784,0.5511111111111111,0.13444444444444445,-0.7411111111111112,0.16898090648649544,-1.1620381870270091,32.42360835113518
1589551704.7056434,-0.9703045357444483,-3.1619941378111185,9.002308443870369,0.5511111111111111,0.13444444444444445,-0.7411111111111112,-0.04807222581019094,-1.5961444516203818,31.381753316111084
1589551704.7156434,-1.113432163970831,-3.3226864327941663,9.023432163970831,0.5511111111111111,0.13444444444444445,-0.7411111111111112,-1.0242587702187678,-2.4113881553281518,29.23135672058338
1589551704.7256434,-1.164131365729106,-3.3335328414322767,9.074131365729107,0.5511111111111111,0.13444444444444445,-0.7411111111111112,-0.5291974104827198,-1.6246355978206237,28.38959870524136
1589551704.7356434,-1.1650110234207751,-3.2993929130587594,9.037527558551938,0.5511111111111111,0.12854426941879413,-0.7497878390900087,-0.04690944818992236,-0.7227509825222864,28.265590551810078
1589551704.7456434,-1.11,-3.21,8.9,0.5511111111111111,0.11555555555555555,-0.7688888888888888,0.125,-0.25,28.4375
1589551704.7556434,-1.1434955868392882,-3.2300973521035727,8.889951323948214,0.5511111111111111,0.11555555555555555,-0.7688888888888888,-0.31462957726565816,-0.7733685443638787,28.39563051645089
1589551704.7656434,-1.2495082912428792,-3.3032701399940034,8.936540279988007,0.5511111111111111,0.11555555555555555,-0.7688888888888888,-1.1875,-1.890476890610946,28.468453781221893
1589551704.7756433,-1.4051531246468527,-3.4282822917843827,9.131597920669002,0.5511111111111111,0.11555555555555555,-0.7688888888888888,-1.1016145892191207,-1.9942578257430217,29.406041643123515
1589551704.7856433,-1.4520865033871808,-3.4512892131318393,8.85920270974466,0.5568372416188987,0.10328527589601065,-0.7703204215158358,-0.5954729025534132,-0.9589695153725899,31.695186294945284
1589551704.7956433,-1.55,-3.59,8.9,0.5822222222222222,0.048888888888888885,-0.7766666666666666,-0.1875,-0.5,34.5
1589551704.8056433,-1.586640197446078,-3.5753439210215685,9.053888829273527,0.5822222222222222,0.048888888888888885,-0.7766666666666666,-0.6913027148835712,-1.4160049361519476,37.431215795686235
1589551704.8156433,-1.4936297209261378,-3.348852011620741,8.943185139536931,0.5822222222222222,0.048888888888888885,-0.7766666666666666,-0.5652786336825425,-1.2726857557883617,44.76041024738093
1589551704.8256433,-1.419787234042553,-3.220070921985816,8.979751773049646,0.5822222222222222,0.048888888888888885,-0.7766666666666666,0.12344858156028368,-0.813386524822695,49.95168439716312
1589551704.8356433,-1.3408686589301104,-3.2167690858437057,8.908633475637865,0.5832850745038827,0.04357462748058623,-0.7737817819021595,-0.4320708816868098,-1.1906116589501534,54.1339378770569
1589551704.8456433,-1.22317639749063,-3.0738570540957646,8.900226885535046,0.5898235334727427,0.010882332636286102,-0.7560345361295394,-1.1676475156835628,-1.9787294810895317,55.34238520433728
1589551704.8556433,-1.1676774372309133,-2.930709748923654,8.978903619080096,0.59,0.01,-0.7555555555555555,-1.2544359307728377,-2.3447597403981413,54.64274372309135
1589551704.8656433,-1.1839944433189593,-2.935991664978439,8.82713888808497,0.59,0.01,-0.7555555555555555,-1.0517881949468932,-1.6142881949468932,53.532222238300584
1589551704.8756433,-1.3171827921299626,-3.0977265770500266,8.924728107539968,0.59,0.01,-0.7555555555555555,-1.0613671147498662,-1.7312595655621323,51.43008841806347
1589551704.8856432,-1.3756111510668174,-3.0649097571834654,8.974208363300114,0.5900389663268528,0.008908942848118847,-0.7560231514777903,-1.245616288229049,-2.2521918558854757,50.034005873488816
1589551704.8956432,-1.5111813406752193,-3.173116200964599,9.063116200964599,0.5911111111111111,-0.021111111111111112,-0.7688888888888888,-1.0241857536172456,-2.127673881631617,49.149185753617246
1589551704.9056432,-1.4643971584984359,-3.1029314389989575,8.98047282325339,0.5911111111111111,-0.021111111111111112,-0.7688888888888888,-0.7545803734358707,-1.611258879692388,48.82461589220542
1589551704.9156432,-1.505399830552659,-3.1302665537017726,8.891633700469239,0.5911111111111111,-0.021111111111111112,-0.7688888888888888,-0.7972914901590198,-1.4831255295229406,48.35479360825078
1589551704.9256432,-1.4353147754590112,-2.951810612131136,8.77531477545901,0.5911111111111111,-0.021111111111111112,-0.7688888888888888,-0.9889275511270599,-1.9079734696721597,47.36417142807372
1589551704.9356432,-1.4780778156996588,-3.0155508532423205,9.024125597269625,0.5911111111111111,-0.021111111111111112,-0.7688888888888888,-0.6565870307167235,-2.624325938566553,46.4110409556314
1589551704.9456432,-1.5662752716896364,-3.1206605549146986,9.18537611559711,0.5455555555555556,-0.11333333333333333,-0.7411111111111112,-0.026835043409629045,-2.789793424807237,45.035664956590374
1589551704.9556432,-1.7645818880079287,-3.152498761149653,9.02708560455897,0.5455555555555556,-0.11333333333333333,-0.7411111111111112,-0.786460914271556,-2.164058628592666,44.32811725718533
1589551704.9656432,-1.816533211353733,-3.187866239738065,8.94,0.5455555555555556,-0.11333333333333333,-0.7411111111111112,-0.6604157137010376,-2.301666285480415,44.80917314683295
1589551704.9756432,-1.7790960375485152,-3.0563841501940607,8.94180792490297,0.5455555555555556,-0.11333333333333333,-0.7411111111111112,-0.375,-2.21009906128712,47.00988920480188
1589551704.9856431,-1.7738224164163383,-3.024778020520423,8.962548277610892,0.5448123079190453,-0.1137226535238863,-0.7385982262448146,-0.375,-2.451435893184567,49.7285237779425
1589551704.9956431,-1.871999765926735,-3.147499707408419,9.027999843951156,0.5257222677364682,-0.12372219838142673,-0.6740557094370538,-0.375,-2.8093741466078885,52.387493660515744
1589551705.0056431,-1.9231779147057395,-3.17431492892145,9.02180777254864,0.5222222222222223,-0.12555555555555556,-0.6622222222222223,0.14631901654456358,-2.535531694240939,57.0996676531949
1589551705.0156431,-1.87,-3.127304020538897,8.892131907574965,0.5222222222222223,-0.12555555555555556,-0.6622222222222223,0.2535254492883671,-2.8546246790797376,60.69162211171764
1589551705.025643,-1.8643628816961242,-3.105772161272093,8.975637118303876,0.5222222222222223,-0.12555555555555556,-0.6622222222222223,-0.03692002650193893,-3.125,63.53016787809108
1589551705.035643,-1.831669622152503,-3.081252216614377,9.008330377847496,0.5222222222222223,-0.12555555555555556,-0.6622222222222223,0.4739121538671396,-3.125,65.87999590778884
1589551705.045643,-1.8033039352964535,-3.01991180588936,9.03598236117787,0.5577777777777778,-0.10111111111111112,-0.6288888888888889,0.5245590294468014,-3.2170708896737654,67.63337008087943
1589551705.055643,-1.7608926560369866,-2.8909918400410963,9.011487760061645,0.5577777777777778,-0.10111111111111112,-0.6288888888888889,-0.1262398000513702,-3.8149796001027405,67.68006119969178
1589551705.065643,-1.8354756683065616,-2.9738618536739576,9.135792780510936,0.5577777777777778,-0.10111111111111112,-0.6288888888888889,-0.2298273170924466,-4.0221546341848935,67.05853609744533
1589551705.075643,-1.83,-2.8916917121427996,8.983082878572004,0.5577777777777778,-0.10111111111111112,-0.6288888888888889,0.4807320089249711,-3.1433287857200463,66.01398139062879
1589551705.085643,-1.83,-2.9029670152423455,8.870329847576548,0.5577777777777778,-0.10111111111111112,-0.6288888888888889,1.1854384526465767,-2.0157984757654774,65.2740396247211
1589551705.095643,-1.7045299145299144,-2.7782564102564105,8.831367521367522,0.5654453941120607,-0.09344349477682812,-0.633071225071225,0.7623931623931623,-2.5672008547008547,62.812820512820515
1589551705.105643,-1.6566015137485406,-2.6037722935705947,9.009252385361728,0.57,-0.08888888888888889,-0.6355555555555555,-0.45051003462297196,-4.350308486654052,57.53547219090946
1589551705.115643,-1.7157023229598614,-2.6375441845484926,8.823506984983293,0.57,-0.08888888888888889,-0.6355555555555555,0.5520929787833648,-2.4506396191473088,55.0553489472201
1589551705.125643,-1.696602430416299,-2.5308113419427287,8.958184607363439,0.57,-0.08888888888888889,-0.6355555555555555,0.18629557030560678,-2.8974392395925244,52.24277342183364
1589551705.135643,-1.7109552083719894,-2.4407815341225367,8.824515530485769,0.5700482428470701,-0.08897572601361521,-0.6355555555555555,0.24945726797046053,-2.9412991242067763,49.6098035031729
1589551705.145643,-1.79656269714625,-2.5108240249378406,9.229205477418637,0.5743718533912248,-0.09675822499309343,-0.6355555555555555,0.20081664934872157,-3.281783454558949,48.2478661817642
1589551705.155643,-1.888742829244477,-2.6143427316001464,9.081771024044915,0.5755555555555556,-0.09888888888888887,-0.6355555555555555,0.8592853655559624,-3.023213413889906,46.56214146222385
1589551705.165643,-1.8741160572614253,-2.5485222576764137,8.869682830290667,0.5755555555555556,-0.09888888888888887,-0.6355555555555555,0.6764507157678157,-2.566126789419539,45.83080286307126
1589551705.175643,-1.8068711725758706,-2.526200709556414,9.364579350552505,0.5755555555555556,-0.09888888888888887,-0.6355555555555555,-0.09427044494158589,-4.023389657198382,44.41096083881319
1589551705.185643,-1.6741791516959301,-2.365074684202201,8.710597247644227,0.5755555555555556,-0.09888888888888887,-0.6355555555555555,1.2089547601292567,-2.364739396199128,43.285448161706555
1589551705.195643,-1.6600394772331608,-2.300236863398965,8.879249932569945,0.5611681337812324,-0.106635962151986,-0.6410891793149106,1.8725326729274454,-1.1296879214378541,41.63141505038864
1589551705.205643,-1.720581438862382,-2.359418561137618,8.970581438862382,0.5611111111111111,-0.10666666666666667,-0.6411111111111111,-0.2354640284404528,-4.445490106651698,38.76344109598653
1589551705.215643,-1.7398988663624817,-2.3392920645373723,8.990303400912556,0.5611111111111111,-0.10666666666666667,-0.6411111111111111,0.2575850228138671,-2.6231037442965333,37.09845242015147
1589551705.225643,-1.730034103203349,-2.270238722423444,9.019897690389952,0.5611111111111111,-0.10666666666666667,-0.6411111111111111,0.9974422597488122,-2.438139435062797,34.508952090879156
1589551705.235643,-1.78422990427863,-2.2579489101603043,9.068204359358782,0.5611111111111111,-0.10666666666666667,-0.6411111111111111,0.8493613770038058,-2.3245210327528545,32.84297514704186
1589551705.245643,-1.7661550949050948,-2.1901723276723275,8.806844405594404,0.5677586302586303,-0.09802489177489178,-0.6497528860028859,0.7873922952047953,-1.689115571928072,30.29170048701299
1589551705.255643,-1.759692882976767,-2.2885667872249127,9.223652914853185,0.5722222222222222,-0.09222222222222222,-0.6555555555555556,0.07017792558082514,-1.1269194813952064,26.281351529455037
1589551705.265643,-1.785686682031443,-2.307124454687629,9.204313317968557,0.5722222222222222,-0.09222222222222222,-0.6555555555555556,0.7046670507860728,-2.5163619433698248,23.52079003415919
1589551705.2756429,-1.7645064464141822,-2.329795729250604,8.83547985495568,0.5722222222222222,-0.09222222222222222,-0.6555555555555556,0.7144742143432715,-0.6850322320709106,18.47187751813054
1589551705.2856429,-1.9757423448831588,-2.845211321514907,9.486086422240128,0.5722222222222222,-0.09222222222222222,-0.6555555555555556,-0.13046937953263504,-1.7412117244157936,14.458395447219985
1589551705.2956429,-1.4531210394689833,-3.07857167033339,9.088729621481356,0.5763080590603578,-0.10774840220713747,-0.65146971871742,1.053572939583686,-0.019839087268009203,11.521491463116526
1589551705.3056428,-1.2695691578838957,-3.3031065261423325,8.327143053314567,0.5777777777777777,-0.11333333333333333,-0.65,3.2942171032304577,3.495747365168732,3.8042822444986104
1589551705.3156428,-1.058644391568082,-2.682751097556889,9.234055430812024,0.5777777777777777,-0.11333333333333333,-0.65,1.5426832333523242,0.5995467341398841,-2.1673983712590905
1589551705.3256428,-1.1446863864515882,-2.1261623050691596,8.922459864362619,0.5777777777777777,-0.11333333333333333,-0.65,-3.3799977968504544,-3.780674067971953,-18.82887754320089
1589551705.3356428,-1.3050024357992902,-2.2430027605725287,9.234007469784489,0.5777777777777777,-0.11333333333333333,-0.65,-0.8436941795996011,0.20007916347692944,-34.58774966942724
1589551705.3456428,-0.8609779088715167,-2.395510818671232,9.006044636042986,0.5955555555555555,-0.1288888888888889,-0.65,0.6602767063385656,1.8344454528578207,-49.856405086528746
1589551705.3556428,-0.9734465048163198,-2.144619335409748,9.170421814731544,0.5955555555555555,-0.1288888888888889,-0.65,-0.2589377797487675,2.699588498587075,-63.752765258554895
1589551705.3656428,-1.5615920033013895,-2.418009995873263,8.872985006190104,0.5955555555555555,-0.1288888888888889,-0.65,-1.0525499793663167,3.8949000412673667,-84.81622552615893
1589551705.3756428,-1.6385198771149525,-2.321850153606309,9.017224769590536,0.5955555555555555,-0.1288888888888889,-0.65,-0.5717507680315466,4.856498463936907,-97.07660541519556
1589551705.3856428,-1.6572909354574303,-2.3718728063722914,9.03729093545743,0.5955555555555555,-0.1288888888888889,-0.65,-1.2109100796536434,3.848350707215065,-102.71591733044703
1589551705.3956428,-1.98,-2.74,9.19,0.6144444444444445,-0.17,-0.6555555555555556,-1.5625,4.0,-107.8125
1589551705.4056427,-1.9110939240193046,-2.751484345996783,9.121093924019304,0.6144444444444445,-0.17,-0.6555555555555556,-1.3471685125603268,4.191405766613043,-109.00878604133152
1589551705.4156427,-1.7592318419961555,-2.7654702046662396,8.942053069993593,0.6144444444444445,-0.17,-0.6555555555555556,-0.6885765708039652,5.0096019750480565,-110.852566337492
1589551705.4256427,-1.6222863741339493,-2.7307621247113163,9.09390300230947,0.6144444444444445,-0.17,-0.6555555555555556,-1.1043591224018474,4.467667436489608,-110.26270207852194
1589551705.4356427,-1.7423590265411686,-2.9047986093445264,9.23983888747562,0.6144444444444445,-0.17,-0.6555555555555556,-1.998993046722632,3.290384126176545,-108.33814021029424
1589551705.4456427,-1.7647948890383323,-3.0295897780766645,8.980578345662408,0.7388888888888889,-0.32666666666666666,-0.6144444444444445,-0.375,5.143073301950236,-105.60902824478816
1589551705.4556427,-1.692264002305697,-2.884528004611394,8.988637333077145,0.7388888888888889,-0.32666666666666666,-0.6144444444444445,-0.375,5.394916658660774,-103.64465006244596
1589551705.4656427,-1.7181267207585011,-2.891772267298751,8.939164372321999,0.7388888888888889,-0.32666666666666666,-0.6144444444444445,-0.8118686753578266,4.80205465402498,-101.16787195733431
1589551705.4756427,-1.68771765453174,-2.91,9.02327841518123,0.7388888888888889,-0.32666666666666666,-0.6144444444444445,-1.7160293183532493,4.2196568938822505,-96.8876965143515
1589551705.4856427,-1.6589356143756462,-2.9170214618747847,9.250643856243537,0.7388888888888889,-0.32666666666666666,-0.6144444444444445,-1.4175427695433682,2.9148600351952973,-94.46271384771684
1589551705.4956427,-1.6060338294060907,-2.9727594047126913,8.97068416701116,1.3514841991640258,-0.6158663665732702,-0.23047322125763636,-0.9752114337880667,3.36423883836296,-90.43745263194157
1589551705.5056427,-1.5930266308685872,-3.1194673826282564,9.080387490022495,1.4355555555555557,-0.6555555555555556,-0.17777777777777778,-0.8503328858573398,3.979419127784631,-87.12348523329221
1589551705.5156426,-1.5398939664986178,-3.270636201008294,9.167455195966824,1.4355555555555557,-0.6555555555555556,-0.17777777777777778,-1.1210237436981623,2.3237660595218737,-80.75020531793787
1589551705.5256426,-1.533072857375183,-3.3115628557489023,9.00374857700439,1.4355555555555557,-0.6555555555555556,-0.17777777777777778,-0.8652321515693608,3.0485089038868107,-76.74280370791999
1589551705.5356426,-1.3188108123586175,-3.2838023652034476,9.028994931706897,1.4355555555555557,-0.6555555555555556,-0.17777777777777778,-0.2137774532543023,3.375,-71.22519006099132
1589551705.5456426,-1.138485200845666,-3.315622621564482,9.11973044397463,1.0541432933991075,-0.19909689922480622,-0.5697848249941273,-0.03682610993657505,2.828706395348837,-65.98507531712474
1589551705.5556426,-1.12,-3.3573959753066625,9.139131991768888,0.9555555555555556,-0.0811111111111111,-0.6711111111111111,-1.1469240225553863,1.8884507202223468,-64.04057597744462
1589551705.5656426,-1.1878893678881146,-3.3696984811268735,9.03331670760439,0.9555555555555556,-0.0811111111111111,-0.6711111111111111,-0.40138290139856636,2.2974240563436763,-64.30119304225775
1589551705.5756426,-1.162687676577425,-3.386387394053545,9.04092492936903,0.9555555555555556,-0.0811111111111111,-0.6711111111111111,-0.27257878716534373,2.4832020213910937,-64.55148282994753
1589551705.5856426,-1.1287358961162357,-3.4225282077675283,9.106320519418821,0.9555555555555556,-0.0811111111111111,-0.6711111111111111,-0.32830129854705253,2.7658012985470526,-64.71479967536324
1589551705.5956426,-1.13181045751634,-3.516767973856209,9.10866339869281,0.7961143790849674,-0.0017185911401597642,-0.6953881626724764,-0.21605392156862746,2.875,-64.53986928104575
1589551705.6056426,-1.0790888197918076,-3.547158307421928,9.041930512369879,0.6855555555555556,0.05333333333333334,-0.7122222222222222,-0.4431948763012032,3.0653474381506016,-64.19956570231174
1589551705.6156425,-1.0275885691916227,-3.5508038102694592,9.03,0.6855555555555556,0.05333333333333334,-0.7122222222222222,-0.7650714425523586,2.584809486527044,-63.9561904645397
1589551705.6256425,-0.9728577067298204,-3.538286165383856,9.035428458654035,0.6855555555555556,0.05333333333333334,-0.7122222222222222,-0.5982213341227551,2.260711466350898,-63.88035573317545
1589551705.6356425,-0.8743848376170552,-3.419179783489407,8.959343826791525,0.6855555555555556,0.05333333333333334,-0.7122222222222222,-0.1549684117021983,2.8160884472338448,-63.9375
1589551705.6456425,-0.7898118619758712,-3.2232126887707753,9.037916139373998,0.6629152488352691,0.08729379341376303,-0.7122222222222222,-0.5730827638572513,2.35853792288872,-66.93026554458787
1589551705.6556425,-0.6860371583005599,-3.041909835906775,9.266344808880795,0.6411111111111111,0.12,-0.7122222222222222,-1.125,1.5,-69.8125
1589551705.6656425,-0.555285725484048,-3.036624990201458,8.883178647017324,0.6411111111111111,0.12,-0.7122222222222222,-0.6699777573097123,2.9156247550364505,-72.89653964490084
1589551705.6756425,-0.6403142601018216,-3.1628535426145494,9.05586421528001,0.6411111111111111,0.12,-0.7122222222222222,-1.071908352079563,2.5054801008067926,-79.93382651421612
1589551705.6856425,-0.7236931141291398,-3.30107934238742,9.18446032880629,0.6411111111111111,0.12,-0.7122222222222222,-1.2269180366928758,2.8029098165356205,-86.01979092208721
1589551705.6956425,-0.7629850928392752,-3.407462732098188,9.16,0.6206799174761998,0.1449005172425481,-0.7166915458298591,-0.4426300563340181,4.0307841512273495,-88.73834043440239
1589551705.7056425,-0.7969272258895508,-3.5515633553373047,9.007654966994043,0.6055555555555555,0.16333333333333333,-0.72,-0.4664758090484624,3.663241124617614,-90.30306613266785
1589551705.7156425,-0.8088751804087714,-3.490123376321058,9.104252525722798,0.6055555555555555,0.16333333333333333,-0.72,-1.1171987755482098,3.1671807346710743,-90.65937951021928
1589551705.7256424,-0.6949655451965951,-3.382663153627888,8.898779894608836,0.6055555555555555,0.16333333333333333,-0.72,-0.8556698419132549,3.6227452371301174,-90.0791447101743
1589551705.7356424,-0.8028137581116606,-3.4996367446734196,9.06786661029101,0.6055555555555555,0.16333333333333333,-0.72,-0.5566380039340404,3.7301436660109935,-89.10448301376914
1589551705.7456424,-1.0645808999203612,-3.9446120918502787,9.1027173480223,0.597372319558741,0.17788130843878122,-0.7372757204377194,0.32967837470135397,5.028630624502257,-83.9309940768516
1589551705.7556424,-1.161520949382417,-4.1256817631387745,8.964877694356987,0.5955555555555555,0.1811111111111111,-0.7411111111111112,0.1779940663598934,4.6224872850569145,-75.97487285056914
1589551705.7656424,-1.2142394495684925,-4.331197247842463,9.27951422046917,0.5955555555555555,0.1811111111111111,-0.7411111111111112,0.8114879593107743,4.32150086004923,-63.28166426940301
1589551705.7756424,-4.643143571726315,-9.43214176541813,10.17186069592489,0.5955555555555555,0.1811111111111111,-0.7411111111111112,-11.991308382460945,16.689188451537348,-83.41724726572579
1589551705.7856424,-1.8145650206825232,-7.912136278438469,10.6783271393485,0.5955555555555555,0.1811111111111111,-0.7411111111111112,-80.22264615111169,-23.289188736103924,-337.5100393048733
1589551705.7956424,1.4121150720554774,-4.5210987105861955,8.69688373604941,0.5857728657251898,0.19823081831425096,-0.7320271848400574,-147.88800249214432,-48.87090286054827,-636.9247548488461
1589551705.8056424,-3.033839501206758,-6.937005631536605,5.069221238938053,0.5644444444444444,0.23555555555555555,-0.7122222222222222,-115.10807019308126,59.90272777554304,-607.9055636564763
1589551705.8156424,-0.16241487896083484,-3.036980909269829,5.718945089549301,0.5644444444444444,0.23555555555555555,-0.7122222222222222,-42.49077445384766,82.42139834678213,-393.12041182838027
1589551705.8256423,1.5806768817489352,0.04329003410918464,6.080213314953254,0.5644444444444444,0.23555555555555555,-0.7122222222222222,28.092557614477847,22.811072892918368,-246.38675154198256
1589551705.8356423,0.4785238429172511,-0.9627489481065918,8.158551893408134,0.5644444444444444,0.23555555555555555,-0.7122222222222222,86.97762535063114,28.643977910238426,-202.89009905329593
1589551705.8456423,-0.31319448805807487,-1.53792009161941,10.362062914457765,0.505416915520911,0.34225916553271224,-0.6912220436628882,146.67157858765722,53.708091277684396,-187.68251149860538
1589551705.8556423,0.028166719897796177,-2.7562983072500797,7.667683026367152,0.4488888888888889,0.4444444444444444,-0.6711111111111111,95.45371109691614,42.14279915894815,-142.68985547748323
1589551705.8656423,1.3663191737684701,-4.003949483605294,7.480902204311731,0.4488888888888889,0.4444444444444444,-0.6711111111111111,-20.455869723194823,-2.3738727951377427,-79.61058994516748
1589551705.8756423,2.8068862438175985,-3.8500353280069572,11.145789445078536,0.4488888888888889,0.4444444444444444,-0.6711111111111111,-4.060502608837439,-7.970229360291318,-49.71359516821566
1589551705.8856423,2.4359234355018358,-2.9733975496060396,9.2865591353492,0.4488888888888889,0.4444444444444444,-0.6711111111111111,12.008216967121818,6.7576600594034915,-35.30276313889691
1589551705.8956423,2.820729259742938,-3.397239672829748,9.41122413911609,0.3940031770033832,0.4556076400821744,-0.6878559045677061,-5.451173620180082,-2.1996271221389794,-10.598142484019519
1589551705.9056423,2.99,-3.56,9.74,0.38333333333333336,0.4577777777777778,-0.6911111111111111,-8.625,-4.875,-6.875
1589551705.9156423,2.8909982399453593,-3.0497601597183914,9.016525599600703,0.38333333333333336,0.4577777777777778,-0.6911111111111111,-0.48591299550792044,-1.1624339979509815,11.307054010034939
1589551705.9256423,1.8724569822741028,-3.5436255944660613,8.640802853437094,0.38333333333333336,0.4577777777777778,-0.6911111111111111,0.2419395806312148,-0.13321173800259403,19.131387808041506
1589551705.9356422,1.5355564166594908,-3.9575019374838543,8.858614770802836,0.38333333333333336,0.4577777777777778,-0.6911111111111111,-0.03905644536295533,-0.39236380206090876,19.615880371135795
1589551705.9456422,1.6176882661996497,-4.155096322241681,9.242504378283712,0.38246935201401056,0.45824576765907765,-0.6908951157812804,0.6128502626970228,-0.6591506129597198,18.989601576182135
1589551705.9556422,1.2135669272357863,-3.95895933055546,8.938598436585282,0.3566666666666667,0.4722222222222222,-0.6844444444444444,0.3259022349254451,-0.41971787940356076,16.281184355521884
1589551705.9656422,1.2050225064567703,-4.0599099741729185,8.862173656376829,0.3566666666666667,0.4722222222222222,-0.6844444444444444,0.1402733366129627,-0.5308280039355553,15.280265342516296
1589551705.9756422,1.1186684098083608,-3.968964318739836,8.896553521890246,0.3566666666666667,0.4722222222222222,-0.6844444444444444,0.47476065017059405,-0.5009247154108606,14.681951707534836
1589551705.9856422,1.0639100180782481,-3.903767779786472,8.951018862775863,0.3566666666666667,0.4722222222222222,-0.6844444444444444,0.45112477402189854,-0.7273403656581505,14.47734036565815
1589551705.9956422,1.0841940948693127,-3.9314835430784125,8.912967086156824,0.3749674626223513,0.4809747768097236,-0.6931969990319458,-0.20524261858664083,-0.8209704743465633,14.929029525653437
1589551706.0056422,1.0878464152598115,-3.9816416356062265,8.906204779653585,0.38222222222222224,0.4844444444444445,-0.6966666666666667,-0.11313993641745232,-0.5640998410436308,15.334620286121465
1589551706.0156422,1.079825501301087,-3.994869125975815,8.895043624674729,0.38222222222222224,0.4844444444444445,-0.6966666666666667,0.25272654217051893,-0.4059773457829481,15.87772654217052
1589551706.0256422,1.0656613024893136,-3.968677395021373,8.809419160170984,0.38222222222222224,0.4844444444444445,-0.6966666666666667,0.27943487553432234,-0.5519157027910485,16.29364942167463
1589551706.0356421,1.1335528178725751,-3.96,8.835329226808863,0.38222222222222224,0.4844444444444445,-0.6966666666666667,0.20435896846556956,-0.7726153810793417,16.51685896846557
1589551706.0456421,1.192188931714057,-3.9778110682859427,8.972263835357428,0.3851907336032127,0.4799916773729588,-0.6932034033888445,0.15236164642571448,-0.7915106174096429,16.270053087048215
1589551706.0556421,1.141247104455099,-4.033545044802385,9.01437644777245,0.3888888888888889,0.4744444444444445,-0.6888888888888889,0.02475466429636014,-0.6275981342814559,15.121030409955287
1589551706.065642,1.0310688145809415,-4.060713978185993,8.960354836394949,0.3888888888888889,0.4744444444444445,-0.6888888888888889,0.04240590915614237,-0.5625,14.002217727468427
1589551706.075642,0.8767163339893168,-3.986716333989317,8.861014900196794,0.3888888888888889,0.4744444444444445,-0.6888888888888889,0.27052291256676975,-0.5625,13.855970621310092
1589551706.085642,0.9647649170798427,-3.9450094033168064,8.90489656351513,0.3888888888888889,0.4744444444444445,-0.6888888888888889,0.3128526243802359,-0.7496473756197641,14.592750897589331
1589551706.095642,1.0537653354767746,-3.953176241644809,9.00282278534563,0.3929149627248028,0.47920253170507005,-0.686692848614754,0.08382424485997123,-1.0198515102800576,15.310290898130129
1589551706.105642,0.9364270770540052,-3.9836310769121663,9.046427077054005,0.4011111111111111,0.4888888888888889,-0.6822222222222222,-0.045388461402077945,-0.9832519236906493,15.982524999113506
1589551706.115642,0.824257538874261,-3.9483004620199713,8.809158924934174,0.4011111111111111,0.4888888888888889,-0.6822222222222222,-0.08776826966068857,-0.8483903820358687,17.616951910179342
1589551706.125642,0.9073230193069848,-3.9946594916918152,8.858651419845106,0.4011111111111111,0.4888888888888889,-0.6822222222222222,-0.12082772788423082,-1.145819319710577,19.39573523797404
1589551706.135642,0.9740903872247156,-4.0405343909821525,8.987379187976202,0.4011111111111111,0.4888888888888889,-0.6822222222222222,0.18249008454232335,-1.148059962425634,21.17915014090387
1589551706.145642,0.8570552893342046,-3.9894471066579538,8.9447836346475,0.3994751607412248,0.48725293851900253,-0.6828766023701767,0.7350511417265665,-0.7572866750163363,22.73197106657954
1589551706.155642,0.8387358006595822,-4.050783836903294,9.07337552883174,0.3955555555555556,0.4833333333333333,-0.6844444444444444,0.23719977347679802,-0.6634006795696059,23.546301925447217
