time,acc_x,acc_y,acc_z,mag_x,mag_y,mag_z,gyr_x,gyr_y,gyr_z
1589551726.4520245,-0.44,-4.09,9.07,0.4955555555555556,0.21777777777777774,-0.6533333333333333,0.0,-0.3125,0.125
1589551726.4620245,-0.45235402572072897,-4.087062077162187,9.054689614189066,0.5011111111111111,0.21777777777777774,-0.6555555555555556,-0.09557467849088803,-0.14336201773633206,0.029425321509111965
1589551726.4720244,-0.45874504784543185,-4.106235143536296,8.958824282318522,0.5011111111111111,0.21777777777777774,-0.6555555555555556,-0.01568690193210215,-0.023530352898153223,0.10931309806789785
1589551726.4820244,-0.45196840449866565,-4.101968404498665,8.988189573008006,0.5011111111111111,0.21777777777777774,-0.6555555555555556,0.10039494376667937,0.3513823031833778,0.024605056233320627
1589551726.4920244,-0.452146192893401,-4.091415228426396,9.006438578680203,0.5011111111111111,0.21777777777777774,-0.6555555555555556,0.1518274111675127,0.41737944162436547,0.013413705583756345
1589551726.5020244,-0.4691788832487309,-4.023284467005076,9.057536649746194,0.5011111111111111,0.21777777777777774,-0.6555555555555556,0.36473604060913706,0.2576979695431472,0.11986802030456853
1589551726.5120244,-0.46919518213103045,-4.006815141873904,9.01,0.5011111111111111,0.20555555555555555,-0.6533333333333333,0.75,0.9075344133497825,-0.11750860333744562
1589551726.5220244,-0.4104662751379249,-4.159300587293113,9.019766862431037,0.5011111111111111,0.20555555555555555,-0.6533333333333333,0.5058284392240612,0.7601997686421071,-0.34010722548496175
1589551726.5320244,-0.3995323221736637,-4.19635488144911,9.03,0.5011111111111111,0.20555555555555555,-0.6533333333333333,0.2897180090569321,0.3522180090569321,-0.5595770135853981
1589551726.5420244,-0.4339341550943985,-4.196065844905601,9.034644718364799,0.5011111111111111,0.20555555555555555,-0.6533333333333333,0.36048525511000157,0.5391032142299891,-0.6875
1589551726.5520244,-0.47304298982928444,-4.15,9.060435515256074,0.5061356184566279,0.21483156911650964,-0.6394193129919021,0.26901868643302773,0.7228154025155971,-0.6875
1589551726.5620244,-0.46,-4.146404862619565,9.083595137380435,0.5155555555555555,0.23222222222222225,-0.6133333333333333,0.09762156548912007,0.3026823482336801,-0.5526823482336801
1589551726.5720243,-0.4646841340240766,-4.121263463903693,9.015053855614774,0.5155555555555555,0.23222222222222225,-0.6133333333333333,-0.003948324699042154,0.20887918825239463,-0.25394832469904216
1589551726.5820243,-0.4749097961722838,-4.104909796172284,8.939819592344568,0.5155555555555555,0.23222222222222225,-0.6133333333333333,0.12387245215354778,0.3136275478464522,-0.12612754784645222
1589551726.5920243,-0.48,-4.095425288551524,8.988865897195938,0.5155555555555555,0.23222222222222225,-0.6133333333333333,0.21786398218432637,0.25,0.0285919465529791
1589551726.6020243,-0.48,-4.084610126201923,9.043830378605769,0.5155555555555555,0.22556315104166666,-0.6297248931623931,0.22118671123798078,0.1635601337139423,0.125
1589551726.6120243,-0.4705271469522976,-4.085263573476149,9.036317867380744,0.5155555555555555,0.21777777777777774,-0.6488888888888888,0.1875,0.1809106630962803,0.09539733422592993
1589551726.6220243,-0.45191759226083844,-4.08,8.997876388391258,0.5155555555555555,0.21777777777777774,-0.6488888888888888,0.2632725725546399,0.28724247581512,0.08775752418487998
1589551726.6320243,-0.45020007656505007,-4.09020007656505,9.005500191412626,0.5155555555555555,0.21777777777777774,-0.6488888888888888,0.2793742822026556,0.3137504785315629,0.06124952146843707
1589551726.6420243,-0.46424684932167043,-4.091506301356659,9.046987397286681,0.5155555555555555,0.21777777777777774,-0.6488888888888888,0.26712842478132004,0.5342568495626401,0.02654280826044001
1589551726.6520243,-0.46623292954986134,-4.076232929549861,9.077534140900278,0.5126256118721144,0.22321910176131138,-0.6354948606217292,0.4220883806267331,0.7970883806267332,0.08604419031336655
1589551726.6620243,-0.46930778739184176,-4.07,9.09465389369592,0.5077777777777778,0.23222222222222225,-0.6133333333333333,0.47091316440049447,0.9040868355995055,0.09591316440049444
1589551726.6720243,-0.48603599733671254,-4.076035997336713,8.997388045275887,0.5077777777777778,0.23222222222222225,-0.6133333333333333,0.5506749500633605,1.088399933417814,0.17567495006336048
1589551726.6820242,-0.4851758205644333,-4.075175820564433,8.9589450766134,0.5077777777777778,0.23222222222222225,-0.6133333333333333,0.5646977570554164,1.0668955141108327,0.1595466355831245
1589551726.6920242,-0.48,-4.077659827534939,9.005319655069878,0.5077777777777778,0.23222222222222225,-0.6133333333333333,0.4281891168599465,0.793878233719893,0.014626077906630987
1589551726.7020242,-0.48,-4.09,9.044388157262327,0.5077777777777778,0.22902485394170488,-0.623458332888305,0.2225740171104489,0.44259868948059855,-0.0625
1589551726.7120242,-0.4748428909667322,-4.0848428909667325,9.065157109033269,0.5077777777777778,0.2255555555555556,-0.6344444444444445,0.15723193145792366,0.2802680685420763,-0.03026806854207633
1589551726.7220242,-0.4644590347574447,-4.085540965242555,9.003508417089336,0.5077777777777778,0.2255555555555556,-0.6344444444444445,0.1875,0.35389309829791205,0.0
1589551726.7320242,-0.4655891104139257,-4.09,8.977945552069627,0.5077777777777778,0.2255555555555556,-0.6344444444444445,0.22243194008703573,0.4724319400870357,-0.03493194008703573
1589551726.7420242,-0.4655450666548759,-4.085545066654876,9.013364800035372,0.5077777777777778,0.2255555555555556,-0.6344444444444445,0.2778433334070258,0.5556866668140517,-0.09034333340702584
1589551726.7520242,-0.4814502894217925,-4.074637427644552,9.03,0.5042027295408124,0.22138466594576256,-0.6332527616987893,0.14491961389224603,0.5914839227784492,-0.024451768335347623
1589551726.7620242,-0.490930575581299,-4.074534712209351,9.03453471220935,0.5011111111111111,0.21777777777777774,-0.6322222222222222,-0.08502585392532193,0.39244829214935617,0.09084195130844064
1589551726.7720242,-0.4836164891900613,-4.08,9.007451597289448,0.5011111111111111,0.21777777777777774,-0.6322222222222222,-0.21010305743788318,0.029278597934817685,0.057190827686350434
1589551726.7820241,-0.48567420289855073,-4.08,8.967303188405797,0.5011111111111111,0.21777777777777774,-0.6322222222222222,-0.27703623188405796,-0.38518115942028985,-0.0625
1589551726.7920241,-0.48224340261560017,-4.075513194768799,8.9967302078468,0.5011111111111111,0.21777777777777774,-0.6322222222222222,-0.29847873365249883,-0.5765212663475011,-0.034457467304997665
1589551726.8020241,-0.4868392482625324,-4.063160751737468,9.03264300694987,0.5077838092235427,0.22023614024025256,-0.6322222222222222,-0.25,-0.5459812065633096,0.042745301640827404
1589551726.812024,-0.47430996624389604,-4.078535050634156,9.071380067512209,0.5222222222222223,0.2255555555555556,-0.6322222222222222,-0.25,-0.35721864451217517,0.01778135548782486
1589551726.822024,-0.47008676898384993,-4.0798264620323,9.0394793860969,0.5222222222222223,0.2255555555555556,-0.6322222222222222,-0.25,-0.3125,0.030978846925468956
1589551726.832024,-0.48880096827318004,-4.06880096827318,8.98,0.5222222222222223,0.2255555555555556,-0.6322222222222222,-0.16749092243893726,-0.17498487073156213,0.027503025853687576
1589551726.842024,-0.5,-4.08,8.995958411834485,0.5222222222222223,0.2255555555555556,-0.6322222222222222,-0.12234404437931756,-0.03989602958621171,0.0625
1589551726.852024,-0.48876794894522246,-4.08,9.052464102109555,0.5122381768401978,0.22264354231913175,-0.6409582619314936,-0.25,-0.2420005318205992,0.015699787271760322
1589551726.862024,-0.47,-4.0757322511044904,9.064393506626939,0.4955555555555556,0.21777777777777774,-0.6555555555555556,-0.22332656940306175,-0.3841531388061235,-0.03582656940306175
1589551726.872024,-0.474178416324588,-4.065821583675412,9.000751085727885,0.4955555555555556,0.21777777777777774,-0.6555555555555556,-0.21361510202867512,-0.39084530608602536,0.026115102028675116
1589551726.882024,-0.4843751711190206,-4.06437517111902,8.95562482888098,0.4955555555555556,0.21777777777777774,-0.6555555555555556,-0.3320344584816365,-0.5546896389877577,0.035155180506121174
1589551726.892024,-0.47899175279256706,-4.075504123603717,8.974768556216723,0.4955555555555556,0.21777777777777774,-0.6555555555555556,-0.5235019313080698,-0.7282023175696837,0.0
1589551726.902024,-0.45876065441324987,-4.09,9.04,0.49912471105725,0.21777777777777774,-0.6451725577324446,-0.7682513633609371,-1.109508180165623,0.0
1589551726.912024,-0.47271558346634046,-4.0827155834663404,9.03635779173317,0.5077777777777778,0.21777777777777774,-0.62,-1.0173742150091738,-1.5571104133414877,-0.022763801667685973
1589551726.922024,-0.46020256865406706,-4.070202568654067,9.030101284327033,0.5077777777777778,0.21777777777777774,-0.62,-1.3693027566043647,-1.8699357836483241,-0.06186697295604051
1589551726.932024,-0.40430304471931494,-3.938497859181732,8.945805185537584,0.5077777777777778,0.21777777777777774,-0.62,-2.1108765461465273,-3.0356059705042817,-0.0618235608943863
1589551726.942024,-0.31117337077051416,-3.7691067976967996,9.044133146147429,0.5077777777777778,0.21777777777777774,-0.62,-2.948665028790006,-4.086581110500722,-0.6361650287900059
1589551726.952024,-0.3216873783500524,-3.712650097319958,9.126024854020063,0.5024764186255427,0.22404302041223734,-0.6171083495533263,-3.5730461146878274,-4.912655337625393,-1.6942936816888756
1589551726.962024,-0.39257387768304797,-3.647426122316952,9.117426122316951,0.4955555555555556,0.23222222222222225,-0.6133333333333333,-3.4839132644809503,-4.626087370901781,-3.002934312977981
1589551726.972024,-0.3990739651823738,-3.5636109477735607,9.05680547388678,0.4955555555555556,0.23222222222222225,-0.6133333333333333,-3.056712282389836,-3.728441670675861,-3.7416096470127047
1589551726.982024,-0.34194175451134534,-3.484627836340897,8.993139181704484,0.4955555555555556,0.23222222222222225,-0.6133333333333333,-2.4646038056101482,-2.6642397713060566,-4.175364034304091
1589551726.992024,-0.3242780588868083,-3.4229413522451093,8.937112235547234,0.4955555555555556,0.23222222222222225,-0.6133333333333333,-1.580548527829794,-1.4558834515319337,-4.446189340212758
1589551727.002024,-0.3644933302892926,-3.0193783633932356,9.033298326864747,0.4979509257145342,0.23557574044479235,-0.6253101841282266,-1.6530833143080788,-1.4128228857506278,-5.217854114347216
1589551727.012024,-0.37784444104201753,-2.57,9.076407401736695,0.5011111111111111,0.24,-0.6411111111111111,-2.473425982633041,-2.1094676174019553,-6.133981495658261
1589551727.022024,-0.32612377024629635,-2.550899016197037,9.049100983802962,0.5011111111111111,0.24,-0.6411111111111111,-3.1165717231527776,-2.4020358615763886,-4.906962076354169
1589551727.032024,-0.28054332458089276,-2.5689133508382143,9.26943092304585,0.5011111111111111,0.24,-0.6411111111111111,-2.917286280549384,-2.469598944657645,-3.133489446576449
1589551727.042024,-0.26,-2.61,9.48,0.5011111111111111,0.24,-0.6411111111111111,-2.5,-2.4375,-2.8125
1589551727.052024,-0.2758373570520966,-2.7129428208386277,9.004879288437104,0.5011111111111111,0.24,-0.6411111111111111,0.5684879288437101,0.7794631512071155,-1.4267312579415503
1589551727.0620239,-0.27,-2.8221748316647908,9.064136405821142,0.5077777777777778,0.20555555555555555,-0.6133333333333333,-0.8125,-0.9375,4.8125
1589551727.0720239,-0.27,-2.838739016251012,9.171803605631577,0.5077777777777778,0.20555555555555555,-0.6133333333333333,-0.8125,-0.9375,4.8125
1589551727.0820239,-0.2961481124442685,-2.8815556626671945,8.929259437778658,0.5077777777777778,0.20555555555555555,-0.6133333333333333,0.5527771083300339,-0.05787148611661014,9.56065160696149
1589551727.0920238,-0.28170766555920884,-2.924877003322374,9.001461672203956,0.5077777777777778,0.20555555555555555,-0.6133333333333333,0.2820187292351655,-0.5091354512747241,10.959569898951644
1589551727.1020238,-0.2551934742917722,-2.9870163142705697,9.115193474291772,0.5097974622245781,0.21074902984732774,-0.6205464920719058,-0.027622357029271447,-0.7289335355439072,12.42852567877967
1589551727.1120238,-0.282316206113025,-2.986948618339075,9.10536758777395,0.5155555555555555,0.2255555555555556,-0.6411111111111111,0.17302371179359377,-0.38947628820640623,13.296722678296563
1589551727.1220238,-0.2878093087699492,-3.033904654384975,9.036475599117361,0.5155555555555555,0.2255555555555556,-0.6411111111111111,0.02440408990609124,-0.4619040899060912,14.136315235798225
1589551727.1320238,-0.2614369469026549,-3.02095796460177,8.959521017699116,0.5155555555555555,0.2255555555555556,-0.6411111111111111,-0.06848727876106195,-0.3929618362831858,14.901942754424779
1589551727.1420238,-0.29308927510682736,-3.064714200854619,8.980892751068273,0.5155555555555555,0.2255555555555556,-0.6411111111111111,-0.14888406116465785,-0.7886159388353421,15.591963755341368
1589551727.1520238,-0.305778986694632,-3.1180736711017896,9.040368355508948,0.5155555555555555,0.2255555555555556,-0.6411111111111111,-0.0625,-0.8629604443861834,16.021776889296717
1589551727.1620238,-0.3337592858073765,-3.1363150006516354,9.045111429688518,0.5155555555555555,0.2255555555555556,-0.6411111111111111,-0.08599553629610322,-0.9534732177766193,16.656946435553238
1589551727.1720238,-0.3529818958952566,-3.1832454739738143,9.08105431231423,0.5155555555555555,0.2255555555555556,-0.6411111111111111,-0.0641473629909848,-1.1063631506546463,17.408978972708738
1589551727.1820238,-0.39711570815857444,-3.193423141631715,9.023961991422004,0.5155555555555555,0.2255555555555556,-0.6411111111111111,0.08389463519821805,-0.8733160944053459,18.385103433567924
1589551727.1920238,-0.43567508649827,-3.2,9.07,0.5155555555555555,0.2255555555555556,-0.6411111111111111,0.14273464530709384,-0.7677346453070939,19.515162196756066
1589551727.2020237,-0.45261747688891735,-3.203926215333376,9.072617476888917,0.5145376478765321,0.22453764787653216,-0.643874003382746,0.17932038472213327,-0.8370388458336002,20.761747688891734
1589551727.2120237,-0.4695264319293869,-3.23,9.091183920176533,0.5077777777777778,0.21777777777777774,-0.6622222222222223,0.12647990022066583,-0.9985200997793342,22.55327640794397
1589551727.2220237,-0.4534301064952509,-3.23,9.131424733761873,0.5077777777777778,0.21777777777777774,-0.6622222222222223,0.17678091720234096,-0.948219082797659,24.364113019284275
1589551727.2320237,-0.47,-3.239019739753917,8.968822342214748,0.5077777777777778,0.21777777777777774,-0.6622222222222223,0.1875,-1.0870065061520757,26.871298796140568
1589551727.2420237,-0.47,-3.231594228556254,9.035651942993717,0.5077777777777778,0.21777777777777774,-0.6622222222222223,0.1875,-1.272644286093653,28.263582145702397
1589551727.2520237,-0.49305945974888227,-3.217223783899553,9.005552432200894,0.5097828227392118,0.21885741737239606,-0.6603714114885909,0.22220270125558858,-1.3402972987444115,30.984243233475222
1589551727.2620237,-0.4623580874358391,-3.2098864699486716,9.020227060102657,0.5222222222222223,0.2255555555555556,-0.6488888888888888,0.3911571721156034,-1.2949237022427875,32.76189979519078
1589551727.2720237,-0.504210289589316,-3.248420579178632,8.985261737535897,0.5222222222222223,0.2255555555555556,-0.6488888888888888,0.13158560530048785,-1.957228704632737,34.05261456423209
1589551727.2820237,-0.5187219319793793,-3.2774438639587586,9.072331591876276,0.5222222222222223,0.2255555555555556,-0.6488888888888888,-0.27655433692004294,-2.4560664117911637,35.09563886101789
1589551727.2920237,-0.5146259127728343,-3.267687043613583,9.05761861059016,0.5222222222222223,0.2255555555555556,-0.6488888888888888,0.7164119548302142,-1.0914119548302144,37.351619548302146
1589551727.3020236,-0.5289116296863046,-3.2621767406273907,8.969590665646518,0.5222222222222223,0.2247090453115702,-0.6496144690980192,0.7104652830910482,-1.3303486036725325,38.42813934583015
1589551727.3120236,-0.5251960256291206,-3.290392051258241,9.13519602562912,0.5222222222222223,0.21777777777777774,-0.6555555555555556,-0.14123758009100196,-2.4837624199089983,39.55361338100102
1589551727.3220236,-0.54,-3.3187410267237736,9.138039753875853,0.5222222222222223,0.21777777777777774,-0.6555555555555556,-0.1481570851179345,-2.3981570851179344,40.097908623393856
1589551727.3320236,-0.5479178800232964,-3.3158357600465926,8.98375364006989,0.5222222222222223,0.21777777777777774,-0.6555555555555556,0.4045088332362648,-1.8125,40.657991166763736
1589551727.3420236,-0.5876727549467275,-3.364418188736682,9.061045471841705,0.5222222222222223,0.21777777777777774,-0.6555555555555556,0.3263068398021309,-1.7158521213850837,40.76380683980213
1589551727.3520236,-0.6502066356228172,-3.379380093131548,9.099586728754366,0.5222222222222223,0.217410425559436,-0.6558081102056655,0.38791472642607683,-1.3685426367869615,40.82283178114086
1589551727.3620236,-0.658925868950607,-3.353222393148179,9.082148262098785,0.5222222222222223,0.20190956631003198,-0.6664649509396309,0.9328668094129386,-1.0960665952935307,41.25879344753035
1589551727.3720236,-0.6892541511659559,-3.355711369204246,9.135711369204246,0.5222222222222223,0.2,-0.6677777777777778,0.4375,-1.873834611196806,41.76281927683513
1589551727.3820236,-0.6511968060974503,-3.1368816350603392,8.916881635060339,0.5222222222222223,0.2,-0.6677777777777778,0.4375,-1.8143700095272661,42.41692989520007
1589551727.3920236,-0.674723730244903,-3.185929947319741,9.046482486829936,0.5222222222222223,0.2,-0.6677777777777778,0.5700388567177384,-1.690953371938714,43.19095337193871
1589551727.4020236,-0.6521895845858742,-3.1243791691717484,9.036295055684388,0.5232866036181333,0.19963506923568763,-0.6682339412331683,0.31763183887314267,-1.984604483380572,43.50342122591543
1589551727.4120235,-0.7247286035539485,-3.262428678513162,9.219585960580272,0.5611111111111111,0.18666666666666668,-0.6844444444444444,0.6537490630098329,-1.1739301776974294,43.73482075929274
1589551727.4220235,-0.6974679908836554,-3.176623987844874,9.011431933146806,0.5611111111111111,0.18666666666666668,-0.6844444444444444,1.3538999240304619,-0.027175322870536783,44.20779984806092
1589551727.4320235,-0.6741529396505401,-3.145537252867387,8.840454890770628,0.5611111111111111,0.18666666666666668,-0.6844444444444444,1.1596078304211677,-0.8529167207100372,43.81921566084234
1589551727.4420235,-0.7363871142602703,-3.18,9.220387385294458,0.5611111111111111,0.18666666666666668,-0.6844444444444444,-0.32983892825337824,-2.9157265168234794,42.55120973206334
1589551727.4520235,-0.7201471328454717,-3.18,8.952427691950284,0.5611111111111111,0.18666666666666668,-0.6844444444444444,-0.12683916056839742,-2.2559772718472915,42.5004597901421
1589551727.4620235,-0.7665175581694857,-3.2599105349016915,9.126696488366104,0.5277777777777778,0.16666666666666666,-0.7033333333333334,0.1255591568644286,-2.2287938954237143,41.51200094444921
1589551727.4720235,-0.8385412552588649,-3.303124753155319,9.112291748948227,0.5277777777777778,0.16666666666666666,-0.7033333333333334,-0.14452970722074354,-2.4088531381471623,40.74674916287456
1589551727.4820235,-0.8077586078494651,-3.2403448104659534,8.756810317007174,0.5277777777777778,0.16666666666666666,-0.7033333333333334,0.7882543504704218,-0.8631463644713651,40.050107985999055
1589551727.4920235,-0.8560663905167313,-3.3086887968389105,8.926381735926851,0.5277777777777778,0.16666666666666666,-0.7033333333333334,0.44470956535018225,-1.7970954148930078,38.91192948632294
1589551727.5020235,-0.8320472636341076,-3.300682421211369,9.270655887911124,0.5277777777777778,0.16666666666666666,-0.7033333333333334,-0.6561670834367306,-2.8479322160077882,37.6108934468475
1589551727.5120234,-0.9096611577111535,-3.2920338842288848,9.116779337264347,0.5375141414980299,0.16135592281925643,-0.7316573005195213,-0.0031766464579353615,-1.6927944107632256,36.60381197574952
1589551727.5220234,-0.9491360593450334,-3.2925918219648995,8.950367287859597,0.54,0.16,-0.7388888888888889,0.035501854532296,-1.866496290935408,35.01700741812918
1589551727.5320234,-0.9415473131897955,-3.315358060430613,9.041432241722454,0.54,0.16,-0.7388888888888889,-0.2016464628188891,-2.3407929256377784,34.06841414872444
1589551727.5420234,-1.0112589310661397,-3.419685267233465,9.134020077435837,0.54,0.16,-0.7388888888888889,-0.060532920209156585,-1.611230441464096,32.78496088292819
1589551727.5520234,-1.0447423462260008,-3.4113144134435,8.974973855426494,0.54,0.16,-0.7388888888888889,-0.008215084021873625,-1.2450055881531155,32.05251117630623
1589551727.5620234,-1.1688771610555049,-3.534795268425842,9.330356687898089,0.54,0.15444444444444444,-0.7322222222222222,-0.05804140127388535,-1.6323475887170154,30.768494085532303
1589551727.5720234,-1.2076582104394558,-3.59721515773438,9.324493578486344,0.54,0.15444444444444444,-0.7322222222222222,0.8239717114867867,0.297073027526818,30.875
1589551727.5820234,-1.092291221462878,-3.3842299473160824,8.712161098533736,0.54,0.15444444444444444,-0.7322222222222222,2.0996643780547153,1.9055550853733365,30.875
1589551727.5920234,-1.1724490250696378,-3.53573704735376,9.432880222841225,0.54,0.15444444444444444,-0.7322222222222222,-0.10799442896935929,-1.7841573816155987,29.38633704735376
1589551727.6020234,-1.0898954286336735,-3.32820413202135,9.167306198032025,0.54,0.15444444444444444,-0.7322222222222222,-0.3558195054645801,-1.128651374314658,28.64352692349588
1589551727.6120234,-1.013222560863658,-3.156445121727316,8.799335365181948,0.5267192580896543,0.14116370253409877,-0.7577621105113486,0.3145769838064114,-0.5151057540483972,27.80035251349466
1589551727.6220233,-1.0778092006747921,-3.172603066891597,8.877946623196921,0.5255555555555556,0.14,-0.76,-0.9906019580340051,-1.9126916807248326,27.13783360501924
1589551727.6320233,-1.07457059110894,-3.0945705911089396,9.097998534440645,0.5255555555555556,0.14,-0.76,-1.2482260625305326,-2.9893105764533465,26.973207743038593
1589551727.6420233,-1.1242893351907748,-3.138793437040477,9.13252050924851,0.5255555555555556,0.14,-0.76,-0.7019108911848928,-1.848191655057658,27.353048090318087
1589551727.6520233,-1.2297879421097437,-3.2037156566829195,8.929638572865878,0.5255555555555556,0.14,-0.76,-0.3468675025152852,-1.1888253618141011,28.11385535175296
1589551727.6620233,-1.3219611284281112,-3.3389708463210837,9.10365062734107,0.56,0.10777777777777778,-0.7744444444444445,-0.059587578908767064,-0.500607368310763,30.005217473871703
1589551727.6720233,-1.3855413847873403,-3.3743948467556915,8.857834460850638,0.56,0.10777777777777778,-0.7744444444444445,0.18710144714394963,0.32563606682746044,32.22352858991705
1589551727.6820233,-1.3658023413141949,-3.3053081945996823,8.93679063474322,0.56,0.10777777777777778,-0.7744444444444445,-0.368059150538267,-0.7230006176833932,34.04322166009765
1589551727.6920233,-1.35,-3.25,9.0,0.56,0.10777777777777778,-0.7744444444444445,-0.8125,-1.5625,35.5
1589551727.7020233,-1.3718858513189447,-3.2791811350919264,8.978114148681057,0.56,0.10777777777777778,-0.7744444444444445,-0.17416266986410878,-0.7417805755395683,36.822270183852915
1589551727.7120233,-1.2886399565843185,-3.201360043415682,9.095440173662727,0.5455555555555556,0.06222222222222223,-0.7744444444444445,-0.7925013567400486,-1.8125,37.855495387083835
1589551727.7220232,-1.3023147520051075,-3.2312521447667693,9.132125214476678,0.5455555555555556,0.06222222222222223,-0.7744444444444445,-1.0558587047603847,-1.7394457523642313,36.73826114281154
1589551727.7320232,-1.4780465663780376,-3.398615777502893,9.14886157775029,0.5455555555555556,0.06222222222222223,-0.7744444444444445,-1.003557569530346,-1.1641332648338056,35.16922708591038
1589551727.7420232,-1.3444876393601553,-3.139526514784295,9.009053029568589,0.5455555555555556,0.06222222222222223,-0.7744444444444445,-0.3612190984003878,0.3400618031992244,33.72636936500243
1589551727.7520232,-1.2631633543383423,-2.9850103732428503,8.7000207464857,0.5455555555555556,0.06222222222222223,-0.7744444444444445,-0.15790838584585554,0.7466832283082889,32.4556774115366
1589551727.7620232,-1.3980708749859596,-2.9896141749971923,9.2620262832753,0.5378778064822095,0.016155727782145843,-0.7393461629662911,-2.3460631247893966,-2.395702291362462,29.658759687745704
1589551727.7720232,-1.5097331946109895,-3.063155463073993,9.094426888622417,0.5377777777777778,0.015555555555555557,-0.7388888888888889,-1.8263340269450519,-1.614501040417578,29.122056191366298
1589551727.7820232,-1.8024462334675102,-3.36489246693502,9.116575273145486,0.5377777777777778,0.015555555555555557,-0.7388888888888889,-1.4755376653248993,-0.6355175388154112,30.27788959171938
1589551727.7920232,-1.8481695928277924,-3.457123645872245,9.050522973477774,0.5377777777777778,0.015555555555555557,-0.7388888888888889,-0.9975485618229362,0.3651942472917445,33.2843201344789
1589551727.8020232,-1.7191397306027378,-3.2543624338043027,9.087388648399218,0.5377777777777778,0.015555555555555557,-0.7388888888888889,-0.8247407106286668,-0.3260371574853326,35.703630051198665
1589551727.8120232,-1.7243967491688215,-3.24,9.140388622090876,0.554573985141403,0.0019586257850018485,-0.7644831096334607,-1.3073882526782414,-1.5897257111193202,37.40465459918729
1589551727.8220232,-1.7416704279235713,-3.198329572076429,9.129142218496787,0.5611111111111111,-0.0033333333333333327,-0.7744444444444445,-1.4817296945859393,-1.38022008726116,40.41690174522321
1589551727.8320231,-1.7777294904034218,-3.1622705095965786,8.89475831237776,0.5611111111111111,-0.0033333333333333327,-0.7744444444444445,-1.0873336987125755,-1.4929046575106928,42.670593150213854
1589551727.8420231,-1.7605978327944116,-3.169701083602794,9.044918421247502,0.5611111111111111,-0.0033333333333333327,-0.7744444444444445,-1.3050270900698542,-2.5913719053143436,45.54092976328586
1589551727.8520231,-1.789325221836246,-3.2213191382134307,9.1453069709678,0.5611111111111111,-0.0033333333333333327,-0.7744444444444445,-1.449961977357404,-2.716641318238269,47.22872306916971
1589551727.862023,-1.8171514165074423,-3.1671514165074424,9.112878541268605,0.5011111111111111,-0.09555555555555556,-0.76,-0.5758527351213644,-1.9775582053640932,50.329929174627885
1589551727.872023,-1.7754506817779352,-3.1214700283336283,9.023411988666549,0.5011111111111111,-0.09555555555555556,-0.76,-0.8388538715247034,-2.61373295555162,52.29412464582965
1589551727.882023,-1.7011758455817247,-2.982204710465734,9.079118115813706,0.5011111111111111,-0.09555555555555556,-0.76,-2.2895342659819375,-4.47060386045688,54.03494111917833
1589551727.892023,-1.6200324896656757,-2.86,9.190194937994052,0.5011111111111111,-0.09555555555555556,-0.76,-1.2463449126115018,-4.058337261585321,56.56656120820944
1589551727.902023,-1.632199579374864,-2.86,9.263197476249184,0.5011111111111111,-0.09555555555555556,-0.76,0.12245267967220252,-2.4994288925955472,58.087447421858
1589551727.912023,-1.6520999959808689,-2.872099995980869,8.947000120573932,0.5031277771079226,-0.11504999352473326,-0.7169777920680216,1.7562497488043085,-0.1009379647120292,60.95312437201077
1589551727.922023,-1.5841922634327699,-2.785240329290962,9.013230946268921,0.5044444444444445,-0.12777777777777774,-0.6888888888888889,0.6509305567849872,-1.9710653270779854,64.2603677967602
1589551727.932023,-1.6666805956094404,-2.898200812194691,9.305801895120947,0.5044444444444445,-0.12777777777777774,-0.6888888888888889,-0.6687584603613679,-4.3905155670649165,65.65550879877583
1589551727.942023,-1.7858391120928465,-3.0032887327768827,9.14322101718238,0.5044444444444445,-0.12777777777777774,-0.6888888888888889,-0.3305356140573229,-3.625836260433452,67.69127844869729
1589551727.952023,-1.8414908399585206,-3.0353211199446943,9.15126132042862,0.5044444444444445,-0.12777777777777774,-0.6888888888888889,0.264621500172831,-3.2565935015554786,70.58099075354303
1589551727.962023,-1.7210987826155142,-2.917148850247986,9.148998647350572,0.5138556607616223,-0.11702210198671745,-0.6687219967806508,0.35031292270294645,-3.611874154594107,73.26408152163259
1589551727.972023,-1.6589231903046184,-2.8410768096953816,9.087846380609237,0.52,-0.11,-0.6555555555555556,0.5980797576154602,-3.1721104241729448,75.76924848509663
1589551727.982023,-1.6920917209514945,-2.8785100651417936,9.006561525526115,0.52,-0.11,-0.6555555555555556,0.5447706976212633,-3.405802558325578,75.53635348810631
1589551727.992023,-1.6810408222350897,-2.8782806166763173,9.039637738853504,0.52,-0.11,-0.6555555555555556,0.45475128474232773,-3.291007708453966,73.86454111175449
1589551728.002023,-1.7896878406068797,-2.91488294022758,9.12236343026551,0.52,-0.11,-0.6555555555555556,0.4375,-3.3745122509482495,70.6943284867245
1589551728.012023,-1.8402723320831913,-2.899546113194681,8.95290487555404,0.52,-0.07555555555555556,-0.6411111111111111,-0.1909041510398909,-3.5664715095465396,66.0875543385612
1589551728.022023,-1.867085535288101,-2.8548574411864984,9.23891237640641,0.52,-0.07555555555555556,-0.6411111111111111,-0.5260691911012615,-3.9574973896181387,62.40073889788612
1589551728.032023,-1.9374908040529868,-2.90061810303974,8.96629138176156,0.52,-0.07555555555555556,-0.6411111111111111,1.1774972919910636,-2.1018211360097485,58.88909575068264
1589551728.042023,-1.8822601031814274,-2.812153482373173,8.932579965606191,0.52,-0.07555555555555556,-0.6411111111111111,0.9825424548581255,-1.9381663800515907,54.64325558899398
1589551728.052023,-2.0149950019803473,-2.8431461119179193,9.083513890722543,0.52,-0.07555555555555556,-0.6411111111111111,0.3819583278323683,-2.6458125082514474,50.56722218554912
1589551728.062023,-2.0134672686230246,-2.751617381489842,8.964217832957111,0.5297110609480813,-0.08122034110860296,-0.6411111111111111,0.9273913656884877,-1.804902652370203,45.888346501128666
1589551728.072023,-2.004630229890789,-2.6913424425273025,9.139726724180921,0.5333333333333333,-0.08333333333333333,-0.6411111111111111,0.8171221263651325,-2.3405849498828104,41.90735488455593
1589551728.082023,-2.045228083023377,-2.6759087667906494,9.165908766790649,0.5333333333333333,-0.08333333333333333,-0.6411111111111111,0.04543833953246357,-3.116491452909094,39.01556929214284
1589551728.092023,-1.9475507042253521,-2.491955281690141,8.972584507042255,0.5333333333333333,-0.08333333333333333,-0.6411111111111111,0.6285101232394366,-2.26222051056338,36.36011443661972
1589551728.102023,-2.0598853571641818,-2.5918930000199034,9.175793642895528,0.5333333333333333,-0.08333333333333333,-0.6411111111111111,0.6875,-2.4372611607587125,34.65152857114424
1589551728.1120229,-2.1780729886646393,-2.6538742264094766,9.236774845281895,0.5318278121595787,-0.08333333333333333,-0.6365945475898476,0.09470103783415917,-2.711713915059229,33.27611599072755
1589551728.1220229,-2.498297735091743,-2.90991184059633,9.163228211009175,0.5311111111111111,-0.08333333333333333,-0.6344444444444445,0.4722575616399083,-1.9128305977637614,32.15274243836009
1589551728.1320229,-2.3952609016479847,-2.755062546118978,9.030918514353983,0.5311111111111111,-0.08333333333333333,-0.6344444444444445,0.8137397220562915,-2.0542798411750236,32.03536007941249
1589551728.1420228,-2.36811122402495,-2.7171668360374253,9.124889792199602,0.5311111111111111,-0.08333333333333333,-0.6344444444444445,0.7111096996881242,-2.068402424922031,32.339585450467816
1589551728.1520228,-2.393891281520598,-2.731945640760299,9.199728203801495,0.5311111111111111,-0.08333333333333333,-0.6344444444444445,0.4261891083684619,-2.211820509503736,32.93495191063901
1589551728.1620228,-2.41,-2.703317535545024,9.172748815165876,0.5419799894681411,-0.09488151658767774,-0.6473512374934176,0.7467417061611374,-1.8539691943127963,34.03850710900474
1589551728.1720228,-2.41,-2.6651902938598515,9.159619412280298,0.5488888888888889,-0.10222222222222224,-0.6555555555555556,1.1087803316879643,-1.6087803316879643,35.1479246436315
1589551728.1820228,-2.202018522178615,-2.52134568145241,9.014013891633962,0.5488888888888889,-0.10222222222222224,-0.6555555555555556,0.4750578818081712,-2.058294745461219,36.07910396137448
1589551728.1920228,-1.8963948172482712,-1.927139148613568,9.16955340118082,0.5488888888888889,-0.10222222222222224,-0.6555555555555556,0.21468446323140894,-2.338754049024788,36.1875
1589551728.2020228,-1.3926939659494255,-2.237288186576293,8.914183728718392,0.5488888888888889,-0.10222222222222224,-0.6555555555555556,0.3214763771632543,-2.06238845328574,34.133195550163435
1589551728.2120228,-1.8347501958085113,-2.9063764744974248,9.470784420762824,0.5430432730216748,-0.10222222222222224,-0.6745538071240015,0.1694900671682529,-2.1841119193980965,24.434470901668526
1589551728.2220228,-1.702919568133904,-2.8799297259311314,9.055269277454801,0.54,-0.10222222222222224,-0.6844444444444444,2.0402518686513766,2.412129464000511,10.033615760557081
1589551728.2320228,-1.8125631920132665,-2.6866104959882073,9.103389504011792,0.54,-0.10222222222222224,-0.6844444444444444,3.0714584833916816,3.34211628335483,2.1764351161660995
1589551728.2420228,-1.8628159799094604,-2.404523345339193,9.291108614479727,0.54,-0.10222222222222224,-0.6844444444444444,-0.1230586855235769,0.5088701549747214,-11.779375805438985
1589551728.2520227,-1.7216564190850958,-2.448067511067388,9.123036768322676,0.54,-0.10222222222222224,-0.6844444444444444,-0.43679675971470733,0.5828862825873093,-22.70827056689621
1589551728.2620227,-1.5037939110070258,-2.6694145199063235,8.908126463700233,0.5437730939370284,-0.11806921675774136,-0.6550143117356232,0.5671838407494145,1.5872365339578454,-33.62280444964871
1589551728.2720227,-1.8036479915189787,-2.6708059274964855,9.053743403009841,0.5455555555555556,-0.12555555555555556,-0.6411111111111111,-1.0855981079025605,0.6928352077619783,-49.29172380217096
1589551728.2820227,-2.1735363877561924,-2.6603536387756193,9.068762264285333,0.5455555555555556,-0.12555555555555556,-0.6411111111111111,-1.3979615911964245,1.076866575259531,-63.08448111611674
1589551728.2920227,-2.1997477904720846,-2.520066106201049,9.154774735934469,0.5455555555555556,-0.12555555555555556,-0.6411111111111111,-1.3244368398361717,1.9072447366530143,-75.40957102823884
1589551728.3020227,-2.2443881620931716,-2.6743112635609445,9.25458040842374,0.5455555555555556,-0.12555555555555556,-0.6411111111111111,-1.3184658184428846,2.618793873643906,-80.84541121569879
1589551728.3120227,-2.3749539919339053,-3.018807314303614,9.160642155135283,0.549928649429413,-0.13598370248552324,-0.6454842049849685,-0.38302693919104114,3.9862391832099924,-82.6875
1589551728.3220227,-2.00306158617634,-2.9190769457982575,9.10564613794122,0.56,-0.16,-0.6555555555555556,0.75,5.472788362132625,-83.38769199527397
1589551728.3320227,-1.795229371518301,-2.8141223314764274,8.713932777507758,0.56,-0.16,-0.6555555555555556,0.2698012861255468,5.643845571465959,-88.25332513926796
1589551728.3420227,-2.3520819783710203,-3.1871179006276944,9.445933222415489,0.56,-0.16,-0.6555555555555556,-1.6588779966724645,2.3023401459578006,-94.02567259699009
1589551728.3520226,-2.741527129266648,-3.444351419511099,9.404652051237235,0.56,-0.16,-0.6555555555555556,-2.732348185972184,0.6879791006017628,-95.46277996953732
1589551728.3620226,-2.78,-3.5414360302581813,9.066538603848052,0.5832450574649637,-0.22349869356282775,-0.640814787407042,-1.2817279230389738,3.3943957099983555,-90.12322834443349
1589551728.3720226,-2.4366304389866564,-3.4488265325855734,8.83166814929414,0.6055555555555555,-0.28444444444444444,-0.6266666666666667,0.8006599303809708,5.3307314832720945,-78.42356652485013
1589551728.3820226,-2.29,-3.4466604954812308,9.299944459331076,0.6055555555555555,-0.28444444444444444,-0.6266666666666667,-0.39569833865192083,2.937702492022119,-69.22973557282404
1589551728.3920226,-2.2645253400575345,-3.3835760201726037,9.274430514614483,0.6055555555555555,-0.28444444444444444,-0.6266666666666667,-1.2788760343786625,1.5674454842490322,-66.31685282522996
1589551728.4020226,-2.190131118337925,-3.245021853056321,9.044890734718395,0.6055555555555555,-0.28444444444444444,-0.6266666666666667,-1.3790974480601528,1.0886964807258115,-61.01038020175239
1589551728.4120226,-1.964884827386133,-3.183519292138091,9.039192341166231,0.7236515810850015,-0.5269121297102151,-0.40245537182090707,-0.630047867711053,2.0253608210037712,-56.98834312445605
1589551728.4220226,-1.797653411880216,-3.21826705940108,9.068844706267386,0.8355555555555556,-0.7566666666666667,-0.19,-0.4447205858288332,2.36416912125675,-54.5548294059892
1589551728.4320226,-1.7930709838973324,-3.305393524154001,9.05498069766633,0.8355555555555556,-0.7566666666666667,-0.19,-0.1345968246791639,2.697096824679164,-54.17556428894376
1589551728.4420226,-1.7446332297463323,-3.3590250776902506,9.030733540507336,0.8355555555555556,-0.7566666666666667,-0.19,-0.24086010334610103,2.466457685914577,-55.015262520777625
1589551728.4520226,-1.705025592540671,-3.4262947869461744,9.17380758321651,0.8355555555555556,-0.7566666666666667,-0.19,-0.6719549766895967,2.125,-56.66498223193036
1589551728.4620225,-1.7185155541536885,-3.481484445846312,9.2170799984229,0.9153086517104969,-0.6563372717037504,-0.22237975703890622,-0.660277766825691,2.2595833497614635,-57.75091668966605
1589551728.4720225,-1.5631897538637665,-3.4921265025758443,8.987048613950446,1.3911111111111112,-0.057777777777777775,-0.4155555555555556,0.13336382778640937,3.7600823350233052,-59.805109780031074
1589551728.4820225,-1.486616882355241,-3.4514372287602146,8.956467529420964,1.3911111111111112,-0.057777777777777775,-0.4155555555555556,-0.0503381944715956,3.3903409313054698,-63.326352777886385
1589551728.4920225,-1.5994989523091108,-3.5446063196714443,9.179642108792223,1.3911111111111112,-0.057777777777777775,-0.4155555555555556,-1.1520000419076357,1.3183157321263934,-67.32965803369373
1589551728.5020225,-1.6210191363649724,-3.5510191363649724,9.15303007143067,1.3911111111111112,-0.057777777777777775,-0.4155555555555556,-1.5094689732208473,1.0685278814779977,-69.85916142449807
1589551728.5120225,-1.549534159654758,-3.5107888151023703,9.080322974757129,1.1688557834836433,-0.03346860131852348,-0.5258150344957447,-0.7694876051786312,2.3935946952529212,-70.875
1589551728.5220225,-1.513136682464455,-3.5482104265402845,8.95179943127962,0.8222222222222222,0.004444444444444445,-0.6977777777777778,-0.18190758293838863,3.178158767772512,-70.92723696682465
1589551728.5320225,-1.4539951052016364,-3.5677030976037405,8.906530172413794,0.8222222222222222,0.004444444444444445,-0.6977777777777778,0.030352772501461133,3.6267944549970776,-71.15176386250731
1589551728.5420225,-1.450661930286403,-3.5888074471121825,9.15754924038187,0.8222222222222222,0.004444444444444445,-0.6977777777777778,-0.5111801833232896,2.7156387769989534,-72.07740691109773
1589551728.5520225,-1.334938151580341,-3.4349286364388547,9.165071363561145,0.8222222222222222,0.004444444444444445,-0.6977777777777778,-0.9684823866457057,2.3131541659771635,-73.43785681780572
1589551728.5620224,-1.2302679468572066,-3.3451004800714523,9.190334933571508,0.7289622641509435,0.03038064580154565,-0.7088144592063315,-0.7806219995534219,2.65855266830412,-74.2160286647315
1589551728.5720224,-1.2140866389623473,-3.3480649792217605,9.02558846492885,0.6344444444444445,0.05666666666666665,-0.72,-0.4986462662133233,2.877030600680015,-75.15189522730135
1589551728.5820224,-1.2144762738782597,-3.36,8.99657117836522,0.6344444444444445,0.05666666666666665,-0.72,-0.371279110326095,3.201488355869562,-76.20341883989136
1589551728.5920224,-1.19,-3.362369029700062,9.068947097911083,0.6344444444444445,0.05666666666666665,-0.72,-0.5707257975696611,3.111838723888542,-77.35691930687616
1589551728.6020224,-1.205492264416315,-3.4603281762775437,9.063566572902015,0.6344444444444445,0.05666666666666665,-0.72,-0.7943111228316925,2.8025155297702766,-79.32275550867323
1589551728.6120224,-1.2476290938316255,-3.4884193958877505,9.154863036635188,0.6344444444444445,0.05666666666666665,-0.72,-0.5748484696269507,3.2853333668207085,-80.2006061214922
1589551728.6220224,-1.1886589399211986,-3.51573178798424,9.099877484110323,0.6133333333333333,0.10444444444444444,-0.7244444444444444,-0.3925289752955049,3.624234275689511,-80.37653144862098
1589551728.6320224,-1.221005492290638,-3.6153731230474655,9.078994507709362,0.6133333333333333,0.10444444444444444,-0.7244444444444444,-0.7426354807014008,3.043106923309483,-79.66702673082737
1589551728.6420224,-1.2328586978706033,-3.687619565956868,9.021746377304579,0.6133333333333333,0.10444444444444444,-0.7244444444444444,-0.8859148581536159,2.6329257092319205,-79.08731886522892
1589551728.6520224,-1.168709972273849,-3.658709972273849,9.01451601109046,0.6133333333333333,0.10444444444444444,-0.7244444444444444,-0.6854871880808019,3.0705626732884435,-77.90727354437708
1589551728.6620224,-1.1727532224697643,-3.7087951543602804,9.066175803628262,0.6049288537025249,0.11833010644317137,-0.7270023295494731,-0.27055443387969447,3.2097278306015276,-75.21725811584977
1589551728.6720223,-1.211537552742616,-3.8276911392405064,9.084614345991561,0.5877777777777777,0.14666666666666667,-0.7322222222222222,-0.5072151898734177,2.9134599156118144,-73.13940928270043
1589551728.6820223,-1.0727791168961023,-3.691111646758441,8.98,0.5877777777777777,0.14666666666666667,-0.7322222222222222,-0.6979216883603836,2.720486948060064,-70.12678214330352
1589551728.6920223,-1.02,-3.6299424190470027,8.9920172742859,0.5877777777777777,0.14666666666666667,-0.7322222222222222,-0.5500719761912464,2.4872120952350145,-67.81178023808754
1589551728.7020223,-1.0891982581967212,-3.6207453893442625,9.037679303278688,0.5877777777777777,0.14666666666666667,-0.7322222222222222,-0.4231717469262295,2.3893282530737707,-64.90005443135246
1589551728.7120223,-1.3066349602370184,-3.896338687041946,9.240793700296273,0.5820846544345686,0.15615520557201518,-0.7360176377843617,-0.1519179791049431,2.8029101044752847,-58.67446982691408
1589551728.7220223,-1.41,-4.06,9.37,0.5777777777777777,0.16333333333333333,-0.7388888888888889,-0.125,2.9375,-55.875
1589551728.7320223,-1.2522581984225818,-4.148335408883354,9.237496886674968,0.5777777777777777,0.16333333333333333,-0.7388888888888889,0.1510481527604815,1.36008198422582,-42.07259236197592
1589551728.7420223,-1.1964298807395506,-4.3275045825884275,9.342149403697753,0.5777777777777777,0.16333333333333333,-0.7388888888888889,-0.408508056303605,0.2477610378148408,-28.64936126637851
1589551728.7520223,-1.0403471164971683,-4.1704628219962245,9.20050139049591,0.5777777777777777,0.16333333333333333,-0.7388888888888889,0.6221073625235978,1.9963842031544974,-20.914506069463897
1589551728.7620223,-0.7065460112095998,-3.793596454408533,8.905899113602132,0.5630954516898073,0.18227827022103704,-0.723732939378726,2.045076047505,2.9159125700599984,-15.799119157551665
1589551728.7720222,-6.603713748443997,-6.914526842704664,4.445707021214608,0.5433333333333333,0.20777777777777776,-0.7033333333333334,-18.003610257700558,4.535658950658156,-96.03112833381888
1589551728.7820222,-6.5690043857037965,-7.013673076541446,6.196452739576512,0.5433333333333333,0.20777777777777776,-0.7033333333333334,-78.034260830307,-40.85322279772182,-367.3759079002203
1589551728.7920222,0.36870894744091787,-3.2633768865975323,10.511002184222436,0.5433333333333333,0.20777777777777776,-0.7033333333333334,-107.64845825380272,-56.35713143706094,-563.631421072827
1589551728.8020222,-1.724007702182285,-3.669622593068036,4.3437432605905,0.5433333333333333,0.20777777777777776,-0.7033333333333334,-51.441575738125806,62.97012195121951,-477.0487483953787
1589551728.8120222,-3.4650437831620353,-3.1508164817632,9.82799636377129,0.5386146051063865,0.22429332657209172,-0.7056926974468067,28.050946625357128,92.72114323216208,-413.85789372379503
1589551728.8220222,-1.1108307959982602,-3.082366246193997,5.782753371030884,0.5277777777777778,0.26222222222222225,-0.7111111111111111,101.1964441061331,37.165941713788605,-372.92246628969116
1589551728.8320222,-4.830755759832441,-12.769878403537351,14.92857225971608,0.5277777777777778,0.26222222222222225,-0.7111111111111111,68.12826535955318,45.576059605538745,-271.07431783802656
1589551728.8420222,-4.147940310767336,-15.326039427750016,5.373746320761175,0.5277777777777778,0.26222222222222225,-0.7111111111111111,-16.327293962625777,10.960366897118213,-138.61325638305155
1589551728.8520222,1.1537919592431836,0.09028104104171206,11.885616631194383,0.5277777777777778,0.26222222222222225,-0.7111111111111111,-9.45527454709993,-13.977217785859128,-80.96930041393642
1589551728.8620222,1.9988423314531292,0.08617065090876534,12.11129152117468,0.5033730762726196,0.29093363575770237,-0.7070094806060425,7.787704807950577,0.5194623511505059,-66.25257688691914
1589551728.8720222,1.207626370177759,-1.9792696868485349,6.58225460088319,0.3955555555555556,0.4177777777777778,-0.6888888888888889,0.022806874985989545,6.310283618390082,-38.07129827845151
1589551728.8820221,1.8452998506442548,-2.011921373060274,8.543124066526593,0.3955555555555556,0.4177777777777778,-0.6888888888888889,-0.7468404298407716,-1.628944320684505,-9.04354257904463
1589551728.8920221,1.9092672010230411,-2.551407823525382,9.51444155191706,0.3955555555555556,0.4177777777777778,-0.6888888888888889,0.09132013427416585,-2.091460003197004,8.898319574798474
1589551728.9020221,1.45285925864119,-4.046118817664115,9.069268236717495,0.3955555555555556,0.4177777777777778,-0.6888888888888889,-1.5484287323473582,-0.6510708921754731,16.9278301591606
1589551728.912022,0.8869304283759605,-3.92,8.37570445216293,0.3944570045258394,0.4309603901343718,-0.6914521746248933,-0.8472279233764868,0.13559756867698136,23.68902220818861
1589551728.922022,0.6979357951879901,-3.8422029354600897,9.072350378660948,0.3922222222222223,0.4577777777777778,-0.6966666666666667,1.3713139199785538,-1.3906113866362844,28.351149386770324
1589551728.932022,0.44084673726724116,-3.7525402118017235,9.012963580435343,0.3922222222222223,0.4577777777777778,-0.6966666666666667,0.972719080940193,-1.0458032967807078,34.13759480592669
1589551728.942022,0.5724881554645467,-3.8878764153216094,8.950205974463984,0.3922222222222223,0.4577777777777778,-0.6966666666666667,0.3864894503332531,-1.375,38.41273814542681
1589551728.952022,0.6349462390348353,-3.895495821149817,8.748498607049939,0.3922222222222223,0.4577777777777778,-0.6966666666666667,-0.3818697764372712,-1.5325069647503051,40.6069046001888
1589551728.962022,0.4539558728098637,-3.86010253082414,8.897573004542505,0.38475001802581305,0.4564591535078232,-0.6971062080899849,-0.0013789746917585999,-2.1716904607397796,43.323434458144064
1589551728.972022,0.5923156633596771,-4.031789557760216,9.141789557760216,0.37333333333333335,0.4544444444444444,-0.6977777777777778,0.5550435093324365,-2.2574564906675634,46.72017403732975
1589551728.982022,0.7022600483197892,-3.9816099275203163,9.094383922688339,0.37333333333333335,0.4544444444444444,-0.6977777777777778,0.7294503623984187,-1.9963622886009225,48.770124094003954
1589551728.992022,0.6364588497380064,-4.08031172539299,9.199665840419192,0.37333333333333335,0.4544444444444444,-0.6977777777777778,0.23594137303504747,-2.284242532396222,50.00389656741238
1589551729.002022,0.39223401198134267,-3.8590198289011206,8.846975705727612,0.37333333333333335,0.4544444444444444,-0.6977777777777778,0.5119205517607268,-1.7380794482392732,53.29241135574861
1589551729.012022,0.33979413134606423,-4.05573854991461,8.950429746933706,0.3840913246735324,0.44798964964032495,-0.6993146336835205,0.3922896289396057,-1.9268688868188169,56.3711399627387
1589551729.022022,0.39296471048683435,-3.9724359113739642,9.078653867060947,0.4122222222222222,0.4311111111111111,-0.7033333333333334,0.6402244460872779,-2.290565001848188,60.00350612076276
1589551729.032022,0.24997480590261711,-3.9712090595917524,9.052418119183505,0.4122222222222222,0.4311111111111111,-0.7033333333333334,0.8905856342228392,-2.812657463108643,62.78211604709754
1589551729.042022,0.20370431021813526,-3.952973273708299,8.927043102181353,0.4122222222222222,0.4311111111111111,-0.7033333333333334,0.44206897818647517,-3.125,65.37977367680712
1589551729.052022,0.19769553762555572,-4.0378519677260005,8.958008397826445,0.4122222222222222,0.4311111111111111,-0.7033333333333334,-0.09521653219166805,-2.971194220319447,67.5671260085625
1589551729.062022,0.15118886915334517,-3.995174659561871,8.867552397868561,0.4122222222222222,0.43055167423195845,-0.7009557265969344,0.25830373001776197,-2.562936648904677,70.09658821788041
1589551729.072022,0.1124472762026123,-4.113881809493469,8.936033768716152,0.4122222222222222,0.4266666666666667,-0.6844444444444444,0.6397678400764575,-3.2304854252946797,73.46861858872252
1589551729.082022,0.24124476937136263,-3.962433745370593,9.027496512914242,0.4122222222222222,0.4266666666666667,-0.6844444444444444,0.32019263142705984,-4.109527560001924,76.92937148285316
1589551729.092022,0.23434936464532735,-4.101061835060548,8.996027482249133,0.4122222222222222,0.4266666666666667,-0.6844444444444444,0.8874141179714607,-3.2418670580665916,78.52054705990487
1589551729.102022,0.19958428739746126,-4.035427161372074,8.916805237534179,0.4122222222222222,0.4266666666666667,-0.6844444444444444,0.8254910188293355,-2.847238123291021,79.87158343151857
1589551729.112022,0.25282761950748434,-4.303770159343312,8.979302752293577,0.42640699608348087,0.41937164010944794,-0.6844444444444444,-0.08606349589570256,-3.529454369869628,81.76920569773057
1589551729.122022,1.155458994996737,-5.964631716336742,9.201455079399608,0.4511111111111111,0.4066666666666667,-0.6844444444444444,-0.20016043071568412,-4.306169784642158,80.58440287143789
1589551729.132022,1.0821389667509858,-5.795434470499761,9.624904400537819,0.4511111111111111,0.4066666666666667,-0.6844444444444444,-1.0037501994029308,-4.26692930881247,60.98583954331032
1589551729.142022,-0.33046111725767435,-3.1721844469030698,9.704466592907908,0.4511111111111111,0.4066666666666667,-0.6844444444444444,-0.2506106193860522,-1.6529162056744235,29.96951942730699
1589551729.152022,-0.39207091581466175,-3.3004350663476183,8.790709158146617,0.4511111111111111,0.4066666666666667,-0.6844444444444444,4.445256417228627,2.9595592234065693,12.328012834457255
1589551729.1620219,-0.25423107472352907,-3.9998212867355045,8.453790554163866,0.45485499277000463,0.3995192562269608,-0.6858058559567694,-1.479738192704833,-1.3446072890572494,0.5928927109427506
1589551729.1720219,-0.03375477533199927,-4.116245224668001,8.896245224668,0.4633333333333333,0.38333333333333336,-0.6888888888888889,-1.216288430052756,-1.3959659814444243,-0.15104829907222123
1589551729.1820219,0.023471438966709113,-4.1734714389667085,8.95347143896671,0.4633333333333333,0.38333333333333336,-0.6888888888888889,0.4925499135892304,0.19365108240858664,-0.07156744587957067
1589551729.1920218,0.07066839269736717,-4.079331607302633,8.973899560242913,0.4633333333333333,0.38333333333333336,-0.6888888888888889,0.38109306287955225,-0.11699132859944031,-0.020194797159664185
