time,acc_x,acc_y,acc_z,mag_x,mag_y,mag_z,gyr_x,gyr_y,gyr_z
1589551735.6062586,-0.06,-4.1,9.07,0.5044444444444445,0.28444444444444444,-0.6466666666666666,-0.125,-0.0625,-0.75
1589551735.6162586,-0.06649351635624917,-4.109740274534373,8.980519450931252,0.5044444444444445,0.28444444444444444,-0.6466666666666666,-0.08441552277344269,-0.125,-0.75
1589551735.6262586,-0.08588095970470624,-4.122158720393725,8.941960319901568,0.5044444444444445,0.28444444444444444,-0.6466666666666666,0.012251999384804675,-0.14950399876960935,-0.7622519993848047
1589551735.6362586,-0.09143273880611626,-4.09,8.974756348258511,0.5044444444444445,0.28444444444444444,-0.6466666666666666,-0.034204485384811176,-0.32736358830784895,-0.7738182058460755
1589551735.6462586,-0.04364934323243861,-4.09,9.040584427945936,0.5013867208156186,0.2827979778750767,-0.6480779237261247,-0.27646106986483915,-0.5264610698648391,-0.7271916047972588
1589551735.6562586,-0.0241725442342892,-4.094172544234289,9.08,0.49,0.2766666666666667,-0.6533333333333333,-0.3489215985356925,-0.52068639414277,-0.9010784014643075
1589551735.6662586,-0.04116019027614752,-4.111160190276148,9.039079302320793,0.49,0.2766666666666667,-0.6533333333333333,-0.24274881077407795,-0.30524881077407795,-0.9840007928172814
1589551735.6762586,-0.06324314369900272,-4.13,8.989458862194017,0.49,0.2766666666666667,-0.6533333333333333,-0.104730351881233,-0.086151759406165,-1.001691055643699
1589551735.6862586,-0.07,-4.122557992870853,9.032480669043048,0.49,0.2766666666666667,-0.6533333333333333,-0.04699581848094324,0.18701672607622705,-0.8439916369618865
1589551735.6962585,-0.07,-4.105306964628461,9.038231011790511,0.49,0.2766666666666667,-0.6533333333333333,-0.011056176309295312,0.33077529476281875,-0.7721123526185907
1589551735.7062585,-0.07,-4.11,9.06915208897962,0.49,0.28444444444444444,-0.6677777777777778,0.00529944387737144,0.0,-0.6875
1589551735.7162585,-0.07,-4.1068573681616565,9.012860522424841,0.49,0.28444444444444444,-0.6677777777777778,0.08214144898965008,-0.05892434696895022,-0.6875
1589551735.7262585,-0.06589247805381836,-4.104107521946181,8.924376326811636,0.49,0.28444444444444444,-0.6677777777777778,0.08649198175454702,-0.21317201216363532,-0.7003360060818177
1589551735.7362585,-0.05,-4.117315593079794,8.993422034601032,0.49,0.28444444444444444,-0.6677777777777778,-0.09605508650258188,-0.3125,-0.7164449134974181
1589551735.7462585,-0.05408897612037946,-4.109318503979937,9.030681496020062,0.4896213910999649,0.283081452404318,-0.6663390639576443,-0.1875,-0.2784251989968379,-0.6207406498746048
1589551735.7562585,-0.10897023225384364,-4.1001716279576925,9.039828372042306,0.4845397933098294,0.2647877003598299,-0.647028992355129,-0.1875,0.1789186021153636,-0.5635726747355796
1589551735.7662585,-0.07533823633908904,-4.1,9.013683827186812,0.4844444444444445,0.2644444444444444,-0.6466666666666666,-0.2603400572017338,-0.24154409152277412,-0.23543198855965325
1589551735.7762585,-0.06043629645420308,-4.1,8.961527037589711,0.4844444444444445,0.2644444444444444,-0.6466666666666666,-0.4931828679030768,-0.6140925886449229,-0.18886342641938464
1589551735.7862585,-0.02,-4.102038591277809,9.025922817444382,0.4844444444444445,0.2644444444444444,-0.6466666666666666,-0.5127411954863064,-0.5879823909726126,-0.4081725363424625
1589551735.7962584,-0.021679523361555347,-4.073281906553778,9.07,0.48780349116755517,0.26556412668548135,-0.6490926448555799,-0.36450297899027906,-0.27051191596111634,-0.5314910630291627
1589551735.8062584,-0.023158700912380405,-4.04,9.066579350456191,0.5044444444444445,0.27111111111111114,-0.6611111111111111,-0.26974188070237753,-0.08387905964881125,-0.8799115368393011
1589551735.8162584,-0.018801859799713876,-4.04,9.021858607534574,0.5044444444444445,0.27111111111111114,-0.6611111111111111,-0.20583720791607057,-0.18001162374821172,-1.3966976633285646
1589551735.8262584,-0.04225797574712433,-4.049031902988498,8.943547854482746,0.5044444444444445,0.27111111111111114,-0.6611111111111111,-0.25,-0.2983876515804729,-1.8205617420976352
1589551735.8362584,-0.04995266836669174,-4.079810673466767,8.989716010200151,0.5044444444444445,0.27111111111111114,-0.6611111111111111,-0.25,-0.25029582270817663,-2.061020886459117
1589551735.8462584,-0.05,-4.08839712340357,9.00679424680714,0.5044444444444445,0.27111111111111114,-0.6611111111111111,-0.3024820212723097,-0.35496404254461944,-2.0625
1589551735.8562584,-0.032233791187391274,-4.09,9.05,0.4711111111111111,0.2766666666666667,-0.6677777777777778,-0.4977815932282606,-0.34264079661413027,-2.1713203983070652
1589551735.8662584,-0.012595742207930574,-4.095191484415861,9.031829804544486,0.4711111111111111,0.2766666666666667,-0.6677777777777778,-0.3125,-0.23377661120043391,-2.125
1589551735.8762584,-0.023298944692423662,-4.114398592923232,8.983298944692423,0.4711111111111111,0.2766666666666667,-0.6677777777777778,-0.2987543971149014,-0.14626319134470425,-2.1112543971149016
1589551735.8862584,-0.05241895261845387,-4.152418952618454,9.02209476309227,0.4711111111111111,0.2766666666666667,-0.6677777777777778,-0.14214463840399003,0.1875,-1.9848815461346634
1589551735.8962584,-0.05912470477941839,-4.159124704779418,9.058249409558837,0.4716946412581655,0.2766666666666667,-0.6659299323121055,0.005470595128635044,0.1875,-1.9210882146140948
1589551735.9062583,-0.05156291128058125,-4.151562911280582,9.043125822561162,0.47673583692405697,0.2766666666666667,-0.6499661460367826,0.05273180449636721,0.1875,-1.7793045865108983
1589551735.9162583,-0.0484851746746257,-4.148485174674626,9.02166846071044,0.4777777777777778,0.2766666666666667,-0.6466666666666666,0.11553234171641061,0.17329851257461593,-1.4185646834328212
1589551735.9262583,-0.03206752128388296,-4.132067521283883,8.931371367061356,0.4777777777777778,0.2766666666666667,-0.6466666666666666,0.012922008024268516,0.019383012036402775,-1.213344016048537
1589551735.9362583,-0.02,-4.118018651923829,9.03198134807617,0.4777777777777778,0.2766666666666667,-0.6466666666666666,-0.1373834254760708,-0.1373834254760708,-1.1503497235717877
1589551735.9462583,-0.02,-4.110211090634947,9.039788909365052,0.4777777777777778,0.2766666666666667,-0.6466666666666666,-0.18618068353157985,-0.18618068353157985,-1.0039579494052604
1589551735.9562583,-0.01,-4.124685012411196,9.077972481383206,0.49,0.2911111111111111,-0.6466666666666666,-0.0126719913549602,0.15821867243002652,-1.0292813275699735
1589551735.9662583,-0.020185012147262194,-4.1161110072883575,9.065370958699308,0.49,0.2911111111111111,-0.6466666666666666,0.17592506073631098,0.35185012147262196,-0.8993062044477668
1589551735.9762583,-0.06,-4.14,8.942864271810299,0.49,0.2911111111111111,-0.6466666666666666,0.3481994337285436,0.7365997168642718,-0.7365997168642718
1589551735.9862583,-0.06,-4.14,8.987397628738277,0.49,0.2911111111111111,-0.6466666666666666,0.2554216067952575,0.6902108033976287,-0.6902108033976287
1589551735.9962583,-0.05046409426763897,-4.130464094267639,8.999535905732362,0.49,0.2911111111111111,-0.6466666666666666,0.07120176751823057,0.09150589172743517,-0.568301178345487
1589551736.0062582,-0.027733492370707116,-4.127733492370707,9.043200477112121,0.4977777777777778,0.27111111111111114,-0.6611111111111111,-0.21583134536616105,-0.4233343273169195,-0.34666865463383895
1589551736.0162582,-0.018362603417363316,-4.123274793165273,9.00526343075627,0.4977777777777778,0.27111111111111114,-0.6611111111111111,-0.32273372864147926,-0.36476627135852074,-0.25
1589551736.0262582,-0.01,-4.138117386489479,8.934706533776302,0.4977777777777778,0.27111111111111114,-0.6611111111111111,-0.36323366555924697,-0.32426633444075303,-0.24411683277962348
1589551736.0362582,-0.012026386504441293,-4.12,8.998237478539972,0.4977777777777778,0.27111111111111114,-0.6611111111111111,-0.19934033738896767,-0.36151050608345153,-0.17483508434724193
1589551736.0462582,-0.019853325371351795,-4.12,9.068679928342167,0.4977777777777778,0.27111111111111114,-0.6611111111111111,-0.0036668657162051144,-0.06800029857430767,-0.12591671642905128
1589551736.0562582,-0.037446429706873535,-4.12,9.043830355439688,0.48614682463986214,0.26529563454215327,-0.6543263884473269,0.16356027850193935,-0.00797990716602022,-0.01595981433204044
1589551736.0662582,-0.028197197948783486,-4.103605604102433,9.007380385641484,0.4844444444444445,0.2644444444444444,-0.6533333333333333,0.1137324871798968,0.1823949230793808,-0.0850350256402064
1589551736.0762582,-0.021496717095068455,-4.117006565809863,8.960477019665479,0.4844444444444445,0.2644444444444444,-0.6533333333333333,0.07185448184417784,-0.06887310893493298,-0.16879103631164433
1589551736.0862582,-0.017933809514641613,-4.127933809514642,9.032066190485358,0.4844444444444445,0.2644444444444444,-0.6533333333333333,0.06895684526674496,0.2822842263337248,-0.10562946419976511
1589551736.0962582,-0.0017835621185575933,-4.111783562118558,9.048216437881443,0.4844444444444445,0.2644444444444444,-0.6533333333333333,0.11942636837950751,0.5346318418975375,0.04577910513852254
1589551736.1062582,-0.03,-4.0982273566691845,9.054682070007555,0.5044444444444445,0.28444444444444444,-0.6677777777777778,0.2903419583648115,0.625,0.011079020817594225
1589551736.1162581,-0.02928414557623928,-4.09,9.026420727881195,0.5044444444444445,0.28444444444444444,-0.6677777777777778,0.1830259098514955,0.607103639405982,0.0580259098514955
1589551736.1262581,-0.022462863705972436,-4.092462863705973,8.978768568147014,0.5044444444444445,0.28444444444444444,-0.6677777777777778,0.14808934724349157,0.3596071018376723,0.015392898162327718
1589551736.1362581,-0.03852067381316998,-4.10852067381317,8.970739663093415,0.5044444444444445,0.28444444444444444,-0.6677777777777778,0.29863131699846857,0.2592457886676876,0.1157542113323124
1589551736.146258,-0.03069632778714359,-4.11,8.988607344425713,0.5044444444444445,0.28444444444444444,-0.6677777777777778,0.1962040973392949,0.19185204866964745,0.125
1589551736.156258,-0.09429014448490544,-4.064078468225067,8.824682485610243,0.47995296083114714,0.28444444444444444,-0.6483886865839174,0.07269617056266886,0.07269617056266886,0.125
1589551736.166258,0.07687906169322531,-4.145962788213301,9.286599973292976,0.4777777777777778,0.28444444444444444,-0.6466666666666666,-0.23680227899937684,-0.8296801277485979,0.0625
1589551736.176258,-0.03880651552970845,-4.109602171843236,8.905967422351457,0.4777777777777778,0.28444444444444444,-0.6466666666666666,0.4449592779393222,0.6999321298988703,0.06498642597977407
1589551736.186258,-0.01265814060346148,-4.10088604686782,9.05,0.4777777777777778,0.28444444444444444,-0.6466666666666666,0.6139244141522439,0.9723110353806096,0.10838662122836576
1589551736.196258,-0.03674854495328534,-4.108916181651096,9.05,0.4777777777777778,0.28444444444444444,-0.6466666666666666,0.5135477293613111,0.7213693234032776,-0.04217840595803338
1589551736.206258,-0.030102299697192893,-4.090204599394386,9.099488501514035,0.48987496703676425,0.27674623309781676,-0.6323699884515008,0.5618606268925443,0.996803134462722,0.18494250757017758
1589551736.216258,-0.0418817381997891,-4.09811826180021,9.092123487102002,0.49,0.2766666666666667,-0.6322222222222222,0.744119568125659,0.943380431874341,0.0625
1589551736.226258,-0.05508443898830603,-4.084915561011694,8.966697829611093,0.49,0.2766666666666667,-0.6322222222222222,0.7028611281615437,0.9846388718384563,0.0625
1589551736.236258,-0.06936786873030412,-4.100158032817424,9.000632131269695,0.49,0.2766666666666667,-0.6322222222222222,0.3085491795644007,0.6766352438021019,0.0
1589551736.246258,-0.043323191083099184,-4.1066692022292255,9.0266768089169,0.49,0.2766666666666667,-0.6322222222222222,0.14576994426936987,0.22899234674076718,0.0
1589551736.256258,-0.06198220348905281,-4.094008898255473,8.976035593021894,0.48022766004501166,0.2722246939598538,-0.6437713512599357,-0.087416578854935,0.09994438590329002,0.04997219295164501
1589551736.266258,-0.06255837932916844,-4.104883241341663,8.945116758658337,0.4777777777777778,0.27111111111111114,-0.6466666666666666,-0.31104051677078914,-0.15406077515618366,0.10901012919269729
1589551736.276258,0.018788889296053355,-4.129273333577632,9.057335556451317,0.4777777777777778,0.27111111111111114,-0.6466666666666666,-0.6738750045806002,-0.9742638975411337,-0.0015138883799333065
1589551736.286258,-0.019635933892777308,-4.1062184396643335,8.972800945435889,0.4777777777777778,0.27111111111111114,-0.6466666666666666,-0.24159574370625525,-0.15773640477848216,-0.04954491736597164
1589551736.296258,-0.022263393195423205,-4.1,9.035102674850345,0.4777777777777778,0.27111111111111114,-0.6466666666666666,0.2618303402288399,0.4009765477002349,0.08256137758581494
1589551736.306258,-0.049415553308138606,-4.09,9.041753340075584,0.5044444444444445,0.27111111111111114,-0.6611111111111111,0.3125,0.362215228615532,0.0018263959120668547
1589551736.316258,-0.02750877192982456,-4.0912456140350875,9.08380701754386,0.5044444444444445,0.27111111111111114,-0.6611111111111111,0.28135964912280703,-0.04692982456140351,0.0625
1589551736.326258,-0.012516142867354476,-4.100838714289118,8.974193571445591,0.5044444444444445,0.27111111111111114,-0.6611111111111111,0.05725803569301151,0.0625,0.07298392861397698
1589551736.336258,-0.03875463358996293,-4.108754633589963,9.021868049615055,0.5044444444444445,0.27111111111111114,-0.6611111111111111,-0.02335062018819504,0.05860822996863416,0.18360822996863416
1589551736.346258,-0.02380489021956088,-4.093804890219561,9.044292664670659,0.5044444444444445,0.27111111111111114,-0.6611111111111111,-0.30365830838323354,0.01189028193612774,0.13689028193612773
1589551736.356258,-0.05,-4.110348452580543,9.027909284516742,0.4777777777777778,0.2766666666666667,-0.64,-0.06685565725678554,0.0625,0.06032217137160723
1589551736.366258,-0.05,-4.11985114867008,8.970893107979519,0.4777777777777778,0.2766666666666667,-0.64,-0.18563935837600254,0.0625,0.0009303208119987375
1589551736.376258,-0.09531171838814266,-4.054688281611857,8.829376563223715,0.4777777777777778,0.2766666666666667,-0.64,-0.34668538675312643,-0.5058707735062529,0.05273274664196387
1589551736.386258,-0.037297825109587505,-4.1109007249634715,8.949607732943688,0.4777777777777778,0.2766666666666667,-0.64,-0.7556295310216927,-1.3256355723839497,-0.05874697931887153
1589551736.3962579,0.015737889176126785,-4.128579296392042,9.138179161515117,0.4777777777777778,0.2766666666666667,-0.64,-0.8661206024502641,-1.5834480723839497,0.014913734966842757
1589551736.4062579,0.004058946391274076,-4.111286841494546,9.133662102576004,0.4847965498568887,0.28113315798973726,-0.6508471932131714,-0.5068026224181945,-0.7091480041773033,-0.009282896263634252
1589551736.4162579,-0.03986621396771147,-4.100133786032289,9.039197283806269,0.49,0.28444444444444444,-0.6588888888888889,-0.0633361627018033,-0.375,0.0650084881054099
1589551736.4262578,-0.030435310518505194,-4.109564689481495,8.982611863111032,0.49,0.28444444444444444,-0.6588888888888889,-0.12227930925934254,-0.375,0.2418379277780276
1589551736.4362578,-0.05124829600778968,-4.11,8.98708276533593,0.49,0.28444444444444444,-0.6588888888888889,0.007801850048685499,-0.15366358325219084,0.07293086660175266
1589551736.4462578,-0.06711094356482646,-4.102889056435173,9.004221887129653,0.49,0.28444444444444444,-0.6588888888888889,0.0625,-0.1069433972801653,0.04444339728016531
1589551736.4562578,-0.043233655943582035,-4.086616827971791,9.023383172028208,0.48628245221438643,0.2755223297589718,-0.6365836021752073,-0.10478965035261228,-0.3759344755289184,0.10432241258815307
1589551736.4662578,-0.03947104182180691,-4.0901763193927305,9.048589444858152,0.4844444444444445,0.27111111111111114,-0.6255555555555555,-0.4352960075908621,-0.7477960075908622,-0.0011019962045689304
1589551736.4762578,-0.010234724959684645,-4.100234724959685,8.970704174879055,0.4844444444444445,0.27111111111111114,-0.6255555555555555,-0.30516484500985486,-0.6176648450098549,-0.06103296900197097
1589551736.4862578,-0.01962887475362838,-4.1096288747536285,8.998886624260885,0.4844444444444445,0.27111111111111114,-0.6255555555555555,-0.011597663949113046,-0.32409766394911305,-0.0023195327898226092
1589551736.4962578,-0.04494437679304865,-4.11,9.008314792264349,0.4844444444444445,0.27111111111111114,-0.6255555555555555,0.15590235495655405,-0.05266274173907659,-0.051967451652184686
1589551736.5062578,-0.029658078400611434,-4.100341921599388,9.05034192159939,0.4977777777777778,0.2766666666666667,-0.6533333333333333,0.05608897001146443,0.060362990003821476,0.060362990003821476
1589551736.5162578,-0.021222068022285243,-4.108777931977715,9.058777931977716,0.4977777777777778,0.2766666666666667,-0.6533333333333333,-0.10208622458215169,0.00763792513928277,0.00763792513928277
1589551736.5262578,-0.00969445592001983,-4.09061108815996,8.971222176319921,0.4977777777777778,0.2766666666666667,-0.6533333333333333,-0.005728951499628192,0.05486139800049575,0.0019096504998760639
1589551736.5362577,-0.0027634470792365527,-4.104473105841527,8.998946211683053,0.4977777777777778,0.2766666666666667,-0.6533333333333333,-0.13568536726431463,-0.11841382301908618,0.045228455754771545
1589551736.5462577,-0.01353101080191716,-4.105489663066027,9.046082695471778,0.4977777777777778,0.2766666666666667,-0.6533333333333333,-0.15931039416267256,-0.13112078832534516,0.11887921167465484
1589551736.5562577,-0.04275700404552157,-4.1,9.08574766531816,0.48643821862620307,0.2766666666666667,-0.6443561823383367,-0.018691632953986917,-0.009345816476993458,0.13434581647699345
1589551736.5662577,-0.050668597550336744,-4.1,9.033342987751682,0.4711111111111111,0.2766666666666667,-0.6322222222222222,0.24164253062079075,0.23746379593118608,0.004178734689604627
1589551736.5762577,-0.05,-4.118243431097742,8.92966112896242,0.4711111111111111,0.2766666666666667,-0.6322222222222222,-0.03505361090221282,0.07896783345867231,0.05701072218044256
1589551736.5862577,-0.04356278519520027,-4.094251140780801,8.9393116444144,0.4711111111111111,0.2766666666666667,-0.6322222222222222,-0.26366296264999156,-0.09843037011999323,0.022267407470001693
1589551736.5962577,-0.026851956891661942,-4.093148043108338,8.969722064662507,0.4711111111111111,0.2766666666666667,-0.6322222222222222,-0.4160876347135564,-0.39293817356778216,0.0
1589551736.6062577,-0.008102695665492418,-4.105948652167254,9.039486521672538,0.48697418355712124,0.2693960917955787,-0.644780487908647,-0.36314184790932763,-0.5371790760453362,0.0
1589551736.6162577,-0.03749233267183836,-4.102501533465632,9.035009200793795,0.4977777777777778,0.2644444444444444,-0.6533333333333333,-0.12503833664080824,-0.4219037524806062,-0.04686541583979794
1589551736.6262577,-0.04312356372635673,-4.106876436273644,8.971864946084496,0.4977777777777778,0.2644444444444444,-0.6533333333333333,0.15238863355135232,-0.07415591302810676,-0.01952227328972954
1589551736.6362576,-0.04,-4.11,8.979473684210527,0.4977777777777778,0.2644444444444444,-0.6533333333333333,0.25,0.3081140350877193,0.12280701754385964
1589551736.6462576,-0.03323228038115129,-4.116767719618849,9.007070878475394,0.4977777777777778,0.2644444444444444,-0.6533333333333333,0.08080700952878214,0.22790350476439108,0.04040350476439107
1589551736.6562576,-0.03,-4.084236719854575,9.04682246010907,0.503738324468682,0.27537211337776885,-0.6473727866424291,-0.05588012522722682,-0.09190062613613409,0.05588012522722682
1589551736.6662576,-0.039152293834229454,-4.0983045876684585,9.05915229383423,0.5044444444444445,0.2766666666666667,-0.6466666666666666,-0.23410550939180225,-0.29660550939180225,0.0625
1589551736.6762576,-0.04941496030087756,-4.118829920601756,8.975265357292102,0.5044444444444445,0.2766666666666667,-0.6466666666666666,-0.4265305056414542,-0.4890305056414542,0.003656498119515253
1589551736.6862576,-0.040582480361818614,-4.101164960723637,9.007670078552726,0.5044444444444445,0.2766666666666667,-0.6466666666666666,-0.4375,-0.38228100452273267,-0.05885949773863366
1589551736.6962576,-0.03494237565947857,-4.094942375659478,9.020115248681043,0.5044444444444445,0.2766666666666667,-0.6466666666666666,-0.4375,-0.5014406085130358,-0.0625
1589551736.7062576,-0.02854674134861708,-4.094359775954149,9.03,0.5054132835453664,0.27585930074923176,-0.6445675152813357,-0.41025140028657026,-0.5705028005731405,-0.0625
1589551736.7162576,-0.011057051024507835,-4.12,9.047885897950986,0.5111111111111111,0.27111111111111114,-0.6322222222222222,-0.13821313780634792,-0.13821313780634792,-0.0625
1589551736.7262576,-0.029341221618164375,-4.110329389190918,8.943623281100095,0.5111111111111111,0.27111111111111114,-0.6322222222222222,0.23764790534058206,0.35853054045410937,0.05838263511352734
1589551736.7362576,-0.04357244330051978,-4.0964275566994806,8.980717329901559,0.5111111111111111,0.27111111111111114,-0.6322222222222222,0.3772416559423729,0.5022416559423729,0.14732777062824864
1589551736.7462575,-0.04383609226594301,-4.096163907734057,9.036983446404342,0.5111111111111111,0.27111111111111114,-0.6322222222222222,0.3604511533242877,0.6010244233378562,0.14897557666214384
1589551736.7562575,-0.08380848851498252,-4.1,9.016191511485017,0.4877465839031205,0.27111111111111114,-0.6370898320572203,0.20297877871254372,0.4607181680688156,0.015478778712543703
1589551736.7662575,-0.0667594611669282,-4.107746846277691,8.994506307444619,0.4844444444444445,0.27111111111111114,-0.6377777777777778,0.13908221076443375,0.1469932645866025,0.0
1589551736.7762575,0.021781353887793828,-4.137260451295931,9.144475890676944,0.4844444444444445,0.27111111111111114,-0.6377777777777778,-0.6700964961313289,-1.1301447441969932,-0.17037782059957046
1589551736.7862575,-0.02777893484082119,-4.098729332256556,8.953646661282782,0.4844444444444445,0.27111111111111114,-0.6377777777777778,-0.5436466612827815,-0.9920583266034768,0.07044167339652319
1589551736.7962575,-0.04,-4.09,8.992830771749585,0.4844444444444445,0.27111111111111114,-0.6377777777777778,-0.45685897304709083,-0.5060897304709084,0.08185897304709085
1589551736.8062575,-0.0740971096060288,-4.09,8.953281503386435,0.48918015411194843,0.27584682077861516,-0.6453549132457841,-0.7038836687971001,-0.7919906038347801,0.0625
1589551736.8162575,-0.09829755228175739,-4.083900815906081,8.921702447718243,0.49,0.2766666666666667,-0.6466666666666666,-1.093079105282951,-1.29431890645694,-0.01373980117398911
1589551736.8262575,-0.14067373330506677,-4.0493262666949335,8.748962900148399,0.49,0.2766666666666667,-0.6466666666666666,-2.1751987492050033,-2.9524035403858386,-0.11042770828916684
1589551736.8362575,0.04963656970154895,-3.874783528522856,9.030432942954288,0.49,0.2766666666666667,-0.6466666666666666,-3.384052701171137,-5.139030034000756,-0.25407536834151867
1589551736.8462574,0.016290714632960626,-3.6111805644397816,9.004202594478418,0.49,0.2766666666666667,-0.6466666666666666,-3.7311123122585266,-5.57125540516337,-0.8415199703195763
1589551736.8562574,-0.03183663429866963,-3.516054455233777,9.006871283740429,0.49,0.2766666666666667,-0.6594482943824177,-3.61181930957779,-4.920915857466741,-2.4872524275997776
1589551736.8662574,-0.22331855056787453,-3.4352839372633857,9.053056787452677,0.49,0.2766666666666667,-0.6677777777777778,-4.727345862628448,-5.842793401838832,-6.0223769605192
1589551736.8762574,-0.15702179129518717,-3.302310618623071,9.189756140385104,0.49,0.2766666666666667,-0.6677777777777778,-6.040837950408709,-6.430279316802903,-8.614731071616692
1589551736.8862574,-0.12,-2.7122004462401255,9.359831152384974,0.49,0.2766666666666667,-0.6677777777777778,-6.651484200687451,-6.188027648796961,-11.675330157390098
1589551736.8962574,-0.1931580087006161,-2.510262986949076,9.058104761717289,0.49,0.2766666666666667,-0.6677777777777778,-5.270063581425562,-3.0615083856616994,-12.885527597881932
1589551736.9062574,-0.21069491469708423,-2.590966108937905,8.614322014397949,0.4972372885689345,0.2714971748317135,-0.6419303186030119,-2.1911015416981687,-0.13463972256007373,-7.895232733966668
1589551736.9162574,-0.21,-2.6,8.59,0.4977777777777778,0.27111111111111114,-0.64,-2.0,0.0,-7.5
1589551736.9262574,0.08761196053835983,-2.717641794080754,8.978835813811573,0.4977777777777778,0.27111111111111114,-0.64,1.08507432959284,0.11828321524222796,14.953919042614503
1589551736.9362574,0.13351106393402468,-2.80905936147628,8.913511063934024,0.4977777777777778,0.27111111111111114,-0.64,-0.27703723360823057,-0.9949069159794235,22.337179513350208
1589551736.9462574,0.11,-2.86,9.059504819595682,0.4977777777777778,0.27111111111111114,-0.64,0.37683589336794787,-0.6133025648421913,24.842661534578497
1589551736.9562573,0.06504332305695279,-2.8974638974525395,9.102593866623398,0.4977777777777778,0.27527376638361556,-0.6649759316350262,0.15706230731786475,-1.1556182054194386,25.905798718156742
1589551736.9662573,0.07216378151668745,-2.9654094537917186,9.136491344550063,0.4977777777777778,0.2766666666666667,-0.6733333333333333,0.18667817757841726,-0.9940600051819345,26.23565454309912
1589551736.9762573,0.07340717137592137,-2.9712833998771497,9.024071713759215,0.4977777777777778,0.2766666666666667,-0.6733333333333333,0.7140471437346437,-0.6875,26.513273571867323
1589551736.9862573,0.025197450278516872,-3.003804674489386,9.052411898700255,0.4977777777777778,0.2766666666666667,-0.6733333333333333,0.10368891292280014,-1.3400478072778086,26.117462816561705
1589551736.9962573,-0.044628541682159587,-3.0450412731464267,9.165041273146427,0.4977777777777778,0.2766666666666667,-0.6733333333333333,-0.28305570015616865,-1.4405954859820034,26.307856771026994
1589551737.0062573,-0.07628828905060078,-2.971441445253004,9.027453460822475,0.4977777777777778,0.2741274609352965,-0.6611451458227562,-0.03393393552208496,-1.2910285158233203,27.703415869859537
1589551737.0162573,-0.04144930289100786,-2.982753485544961,9.036956273980929,0.4977777777777778,0.27111111111111114,-0.6466666666666666,-0.5410619990122706,-2.1422092846560044,28.88073642821867
1589551737.0262573,-0.042594815502161855,-3.0274051844978382,8.963672582969734,0.4977777777777778,0.27111111111111114,-0.6466666666666666,0.1483287595506504,-1.555388837337861,29.314870387554045
1589551737.0362573,-0.055270946038096104,-3.02,8.86,0.4977777777777778,0.27111111111111114,-0.6466666666666666,0.4864526980951948,-1.2306038891667046,29.862377540119105
1589551737.0462573,-0.07012259362130065,-3.065551671295853,8.971348529834307,0.4977777777777778,0.27111111111111114,-0.6466666666666666,0.09183447466717748,-1.374233789866871,30.47219794559908
1589551737.0562572,-0.08,-3.095892591244499,9.016516660600246,0.4977777777777778,0.2562199574247488,-0.661557820353029,0.37835652360941063,-1.1802430429171769,31.367199133053177
1589551737.0662572,-0.11788876146788992,-3.173355275229358,9.088510779816513,0.4977777777777778,0.25,-0.6677777777777778,0.13625143348623853,-1.8354142775229358,31.67236095183486
1589551737.0762572,-0.13,-3.228647587749327,9.19878086631065,0.4977777777777778,0.25,-0.6677777777777778,0.13428556757496918,-1.346310306266831,32.224642270299874
1589551737.0862572,-0.11748138563034302,-3.2212220784455146,9.1423696994124,0.4977777777777778,0.25,-0.6677777777777778,0.46134468933624656,-0.9842586601896438,32.593982679620716
1589551737.0962572,-0.13358494227224216,-3.198207528863879,9.113584942272242,0.4977777777777778,0.25,-0.6677777777777778,0.37932351799747743,-1.1831764820025226,32.6875
1589551737.1062572,-0.16846816492410296,-3.1646816492410297,9.128554308937442,0.4977777777777778,0.25119142728125327,-0.6667565543938464,0.01914793844871305,-1.543352061551287,32.77366572301921
1589551737.1162572,-0.16717337145190933,-3.1015201143557283,9.067386971615274,0.4977777777777778,0.2577777777777778,-0.6611111111111111,0.03533285685113334,-1.6840846436593833,33.56383500102103
1589551737.1262572,-0.1921618190212373,-3.123784241305017,8.987572714681441,0.4977777777777778,0.2577777777777778,-0.6611111111111111,0.12837122960911052,-1.7449431555863342,34.78376519698369
1589551737.1362572,-0.21919339164237123,-3.1321768707482995,8.825724003887268,0.4977777777777778,0.2577777777777778,-0.6611111111111111,0.24143586005830903,-1.7046282798833818,35.97983479105928
1589551737.1462572,-0.22677402985074627,-3.147418208955224,9.008067462686567,0.4977777777777778,0.2577777777777778,-0.6611111111111111,-0.08266231343283582,-2.272175373134328,36.55243470149254
1589551737.1562572,-0.24437377339776734,-3.1324983645303566,9.109688522168527,0.5004859748219742,0.25236138368938504,-0.6746520963320929,0.17967216747209153,-1.9336065271065905,37.49217216747209
1589551737.1662571,-0.28,-3.1749428571428573,9.085057142857142,0.5044444444444445,0.24444444444444444,-0.6944444444444444,0.4669642857142857,-1.5625,38.348392857142855
1589551737.1762571,-0.333216732527416,-3.163347908434073,9.00352280964295,0.5044444444444445,0.24444444444444444,-0.6944444444444444,0.2709244277129563,-1.8535290060093064,39.4152091565927
1589551737.1862571,-0.36,-3.211803755186236,9.044181102177633,0.5044444444444445,0.24444444444444444,-0.6944444444444444,0.12858494878226012,-2.0809433674784934,40.27613188861021
1589551737.196257,-0.3914413695055212,-3.2976425107601224,9.09524022825092,0.5044444444444445,0.24444444444444444,-0.6944444444444444,0.0625,-2.157751426568251,41.05377139852377
1589551737.206257,-0.42,-3.3179950019809223,9.148007497028617,0.5251884246419949,0.24444444444444444,-0.6802200008804099,0.09583853960320604,-2.220838539603206,42.16677079206412
1589551737.216257,-0.42,-3.19010127531883,9.033908242685671,0.5433333333333333,0.24444444444444444,-0.6677777777777778,0.3201146966429107,-2.3280458786571643,43.53045878657164
1589551737.226257,-0.40746766590112415,-3.142532334098876,9.027726338692132,0.5433333333333333,0.24444444444444444,-0.6677777777777778,0.1633551915870905,-2.6883083524718967,44.50912607276683
1589551737.236257,-0.4,-3.0857568620659794,8.997401679799117,0.5433333333333333,0.24444444444444444,-0.6677777777777778,0.08603991687592,-2.588200277080267,45.271379556671576
1589551737.246257,-0.3883335454198404,-3.0080555909033064,8.977776363867731,0.5433333333333333,0.24444444444444444,-0.6677777777777778,0.3697883528149939,-2.0555590903306733,45.90972045483466
1589551737.256257,-0.3425850315402934,-3.000430838590049,9.282766456398045,0.5433333333333333,0.24444444444444444,-0.6677777777777778,1.0846088821829154,-1.29308385900489,46.29095807049755
1589551737.266257,-0.33282062120933653,-2.882309318140048,8.944107333210807,0.5311111111111111,0.2311111111111111,-0.6888888888888889,1.014406818599522,-1.1250264197757764,45.89742234883293
1589551737.276257,-0.3433676333021516,-2.9855098222637984,9.221833489242282,0.5311111111111111,0.2311111111111111,-0.6888888888888889,-0.006372778297474277,-2.720650140318054,44.85968194574369
1589551737.286257,-0.3667496481201987,-2.914246129322186,8.929751055639404,0.5311111111111111,0.2311111111111111,-0.6888888888888889,0.49844409774627346,-1.6828322932388204,43.5062236090149
1589551737.296257,-0.36371353245221494,-2.8533687168279736,8.964111423318416,0.5311111111111111,0.2311111111111111,-0.6888888888888889,0.5460874353904326,-2.1135610712179553,42.89787785756409
1589551737.306257,-0.4151924582241432,-3.025192458224143,9.165962291120715,0.5345727499272066,0.22418783347892013,-0.6958121665210798,-0.3076885443964197,-2.393018497090154,40.81367840247762
1589551737.316257,-0.40708078861203356,-3.01062118291805,9.125403943060167,0.5377777777777778,0.21777777777777774,-0.7022222222222222,0.49883310498571864,-1.6184021085386526,39.2146767526647
1589551737.326257,-0.44018279120327786,-3.053577054937704,9.054281963374864,0.5377777777777778,0.21777777777777774,-0.7022222222222222,0.45642925829918896,-1.5424282966803244,37.8570490843716
1589551737.336257,-0.5025092811936499,-3.113745359403175,9.01,0.5377777777777778,0.21777777777777774,-0.7022222222222222,-0.08204575186507795,-1.730454248134922,36.14408169218258
1589551737.346257,-0.53,-3.1038124036523183,9.03287442191391,0.5377777777777778,0.21777777777777774,-0.7022222222222222,-0.005862385865053957,-1.6636724771730107,34.16915688367129
1589551737.356257,-0.5259143191160388,-3.11,9.047528755138213,0.5377777777777778,0.21641588414979065,-0.7078967790055016,0.17473224723762115,-1.5611612361881058,32.81857393370291
1589551737.366257,-0.6048017444349315,-3.188072024828767,9.032495451626712,0.5377777777777778,0.2111111111111111,-0.73,-0.11897507758989725,-1.5216214950770548,30.649099689640412
1589551737.376257,-0.6583717070264289,-3.2445929267566074,8.981858535132146,0.5377777777777778,0.2111111111111111,-0.73,0.093030493254458,-1.2143810912031323,29.469469506745543
1589551737.386257,-0.6715839280173751,-3.234736011997104,8.97948779604923,0.5377777777777778,0.2111111111111111,-0.73,0.2730003749095046,-1.207299100217189,28.40120164960182
1589551737.396257,-0.672171420718899,-3.174342841437798,9.106380965468501,0.5377777777777778,0.2111111111111111,-0.73,0.09601189658218653,-1.3016070692396788,27.257202241897172
1589551737.406257,-0.6255680069447185,-3.0869088111115492,9.148454405555775,0.5374570668209937,0.20758329058648672,-0.73,0.27897989582922306,-0.7835201041707769,26.236500217022453
1589551737.416257,-0.5940475317413026,-3.0353967089884035,9.113254113764494,0.5366666666666666,0.1988888888888889,-0.73,0.7113117064674337,-0.3090265045606637,24.863596908374202
1589551737.426257,-0.6216670639650378,-3.0683329360349623,9.053329360349624,0.5366666666666666,0.1988888888888889,-0.73,-0.05211064759634486,-0.7916914978148589,22.791572308303536
1589551737.436257,-0.6334295574237022,-3.0668591148474045,9.066027607863662,0.5366666666666666,0.1988888888888889,-0.73,-0.5392610644074449,-1.1195873949167512,20.233762184750255
1589551737.4462569,-0.6388444212313116,-3.073644316772214,9.231510739700985,0.5366666666666666,0.1988888888888889,-0.73,-0.33166579617418557,-0.6813875106091272,19.013053306783313
1589551737.4562569,-0.6443503894250163,-3.0065255841375245,9.015226362987557,0.5335101347041645,0.1988888888888889,-0.7439789272625094,-0.05620481273466349,-0.1712597356254073,16.198265429608714
1589551737.4662569,-0.68,-3.055233166039314,9.101865328314513,0.5288888888888889,0.1988888888888889,-0.7644444444444445,-0.6875,-0.6454020284399833,13.886011344625679
1589551737.4762568,-0.6557249154453213,-3.0153213077790304,9.01491770011274,0.5288888888888889,0.1988888888888889,-0.7644444444444445,-0.3407130777903044,0.07259019165727171,12.222251972942503
1589551737.4862568,-0.6287605896043444,-2.965633824670287,8.90498588052754,0.5288888888888889,0.1988888888888889,-0.7644444444444445,0.19524631497284717,0.5429577191621412,10.07376648564779
1589551737.4962568,-0.6852802223251505,-3.026740389069013,8.976061834182492,0.5288888888888889,0.1988888888888889,-0.7644444444444445,-0.49225625289485875,-0.001382295044001891,7.333610757295044
1589551737.5062568,-0.7172886897109062,-3.0809330345663595,9.201866069132718,0.5317233793320191,0.18917063594101394,-0.7798316782785798,-0.868619825147853,-0.2658482716820335,5.089462494949124
1589551737.5162568,-0.725806144157944,-3.070643009105608,9.139347459790656,0.5366666666666666,0.17222222222222222,-0.8066666666666666,-0.3125,0.7923463960513999,3.046305633563101
1589551737.5262568,-0.7226323929928381,-3.045794357957029,9.023691536935544,0.5366666666666666,0.17222222222222222,-0.8066666666666666,-0.5263819306681012,0.6249033321004673,1.3024738576376047
1589551737.5362568,-0.7690563002680966,-3.168112600536193,9.085117962466487,0.5366666666666666,0.17222222222222222,-0.8066666666666666,-1.1860254691689007,0.17717828418230563,-0.9793565683646113
1589551737.5462568,-0.7855688622754491,-3.1767065868263473,9.027065868263472,0.5366666666666666,0.17222222222222222,-0.8066666666666666,-1.0209580838323353,0.8794910179640718,-2.3839820359281436
1589551737.5562568,-0.7396900533459383,-3.0261827267202377,8.962887433317576,0.5449719014713275,0.16219866297521776,-0.8029436303749221,-0.8163743331757715,1.0566885002363429,-3.4471858329394287
1589551737.5662568,-0.7218101835998209,-2.9259824039196056,9.042516660959356,0.5688888888888889,0.13333333333333333,-0.7922222222222223,-1.4532291309959697,0.26379632800358244,-4.699780048995074
1589551737.5762568,-0.7827259961383184,-3.0294794252614157,9.085849444569824,0.5688888888888889,0.13333333333333333,-0.7922222222222223,-2.190753592116151,-0.15505184432909552,-5.932619611825773
1589551737.5862567,-0.8688624242738052,-3.1516110909749906,8.905544969709522,0.5688888888888889,0.13333333333333333,-0.7922222222222223,-1.8889219696577435,0.7325231061978978,-6.239632954486615
1589551737.5962567,-0.9337093705727586,-3.2503250354179314,8.92629062942724,0.5688888888888889,0.13333333333333333,-0.7922222222222223,-1.5574807731228497,1.2318356607974095,-5.8467972070431085
1589551737.6062567,-0.9096120247458576,-3.2033764416949047,9.011163925762427,0.5801436945385713,0.11757660542377799,-0.7899712610922858,-1.3360276059315448,1.2029447881369104,-5.121766872882146
1589551737.6162567,-0.8362012169300377,-3.1502052733634964,9.139404462076804,0.6022222222222222,0.08666666666666667,-0.7855555555555556,-1.4337778879800298,0.7199695767490584,-4.395020282167295
1589551737.6262567,-0.841030989037084,-3.1641239561483356,9.08,0.6022222222222222,0.08666666666666667,-0.7855555555555556,-1.500645604939249,0.7525762358016385,-4.103092719753038
1589551737.6362567,-0.88,-3.2977857599464246,9.088330340020091,0.6022222222222222,0.08666666666666667,-0.7855555555555556,-2.2257256247907216,0.11456462512556695,-4.149274375209278
1589551737.6462567,-0.8567530312699426,-3.203838048642133,9.060923066014324,0.6022222222222222,0.08666666666666667,-0.7855555555555556,-1.7901315322980926,0.395293554562859,-4.229706445437141
1589551737.6562567,-0.8032201659221443,-3.1205647025455576,8.947909239168972,0.6022222222222222,0.08666666666666667,-0.7855555555555556,-1.3068487201304686,0.7298739629865986,-3.8951260370134015
1589551737.6662567,-0.8866108969866854,-3.2265272424667133,9.21677820602663,0.5877777777777777,0.04777777777777778,-0.7922222222222223,-2.3956590530833917,-1.1668409469166083,-3.0439323099159075
1589551737.6762567,-0.9237553985080487,-3.3062446014919513,9.1061870174061,0.5877777777777777,0.04777777777777778,-0.7922222222222223,-2.2965825808140297,-0.8669063277057977,-1.351078883653972
1589551737.6862566,-0.9415791319758533,-3.2687721759678046,8.844911296128783,0.5877777777777777,0.04777777777777778,-0.7922222222222223,-0.9802608503018332,0.14913049899388947,2.0175215529177204
1589551737.6962566,-0.925599774430033,-3.250399581084347,8.957600096672843,0.5877777777777777,0.04777777777777778,-0.7922222222222223,-1.2749989929912189,-0.7400004028035124,4.979985700475308
1589551737.7062566,-0.9966469125121661,-3.384955553152374,8.978190115713204,0.5816847746416255,0.04039231943092655,-0.7772666690698485,-1.4378703903968855,-0.7184722072023358,9.831049259219206
1589551737.7162566,-1.0375748324646314,-3.47767460908414,9.204850335070738,0.5511111111111111,0.0033333333333333327,-0.7022222222222222,-0.7257050446760983,-1.1322668466120624,14.263502885331349
1589551737.7262566,-1.081582448626236,-3.5579122431311796,9.070538570191825,0.5511111111111111,0.0033333333333333327,-0.7022222222222222,-0.17760969608602542,-0.934133936301089,20.170253907139926
1589551737.7362566,-1.1499798736370122,-3.605236675838174,9.038418934067053,0.5511111111111111,0.0033333333333333327,-0.7022222222222222,-0.30261833791908693,-1.3979733516763477,24.680450996127586
1589551737.7462566,-1.2048894129644974,-3.707136210083498,9.03469150360125,0.5511111111111111,0.0033333333333333327,-0.7022222222222222,-0.3558643795015616,-1.7640424819937537,29.240104531837595
1589551737.7562566,-1.0845863343744024,-3.6135671489578685,9.001273981770668,0.5511111111111111,0.0033333333333333327,-0.7022222222222222,-0.31409247721333416,-1.9311300911466633,33.58438236981324
1589551737.7662566,-1.0698496802591149,-3.441969936051823,9.162376048500954,0.5166666666666667,0.03555555555555556,-0.6711111111111111,-0.11174840129557345,-2.16193630097168,39.68684079395399
1589551737.7762566,-0.9735676099715265,-3.4355058399674587,8.981011679934918,0.5166666666666667,0.03555555555555556,-0.6711111111111111,0.3284745627288047,-1.9317090621186588,42.528620561915275
1589551737.7862566,-1.0165008914774754,-3.4865008914774753,9.0560035659099,0.5166666666666667,0.03555555555555556,-0.6711111111111111,0.08592357066444789,-2.3289299298704385,44.024977713063116
1589551737.7962565,-0.9420040923041946,-3.3906725777727256,8.9579993179493,0.5166666666666667,0.03555555555555556,-0.6711111111111111,0.5333304914554204,-1.7249914743662613,44.80415672009397
1589551737.8062565,-0.81,-3.2010423715160305,9.01022877396488,0.5194463240427475,0.039609222562340014,-0.6683314537350303,0.46212945062026745,-2.214989125181247,44.92955534074432
1589551737.8162565,-0.8389129286699945,-3.2533693930049914,9.243496482052505,0.5433333333333333,0.07444444444444444,-0.6444444444444445,-0.6965589277500468,-3.776382476703181,42.52717678325014
1589551737.8262565,-0.9246581713487454,-3.381987257023118,9.16489667626365,0.5433333333333333,0.07444444444444444,-0.6444444444444445,0.017984761239544067,-2.9278618460280414,40.38354571628137
1589551737.8362565,-0.9433524171864426,-3.34365330796949,8.965687658905086,0.5433333333333333,0.07444444444444444,-0.6444444444444445,0.8353331748093139,-1.2230478681567925,36.01387961624993
1589551737.8462565,-1.0200510845646023,-3.289928481609557,9.050153253693807,0.5433333333333333,0.07444444444444444,-0.6444444444444445,0.49891445300220055,-1.7508939798805407,33.184307214712355
1589551737.8562565,-1.0919287587133082,-3.251674873697001,9.190253885016308,0.5418443435441581,0.07701633589847441,-0.6418725529904145,-0.47874432435889236,-2.564086781351922,29.9863584766899
1589551737.8662565,-1.2246782091640434,-3.4004172288012793,9.08744341178234,0.5311111111111111,0.09555555555555556,-0.6233333333333333,0.2606524509069105,-2.192826225453455,29.59576119272473
1589551737.8762565,-1.2400476103277789,-3.3162946346822926,8.99997619483611,0.5311111111111111,0.09555555555555556,-0.6233333333333333,0.40617560886284565,-2.4532365867057315,30.34412195568577
1589551737.8862565,-1.3530103898410444,-3.41,8.972768182221827,0.5311111111111111,0.09555555555555556,-0.6233333333333333,0.3109862023798952,-2.6468425317467363,31.91782063093864
1589551737.8962564,-1.3874484092863284,-3.4025515907136716,9.034896818572657,0.5311111111111111,0.09555555555555556,-0.6233333333333333,0.4840525580395529,-2.655605116079106,34.46251612209802
1589551737.9062564,-1.389464271371583,-3.368798693475409,9.06879869347541,0.5356746063618704,0.09762987157862797,-0.6272745337771709,0.6833401381489117,-2.902495917110653,37.88758165778694
1589551737.9162564,-1.3217160442311704,-3.382735238890048,9.044128938034634,0.5555555555555556,0.10666666666666667,-0.6444444444444445,0.9525805862716461,-2.719838827456708,41.76693224494054
1589551737.9262564,-1.37766838614591,-3.549856055023336,9.103557848194546,0.5555555555555556,0.10666666666666667,-0.6444444444444445,1.0171272414640138,-2.6592544829280276,44.666163104888234
1589551737.9362564,-1.3073329206255215,-3.3673329206255214,9.0,0.5555555555555556,0.10666666666666667,-0.6444444444444445,1.0791692460904907,-2.8177115576131135,46.82081527736656
1589551737.9462564,-1.3168134576948702,-3.3632879746835442,9.032847601598935,0.5555555555555556,0.10666666666666667,-0.6444444444444445,0.9353816205862758,-2.6108052964690205,48.4915264823451
1589551737.9562564,-1.232983344437042,-3.2305569620253163,9.151606928714191,0.5555555555555556,0.10666666666666667,-0.6444444444444445,1.1536892071952032,-2.7854513657561624,49.36475682878081
1589551737.9662564,-1.247871458353075,-3.311061309580214,9.007653273950536,0.5555555555555556,0.09333333333333334,-0.6522222222222223,0.5771300222685493,-2.6475898441201555,50.424196614706716
1589551737.9762564,-1.2825889565469533,-3.416472391367383,9.275533739281721,0.5555555555555556,0.09333333333333334,-0.6522222222222223,0.6687404208607762,-3.3529524460461455,50.75
1589551737.9862564,-1.202461577294144,-3.238953892752973,8.92806147632937,0.5555555555555556,0.09333333333333334,-0.6522222222222223,1.3684618297060802,-2.49192281803904,50.59653880132376
1589551737.9962564,-1.1019474468166368,-3.1159408776687165,9.134009853721881,0.5555555555555556,0.09333333333333334,-0.6522222222222223,0.4124384142382462,-3.325082114349005,48.900882729251805
1589551738.0062563,-1.2300604755577953,-3.2600680350025195,9.110037797223622,0.5555706744450044,0.09331737450558178,-0.6522163426541032,0.562641739588583,-3.1241495624685025,46.74754318046456
1589551738.0162563,-1.3069249095157374,-3.3465405232052046,9.158078068447336,0.5747867829344899,0.07303370443334709,-0.6447434115748589,0.7427927566775094,-2.043243459934943,43.624925550923166
1589551738.0262563,-1.2091704794432272,-3.0720113738883876,9.083136357778065,0.5755555555555556,0.07222222222222223,-0.6444444444444445,0.7159800312540275,-2.055468850689522,38.03664695837092
1589551738.0362563,-1.3240420801649697,-3.119311444773811,9.056107745843537,0.5755555555555556,0.07222222222222223,-0.6444444444444445,0.3358901759247326,-2.520023118314216,34.48914164196417
1589551738.0462563,-1.0994221698113207,-3.158455188679245,8.927346698113208,0.5755555555555556,0.07222222222222223,-0.6444444444444445,0.5531397405660378,-1.7186025943396226,30.835126768867923
1589551738.0562563,-1.37898156250943,-3.3186043634388485,9.476492048643593,0.5756561419743773,0.07213001800496897,-0.6445785596695401,0.5002357494191134,-2.2422202691692568,28.104018301698904
1589551738.0662563,-1.10376930591738,-2.98738416449572,8.687075269817642,0.6022222222222222,0.04777777777777778,-0.68,0.7052867393933755,-0.29134490137700036,21.796643852344623
1589551738.0762563,-1.1211380840511616,-3.165528345316912,9.234308867848414,0.6022222222222222,0.04777777777777778,-0.68,0.7240869936641275,-1.1316043164614034,17.612808784793906
1589551738.0862563,-1.283406614505832,-3.296031776508424,9.30312581001296,0.6022222222222222,0.04777777777777778,-0.68,-1.1822349157586522,-2.4632944127106033,11.237714803436855
1589551738.0962563,-1.1817961222389093,-3.171197414825939,9.113139164037056,0.6022222222222222,0.04777777777777778,-0.68,0.4916059887615801,0.13713593256948076,6.473098876158013
1589551738.1062562,-1.0331649820286528,-3.072109988019102,8.971585697170145,0.6022222222222222,0.04777777777777778,-0.68,0.44737053036567054,-0.12827681780597694,2.049553036567051
1589551738.1162562,-1.0610432222668273,-2.9715158570855076,9.070806904857486,0.6690790847049377,-0.036520005352602705,-0.6557764991004654,-0.7070604175030109,-0.4055115080958116,-5.750359627994112
1589551738.1262562,-1.118207779692741,-2.9531131743296086,9.213962862067048,0.6788888888888889,-0.048888888888888885,-0.6522222222222223,-0.8319573395600526,-0.5235853208798947,-13.249441726432053
1589551738.1362562,-1.2491061143984221,-3.0194311637080866,8.912925443786982,0.6788888888888889,-0.048888888888888885,-0.6522222222222223,0.11738165680473378,1.545231755424063,-23.936513806706113
1589551738.1462562,-1.280994276183617,-3.012748569045904,8.970614267844281,0.6788888888888889,-0.048888888888888885,-0.6522222222222223,0.1016072173154922,1.879750104241689,-30.303552983207613
1589551738.1562562,-1.3445900458663433,-3.0286475114665854,9.089856335999393,0.6788888888888889,-0.048888888888888885,-0.6522222222222223,-0.3952347333308063,1.1841713733368713,-34.22860439331337
1589551738.1662562,-1.3409601658382606,-2.858243150926951,9.1,0.8928316307167218,-0.24977409248309818,-0.6070230514135251,-1.1719865256413278,0.6165093284021578,-37.44394713905444
1589551738.1762562,-1.402625804245796,-2.9926258042457965,9.047177446927549,0.9155555555555556,-0.27111111111111114,-0.6022222222222222,-0.29102819134056507,1.679294361731887,-38.496854893855094
1589551738.1862562,-1.4156625120442607,-3.0056625120442604,8.884218599446742,0.9155555555555556,-0.27111111111111114,-0.6022222222222222,-0.4947267506915737,1.6385546498616852,-38.17093719889348
1589551738.1962562,-1.4299079442354503,-3.010106218189865,9.199780482407611,0.9155555555555556,-0.27111111111111114,-0.6022222222222222,-1.1871016817880062,0.1256196061075459,-36.060065833148926
1589551738.2062562,-1.3092487275946005,-3.1493283912369994,8.912054658110202,0.9155555555555556,-0.27111111111111114,-0.6022222222222222,-0.6650185328612525,0.9377489488824962,-32.86955770081877
1589551738.2162561,-1.2821184311154812,-3.3373462252813284,9.189544411668304,1.5833333333333333,-0.2977777777777777,-0.4833333333333333,0.2064350486179395,1.847522670162788,-30.464478859390365
1589551738.2262561,-1.1416908840815305,-3.2403863948980867,9.127536326122296,1.5833333333333333,-0.2977777777777777,-0.4833333333333333,-0.025965987245216957,1.1574574840565213,-30.09088095535826
1589551738.2362561,-1.0783877018804044,-3.350969254701011,9.032581552820606,1.5833333333333333,-0.2977777777777777,-0.4833333333333333,-0.27621156837626387,1.3064421581186805,-31.224487578350185
1589551738.246256,-1.134192912625111,-3.486708660200178,9.102452757274799,1.5833333333333333,-0.2977777777777777,-0.4833333333333333,-0.42701771843722225,0.5733759709394443,-33.60036905359972
1589551738.256256,-1.1747144182092204,-3.5515430691347527,9.029514047223403,1.5833333333333333,-0.2977777777777777,-0.4833333333333333,-0.3257139544769486,1.2825023186613596,-35.778399978745604
1589551738.266256,-1.07,-3.56,9.1,0.8666666666666667,0.015555555555555557,-0.7288888888888889,0.0625,1.875,-38.9375
1589551738.276256,-0.9718413275744487,-3.4782011063120404,9.075460331893613,0.8666666666666667,0.015555555555555557,-0.7288888888888889,0.0625,1.7727513828900507,-41.7493369705236
1589551738.286256,-0.9033985820942343,-3.3900978731413516,8.969030261204175,0.8666666666666667,0.015555555555555557,-0.7288888888888889,-0.22875886191103584,1.7985431436518393,-45.14195918815484
1589551738.296256,-0.9273581073007529,-3.4447162146015056,8.94,0.8666666666666667,0.015555555555555557,-0.7288888888888889,-0.37087204265742624,2.045988170629705,-50.08191502867726
1589551738.306256,-0.8861901821549861,-3.2747607286199445,9.062667489966039,0.8666666666666667,0.015555555555555557,-0.7288888888888889,-0.7583359061438716,1.5696395492435937,-54.59169496758258
1589551738.316256,-0.9850597357528874,-3.46668570499033,9.034036365608111,0.728046181992718,0.08121789040111016,-0.7288888888888889,-0.8125,1.7462337556708298,-58.18334402732843
1589551738.326256,-1.0319741858756866,-3.708413025989017,9.074206512994508,0.6555555555555556,0.11555555555555555,-0.7288888888888889,-0.5115319703382419,2.5772587358774355,-62.408550928678864
1589551738.336256,-0.9808267373676774,-3.6205792193215025,9.019752481953825,0.6555555555555556,0.11555555555555555,-0.7288888888888889,-0.3935953012211406,2.706095301221141,-64.42354566214465
1589551738.346256,-0.9311332029552369,-3.473777343184123,8.970755468636826,0.6555555555555556,0.11555555555555555,-0.7288888888888889,-0.4952783210198464,2.9280566420396927,-66.8041748152977
1589551738.356256,-0.93,-3.463045755190179,9.004771224049104,0.6555555555555556,0.11555555555555555,-0.7288888888888889,-0.586928060122762,3.1982841803682858,-67.87467269141176
1589551738.366256,-1.0292075650118204,-3.8296037825059104,9.138613238770686,0.6088888888888889,0.17555555555555555,-0.7288888888888889,-0.2537145390070922,2.810642730496454,-68.80630910165485
1589551738.376256,-0.9494770706316119,-3.7891334313323854,8.999895414126323,0.6088888888888889,0.17555555555555555,-0.7288888888888889,-0.625280140733065,2.62481323951129,-68.18843380244356
1589551738.386256,-0.60076025142173,-3.2116291101894214,8.93,0.6088888888888889,0.17555555555555555,-0.7288888888888889,-0.8057120408774106,2.5088243468593663,-68.83354267328002
1589551738.396256,-0.6635303801257109,-3.346136528840809,8.93,0.6088888888888889,0.17555555555555555,-0.7288888888888889,-0.24526446316329586,3.237406197887715,-70.57093016419378
1589551738.406256,-0.7446593164277839,-3.600568908489526,9.054432194046306,0.6088888888888889,0.17555555555555555,-0.7288888888888889,-0.7059674751929438,2.586645534729879,-72.92756339581037
1589551738.416256,-0.7908771350142335,-3.711378355022367,9.0684963399756,0.5966666666666667,0.19666666666666666,-0.75,-1.2374694997966653,2.200813656466043,-75.20003050020334
1589551738.426256,-0.8592995491923974,-3.8256036064608203,8.954903155653216,0.5966666666666667,0.19666666666666666,-0.75,-0.25,3.236866547357452,-76.1612330947149
1589551738.436256,-0.8479624882617193,-3.8995472196137153,9.022263901931423,0.5966666666666667,0.19666666666666666,-0.75,-0.2584896322428365,3.052595429050024,-75.78844604197863
1589551738.446256,-0.7723735361825643,-3.8841245120608545,9.115188069262336,0.5966666666666667,0.19666666666666666,-0.75,-0.5992217996196577,2.685149134220799,-74.69844359923931
1589551738.456256,-0.9235043539185266,-3.9345014513061756,9.056414973476128,0.5966666666666667,0.19666666666666666,-0.75,-0.28436592933640276,3.4198128315483936,-74.0687318586728
1589551738.466256,-1.0710297322345514,-4.220777997645468,9.66771159482003,0.57378845945111,0.208105770274445,-0.7427205704314138,-0.36699083235227814,2.9735412544147484,-71.42620168824988
1589551738.476256,-1.0255694802801327,-4.331803814964983,8.836835606339845,0.5722222222222222,0.2088888888888889,-0.7422222222222222,1.9102066439366014,6.201544070217471,-64.33148267600443
1589551738.486256,-1.4284016675262161,-4.948788249957023,9.02864663916108,0.5722222222222222,0.2088888888888889,-0.7422222222222222,3.3744506940862986,8.253514752019942,-56.637192173800926
1589551738.4962559,-24.447660305999655,-26.516950318033352,6.414870208011003,0.5722222222222222,0.2088888888888889,-0.7422222222222222,1.0648637613890322,3.8033350524325256,-50.21541387313048
1589551738.5062559,-8.411794716707242,-10.187169340571273,3.347785523112516,0.5722222222222222,0.2088888888888889,-0.7422222222222222,-22.73580606505073,13.587599987903165,-118.40986156684258
1589551738.5162559,0.924479199620373,-2.643187282505537,5.723643625434988,0.5502234261309712,0.2321447590424971,-0.722109037224507,-110.11507434356216,-45.133173343087634,-469.50670031240116
1589551738.5262558,-19.87487578295447,-24.21036455767471,14.276731648954886,0.5333333333333333,0.25,-0.7066666666666667,-117.11416619748047,15.901554472517418,-643.628206594412
1589551738.5362558,-0.5128636106395064,-3.535778155065085,3.5312280701754393,0.5333333333333333,0.25,-0.7066666666666667,-61.95359366157329,111.008701188455,-507.5315152801358
1589551738.5462558,1.3135975008220981,-0.565274580730023,7.506310424202566,0.5333333333333333,0.25,-0.7066666666666667,2.1877466293982266,41.47021950016442,-328.02634824071026
1589551738.5562558,0.8566353073215818,-1.0644728329042055,9.262840826566318,0.5333333333333333,0.25,-0.7066666666666667,76.0426053839044,12.719232768865123,-224.6758722849409
1589551738.5662558,-1.5929796091758706,2.76889634664401,3.6622204757858965,0.43330402152364766,0.3979065892570566,-0.6921324931558577,133.40782975785896,53.06936066270179,-210.5458926295667
1589551738.5762558,0.19143469749230912,-1.8591740467978,5.583390509928218,0.4033333333333333,0.44222222222222224,-0.6877777777777778,88.83812459215065,61.735760231192316,-163.3791076256176
1589551738.5862558,4.897971928920938,-9.424518413597733,14.596129281483389,0.4033333333333333,0.44222222222222224,-0.6877777777777778,-63.21414660056657,-33.919718162503216,-102.79718082024208
1589551738.5962558,1.7474761782127217,-0.9091784702549575,8.583183105845997,0.4033333333333333,0.44222222222222224,-0.6877777777777778,-7.517882436260621,-6.296621491115115,-78.9996861318568
1589551738.6062558,2.2363698295757146,-2.363177037102787,8.91370672820877,0.4033333333333333,0.44222222222222224,-0.6877777777777778,19.534245739392865,15.692534506479674,-64.98877707260785
1589551738.6162558,2.8199089494758858,-3.61004616287077,8.875798923716493,0.3810451398630133,0.48679860916286233,-0.7120040750281256,0.2725299038486071,3.6538135377081797,-45.400102655002684
1589551738.6262558,2.581736438282407,-2.6860196527123437,8.83005788127608,0.37777777777777777,0.4933333333333334,-0.7155555555555555,-5.300200228832952,-1.1730296809799432,-18.951776820568043
1589551738.6362557,2.4979161680573085,-3.049377243742111,8.706874252085964,0.37777777777777777,0.4933333333333334,-0.7155555555555555,-0.9945484238480073,-1.2730039916069702,-7.26946113305903
1589551738.6462557,2.076363832775197,-3.791373015015664,8.870386734363185,0.37777777777777777,0.4933333333333334,-0.7155555555555555,0.38781462676893164,-0.19016014907637468,9.643006643621042
1589551738.6562557,1.6055196758548713,-3.8464964086193136,8.942616489655597,0.37777777777777777,0.4933333333333334,-0.7155555555555555,-0.24473571121615817,0.13317653017373687,14.51164896555958
1589551738.6662557,1.3490626343700731,-3.931602049591515,9.01859395155511,0.355533777650375,0.49441840651027985,-0.7123003360247161,-0.5334469506951411,-0.23974756342267456,16.31103536620324
1589551738.6762557,1.2624439557321225,-3.873947928490352,8.87394792849035,0.3322222222222222,0.4955555555555556,-0.7088888888888889,-0.4375,-0.6875,16.375
1589551738.6862557,1.3040638832141642,-4.002191649642492,8.914063883214164,0.3322222222222222,0.4955555555555556,-0.7088888888888889,0.7742567883895131,-0.4121007299114743,16.04452087589377
1589551738.6962557,1.3623562018573177,-3.9872773738391762,8.913455474767835,0.3322222222222222,0.4955555555555556,-0.7088888888888889,0.8147901518969116,-0.12958030379382335,15.304644194082499
1589551738.7062557,1.3632796804323561,-4.023440639135288,9.05028167773013,0.3322222222222222,0.4955555555555556,-0.7088888888888889,0.3742455060800094,-0.3757544939199906,13.684985020266698
1589551738.7162557,1.3379986682595328,-3.947988680206028,8.975984019114392,0.3595585889643977,0.4902216303375701,-0.7002212604096625,-0.037524970133761604,-0.41248335324415897,11.74985434088639
1589551738.7262557,1.2256800894854587,-4.072590604026845,9.056541387024609,0.37777777777777777,0.4866666666666667,-0.6944444444444444,-0.1875,-0.362653803131991,9.119616890380314
1589551738.7362556,1.1391524539222428,-3.9374573617667292,8.8392248025239,0.37777777777777777,0.4866666666666667,-0.6944444444444444,0.029812664563417718,-0.10335916929572786,7.872577507887184
1589551738.7462556,1.3198436685773842,-4.000794798015271,8.965081450936855,0.37777777777777777,0.4866666666666667,-0.6944444444444444,0.26885181367106964,-0.16567590683553482,6.821416838480187
1589551738.7562556,1.2818738720049787,-3.977385748366352,8.92187387200498,0.37777777777777777,0.4866666666666667,-0.6944444444444444,0.1349406181931335,-0.23188984545171662,5.426474172803651
1589551738.7662556,1.287010087646767,-3.9877575657350754,9.075050438233834,0.3520763280230785,0.4887227826470426,-0.7026689083659482,0.17815652389614683,-0.018686952207706303,3.7809347610385315
1589551738.7762556,1.2513391917696115,-3.966803515061767,8.935356767078446,0.35,0.4888888888888889,-0.7033333333333334,-0.19910808230388527,-0.04832601028798566,2.9142838353922293
1589551738.7862556,1.2507164580239054,-3.9975076030836694,8.900716458023906,0.35,0.4888888888888889,-0.7033333333333334,-0.1450553433764764,-0.02901106867529528,2.2856328241035433
1589551738.7962556,1.2366006785221637,-3.9656518659359508,8.869051187413787,0.35,0.4888888888888889,-0.7033333333333334,0.07312287961823807,0.07312287961823807,1.4987627222905715
1589551738.8062556,1.22,-3.9577701501685567,8.929704106650322,0.35,0.4888888888888889,-0.7033333333333334,0.125,0.06598414036163039,0.892420701808152
1589551738.8162556,1.210428303814714,-3.984047173024523,9.026809434604903,0.35212704359673025,0.4846348016954284,-0.7004972752043597,-0.014587236035422335,0.0398820674386921,0.5026768988419619
1589551738.8262556,1.182396120260212,-3.965207759479576,9.02,0.3566666666666667,0.4755555555555556,-0.6944444444444444,-0.21745150325265195,0.02995150325265193,0.23242725487897792
1589551738.8362556,1.2100462715785727,-3.9174190247374976,8.87728021000178,0.3566666666666667,0.4755555555555556,-0.6944444444444444,-0.4222364967075992,-0.04694729934151984,0.14055270065848016
1589551738.8462555,1.2097432220628939,-3.905128388968553,8.886412278654083,0.3566666666666667,0.4755555555555556,-0.6944444444444444,-0.11537082735852205,0.0016048621069130048,0.125
1589551738.8562555,1.2084667842054488,-3.9227001763081732,8.952700176308173,0.3566666666666667,0.4755555555555556,-0.6944444444444444,0.09124779614783274,0.0625,0.17791740128405575
1589551738.8662555,1.2151736717202424,-3.949652656559515,8.989305313119031,0.3620292536441751,0.4921795751858317,-0.7046333597017104,-0.125,0.0625,0.18967089650303018
1589551738.8762555,1.204095151377191,-3.948190302754382,8.986380605508764,0.36777777777777776,0.51,-0.7155555555555555,-0.19881060778511267,0.025594696107443665,0.125
1589551738.8862555,1.2058725161193016,-3.9576175483579052,8.89952980656838,0.36777777777777776,0.51,-0.7155555555555555,-0.13989032276309338,-0.07340645149127106,0.08829677425436447
1589551738.8962555,1.21,-3.948406031233172,8.9003859271226,0.36777777777777776,0.51,-0.7155555555555555,0.027474869861784254,0.009962304792676374,0.10748743493089213
1589551738.9062555,1.2166079516859587,-3.94,8.96625566180171,0.36777777777777776,0.51,-0.7155555555555555,0.18639909411172623,0.14509939607448413,0.125
1589551738.9162555,1.2114809517164387,-3.9485190482835613,9.032595241417805,0.36777777777777776,0.47687036778615066,-0.7155555555555555,0.09026784468322635,0.24074405177225788,0.23148810354451577
1589551738.9262555,1.2033874758814243,-3.95,8.973874758814242,0.36777777777777776,0.4711111111111111,-0.7155555555555555,-0.06148482722329415,0.12601517277670585,0.0846868970356078
1589551738.9362555,1.1935758487566708,-3.95,8.882182638810036,0.36777777777777776,0.4711111111111111,-0.7155555555555555,-0.24545283581242194,0.022349054729192686,0.16060378108322926
1589551738.9462554,1.1971944103947045,-3.9643888207894094,8.871583231184115,0.36777777777777776,0.4711111111111111,-0.7155555555555555,-0.26753493503309633,-0.04496506496690365,0.07013974013238539
1589551738.9562554,1.1938710260841605,-3.97,8.965805634821752,0.36777777777777776,0.4711111111111111,-0.7155555555555555,-0.058469565130018886,0.052418260921988674,0.0
1589551738.9662554,1.1969321759330012,-3.935339120334994,9.006135648133997,0.37779092079211285,0.48420522120678,-0.7070828960818875,0.0625,0.038347800837485096,0.0
1589551738.9762554,1.2076115272675223,-3.9504461090700893,8.992388472732477,0.38222222222222224,0.49,-0.7033333333333334,-0.17536022711007204,-0.09514409084402882,0.04757204542201441
1589551738.9862554,1.189106395044495,-3.9669645349851685,8.934283720118653,0.38222222222222224,0.49,-0.7033333333333334,-0.2064716563426976,-0.03794331268539522,0.0625
1589551738.9962554,1.2021282643453544,-3.9755320660863385,8.915532066086339,0.38222222222222224,0.49,-0.7033333333333334,-0.22207541303961628,-0.034575413039616275,0.027924586960383725
1589551739.0062554,1.2151194358079926,-3.9604777432319707,8.944402820960036,0.38222222222222224,0.49,-0.7033333333333334,-0.06697884279972699,0.0900176310002275,0.0
1589551739.0162554,1.1976443111043598,-3.9482371259304267,8.986474251860853,0.3680360608975982,0.49,-0.7033333333333334,0.125,0.12129490733708037,-0.02574101853258393
1589551739.0262554,1.18,-3.943222698072805,8.984834047109207,0.3477777777777778,0.49,-0.7033333333333334,0.09878546573875803,-0.0625,0.01614360278372591
1589551739.0362554,1.1850607057755589,-3.9351821173266766,8.919635765346648,0.3477777777777778,0.49,-0.7033333333333334,-0.15890587768069897,0.0007588221944854201,0.06174117780551458
1589551739.0462554,1.19,-3.961147506339814,8.906721259509721,0.3477777777777778,0.49,-0.7033333333333334,-0.23565617075232462,-0.042007871935756544,0.06967191462383769
1589551739.0562553,1.19,-3.97,8.945169217060506,0.3477777777777778,0.49,-0.7033333333333334,-0.06207695734873281,-0.06207695734873281,0.125
1589551739.0662553,1.19,-3.955975908828621,8.979349394114253,0.3446613130730269,0.49,-0.6934645284349554,0.08765056982111945,-0.05843371321407963,0.09578314339296018
1589551739.0762553,1.19,-3.935017782503483,8.999964434993034,0.3411111111111111,0.49,-0.6822222222222222,0.09408342194030946,-0.15613885935323019,0.031361140646769814
1589551739.0862553,1.2007709365067631,-3.9407709365067634,8.929217976199276,0.3411111111111111,0.49,-0.6822222222222222,-0.10097752975090547,-0.1201816468327297,0.03365917658363515
1589551739.0962553,1.2037612250084717,-3.95,8.916148974923754,0.3411111111111111,0.49,-0.6822222222222222,-0.14850765630294815,0.015484687394103705,0.0625
1589551739.1062553,1.2,-3.9547956532947315,8.935613040115806,0.3411111111111111,0.49,-0.6822222222222222,-0.06505433381585993,0.0625,0.0625
1589551739.1162553,1.2076779731481255,-3.9676779731481253,8.943033919444376,0.3436704354938196,0.49,-0.6924595197530562,0.0719809982636766,0.0625,0.0625
1589551739.1262553,1.1999850634802092,-3.964988797610157,8.995011202389843,0.3477777777777778,0.49,-0.7088888888888889,0.1875,-4.6676624346528306e-05,0.0625
1589551739.1362553,1.1994114024734437,-3.937059065017704,8.925883922615077,0.3477777777777778,0.49,-0.7088888888888889,0.06617873454097603,-0.0625,-0.05882126545902397
1589551739.1462553,1.21,-3.9539116050220566,8.903911605022056,0.3477777777777778,0.49,-0.7088888888888889,-0.14944753138785205,0.012223765693926025,0.02444753138785205
1589551739.1562552,1.2051541608671812,-3.9603083217343626,8.939383356531275,0.3477777777777778,0.49,-0.7088888888888889,-0.12885402167953097,0.0019270108397654861,0.09471350541988274
1589551739.1662552,1.2,-3.95,8.969901753724308,0.3525452888302219,0.49,-0.707055230791795,0.0,-0.04187134640769376,0.08312865359230624
1589551739.1762552,1.195244236898673,-3.94286635534801,8.98286635534801,0.3622222222222222,0.49,-0.7033333333333334,0.029723519383292565,0.0,0.11013824030835372
