time,acc_x,acc_y,acc_z,mag_x,mag_y,mag_z,gyr_x,gyr_y,gyr_z
1589551745.8828595,-0.22,-4.14,8.88,0.4888888888888889,0.2788888888888889,-0.6488888888888888,-0.0625,-0.25,-2.0625
1589551745.8928595,-0.1767308512809097,-4.08,8.942884041033633,0.4888888888888889,0.2788888888888889,-0.6488888888888888,-0.020432179494314282,-0.3557712820227429,-2.310093076965886
1589551745.9028594,-0.17467415544726192,-4.082337077723631,8.999348310894524,0.4920049925203968,0.2788888888888889,-0.6455131099547553,-0.03328652845461303,-0.08525284959114562,-2.650140414636161
1589551745.9128594,-0.19835613991210835,-4.098356139912108,9.08013683947265,0.5022222222222222,0.2788888888888889,-0.6344444444444445,0.21917762335203117,0.40667762335203117,-2.989725874450677
1589551745.9228594,-0.19263544029188442,-4.114729119416231,9.045812641751306,0.5022222222222222,0.2788888888888889,-0.6344444444444445,0.15794300364855537,0.3454430036485554,-2.861914505472833
1589551745.9328594,-0.19,-4.103940662489815,9.038029668755092,0.5022222222222222,0.2788888888888889,-0.6344444444444445,0.27555628915798047,0.46305628915798047,-2.561572851403366
1589551745.9428594,-0.19,-4.1,9.053695622341156,0.5022222222222222,0.2788888888888889,-0.6344444444444445,0.3552988198161109,0.37160354055166733,-2.5
1589551745.9528594,-0.19518399743445844,-4.094816002565541,9.06,0.4987662239325833,0.2886808840428659,-0.6528764353225189,0.3102000320692696,0.18290006413853924,-2.467600016034635
1589551745.9628594,-0.2,-4.078015519951835,9.065992240024084,0.4955555555555556,0.2977777777777777,-0.67,0.17509699969896644,0.0625,-2.5498545004515503
1589551745.9728594,-0.1846584624837851,-4.054658462483785,8.998406158257664,0.4955555555555556,0.2977777777777777,-0.67,0.02911539052365672,-0.19319229193691545,-2.7848076824605723
1589551745.9828594,-0.1268036332179931,-4.097595155709342,8.997194348327566,0.4955555555555556,0.2977777777777777,-0.67,-0.1224949538638985,-0.4375,-3.057489907727797
1589551745.9928594,-0.18365931037217698,-4.138176987290068,8.944517676917892,0.4955555555555556,0.2977777777777777,-0.67,0.1193861162334186,0.14217377510756846,-3.085204627922194
1589551746.0028594,-0.15047954767555494,-4.153200125645679,9.04584077900321,0.5088356058138273,0.2800710441000822,-0.6648355360106721,0.04299874354320815,-0.12200282702778165,-2.958499842942901
1589551746.0128593,-0.1689700981916737,-4.184358199671213,9.006418003287866,0.5155555555555555,0.27111111111111114,-0.6622222222222223,0.14421624383525128,0.1281712356155863,-2.7131531301372904
1589551746.0228593,-0.19193196866033987,-4.198068031339661,8.95,0.5155555555555555,0.27111111111111114,-0.6622222222222223,0.3508503917457515,0.7279763711101302,-2.423299216508497
1589551746.0328593,-0.1749801182160129,-4.1849801182160125,8.987549704459967,0.5155555555555555,0.27111111111111114,-0.6622222222222223,0.1403143471252015,0.5308772165502418,-1.9995029554003225
1589551746.0428593,-0.18239405568710707,-4.173802972156446,9.055773250591981,0.5155555555555555,0.27111111111111114,-0.6622222222222223,0.02376857597779048,0.36003715195558095,-1.6426114558667428
1589551746.0528593,-0.1759622255228614,-4.160641483681908,9.09,0.49059951204064245,0.2778700395630668,-0.6559832113434939,-0.05849072698807756,0.13702781903576733,-1.2952824555417286
1589551746.0628593,-0.16605444845441708,-4.125782206182332,9.083945551545582,0.4622222222222222,0.2855555555555556,-0.6488888888888888,-0.125,-0.1760209085203201,-1.1003403028401066
1589551746.0728593,-0.1762920572274297,-4.11,9.017079427725703,0.4622222222222222,0.2855555555555556,-0.6488888888888888,-0.2036507153428712,-0.25,-1.125
1589551746.0828593,-0.16533181285438248,-4.102665906427191,8.965331812854384,0.4622222222222222,0.2855555555555556,-0.6488888888888888,-0.06664766067978081,-0.11248574550983559,-1.3083523393202192
1589551746.0928593,-0.16632191277129335,-4.093678087228707,8.991609563856468,0.4622222222222222,0.2855555555555556,-0.6488888888888888,-0.039511954820583416,-0.22054781928233366,-1.454023909641167
1589551746.1028593,-0.17,-4.104733075054173,9.000177949963884,0.48459466952670704,0.2855555555555556,-0.6554369222462991,-0.001112187274279336,-0.18972437454855867,-1.5306939063628604
1589551746.1128592,-0.17,-4.155563940767987,8.99592732346133,0.5077777777777778,0.2855555555555556,-0.6622222222222223,0.0625,0.011591543266639179,-1.6365915432666391
1589551746.1228592,-0.16044775629452124,-4.189552243705479,8.980895512589044,0.5077777777777778,0.2855555555555556,-0.6622222222222223,0.09235076157962117,0.12220152315924235,-1.5680969536815152
1589551746.1328592,-0.15718950996766284,-4.192810490032337,8.970784264951496,0.5077777777777778,0.2855555555555556,-0.6622222222222223,0.14746721864894638,0.14256556270210724,-1.3026966881063218
1589551746.1428592,-0.16586837104854035,-4.171736742097081,9.006526515805838,0.5077777777777778,0.2855555555555556,-0.6622222222222223,0.1875,0.13996804283986872,-1.0108546381067542
1589551746.1528592,-0.16294861835534347,-4.145256908223283,9.044743091776716,0.5022081653287956,0.2855555555555556,-0.6582907310817643,0.15064227055820664,0.19471340583730995,-0.9006422705582067
1589551746.1628592,-0.17,-4.105271543707378,9.070543087414755,0.4888888888888889,0.2855555555555556,-0.6488888888888888,0.0625,0.12160570365778053,-0.7829471481711098
1589551746.1728592,-0.17,-4.110831795412602,9.00584102293699,0.4888888888888889,0.2855555555555556,-0.6488888888888888,0.16404808199314527,0.05210255734247296,-0.75
1589551746.1828592,-0.17,-4.099506168326784,8.975370373754913,0.4888888888888889,0.2855555555555556,-0.6488888888888888,0.21797838801060038,0.033564835968198856,-0.75
1589551746.1928592,-0.17,-4.091639844405461,9.005519792540614,0.4888888888888889,0.2855555555555556,-0.6488888888888888,0.21174967584471055,0.125,-0.7257503241552894
1589551746.2028592,-0.17,-4.093896373056995,9.03,0.49157282671272307,0.2828716177317214,-0.6488888888888888,0.2751619170984456,0.07467616580310882,-0.7629857512953367
1589551746.2128592,-0.1909986045403492,-4.054251046594739,8.982753139784213,0.4955555555555556,0.2788888888888889,-0.6488888888888888,0.11563808243422619,-0.03281031959429563,-0.8093793608114087
1589551746.2228591,-0.1744900289720219,-4.093264956541967,8.916326685981348,0.4955555555555556,0.2788888888888889,-0.6488888888888888,-0.1364791063082877,0.01147910630828769,-1.008926872079007
1589551746.2328591,-0.18267055292623802,-4.123465889414752,8.913068221170496,0.4955555555555556,0.2788888888888889,-0.6488888888888888,0.057529146946785154,0.3892055292623802,-0.9833090442110124
1589551746.2428591,-0.16615573059963065,-4.148203557833641,9.027173519767835,0.4955555555555556,0.2788888888888889,-0.6488888888888888,0.08173665812384577,0.2452099743715373,-0.875
1589551746.252859,-0.15546938607673014,-4.162265306961635,9.086795920884905,0.4929773245427672,0.2814671199016773,-0.6454512475385044,0.12085457872445414,0.14502549446934496,-0.8266581685102183
1589551746.262859,-0.17540941987798872,-4.145409419877989,9.031637679511956,0.4888888888888889,0.2855555555555556,-0.64,0.36988225152514115,0.5471467545754234,-0.6926177484748589
1589551746.272859,-0.17,-4.135784782741179,8.993139130964714,0.4888888888888889,0.2855555555555556,-0.64,0.4111548921323664,0.6182744606618319,-0.5459646763970991
1589551746.282859,-0.168589729940736,-4.132820540118528,8.971410270059264,0.4888888888888889,0.2855555555555556,-0.64,0.36618581212960005,0.4375,-0.4375
1589551746.292859,-0.16319966809170772,-4.146800331908293,8.989599004275123,0.4888888888888889,0.2855555555555556,-0.64,0.29250207442682685,0.4375,-0.4375
1589551746.302859,-0.17,-4.136911994761159,9.01308800523884,0.4888888888888889,0.2845262204759422,-0.6413724467728179,0.24034998362862445,0.3988999345144978,-0.4181999672572489
1589551746.312859,-0.17,-4.116330527265949,9.037338945468102,0.4888888888888889,0.2788888888888889,-0.6488888888888888,0.1875,0.2333684091756441,-0.2666315908243559
1589551746.322859,-0.17391065514177237,-4.106089344858228,9.01480410372405,0.4888888888888889,0.2788888888888889,-0.6488888888888888,0.13861681072784554,0.3369415946360772,-0.1875
1589551746.332859,-0.18,-4.104689812875296,8.969379625750594,0.4888888888888889,0.2788888888888889,-0.6488888888888888,0.09181133047060466,0.40431133047060464,-0.15818866952939534
1589551746.342859,-0.17083810432569974,-4.106946034775233,9.001377756573367,0.4888888888888889,0.2788888888888889,-0.6488888888888888,0.1822618479643766,0.4565872826547922,-0.1059127173452078
1589551746.352859,-0.15730882660288414,-4.103654413301442,9.039036760095675,0.48401633782029946,0.27604656743221173,-0.6533553940350958,0.24397975059796112,0.477159916865987,-0.08534008313401295
1589551746.362859,-0.17,-4.11,9.024542403430809,0.4755555555555556,0.27111111111111114,-0.6611111111111111,0.125,0.21037982845955436,-0.1533900214425557
1589551746.372859,-0.17,-4.098188072283319,8.965034397558258,0.4755555555555556,0.27111111111111114,-0.6611111111111111,-0.022649096458504936,-0.1732368223438787,-0.26132454822925244
1589551746.382859,-0.16391933564820435,-4.1143226574071825,8.968645314814365,0.4755555555555556,0.27111111111111114,-0.6611111111111111,-0.20100830439744555,-0.47802491319233664,-0.3125
1589551746.392859,-0.16968761733123075,-4.134843808665615,9.01937523466246,0.4755555555555556,0.27111111111111114,-0.6611111111111111,-0.31054760832019224,-0.4736309791995194,-0.3427738041600961
1589551746.402859,-0.1491305506690122,-4.150289816443662,9.096593990440144,0.4807004637773869,0.2748268781602115,-0.657967000531103,-0.4232335145796684,-0.42504486735255964,-0.3910778381932228
1589551746.412859,-0.0602518315018315,-4.179899267399267,9.259294871794872,0.4955555555555556,0.2855555555555556,-0.6488888888888888,-0.5637591575091575,-0.7506295787545788,-0.43687042124542125
1589551746.422859,-0.15156703534366642,-4.141814422037146,9.008288592513896,0.4955555555555556,0.2855555555555556,-0.6488888888888888,-0.5202317827398455,-0.40412342774752896,-0.2962628768188803
1589551746.432859,-0.25757489190858557,-4.091129555281038,8.72388665843113,0.4955555555555556,0.2855555555555556,-0.6488888888888888,0.23484307442865965,0.7751264283508339,-0.24294027949351452
1589551746.442859,-0.14667626809048756,-4.115988478291415,9.040630181256148,0.4955555555555556,0.2855555555555556,-0.6488888888888888,-0.45827332443445273,-0.5832733244344527,-0.1875
1589551746.452859,-0.11720949838415062,-4.151348601939019,9.152603906140227,0.4955555555555556,0.2855555555555556,-0.6488888888888888,-0.6424406350990586,-0.7674406350990586,-0.1875
1589551746.462859,-0.21161368004260542,-4.071931599786973,8.929682080255633,0.4811111111111111,0.2788888888888889,-0.6411111111111111,0.022157998934864663,0.06448699840229699,-0.375
1589551746.472859,-0.18432049234604447,-4.0567596307404665,9.00006972305535,0.4811111111111111,0.2788888888888889,-0.6411111111111111,-0.3408103844505901,-0.5426834612238538,-0.40287461535465274
1589551746.482859,-0.12481003223905432,-4.119501161299269,8.986128193572988,0.4811111111111111,0.2788888888888889,-0.6411111111111111,-0.4937645162408569,-0.9429923388913926,-0.5
1589551746.492859,-0.21955212226002566,-4.071741312956663,8.877861007306597,0.4811111111111111,0.2788888888888889,-0.6411111111111111,0.11411679402086006,0.0625,-0.5217664119582799
1589551746.5028589,-0.1591474847057788,-4.096278772941332,9.047983803529775,0.4883461213072586,0.2828078527451354,-0.6411111111111111,-0.12402760661942697,-0.22576993750275076,-0.6589141102944412
1589551746.5128589,-0.14764177017082347,-4.137059704971529,9.073552329259766,0.5077777777777778,0.2933333333333333,-0.6411111111111111,-0.5147389364323532,-0.7243473410808832,-0.7132463121441177
1589551746.5228589,-0.18487066620505466,-4.114611998615164,8.87974133241011,0.5077777777777778,0.2933333333333333,-0.6411111111111111,-0.08970831890795786,0.03367500865522528,-0.7211750086552253
1589551746.5328588,-0.15508399784965504,-4.1,8.929798405160827,0.5077777777777778,0.2933333333333333,-0.6411111111111111,-0.3112400322551742,-0.4979000537586238,-0.7813549973120688
1589551746.5428588,-0.11899457592762899,-4.085326101236839,9.030353221598693,0.5077777777777778,0.2933333333333333,-0.6411111111111111,-0.6875,-1.1479279668174396,-0.9334237345395169
1589551746.5528588,-0.11310868002874712,-4.050168489978439,9.08033697995688,0.5037723477689939,0.2885996433229524,-0.6436600211167008,-0.7489469376347521,-1.2694292501796693,-1.3933761878144215
1589551746.5628588,-0.17861883309526427,-4.007932095374135,9.012415119217668,0.4955555555555556,0.2788888888888889,-0.6488888888888888,-0.8405188990220855,-1.092688990220855,-1.825424403911658
1589551746.5728588,-0.18147315221469398,-3.95671867758381,9.02328132241619,0.4955555555555556,0.2788888888888889,-0.6488888888888888,-1.139370130873298,-1.2582319966454063,-2.056361865772108
1589551746.5828588,-0.16865671641791044,-3.8528358208955225,9.022686567164179,0.4955555555555556,0.2788888888888889,-0.6488888888888888,-1.6166044776119404,-1.796641791044776,-2.2574626865671643
1589551746.5928588,-0.20565698135660454,-3.7268003768345896,8.973199623165412,0.4955555555555556,0.2788888888888889,-0.6488888888888888,-1.9185684004363348,-1.9928537782625941,-2.4457122669575564
1589551746.6028588,-0.22645378817929396,-3.6782744942483143,9.021725505751686,0.4955555555555556,0.2788888888888889,-0.6488888888888888,-2.3085085283617612,-2.4261205870686235,-2.7056723522411743
1589551746.6128588,-0.3000834606356422,-3.2621278736167514,9.113477029695591,0.4688888888888889,0.2788888888888889,-0.6555555555555556,-3.2441759193710644,-3.0789289839412795,-2.9147253064570213
1589551746.6228588,-0.37,-2.76,8.98,0.4688888888888889,0.2788888888888889,-0.6555555555555556,-3.125,-2.5625,-2.875
1589551746.6328588,-0.2501651899015985,-2.675364441871855,8.989834810098403,0.4688888888888889,0.2788888888888889,-0.6555555555555556,-3.346027761699096,-2.0558796028318267,-1.3780973106549712
1589551746.6428587,-0.16267421041323496,-2.7251539783714103,9.095218792523097,0.4688888888888889,0.2788888888888889,-0.6555555555555556,-3.624594911551959,-2.5737440020052995,0.5698945427200458
1589551746.6528587,-0.38019324472140276,-2.6249560807451355,9.170105406211674,0.48552627605231274,0.2822163663215737,-0.6522280781228708,-0.7833910636746328,-0.3765371739202493,7.2102406443700495
1589551746.6628587,-0.24148747157460737,-2.695620045480628,9.10429749431492,0.5022222222222222,0.2855555555555556,-0.6488888888888888,0.4731406605317408,-0.5692198159522242,18.157052950927678
1589551746.6728587,-0.2052625627572482,-2.73,8.99192546021982,0.5022222222222222,0.2855555555555556,-0.6488888888888888,0.31578203446560227,-1.2828910172328012,26.06592337961916
1589551746.6828587,-0.16721179310506457,-2.784691696547845,9.007613958611639,0.5022222222222222,0.2855555555555556,-0.6488888888888888,0.06802948276266141,-1.5578083620427008,31.636394396400195
1589551746.6928587,-0.1499340243384746,-2.8433773171076835,9.116952561199943,0.5022222222222222,0.2855555555555556,-0.6488888888888888,0.16556707230791,-1.8137370436536013,35.53273246250177
1589551746.7028587,-0.1745111467288358,-2.84052600903395,9.057066880373014,0.49904771156118966,0.2855555555555556,-0.6488888888888888,0.5187964447034824,-1.4468982223517413,38.65412356112487
1589551746.7128587,-0.19184575295070838,-2.8918457529507084,9.169228764753543,0.4811111111111111,0.2855555555555556,-0.6488888888888888,0.5485539339128912,-1.678374154203254,41.8548527930453
1589551746.7228587,-0.20778991977398117,-2.9157298968522616,9.078240091686878,0.4811111111111111,0.2855555555555556,-0.6488888888888888,0.28862542978224365,-1.987124856739252,44.00631013619766
1589551746.7328587,-0.22927190403639408,-2.974145619192721,8.99683504645823,0.4811111111111111,0.2855555555555556,-0.6488888888888888,-0.015230359863522239,-2.1143202399090146,46.18276431836227
1589551746.7428586,-0.2064400550544688,-2.98,8.969320165163406,0.4811111111111111,0.2855555555555556,-0.6488888888888888,-0.09816643727304673,-2.2411671254539067,47.94275378499473
1589551746.7528586,-0.224864120885557,-2.98,9.02459236265667,0.4811111111111111,0.2855555555555556,-0.6488888888888888,-0.02139949631017922,-2.3947010073796418,49.20940831088204
1589551746.7628586,-0.27270330400132825,-3.0327033040013283,9.032117217333553,0.4811111111111111,0.2788888888888889,-0.6488888888888888,0.125,-2.625,51.04478042503736
1589551746.7728586,-0.3323322193117153,-3.084110739770572,9.003003342064853,0.4811111111111111,0.2788888888888889,-0.6488888888888888,0.2277684942642941,-2.5993078764339264,53.120071583416134
1589551746.7828586,-0.35492395083188477,-3.0875380245840574,8.967233827911596,0.4811111111111111,0.2788888888888889,-0.6488888888888888,0.4365493853985597,-2.54711265365036,54.69528242953812
1589551746.7928586,-0.367943258008443,-3.0810283709957784,9.01280140302955,0.4811111111111111,0.2788888888888889,-0.6488888888888888,0.5992907251055376,-2.5064273187236155,56.03789848212069
1589551746.8028586,-0.43752749444412786,-3.167527494444128,9.128745417592645,0.48543245051422157,0.27554333580260987,-0.6477737045267958,0.32034114004596653,-2.7421588599540336,58.57909876156286
1589551746.8128586,-0.4853285087469371,-3.2153285087469374,9.12077858187551,0.5128737735399084,0.25429844055691686,-0.6406920727782316,0.3701338632780595,-2.6923661367219403,60.272051351454024
1589551746.8228586,-0.52,-3.2341955552483324,9.118717035910553,0.5155555555555555,0.25222222222222224,-0.64,0.375,-2.872962966163205,63.159111136072994
1589551746.8328586,-0.52,-3.2124506618739845,9.03898576020461,0.5155555555555555,0.25222222222222224,-0.64,0.375,-3.0994722721459924,64.92588372273875
1589551746.8428586,-0.6173019139740687,-3.3091273924675857,9.038174521506482,0.5155555555555555,0.25222222222222224,-0.64,0.567953797077588,-3.1592277217534472,68.05855114221033
1589551746.8528585,-0.6486910887013789,-3.3483638608767237,9.030327227824655,0.5155555555555555,0.25222222222222224,-0.64,0.32272586952047744,-3.3063644782877137,69.92228339164437
1589551746.8628585,-0.6224782306986323,-3.2559825845589057,9.072478230698632,0.5222222222222223,0.23222222222222225,-0.6622222222222223,0.3376088465068386,-3.7248911534931612,73.43858846506839
1589551746.8728585,-0.5961316950519474,-3.2238683049480525,9.012407372266235,0.5222222222222223,0.23222222222222225,-0.6622222222222223,0.5383230940746715,-3.543338452962664,75.5415386759334
1589551746.8828585,-0.6069931393423231,-3.2160137213153535,8.943986278684646,0.5222222222222223,0.23222222222222225,-0.6622222222222223,0.7189643955524012,-3.3872427253371185,76.9068931866572
1589551746.8928585,-0.5974397303891164,-3.2171986519455817,8.968404044163256,0.5222222222222223,0.23222222222222225,-0.6622222222222223,0.905496629863954,-3.221010110408138,77.67451179547616
1589551746.9028585,-0.5949644947002353,-3.1638653922242352,9.073794381624706,0.5237391511584053,0.2291883643498562,-0.6638770537889673,0.7969859540617646,-3.476728931092647,77.94570083921617
1589551746.9128585,-0.6299017096686866,-3.050319443576768,9.03012286291414,0.5344144112876543,0.20783784409135816,-0.6755227921117845,0.6878071572853544,-3.3129607359280313,77.56357505049874
1589551746.9228585,-0.6168375710161125,-3.0331624289838874,9.06025635652417,0.5344444444444445,0.20777777777777776,-0.6755555555555556,1.0379281340225388,-2.840276322529571,76.55128440206762
1589551746.9328585,-0.6410391916322314,-3.004545131714876,9.075584323347108,0.5344444444444445,0.20777777777777776,-0.6755555555555556,0.5982111150568181,-3.430195958161157,75.41152020919421
1589551746.9428585,-0.674890399018595,-2.957153441373967,9.062043840392562,0.5344444444444445,0.20777777777777776,-0.6755555555555556,0.13275701349431812,-3.5994519950929753,74.56524002453513
1589551746.9528584,-0.7284365316662136,-2.974998278517713,9.067499139258857,0.53694415753073,0.20579883825113504,-0.6770137215225555,0.5390651898160732,-3.28515221527589,73.35939113889644
1589551746.9628584,-0.796840445773308,-3.0966052369303254,9.128302618465163,0.557211983932832,0.18975347568280432,-0.688836620257115,0.34905431729636677,-3.57016852405545,72.2193259037782
1589551746.9728584,-0.8538019981202353,-3.078925749295088,9.098512375117485,0.5611111111111111,0.18666666666666668,-0.6911111111111111,-0.03202344484283079,-3.6038211003585476,70.59452344484284
1589551746.9828584,-0.9706063981620079,-3.1227273993107527,9.091212100114875,0.5611111111111111,0.18666666666666668,-0.6911111111111111,0.4242437428203433,-3.193180631461691,70.13825625717966
1589551746.9928584,-0.9917742788559339,-3.13,9.053548557711869,0.5611111111111111,0.18666666666666668,-0.6911111111111111,0.3941601570446316,-3.465715143008259,69.6985892428496
1589551747.0028584,-0.9995163671373556,-3.129032734274711,9.071934531450578,0.5607886892026815,0.18537697903294822,-0.6913797960348025,1.0655227053915275,-2.431454589216945,69.71372753530167
1589551747.0128584,-0.9837104450623496,-3.091131335187049,9.072262670374098,0.5544444444444444,0.16,-0.6966666666666667,1.125,-2.2731902816396854,68.79034816874498
1589551747.0228584,-0.9622456116408795,-3.0267368349226387,8.943473669845277,0.5544444444444444,0.16,-0.6966666666666667,1.125,-2.139035072755497,68.07485372136266
1589551747.0328584,-0.9782740800814771,-3.019288960977726,9.033096320325908,0.5544444444444444,0.16,-0.6966666666666667,0.4159260010184644,-3.4051390015276968,65.39180701986005
1589551747.0428584,-0.9703634409007751,-2.9243612908093017,9.0014537636031,0.5544444444444444,0.16,-0.6966666666666667,0.3170430112596896,-3.256814516889534,63.463588719563944
1589551747.0528584,-1.1006400571054666,-2.998719885789067,9.268506533420577,0.5547052084503753,0.15914659052604446,-0.6969748423100395,-0.49466619078777785,-4.414831310848056,60.65283024012056
1589551747.0628583,-1.1255897923978346,-2.9488204152043305,9.210290484405052,0.56486991542134,0.125880276802887,-0.7089876778211797,-0.28675173001804377,-3.531194852576686,59.301386245117286
1589551747.0728583,-1.1120130884212094,-2.8720130884212094,9.02201308842121,0.5666666666666667,0.12,-0.7111111111111111,0.47442738157209785,-2.6883180263255744,56.39689149996282
1589551747.0828583,-1.1215841697080293,-2.867326642335766,9.037920848540146,0.5666666666666667,0.12,-0.7111111111111111,0.15470318202554745,-3.0092809078467155,54.183166058394164
1589551747.0928583,-1.1284179483837329,-2.8126564129301355,9.072089741918665,0.5666666666666667,0.12,-0.7111111111111111,0.2828365321949948,-2.240480806830031,52.816410323253386
1589551747.1028583,-1.2346283249934158,-2.9215587964182252,9.071534764287597,0.5676045781757528,0.11855050039504872,-0.7127311400813507,0.8797961383987358,-1.625,49.99100852646826
1589551747.1128583,-1.1859402670092214,-2.807247786392623,9.086811946598155,0.5788888888888889,0.10111111111111112,-0.7322222222222222,0.6784706611001514,-1.7644773363306876,45.5400026379777
1589551747.1228583,-1.2305339210837545,-2.7826334802709383,9.045764756477798,0.5788888888888889,0.10111111111111112,-0.7322222222222222,0.026244489839802168,-2.111877755080099,41.716404150091385
1589551747.1328583,-1.2824030706442522,-2.818377222816053,8.990325527159653,0.5788888888888889,0.10111111111111112,-0.7322222222222222,-0.24066538723156156,-2.25,38.57994242542027
1589551747.1428583,-1.4046739869789135,-2.9732537168399573,9.210413176562046,0.5788888888888889,0.10111111111111112,-0.7322222222222222,-0.18971917209211933,-2.25,36.28736274414537
1589551747.1528583,-1.44,-2.9390488991295443,9.131902201740912,0.5784397579222849,0.10047704386414065,-0.7318787691301132,0.5506112391193037,-0.6993887608806963,33.68907010048643
1589551747.1628582,-1.4549308966304968,-2.9055990862364363,9.180138206739008,0.56,0.07444444444444444,-0.7177777777777777,-0.0191533409480297,-1.2458238149628784,30.685915191319246
1589551747.1728582,-1.509682303989557,-2.926130863996084,9.070635392020886,0.56,0.07444444444444444,-0.7177777777777777,-0.3185750999428898,-1.459696499959207,28.84661010035082
1589551747.1828582,-1.607914553557707,-2.958869349491756,9.099221058640145,0.56,0.07444444444444444,-0.7177777777777777,-0.22880030297042744,-1.3880340402643307,27.11086686864695
1589551747.1928582,-1.6709952087317104,-2.949336527512193,9.242038330146316,0.56,0.07444444444444444,-0.7177777777777777,-0.043839836280428854,-0.9730464301828416,27.014513460670777
1589551747.2028582,-1.6980302086242829,-2.931313194250478,9.025758331005736,0.56,0.07444444444444444,-0.7177777777777777,0.4630664117053047,-0.24084851642567084,27.40877387577079
1589551747.2128582,-1.682274944163362,-2.947725055836638,9.063175167509915,0.5403054935148468,0.08035279638999042,-0.7748918465847223,0.5553907994894935,-0.3536723984684808,27.825235596426456
1589551747.2228582,-1.6437444015261025,-2.8949925353681367,9.053729472262376,0.5377777777777778,0.0811111111111111,-0.7822222222222223,-0.06240669210170857,-0.8514108746652764,27.773589125334723
1589551747.2328582,-1.6800592191107095,-2.9287425976111616,9.116050135501355,0.5377777777777778,0.0811111111111111,-0.7822222222222223,-0.46070617534879055,-1.4681948208370972,27.01534741041855
1589551747.2428582,-1.7414706058968354,-2.914313737264557,8.929754798935127,0.5377777777777778,0.0811111111111111,-0.7822222222222223,-0.26746306971716804,-1.0079652815308553,26.70526957104826
1589551747.2528582,-1.6910977001140934,-2.880731800076062,9.223596749334455,0.5377777777777778,0.0811111111111111,-0.7822222222222223,-0.739709061430373,-2.162344372385356,26.810213124762306
1589551747.2628582,-1.68,-2.890125572745921,9.211787350702632,0.5433333333333333,0.06222222222222223,-0.7888888888888889,-0.8677532064185887,-1.1089367535131611,27.07053162324342
1589551747.2728581,-1.68,-2.8338381166005253,9.050966047430071,0.5433333333333333,0.06222222222222223,-0.7888888888888889,-0.11390334732846386,-0.3048302371503614,27.47258488142482
1589551747.2828581,-1.7073474563628226,-2.836737281814113,9.044084738176936,0.5433333333333333,0.06222222222222223,-0.7888888888888889,-0.5414459943308966,-0.7793432045352827,27.716843204535284
1589551747.2928581,-1.6917040877219156,-2.758520438609578,8.950224526331493,0.5433333333333333,0.06222222222222223,-0.7888888888888889,-0.7858736293450694,-0.5838010965239445,27.521301096523946
1589551747.302858,-1.762010404457218,-2.834012138533421,9.18003468152406,0.5433333333333333,0.06222222222222223,-0.7888888888888889,-0.8875108379762688,-1.4251246367270918,27.16245122910679
1589551747.312858,-1.81,-2.8564129963329523,9.232521588265447,0.5396014440369947,0.017439550666158446,-0.7844106217332826,-1.105435018335239,-1.202308662907614,26.85353249083238
1589551747.322858,-1.7575503153765575,-2.7950431274656204,8.985186885684357,0.5377777777777778,-0.004444444444444445,-0.7822222222222223,-0.6255390933202577,0.030441360019613617,27.187140604453162
1589551747.332858,-1.6917687618666932,-2.754878584990507,9.107256253955564,0.5377777777777778,-0.004444444444444445,-0.7822222222222223,-0.9009151926984444,-0.560212018253889,27.023627210952334
1589551747.342858,-1.838466573398621,-2.9225332267412814,9.156155524466207,0.5377777777777778,-0.004444444444444445,-0.7822222222222223,-1.0755554445221678,-0.12361138869458044,26.761666833216747
1589551747.352858,-1.7976670317634174,-2.8693708165997323,9.02363027869052,0.5377777777777778,-0.004444444444444445,-0.7822222222222223,-0.4960676037483267,0.9148107581842522,26.28727029329439
1589551747.362858,-1.8331750311074244,-2.9289094255495645,8.981090574450436,0.5577777777777778,-0.04444444444444445,-0.7677777777777778,-1.3086520764205725,-0.42298806252592286,25.268359861053504
1589551747.372858,-1.7701511587384562,-2.81290033106813,9.072446854852762,0.5577777777777778,-0.04444444444444445,-0.7677777777777778,-1.7743563774176685,-0.7834199120055758,24.079682327060464
1589551747.382858,-1.834570908207868,-2.831958960660515,8.921100777076251,0.5577777777777778,-0.04444444444444445,-0.7677777777777778,-0.8655551845556095,0.07194481544439048,23.796175327829044
1589551747.392858,-1.9025737185461322,-2.8651474370922645,9.080643429636533,0.5577777777777778,-0.04444444444444445,-0.7677777777777778,-1.625,-0.6754356943150046,23.602714352283318
1589551747.402858,-1.9338452935694315,-2.927690587138863,9.088461323392357,0.5577777777777778,-0.04444444444444445,-0.7677777777777778,-1.625,-0.5288501863932898,24.091332712022368
1589551747.412858,-1.8045985985985986,-2.8745985985985985,9.10686126126126,0.5455555555555556,-0.07555555555555556,-0.7888888888888889,-0.8033758758758759,-0.045620620620620625,24.401003503503503
1589551747.422858,-1.8885685685685685,-2.9585685685685688,9.031288288288287,0.5455555555555556,-0.07555555555555556,-0.7888888888888889,-0.7508946446446446,-0.3080267767767768,24.19107857857858
1589551747.432858,-1.922578480826681,-2.962578480826681,8.955930505901366,0.5455555555555556,-0.07555555555555556,-0.7888888888888889,-1.3572729443165679,-0.9967768989666487,23.748388449483326
1589551747.442858,-2.028254246821915,-3.068254246821915,9.165919226009674,0.5455555555555556,-0.07555555555555556,-0.7888888888888889,-0.6116337608279896,-0.7384407694903814,23.736054393070088
1589551747.452858,-2.188684216447294,-3.228684216447294,8.892244571942852,0.5455555555555556,-0.07555555555555556,-0.7888888888888889,0.8629064011699854,1.915731522105974,24.67976009674879
1589551747.462858,-1.9814357935198146,-3.0127456182498067,8.611914391359752,0.5021046792055169,-0.13928350753561225,-0.7502658876888546,-0.1569583133134178,-0.3436710083770289,24.6875
1589551747.472858,-2.207319053783688,-3.2746381075673767,10.033646581146286,0.4955555555555556,-0.14888888888888888,-0.7444444444444445,-1.5450747322584442,-2.2116298399435097,24.07959059079675
1589551747.482858,-2.1744109685771447,-3.20882193715429,9.219171472284335,0.4955555555555556,-0.14888888888888888,-0.7444444444444445,0.20316729433917846,-0.20629339766976562,25.05654937036601
1589551747.492858,-2.208980426589001,-3.226601421963337,9.331307820798354,0.4955555555555556,-0.14888888888888888,-0.7444444444444445,-0.612255332362515,-2.0072731069042318,25.0922375578208
1589551747.502858,-2.1820340071954774,-3.1367800239849237,8.837290131917081,0.4955555555555556,-0.14888888888888888,-0.7444444444444445,-0.27542508994346415,-0.5476753897550113,25.87817479013192
1589551747.512858,-2.0722908794399584,-3.0826313591344814,9.193312318523528,0.5044444444444445,-0.14333333333333334,-0.6888888888888889,-0.4618799968179468,-1.7039459945905095,25.449689998408974
1589551747.522858,-1.9805337894276283,-2.9408249472972434,8.951407263036474,0.5044444444444445,-0.14333333333333334,-0.6888888888888889,0.059467105524839914,-0.817655920607772,25.18901644723758
1589551747.532858,-2.058102640943997,-3.0536038413730866,9.063603841373086,0.5044444444444445,-0.14333333333333334,-0.6888888888888889,-0.15938250268180967,-1.2118885048272574,24.74373499463638
1589551747.542858,-2.1089272554605887,-3.1094636277302943,8.986972839506173,0.5044444444444445,-0.14333333333333334,-0.6888888888888889,0.1048860398860399,-1.13840930674264,24.2667616334283
1589551747.5528579,-2.1782493264481366,-3.170666067953899,9.139248428378984,0.5044444444444445,-0.14333333333333334,-0.6888888888888889,-0.11197682794491842,-1.2197907311779674,24.060418537644065
1589551747.5628579,-2.1242971960084884,-3.124677382941256,9.03847925226893,0.5066666666666667,-0.11,-0.6677777777777778,-0.18987616832979637,-0.9035140199575563,23.431091118435905
1589551747.5728579,-1.9822587709396307,-2.9921081862103223,9.000602338917234,0.5066666666666667,-0.11,-0.6677777777777778,-0.24905884544182055,-1.6137061453018466,21.714793482187204
1589551747.5828578,-2.0001724688597893,-3.0900574896199298,9.07,0.5066666666666667,-0.11,-0.6677777777777778,-0.8745209198339189,-2.811182529543277,18.997724369211113
1589551747.5928578,-2.1508779144043437,-3.140292638134781,9.07,0.5066666666666667,-0.11,-0.6677777777777778,-0.4558946822101565,-1.6599603760779305,17.009249740498245
1589551747.6028578,-2.083383703052932,-3.053383703052932,8.958519657368768,0.5066666666666667,-0.11,-0.6677777777777778,0.27530199868218763,-0.7871980013178124,15.324396002635625
1589551747.6128578,-2.2127427215189877,-3.106157911392405,9.216766139240507,0.5247491912798875,-0.08553540787623067,-0.653949964838256,-0.397478243670886,-1.8189695411392406,12.66122033227848
1589551747.6228578,-2.044524275378805,-2.925288710925058,9.017582017563816,0.5255555555555556,-0.08444444444444445,-0.6533333333333333,-0.20661088865632254,-1.0091658324612094,10.599942553578742
1589551747.6328578,-1.8903041353091783,-2.810217239506556,9.039913104197376,0.5255555555555556,-0.08444444444444445,-0.6533333333333333,0.37377802777562263,-0.7504073240747925,8.504209015439521
1589551747.6428578,-1.9469484377125754,-2.8226552083805725,9.046327604190287,0.5255555555555556,-0.08444444444444445,-0.6533333333333333,0.29590494762142305,-0.829095052378577,7.155384109564192
1589551747.6528578,-1.9983163247656275,-2.872738091119798,9.104948974296883,0.5255555555555556,-0.08444444444444445,-0.6533333333333333,0.13552297021482684,-0.7986819801432179,5.077593662434705
1589551747.6628578,-2.1329394384111144,-2.9716796790920657,9.112939438411114,0.5377777777777778,-0.06333333333333334,-0.6344444444444445,0.5441285099305352,-0.6381224929067606,1.9133915468153802
1589551747.6728578,-2.190389981410821,-3.0045085608061832,9.170389981410821,0.5377777777777778,-0.06333333333333334,-0.6344444444444445,0.18506261618236963,-0.8945981312983073,0.2206523334311712
1589551747.6828578,-2.282146033782339,-3.0622747487705793,9.067982681205901,0.5377777777777778,-0.06333333333333334,-0.6344444444444445,0.21834776566174896,-0.7508044686765021,-1.182673187940988
1589551747.6928577,-2.32245918828001,-3.0933463426000087,9.070443577159999,0.5377777777777778,-0.06333333333333334,-0.6344444444444445,0.3069552855000073,-0.875,-2.2832682869999563
1589551747.7028577,-2.2186232506662398,-3.001726397646682,9.076551573490221,0.5377777777777778,-0.06333333333333334,-0.6344444444444445,0.23060533137223493,-0.875,-2.7413680117665904
1589551747.7128577,-2.1748854837395064,-2.9648854837395064,9.191641128046296,0.5576250894304525,-0.04927482091268872,-0.650156899502812,0.1875,-0.968034273371913,-3.883825597033173
1589551747.7228577,-2.1058209180972547,-2.909308023897754,9.176051576798004,0.5644444444444444,-0.04444444444444445,-0.6555555555555556,0.14535279437344023,-0.9157055887468805,-4.482530439385918
1589551747.7328577,-2.192801178098719,-3.002801178098719,9.071056385507967,0.5644444444444444,-0.04444444444444445,-0.6555555555555556,0.3442878180334268,-0.5460682729498598,-5.173219545083567
1589551747.7428577,-2.1926392366515532,-3.02,9.06,0.5644444444444444,-0.04444444444444445,-0.6555555555555556,0.646261927319483,0.09677624010286257,-5.467009541855586
1589551747.7528577,-2.2456861837537607,-3.0617646378153207,9.08784309187688,0.5644444444444444,-0.04444444444444445,-0.6555555555555556,0.6004903378847489,0.013480675769497824,-5.587009662115251
1589551747.7628577,-2.280775530360707,-3.0961632955410603,9.148489886623182,0.5596553198396857,-0.04803628789801346,-0.6633378830382884,0.394132338113953,-0.12984706475441882,-5.928061791394884
1589551747.7728577,-2.2233780633422415,-3.0729878129679116,9.115975625935823,0.5555555555555556,-0.05111111111111112,-0.67,0.3425304675802202,-0.07183691552472471,-6.488224019635716
1589551747.7828577,-2.0359325113060955,-2.9729662556530476,9.027033744346951,0.5555555555555556,-0.05111111111111112,-0.67,0.4368742994086042,0.08291619960573615,-7.54708940512543
1589551747.7928576,-2.109631182465828,-3.0942891229505403,9.1,0.5555555555555556,-0.05111111111111112,-0.67,0.10131617070593449,-0.05279595732351638,-10.314470634352524
1589551747.8028576,-2.1207683587107367,-3.1957711929008425,9.165771192900841,0.5555555555555556,-0.05111111111111112,-0.67,0.15384887902894784,0.21154663708684351,-11.995233185434218
1589551747.8128576,-2.0226631988700956,-3.22,9.19,0.5695725730208488,-0.03709409364581778,-0.6495135898584175,0.430102225360846,0.797704450721692,-14.319516690206346
1589551747.8228576,-1.93533261891023,-3.152266095128184,9.130732833237161,0.57,-0.03666666666666667,-0.6488888888888888,0.5962513395433188,1.23583690544885,-17.126689885417527
1589551747.8328576,-1.8636995941012096,-3.1470375507373487,9.014436738939768,0.57,-0.03666666666666667,-0.6488888888888888,0.625,1.3125,-20.879867216023825
1589551747.8428576,-1.4337352712904818,-3.5852836379030553,8.583081210752841,0.57,-0.03666666666666667,-0.6488888888888888,0.5040878783602625,1.6147803040993438,-26.421468196570945
1589551747.8528576,-1.4791247189067636,-3.8601487631897595,8.871536066424493,0.57,-0.03666666666666667,-0.6488888888888888,0.4630470506832728,1.5510941013665456,-28.447100415153088
1589551747.8628576,-1.5047491300931641,-3.9434111572567065,9.166421596138736,0.57,-0.033842431498734116,-0.6596209825270326,0.2468641261645527,0.8963197328544168,-34.00753451565832
1589551747.8728576,-1.636021333117028,-3.8908859732727676,9.068933546934884,0.57,-0.031111111111111114,-0.67,-0.12002666639628495,1.0426066655851398,-43.783326658284835
1589551747.8828576,-1.3695946582875098,-3.372810290652003,8.998928122545168,0.57,-0.031111111111111114,-0.67,-0.881372741555381,1.4572712097407698,-58.230150235663785
1589551747.8928576,-1.3700009231053263,-3.182498846118342,9.027500230776331,0.57,-0.031111111111111114,-0.67,-0.7812471152958552,2.367199759992615,-73.85955529400904
1589551747.9028575,-1.7964994298745722,-3.4674995927675516,9.201062265841342,0.57,-0.031111111111111114,-0.67,-0.9824215568496497,3.1507803591790196,-86.78279748330347
1589551747.9128575,-1.94,-3.6545634104188953,9.054631717554111,0.585436178092338,-0.06332574365164276,-0.6653020327545058,-0.11871193728911211,4.583048720269937,-94.52640986338572
1589551747.9228575,-1.9881293514755256,-3.7741724686340343,8.968129351475525,0.5955555555555555,-0.08444444444444445,-0.6622222222222223,-0.15175163456441065,5.525404223361018,-101.38645299522884
1589551747.9328575,-2.07828287663037,-3.7813019025966255,9.110471461050617,0.5955555555555555,-0.08444444444444445,-0.6622222222222223,-1.943393263132703,3.3879756491563957,-106.2429176139763
1589551747.9428575,-1.9707342061658382,-3.6692531914397066,9.300379705477374,0.5955555555555555,-0.08444444444444445,-0.6622222222222223,-1.0161395248430536,3.9676421853485495,-106.97223097388503
1589551747.9528575,-1.8100022769141604,-3.5984218914946906,8.865797023452215,0.5955555555555555,-0.08444444444444445,-0.6622222222222223,0.10853765188052411,5.82891965597897,-105.52633975699116
1589551747.9628575,-1.8874038880655566,-3.775352628367187,9.209615552262227,0.6786040159242147,-0.17881769486337531,-0.6386289096174895,-0.7834539272949177,4.048677098770813,-104.04447083950832
1589551747.9728575,-2.020575553995789,-3.90583214679635,9.248398074801965,0.6933333333333334,-0.1955555555555556,-0.6344444444444445,-1.2764388849894717,3.486780557505264,-102.76924446004212
1589551747.9828575,-1.9341414092430047,-3.8071492653120607,9.055196401726397,0.6933333333333334,-0.1955555555555556,-0.6344444444444445,-0.8068883056107851,4.355218890936424,-100.05885232287474
1589551747.9928575,-1.8645835073068895,-3.7808329853862213,9.049374217118999,0.6933333333333334,-0.1955555555555556,-0.6344444444444445,-0.7552061586638831,4.0273519050104385,-97.32814457202505
1589551748.0028574,-1.9022879472418568,-3.8564524885229177,9.039794323398674,0.6933333333333334,-0.1955555555555556,-0.6344444444444445,-0.7747429042483422,3.7747429042483422,-95.30221616993369
1589551748.0128574,-1.9149992578298944,-3.9600029686804215,9.095003710850527,0.9433457028350898,-0.45640179440238815,-0.41693368297791633,-0.8437546385631587,3.4687360843105237,-91.78112475879472
1589551748.0228574,-1.899505797490238,-3.985247101254881,9.078023189960952,1.0266666666666666,-0.5433333333333333,-0.34444444444444444,-0.9405887656860115,3.3094112343139885,-88.51071566961757
1589551748.0328574,-1.8982654277844015,-3.973469144431197,9.0441327138922,1.0266666666666666,-0.5433333333333333,-0.34444444444444444,-1.05165892365251,3.09502322904247,-84.11699574476833
1589551748.0428574,-1.91,-3.95,9.056618037452468,1.0266666666666666,-0.5433333333333333,-0.34444444444444444,-1.1663627340779184,2.502735393298735,-77.36007940114318
1589551748.0528574,-1.8982007427055703,-3.9794981432360745,9.054100371352785,1.0266666666666666,-0.5433333333333333,-0.34444444444444444,-1.0031366047745358,2.533736074270557,-71.8496047745358
1589551748.0628574,-1.8551978583297435,-4.006960428334051,9.084802141670256,1.3166845139188053,-0.17211048885059593,-0.44343720297317446,-0.7009892916487168,2.6439973229121794,-64.9187296141301
1589551748.0728574,-1.8542362421470908,-4.031354363220636,9.135590605367728,1.4433333333333334,-0.01,-0.4866666666666667,-0.625,2.402558716451706,-58.50668607232446
1589551748.0828574,-1.765602998696219,-3.990025116956822,9.038944704348493,1.4433333333333334,-0.01,-0.4866666666666667,-0.45147610054452025,2.3472047798910958,-53.147612451108216
1589551748.0928574,-1.593879160750907,-3.9647878214229375,9.009151285691749,1.4433333333333334,-0.01,-0.4866666666666667,-0.17386417415996214,1.9590925224798865,-46.707968528159014
1589551748.1028574,-1.4669924477110288,-3.9199190103059385,9.07292656259491,1.4433333333333334,-0.01,-0.4866666666666667,-0.2591455081090931,1.4994938144121162,-42.79930500718783
1589551748.1128573,-1.3654533356477465,-3.867726667823873,9.017385002603715,0.9780594611275049,0.06351147884562222,-0.6632735121860274,-0.26207291847480185,1.4254270815251981,-39.93462506509287
1589551748.1228573,-1.3083262431461524,-3.8183262431461524,9.075012762336925,0.8666666666666667,0.0811111111111111,-0.7055555555555556,-0.5104609803365476,1.0207624314615238,-39.968829764605786
1589551748.1328573,-1.2924965597316591,-3.742469037584932,9.022469037584932,0.8666666666666667,0.0811111111111111,-0.7055555555555556,-0.5156034983228692,0.9375,-41.14111953857401
1589551748.1428573,-1.428789330605873,-3.891445643689608,9.057148547896537,0.8666666666666667,0.0811111111111111,-0.7055555555555556,-0.14282157564665038,1.396729402740021,-42.77563722983339
1589551748.1528573,-1.3667180148732736,-3.8322760155815248,9.021138007790762,0.8666666666666667,0.0811111111111111,-0.7055555555555556,-0.03473750442656953,1.749862460160874,-43.506699929174886
1589551748.1628573,-1.2553198512672636,-3.7155731775180856,8.962786588759045,0.8666666666666667,0.0811111111111111,-0.7055555555555556,-0.001583289067637987,2.048250398391258,-44.03716737491779
1589551748.1728573,-1.1285351270553063,-3.5207884902840063,9.135183109118087,0.6733333333333333,0.13111111111111112,-0.7088888888888889,-0.6482389760837071,1.2568665919282511,-46.2457726083707
1589551748.1828573,-1.181257303157495,-3.6512573031574953,9.028684271582543,0.6733333333333333,0.13111111111111112,-0.7088888888888889,-0.8046418552656557,1.3087535065702052,-47.953581447343446
1589551748.1928573,-1.2088548578199052,-3.6914247630331753,9.00027962085308,0.6733333333333333,0.13111111111111112,-0.7088888888888889,-0.553595231042654,1.5392809537914691,-48.892809537914694
1589551748.2028573,-1.1572553546484556,-3.687183765326711,9.047112176004967,0.6733333333333333,0.13111111111111112,-0.7088888888888889,-0.4375,1.6338007333540276,-49.05369926664597
1589551748.2128572,-1.1019812084885794,-3.637924833954317,9.088065770289973,0.639921702035747,0.15383102039346977,-0.7204715877387188,-0.4625587234731897,1.6373825530536206,-48.89976510610724
1589551748.2228572,-1.1080436528213737,-3.5854890867946563,9.125489086794657,0.59,0.18777777777777774,-0.7377777777777778,-0.5,1.6188864150667932,-48.49626113219943
1589551748.2328572,-1.1393245069836757,-3.6872318303122724,9.012768169687726,0.59,0.18777777777777774,-0.7377777777777778,-0.38344366270405156,1.8623345059439227,-47.400744723252345
1589551748.2428572,-1.1373546214672166,-3.81,8.986947902084673,0.59,0.18777777777777774,-0.7377777777777778,-0.1446218455601377,2.0361554613900346,-44.94567222201203
1589551748.2528572,-1.1518339802926247,-3.884279287349458,9.072249029561062,0.59,0.18777777777777774,-0.7377777777777778,-0.19896237682890414,1.668396038618493,-41.08815940081617
1589551748.2628572,-1.167289027345102,-3.9372890273451024,8.953734164070612,0.5850568439675397,0.21037506249759624,-0.7377777777777778,-0.017503894080996896,1.4941653686396676,-36.66280936310142
1589551748.2728572,-1.3210802264715307,-4.339412242281807,9.245583805149023,0.5822222222222222,0.22333333333333333,-0.7377777777777778,-0.6514595128725563,0.2621127550475375,-31.77000587544066
1589551748.2828572,-1.2416976174178018,-4.51068474396626,8.911640647426415,0.5822222222222222,0.22333333333333333,-0.7377777777777778,-0.5128389493673682,0.6510339611809128,-26.77960148607768
1589551748.2928572,-0.8080106723585911,-3.9265186766275346,8.671457844183564,0.5822222222222222,0.22333333333333333,-0.7377777777777778,1.1908217716115261,1.8394076840981857,-15.976961045891143
1589551748.3028572,-0.662869471069643,-3.6681157851160715,8.845738942139286,0.5822222222222222,0.22333333333333333,-0.7377777777777778,0.5681184918638347,0.2250033834347036,-9.766125051746648
1589551748.3128572,-0.6731007104053489,-3.7430154617634765,8.977155035520267,0.58475107953754,0.2309199052792868,-0.7380938849421925,-1.1610948600083577,-1.6540691600501463,-8.20634663602173
1589551748.3228571,-0.7958881533770978,-3.7727176092509684,9.119988189084516,0.5911111111111111,0.25,-0.7388888888888889,-7.381822177054964e-05,-0.18466915703024145,-9.158970115637104
1589551748.3328571,-0.9262067061950522,-3.7182792884890614,8.997592107953384,0.5911111111111111,0.25,-0.7388888888888889,-0.14437870578613787,-0.008624258842772431,-12.086139081987323
1589551748.3428571,-0.9632414302768462,-3.6965380023875847,9.086096867716446,0.5911111111111111,0.25,-0.7388888888888889,-0.5415517878460576,-0.06215536353817294,-13.479051787846057
1589551748.352857,-0.98,-3.72,9.19,0.5911111111111111,0.25,-0.7388888888888889,-0.5625,-0.125,-13.5
1589551748.362857,-1.1312762544705754,-3.8734266825620463,8.870332068928146,0.5848698626013029,0.246070325012343,-0.7418939344676855,0.17996098406849462,0.1849869946894982,-12.88592717026119
1589551748.372857,-1.0471392886879982,-3.5449791840133225,9.136438682050672,0.5611111111111111,0.2311111111111111,-0.7533333333333333,-0.6964657428333532,-0.37062120851671226,-10.830171285833234
1589551748.382857,-1.034098158563834,-3.231639571615687,9.082460127898914,0.5611111111111111,0.2311111111111111,-0.7533333333333333,-0.4948811541721242,-0.8340203405501194,-6.4303393944063485
1589551748.392857,-1.065484256199992,-3.10742128099996,9.057413319533458,0.5611111111111111,0.2311111111111111,-0.7533333333333333,0.2560532024999005,-0.300393595000199,-0.5464576449982088
1589551748.402857,-1.030100947672023,-2.9852271322620516,9.245277606098064,0.5611111111111111,0.2311111111111111,-0.7533333333333333,0.28014588483724767,-0.5942231922126082,6.730756850020601
1589551748.412857,-0.9863113620219089,-2.968426365573709,9.223164093169327,0.5542677268063293,0.2358488387067293,-0.743331463964806,1.2402699368153438,0.38832392417841244,14.767233241111153
1589551748.422857,-0.9535940050111487,-3.070465944877365,9.144692090200676,0.5466666666666666,0.2411111111111111,-0.7322222222222222,1.8623126565983954,0.9345878445164701,24.962670677884283
1589551748.432857,-3.065045571797077,-8.36368271711092,9.990487532244195,0.5466666666666666,0.2411111111111111,-0.7322222222222222,1.9267250644883922,0.9349150902837489,32.79873172828891
1589551748.442857,-13.474860075864083,-19.28262659486989,5.894065890341918,0.5466666666666666,0.2411111111111111,-0.7322222222222222,-3.845952478845593,3.2866289556752166,9.525219501843548
1589551748.452857,-12.737384882067085,-15.654214916439493,1.7773500651890481,0.5466666666666666,0.2411111111111111,-0.7322222222222222,-39.57581838183003,-22.857360991762473,-171.92990510548773
1589551748.462857,-1.2511345646437995,-1.8080569448273147,1.0041645335328633,0.5465004791346696,0.24125883336177512,-0.7321298958155572,-89.13822214783602,-65.99614312999645,-430.28775154570155
1589551748.472857,-3.663579035469999,-3.3301584461312013,11.608794193194608,0.5366666666666666,0.25,-0.7266666666666667,-30.007494805044878,46.62508297497764,-388.6329223065601
1589551748.482857,-3.626728948041976,-1.5141464038904529,10.55837884664606,0.5366666666666666,0.25,-0.7266666666666667,36.27636047724991,68.13477535390129,-322.91481512472683
1589551748.492857,-1.059046377651186,-0.7817855878471887,6.866790576421744,0.5366666666666666,0.25,-0.7266666666666667,79.0274170448328,44.6799366772875,-264.2785274049757
1589551748.502857,-1.6268470246968292,-7.723980097498086,9.2427452560332,0.5366666666666666,0.25,-0.7266666666666667,18.609370593449093,19.274105092462026,-204.7174721002377
1589551748.512857,-1.7662595732610544,-15.261933247187116,11.201352390557535,0.49369840419384997,0.3170565308287897,-0.7090887411096053,-23.426364682151977,-7.812947146143906,-146.76011298811812
1589551748.522857,0.7122198473282444,-6.672584223918573,9.983180661577608,0.4633333333333333,0.3644444444444445,-0.6966666666666667,-0.4588740458015259,6.556183206106873,-57.87668575063614
1589551748.532857,2.0289804134744425,-0.20649582958193896,9.833700035673637,0.4633333333333333,0.3644444444444445,-0.6966666666666667,12.297139101703841,10.92403426367914,-4.284897523230334
1589551748.542857,1.8689548980626045,-1.2298105484738626,9.115589989474916,0.4633333333333333,0.3644444444444445,-0.6966666666666667,10.18520251042763,-2.3081754570615525,7.331413479904884
1589551748.552857,0.49375806927286436,-4.978316839794213,9.272441426090376,0.4633333333333333,0.3644444444444445,-0.6966666666666667,-4.896493143166104,-2.974547997837271,13.401013164793394
1589551748.562857,-0.8181219502674006,-9.743582777062107,10.477041027442715,0.46111059062341414,0.3684783108439275,-0.6973252570992353,-4.154909337549284,-2.0206771870242415,18.785301264785105
1589551748.572857,0.2565965501739109,-3.7168925537704376,9.931079904408112,0.43333333333333335,0.4188888888888889,-0.7055555555555556,3.2803249887608543,0.06003330336227908,54.107347147623216
1589551748.582857,-0.12335434958184614,-4.1260693536200925,8.598815882031108,0.43333333333333335,0.4188888888888889,-0.7055555555555556,-0.3955706302269234,-4.426694435036344,63.98984088007712
1589551748.592857,-0.00956888208485105,-3.885791937215154,8.567478928012108,0.43333333333333335,0.4188888888888889,-0.7055555555555556,-0.25989921518942793,-1.9426547185415897,73.15733384363617
1589551748.6028569,0.017954061835023155,-3.8623382150456878,9.030901865064465,0.43333333333333335,0.4188888888888889,-0.7055555555555556,1.384133652522218,-4.551539616973338,82.18170687820754
1589551748.6128569,-0.2032705479452055,-4.0913602311643835,8.812098672945204,0.4427882420091324,0.4184949343607306,-0.7075253281963471,1.6942824272260273,-3.1511397688356166,90.04893514554794
1589551748.6228569,-0.12282579229329375,-4.188692312657329,9.149565610275609,0.46,0.4177777777777778,-0.7111111111111111,-0.3328761376105338,-4.406235880720326,96.17183970180082
1589551748.6328568,-0.8376345595114987,-1.6250477667799283,10.326462549859654,0.46,0.4177777777777778,-0.7111111111111111,-0.629987504308859,-6.922537487073423,100.5199946447038
1589551748.6428568,-1.212777777777778,0.33777777777777773,11.132777777777777,0.46,0.4177777777777778,-0.7111111111111111,-0.7569444444444444,-7.4375,97.47222222222223
1589551748.6528568,0.5871201533609548,-4.8525063385072045,8.401564529095294,0.46,0.4177777777777778,-0.7111111111111111,-0.252647486240801,-1.490159854059737,39.89502427184466
1589551748.6628568,-0.4810079491255962,-3.2889348171701114,8.733237943826179,0.45737431549196256,0.4002732143908615,-0.7111111111111111,4.327020402755696,2.4953100158982515,16.55731981981982
1589551748.6728568,0.10149411198178873,-4.28234470078361,9.139585868756294,0.4533333333333333,0.37333333333333335,-0.7111111111111111,-4.5,-4.4375,-0.1875
1589551748.6828568,0.004906692484569769,-4.169440154907418,8.89962676993828,0.4533333333333333,0.37333333333333335,-0.7111111111111111,-2.367177477913591,-2.113678446084957,-0.37849903182863365
1589551748.6928568,0.0,-4.101006237754408,8.936324323243632,0.4533333333333333,0.37333333333333335,-0.7111111111111111,-0.12294698908392979,-0.010395007797193018,-0.23755198128673677
1589551748.7028568,0.010653669545048506,-4.071307339090097,9.027045871272078,0.4533333333333333,0.37333333333333335,-0.7111111111111111,0.09836582613737874,-0.1875,0.12091456534344684
1589551748.7128568,0.04351972292309862,-4.137039445846198,9.079631556676958,0.4533333333333333,0.37333333333333335,-0.7111111111111111,0.016200692692253438,-0.1875,-0.0844982682693664
1589551748.7228568,0.03108293408227325,-4.090829340822733,8.991082934082273,0.4844444444444445,0.36777777777777776,-0.7266666666666667,-0.09475673219890964,0.021889971914753018,-0.0625
1589551748.7328568,0.03974454815793821,-4.177445481579382,8.999744548157938,0.4844444444444445,0.36777777777777776,-0.7266666666666667,-0.8526479638195936,-0.30292055592268297,-0.0625
1589551748.7428567,0.01911666306928556,-4.152730951867041,8.900080941074897,0.4844444444444445,0.36777777777777776,-0.7266666666666667,0.27861604252104466,0.0625,-0.0625
1589551748.7528567,0.06710384970304996,-4.156741830915931,9.056741830915932,0.4844444444444445,0.36777777777777776,-0.7266666666666667,0.6716616780635544,0.06928785225847668,-0.06023738258050777
1589551748.7628567,-0.00784319217743373,-4.073081154032238,8.974621731048357,0.4844444444444445,0.36760660255376454,-0.7263927863082456,0.23074278729851544,0.23844567237910927,0.0
1589551748.7728567,0.055824160063107316,-4.1672161067087385,9.09076912044175,0.4844444444444445,0.3622222222222222,-0.7177777777777777,-0.3836996665351931,-0.11630033346480692,0.008699666535193086
1589551748.7828567,0.03749691738594328,-4.164993834771887,8.92874229346486,0.4844444444444445,0.3622222222222222,-0.7177777777777777,-0.2969327990135635,-0.10935573366214549,0.039072133168927256
1589551748.7928567,0.03770064410591964,-4.17770064410592,8.94155096615888,0.4844444444444445,0.3622222222222222,-0.7177777777777777,0.1296774358450056,-0.0914112820774972,0.03843548716900112
1589551748.8028567,0.019050221445695015,-4.15,8.939217626264679,0.4844444444444445,0.3622222222222222,-0.7177777777777777,0.5247907439762708,0.10614537198813538,0.06843611596440616
1589551748.8128567,0.03779954653799198,-4.15,9.027799546537992,0.4844444444444445,0.3622222222222222,-0.7163108088031057,0.32747732689959885,0.07625283413755014,-0.04874716586244986
1589551748.8228567,0.036948225124149345,-4.15,9.030422337686224,0.4844444444444445,0.3622222222222222,-0.7111111111111111,-0.17106601756483353,0.08157359297406658,-0.021713203512966708
1589551748.8328567,0.03990093109869646,-4.156732712600869,8.965841092489137,0.4844444444444445,0.3622222222222222,-0.7111111111111111,-0.31188081936685286,-0.021039726877715704,-0.0414602731222843
1589551748.8428566,0.01668538836642285,-4.1600561650992685,8.853033786137235,0.4844444444444445,0.3622222222222222,-0.7111111111111111,-0.04248574103099964,-0.0003510318704284185,0.020716322709857193
1589551748.8528566,0.01340538410234645,-4.14,8.97021615230704,0.4844444444444445,0.3622222222222222,-0.7111111111111111,0.3138509519189959,0.1462836506396653,0.051858174680167346
1589551748.8628566,0.026120778512096036,-4.14,9.008362335536289,0.4844444444444445,0.3622222222222222,-0.7111111111111111,0.5522645971018008,0.22575486570060027,0.012122567149699871
1589551748.8728566,0.02,-4.138677069199457,9.064708276797829,0.48,0.3622222222222222,-0.7177777777777777,0.05058514246947082,-0.125,0.0
1589551748.8828566,0.02,-4.13703452130175,8.977241090236877,0.48,0.3622222222222222,-0.7177777777777777,-0.34956848372812865,-0.125,-0.021982879067967843
1589551748.8928566,0.024154781842221244,-4.152077390921111,8.890386954605553,0.48,0.3622222222222222,-0.7177777777777777,-0.13556522697223447,-0.13798369325694138,-0.04951630674305862
1589551748.9028566,0.038942970471573385,-4.159471485235787,8.927357426178933,0.48,0.3622222222222222,-0.7177777777777777,0.04928713089466727,-0.18419678272366682,-0.0033032172763331827
1589551748.9128566,0.030693864158372525,-4.149653067920814,9.022081592475118,0.4801541920351939,0.3624149622662146,-0.7168526255666143,0.48915837252542926,0.0,-0.05599502351525758
1589551748.9228566,0.04904363994312589,-4.1404781800284365,9.077130919829377,0.48423191998736137,0.3675121222064238,-0.69238625785361,0.20244312588865798,0.0,0.11603412446680522
1589551748.9328566,0.028812859097127226,-4.145875239398085,8.94531190150479,0.4844444444444445,0.36777777777777776,-0.6911111111111111,-0.2242202462380301,-0.08086012311901505,0.0074196306429548595
1589551748.9428566,0.04263083354272792,-4.171053749685909,8.924738332914544,0.4844444444444445,0.36777777777777776,-0.6911111111111111,-0.15129948374717317,-0.03288541928409895,-0.07894270964204947
1589551748.9528565,0.03534609775251486,-4.176634755618713,8.97940353763883,0.4844444444444445,0.36777777777777776,-0.6911111111111111,0.17511966642982685,0.125,0.01670655547660895
1589551748.9628565,0.04912217021683064,-4.138244340433661,9.056488680867323,0.4844444444444445,0.36777777777777776,-0.6928667706774498,0.32347287228961696,0.125,0.05701356385519152
1589551748.9728565,0.03681924770290965,-4.12,9.02636150459418,0.4844444444444445,0.36777777777777776,-0.7111111111111111,0.23870298143185298,0.02560149071592649,0.059639105570444106
1589551748.9828565,0.03,-4.129589614342099,8.985658852061437,0.4844444444444445,0.36777777777777776,-0.7111111111111111,-0.24743508963811878,-0.12756491036188122,0.12756491036188122
1589551748.9928565,0.03228216762263505,-4.156846502867905,8.890539508603714,0.4844444444444445,0.36777777777777776,-0.7111111111111111,-0.33220935707559285,0.0,0.0
1589551749.0028565,0.039463573324201695,-4.1783907199726045,8.955172159917815,0.4844444444444445,0.36777777777777776,-0.7111111111111111,-0.19755800017121822,0.0,0.0
1589551749.0128565,0.014815872294863891,-4.167407936147432,8.966296031926285,0.4844444444444445,0.36777777777777776,-0.7111111111111111,0.12730159631420135,0.03935019953927517,0.07870039907855034
1589551749.0228565,0.037340758108636185,-4.152531848378273,9.007340758108636,0.490253006816899,0.3785651078980505,-0.7111111111111111,0.3125,-0.030851895271590463,0.125
1589551749.0328565,0.03173104141453509,-4.125193124243605,8.971344792927324,0.4922222222222222,0.38222222222222224,-0.7111111111111111,-0.03245702652253287,0.05168099115915571,0.11418099115915571
1589551749.0428565,0.039642724146239955,-4.150357275853761,8.93,0.4922222222222222,0.38222222222222224,-0.7111111111111111,-0.18526702591399968,0.0022329740860003067,0.0625
1589551749.0528564,0.03045497360408315,-4.159545026395917,8.93,0.4922222222222222,0.38222222222222224,-0.7111111111111111,-0.1278435850255197,0.0596564149744803,0.0625
1589551749.0628564,0.03,-4.1791767264002395,8.97082327359976,0.49211550157040146,0.3818563228445511,-0.7110348820740963,0.06678788333208367,0.0625,0.001715153332833471
1589551749.0728564,0.03,-4.1320038239484145,9.017996176051586,0.4860004956970167,0.3608905884215175,-0.7066670207359643,0.31248008360200946,0.0625,0.09999203344080378
1589551749.0828564,0.04883047210300429,-4.14,9.02596566523605,0.4844444444444445,0.3555555555555556,-0.7055555555555556,0.1915236051502146,-0.0957618025751073,-0.04057135193133048
1589551749.0928564,0.04120280788535681,-4.14,8.934433694624282,0.4844444444444445,0.3555555555555556,-0.7055555555555556,-0.18985960573215976,0.09492980286607988,0.10244735214955991
1589551749.1028564,0.03170716723549488,-4.174878498293515,8.97341433447099,0.4844444444444445,0.3555555555555556,-0.7055555555555556,-0.425311433447099,0.051830204778156995,0.0
1589551749.1128564,0.03886467576791809,-4.1534059726962465,8.987729351535837,0.4844444444444445,0.3555555555555556,-0.7055555555555556,-0.1121704351535836,0.007095776450511945,0.0
1589551749.1228564,0.017733727400771202,-4.145467454801542,9.042266272599228,0.4722222222222222,0.38222222222222224,-0.7055555555555556,0.25584318501928005,-0.17333579625482,0.125
1589551749.1328564,0.011967766727996832,-4.133935533455993,9.022451265808044,0.4722222222222222,0.38222222222222224,-0.7055555555555556,0.01330583180007918,-0.11270145795001979,0.1004029159000396
