time,acc_x,acc_y,acc_z,mag_x,mag_y,mag_z,gyr_x,gyr_y,gyr_z
1589552649.2406945,-0.25,-4.15,8.91,0.5166666666666667,0.2911111111111111,-0.6111111111111112,-3.0,2.6875,-0.5
1589552649.2506945,-0.25,-4.15,8.811442770872008,0.5166666666666667,0.2911111111111111,-0.6111111111111112,0.44950301947975646,0.22356927180017383,-1.3623757548699391
1589552649.2606945,-0.2532618979650096,-4.17,8.933476204069981,0.5166666666666667,0.2911111111111111,-0.6111111111111112,3.1653213062273156,1.3345219403776354,-3.445832143876677
1589552649.2706945,-0.26,-4.1617546216929995,8.907631932539498,0.5166666666666667,0.28836265167544417,-0.6083626516754442,3.235367534633739,1.538424338599824,-3.0789915674373347
1589552649.2806945,-0.2498229503634909,-4.15,8.905265574454765,0.5166666666666667,0.28444444444444444,-0.6044444444444445,-2.0696719885909074,0.39602464433545514,-2.3379508852481825
1589552649.2906945,-0.2597798708094259,-4.159889935404713,8.865605355274079,0.5166666666666667,0.28444444444444444,-0.6044444444444445,-0.17442982930966044,3.2314265995453066,-4.429933059074014
1589552649.3006945,-0.2606420317724304,-4.179678984113785,8.853555428512031,0.5166666666666667,0.28444444444444444,-0.6044444444444445,-1.314506349288845,3.062196827954195,-3.67315238293228
1589552649.3106945,-0.236386097401439,-4.1863860974014395,8.9,0.5166666666666667,0.28444444444444444,-0.6044444444444445,1.8895778824998515,2.0563232146042694,-2.9833018671582328
1589552649.3206944,-0.24884866906143505,-4.170575665469283,8.914136501796076,0.5328974650251246,0.2875858892880169,-0.6044444444444445,7.260793727549046,3.5768916367320625,-5.442433453071751
1589552649.3306944,-0.2636626819821023,-4.172674636035795,8.910988045946308,0.5511111111111111,0.2911111111111111,-0.6044444444444445,-1.057188710431415,-2.5495191665553634,-5.945484673433953
1589552649.3406944,-0.23888904034896402,-4.1588890403489644,8.850741094147583,0.5511111111111111,0.2911111111111111,-0.6044444444444445,-5.925924663758633,-4.530102689930934,-3.601866366775718
1589552649.3506944,-0.23,-4.171145010242903,8.851145010242902,0.5511111111111111,0.2911111111111111,-0.6044444444444445,-0.18512218320163853,2.3178988635255093,-0.7236031850551163
1589552649.3606944,-0.23481399025586422,-4.175186009744135,8.89369793179105,0.5511111111111111,0.2911111111111111,-0.6044444444444445,-1.7215419610879876,1.3270073081018294,-2.2819951279321136
1589552649.3706944,-0.244486011264252,-4.161027977471496,8.93,0.544631317062747,0.2965940137674191,-0.6009553245722484,-3.1962429598424835,-0.26341922707083665,-5.323601126425203
1589552649.3806944,-0.25678427190633935,-4.136431456187322,8.93,0.5366666666666666,0.3033333333333333,-0.5966666666666667,4.871785236193674,-0.7448325543404275,-1.7196334573671548
1589552649.3906944,-0.25371306966108986,-4.14886079101673,8.879704557288719,0.5366666666666666,0.3033333333333333,-0.5966666666666667,1.6007292680718113,-2.705433146181884,-0.8502128093092753
1589552649.4006944,-0.2446568207016296,-4.165343179298371,8.860686358596741,0.5366666666666666,0.3033333333333333,-0.5966666666666667,0.44548197811852797,-3.2714487061481496,1.1715896491851976
1589552649.4106944,-0.24465097594404273,-4.1606980481119145,8.88860390377617,0.5366666666666666,0.3033333333333333,-0.5966666666666667,4.226664776218158,-3.678774398601068,1.9302956188855807
1589552649.4206944,-0.25,-4.1582272979077,8.91411364895385,0.5256969361230664,0.29830554016751654,-0.59986617140855,1.8721449269186516,-4.121023671538756,0.38210305961563046
1589552649.4306943,-0.252970740817597,-4.17,8.899204814276821,0.51,0.2911111111111111,-0.6044444444444445,-1.7049906619630626,-1.8516990039427266,0.3786573978003735
1589552649.4406943,-0.26297804022882454,-4.164043919542351,8.832131758627053,0.51,0.2911111111111111,-0.6044444444444445,5.053293965676324,4.599725502860307,1.2495986344343974
1589552649.4506943,-0.2623877696766372,-4.15,8.812836690970087,0.51,0.2911111111111111,-0.6044444444444445,2.2872481772433613,3.593241891016592,1.901919914965704
1589552649.4606943,-0.2515839863713799,-4.151583986371381,8.8579199318569,0.51,0.2911111111111111,-0.6044444444444445,-1.5097913117546848,0.7829088586030664,-1.1661222316865416
1589552649.4706943,-0.25308147583411916,-4.153081475834119,8.917296310414702,0.5123061747219603,0.28880493638915083,-0.6044444444444445,-5.318332062676805,-4.557777671889734,9.859951497702788
1589552649.4806943,-0.24,-4.148106911962511,8.945946544018744,0.5166666666666667,0.28444444444444444,-0.6044444444444445,-0.19626741007506432,-4.920518397188355,4.75
1589552649.4906943,-0.22843558030960767,-4.165782209845196,8.887960111393234,0.5166666666666667,0.28444444444444444,-0.6044444444444445,2.2049461462855273,-3.4996160619215333,-0.23715599148169453
1589552649.5006943,-0.2306196671558994,-4.1593803328441,8.85530983357795,0.5166666666666667,0.28444444444444444,-0.6044444444444445,3.3506959128336526,-3.4054500733849102,-0.3572352546083235
1589552649.5106943,-0.24932775825152506,-4.154663879125763,8.887983274754575,0.5166666666666667,0.28444444444444444,-0.6044444444444445,2.5430604371187333,-3.8797241748474933,1.0593438169110814
1589552649.5206943,-0.24904498147821486,-4.16,8.92,0.5209269516473609,0.2917477901256345,-0.6001841594637503,0.49121979185041453,0.4740055565355443,-2.5182527782677724
1589552649.5306942,-0.24,-4.173248419233044,8.92,0.5244444444444445,0.2977777777777777,-0.5966666666666667,-3.4713414911522547,-0.20740742846745208,-1.6393292544238727
1589552649.5406942,-0.246239725554302,-4.173760274445698,8.863842470011281,0.5244444444444445,0.2977777777777777,-0.5966666666666667,-1.538185250846131,0.6363867911495866,-1.9819348191467316
1589552649.5506942,-0.25,-4.176023141506549,8.842046283013099,0.5244444444444445,0.2977777777777777,-0.5966666666666667,3.0328102584605254,-3.082748818230992,-5.13367806495614
1589552649.5606942,-0.2549014156207781,-4.170197168758444,8.879408493724668,0.5244444444444445,0.2977777777777777,-0.5966666666666667,0.45386750337751813,-5.3984137900652005,-4.113024494351222
1589552649.5706942,-0.26,-4.16,8.913214090826411,0.519801868806295,0.2934923233425628,-0.6013092423048162,-3.062534105378039,-3.0223920754259384,-1.5803522706602802
1589552649.5806942,-0.25399956970740106,-4.166000430292599,8.929000645438899,0.51,0.28444444444444444,-0.6111111111111112,-1.6124811746987953,-1.4250618545611016,1.0814530443201376
1589552649.5906942,-0.24,-4.18,8.894739371534195,0.51,0.28444444444444444,-0.6111111111111112,0.2663894023413431,-1.8832948243992609,7.629936845348121
1589552649.6006942,-0.244720390279158,-4.170559219441684,8.839440780558316,0.51,0.28444444444444444,-0.6111111111111112,-2.8818829614237957,1.4716268407263529,3.1076316740446295
1589552649.6106942,-0.24539006288595547,-4.169219874228089,8.868439748456177,0.51,0.28444444444444444,-0.6111111111111112,-6.765955186674976,1.4011493683077447,-1.1835094328933207
1589552649.6206942,-0.24808653149891383,-4.18,8.898086531498913,0.5158402727492156,0.2871399549440824,-0.6111111111111112,-4.795132603186097,-1.597234793627806,0.6358164373642288
1589552649.6306942,-0.2512304957535058,-4.18,8.905615247876753,0.5244444444444445,0.2911111111111111,-0.6111111111111112,-1.603767529132925,0.022207683191783456,0.15186154453881096
1589552649.6406941,-0.24531275801061528,-4.18,8.873436209946924,0.5244444444444445,0.2911111111111111,-0.6111111111111112,0.6952673481423235,1.5213731079221544,0.6300287497542754
1589552649.6506941,-0.2583296911421912,-4.174989073426573,8.811692162004663,0.5244444444444445,0.2911111111111111,-0.6111111111111112,-1.7497268356643356,-4.582832532051282,7.110599686771562
1589552649.6606941,-0.24190587336615177,-4.15,8.886188253267695,0.5244444444444445,0.2911111111111111,-0.6111111111111112,-3.3508848243082667,-1.312791758614836,2.224122337039552
1589552649.670694,-0.23872471416007038,-4.158724714160071,8.931811785400177,0.5244444444444445,0.29401934916446787,-0.5985087462132317,-3.353232189973615,1.0490875109938433,7.4832343887423045
1589552649.680694,-0.23978979617888602,-4.17,8.924264286626101,0.5244444444444445,0.2977777777777777,-0.5822222222222222,2.470344347049062,1.274961703757287,9.408781807157142
1589552649.690694,-0.2444468745231677,-4.17,8.86592187579472,0.5244444444444445,0.2977777777777777,-0.5822222222222222,4.421367173592391,2.858867173592391,6.32767598291033
1589552649.700694,-0.25498476141730453,-4.17,8.860060954330782,0.5244444444444445,0.2977777777777777,-0.5822222222222222,2.5554521555033385,-0.6370003838726936,1.3172620570923388
1589552649.710694,-0.24572945070041421,-4.165729450700415,8.892811647898759,0.5244444444444445,0.2977777777777777,-0.5822222222222222,1.4244010573860915,-0.7723874966176134,0.045761089024416
1589552649.720694,-0.24317527090124216,-4.169525812703727,8.91,0.5244444444444445,0.29354408324278813,-0.5868087246351276,3.317527090124218,2.9630098669720732,-2.4402007532376
1589552649.730694,-0.24693529888947943,-4.1808058966684385,8.90693529888948,0.5244444444444445,0.28444444444444444,-0.5966666666666667,2.3527231530951913,-2.216871450949677,1.8690417913787798
1589552649.740694,-0.24383060463246298,-4.156169395367537,8.865524558307834,0.5244444444444445,0.28444444444444444,-0.5966666666666667,-0.4173488418842555,-6.345525005025575,1.6109255991601708
1589552649.750694,-0.25772554413787524,-4.157725544137875,8.821588316206814,0.5244444444444445,0.28444444444444444,-0.5966666666666667,0.7387227931062383,-0.6798739784772234,-3.284306982765596
1589552649.760694,-0.26601437384458804,-4.166014373844588,8.867899383087885,0.5244444444444445,0.28444444444444444,-0.5966666666666667,-4.383739588309827,0.5310961614357232,1.0399383087884013
1589552649.770694,-0.25630749985784956,-4.16369250014215,8.9173850002843,0.519110833128005,0.28444444444444444,-0.6020002779831062,-6.825734207084778,-3.626734235514869,2.665249900494684
1589552649.780694,-0.2539715756040687,-4.166028424395932,8.949857878020344,0.51,0.28444444444444444,-0.6111111111111112,0.12855304949141638,3.4561045109154502,-3.7357878020343342
1589552649.790694,-0.26,-4.155740753937148,8.939537162402907,0.51,0.28444444444444444,-0.6111111111111112,-0.8113420152497683,3.0821812869664362,-4.087971210717594
1589552649.800694,-0.26,-4.140796337205159,8.797565203449013,0.51,0.28444444444444444,-0.6111111111111112,-1.465160247274282,-2.9889880104040483,5.252289246775458
1589552649.810694,-0.27794415158854535,-4.148905012924104,8.829318380721714,0.51,0.28444444444444444,-0.6111111111111112,-3.5839379846538986,-7.906566106282947,0.9177385871003194
1589552649.820694,-0.2164557127454504,-4.19,8.99083542980364,0.51,0.28805625437899096,-0.6126160319171722,-3.2965212206358023,-2.947942872545496,-3.299682262227595
1589552649.830694,-0.21616789238269143,-4.17027205870035,8.944376225018008,0.51,0.2977777777777777,-0.6166666666666667,0.10430452481865538,-5.182544435695978,-4.152205870035012
1589552649.840694,-0.2892578681005851,-4.127773604301756,8.789257868100584,0.51,0.2977777777777777,-0.6166666666666667,-2.870126917602404,-8.38310285861142,0.19040605725130477
1589552649.850694,-0.2888380080137378,-4.0646479679450485,8.81977103606182,0.51,0.2977777777777777,-0.6166666666666667,-2.0233257012020607,-1.7922510017172295,-1.205423583285632
1589552649.860694,-0.3466882081409987,-3.903279479647503,8.89723478808225,0.51,0.2977777777777777,-0.6166666666666667,-0.9573908938313052,-2.409363197650021,-3.0984617603860682
1589552649.870694,-0.47019960861056753,-3.6234622911335244,9.032676200511817,0.5202973556124241,0.29992306019703274,-0.6089436499573486,-0.7426689748607558,-0.4151983290681921,5.079226253198856
1589552649.880694,-0.55,-3.47,9.18,0.5366666666666666,0.3033333333333333,-0.5966666666666667,-5.5,0.8125,6.0
1589552649.890694,-0.8719899907545122,-2.6140300277364634,9.164896088756683,0.5366666666666666,0.3033333333333333,-0.5966666666666667,-3.4374522651445107,-0.3539263174820113,8.47351343610564
1589552649.900694,-0.7714476205372854,-2.5837758573495484,8.713001994290854,0.5366666666666666,0.3033333333333333,-0.5966666666666667,4.606279083408282,3.8743327923982327,6.638842724748759
1589552649.910694,-0.03646318501635121,-3.155368149836488,8.442747002279258,0.5366666666666666,0.3033333333333333,-0.5966666666666667,-2.0,-2.8201305618868298,12.640930036666337
1589552649.9206939,-0.013979613356766257,-3.4213265377855886,8.817244991212654,0.5358560046865846,0.3025226713532513,-0.5971825424721734,-2.0082908611599297,-3.373084358523726,4.451214850615115
1589552649.9306939,-0.23106982458260328,-3.161225303607033,8.951587618069402,0.5244444444444445,0.2911111111111111,-0.6044444444444445,-1.9701251686705739,1.3411891023704507,17.654010079954887
1589552649.9406939,-0.5550824000728398,-2.56618819994537,8.718729399981791,0.5244444444444445,0.2911111111111111,-0.6044444444444445,-1.0575890011836475,-1.3700890011836475,31.35693799508331
1589552649.9506938,-0.3840734429877943,-2.7295103800813716,8.85680043119936,0.5244444444444445,0.2911111111111111,-0.6044444444444445,1.5756120248982857,2.1027076016274298,42.74693987550857
1589552649.9606938,-0.3412399323854032,-2.867487918862484,9.118679526697823,0.5244444444444445,0.2911111111111111,-0.6044444444444445,1.60950084518246,4.515197126379636,49.6125211295615
1589552649.9706938,-0.2605775732531931,-2.797051715502129,8.988960368144253,0.5259088126443499,0.2911111111111111,-0.60188180009461,2.164741422489356,0.963490796393689,61.907899370773855
1589552649.9806938,-0.16,-2.73,9.17,0.5288888888888889,0.2911111111111111,-0.5966666666666667,2.5,-3.5625,67.0625
1589552649.9906938,-0.22681661284934862,-2.7132958467876627,8.977902238058123,0.5288888888888889,0.2911111111111111,-0.5966666666666667,2.186797127268678,-3.7713019151542144,63.25186504843558
1589552650.0006938,-0.20760186005314438,-2.782805580159433,8.858777679362268,0.5288888888888889,0.2911111111111111,-0.5966666666666667,0.3800930026572188,-5.486395593445527,65.24258193091231
1589552650.0106938,-0.2070014789773928,-2.741329389393619,8.92899556306782,0.5288888888888889,0.2911111111111111,-0.5966666666666667,0.7584935558842173,-8.147525353898162,74.92079019649272
1589552650.0206938,-0.21923689771766697,-2.677608199492815,8.863587700760776,0.5288888888888889,0.28871931060392597,-0.5991913449798065,2.8613324175824175,-1.8382687024513948,74.25
1589552650.0306938,-0.14040600367130981,-2.66040600367131,8.889695497246517,0.5288888888888889,0.27111111111111114,-0.6177777777777778,-0.01141885325558795,-0.16846857790735342,74.26268761472843
1589552650.0406938,-0.19891510772521884,-2.7,8.916745323175656,0.5288888888888889,0.27111111111111114,-0.6177777777777778,0.017787758398637887,0.8993705114492152,73.15531477156142
1589552650.0506938,-0.2299237659615018,-2.7075571755288736,8.992137888317133,0.5288888888888889,0.27111111111111114,-0.6177777777777778,2.6889293882218412,-2.135005717552888,68.25142938822184
1589552650.0606937,-0.21346146478513506,-2.754679352106081,8.874679352106082,0.5288888888888889,0.27111111111111114,-0.6177777777777778,3.7267602111401996,-5.221158450929059,70.50920545729306
1589552650.0706937,-0.272918073208677,-2.830311445093492,8.971303314057593,0.5324772425579658,0.2680610104923957,-0.6177777777777778,4.890572254674612,-1.8482567440631696,76.31444653183432
1589552650.0806937,-0.32918331042289967,-2.788112517182825,8.997549931268699,0.5511111111111111,0.25222222222222224,-0.6177777777777778,1.7665612112881055,-0.045938788711894496,73.5493437676882
1589552650.0906937,-0.3062238766285562,-2.8037761233714438,8.945787290614199,0.5511111111111111,0.25222222222222224,-0.6177777777777778,0.2611473012496677,-2.115391518213241,66.87915115660728
1589552650.1006937,-0.35206753554502374,-2.7579324644549765,9.041046208530807,0.5511111111111111,0.25222222222222224,-0.6177777777777778,-0.4782731042654027,-4.165980450236967,69.8207345971564
1589552650.1106937,-0.40162631378633956,-2.738892759902802,8.759065784465848,0.5511111111111111,0.25222222222222224,-0.6177777777777778,-4.180362004859911,-3.1490049623796,79.18144340837895
1589552650.1206937,-0.4507442105571332,-2.8187093421553415,8.881860526392833,0.5511111111111111,0.25222222222222224,-0.6177777777777778,-0.1895328922329247,-2.4582845390403136,75.45922779371725
1589552650.1306937,-0.48,-2.8237837628065816,8.872619528096864,0.5633333333333334,0.21777777777777774,-0.6177777777777778,1.782744101210804,1.254288264514126,68.92294706612853
1589552650.1406937,-0.48,-2.9295853384042223,8.945866772741386,0.5633333333333334,0.21777777777777774,-0.6177777777777778,2.6983346592673083,-0.37342828314188137,68.51601792921453
1589552650.1506937,-0.5229323053269422,-2.941847472189563,8.829559555033011,0.5633333333333334,0.21777777777777774,-0.6177777777777778,-0.986439585782762,-4.580087840282174,62.36748072488017
1589552650.1606936,-0.584000996963792,-2.95,8.953331671727014,0.5633333333333334,0.21777777777777774,-0.6177777777777778,-0.6083914895545384,-5.512300607241582,64.4794262926542
1589552650.1706936,-0.6085245967097908,-2.95,8.929917944417825,0.5627595653871409,0.2154827059930078,-0.6183515457239702,-2.0143447532343077,-0.9810421158760582,70.73821948370868
1589552650.1806936,-0.5917768727040409,-2.95,9.156012218495448,0.556246561607127,0.1894306908729525,-0.6248645495039841,-0.7582654528030666,-8.569854555981474,64.92885271921418
1589552650.1906936,-0.5610276621787026,-2.8078392492860056,8.939025050999593,0.5555555555555556,0.18666666666666668,-0.6255555555555555,0.11281313749490007,-4.171359649122808,52.87129436964504
1589552650.2006936,-0.499422276621787,-2.67093839249286,9.130686250509996,0.5555555555555556,0.18666666666666668,-0.6255555555555555,2.508578131374949,3.187061403508771,51.84453794369645
1589552650.2106936,-0.5238220119409711,-2.6357330179114564,8.73102106567534,0.5555555555555556,0.18666666666666668,-0.6255555555555555,-1.6138757463106905,-3.783050298524276,51.270112369043595
1589552650.2206936,-0.534268362118049,-2.654268362118049,8.833373821724553,0.5593766474768562,0.18624210089763327,-0.6268292528626558,-1.2637360030366294,-3.8292726323780606,42.302595369140256
1589552650.2306936,-0.5423894890973129,-2.6591505401875817,8.896477897819462,0.5755555555555556,0.18444444444444444,-0.6322222222222222,5.066816059202976,-0.6930255451343543,38.81193977798884
1589552650.2406936,-0.6117965427990386,-2.7235930855980777,8.911796542799038,0.5755555555555556,0.18444444444444444,-0.6322222222222222,6.227543215012017,2.4404753651321873,33.58901252542059
1589552650.2506936,-0.6388133985258703,-2.755677832104892,8.930974482473424,0.5755555555555556,0.18444444444444444,-0.6322222222222222,4.224062857281861,-0.22588727529251518,30.411543092753412
1589552650.2606936,-0.7324276470465847,-2.82031188232112,9.000601294134782,0.5755555555555556,0.18444444444444444,-0.6322222222222222,-5.356349998959699,-7.638644851549008,31.32823455672763
1589552650.2706935,-0.690817021876542,-2.7132680875061683,9.056459571868318,0.5753739951385463,0.18338534201188994,-0.6327669034732503,-1.6104254294240665,-2.73420207016472,23.783350858848134
1589552650.2806935,-0.7178905753227723,-2.8281919217052334,8.932410771059688,0.5688888888888889,0.14555555555555555,-0.6522222222222223,3.337331702192364,-0.009069765834508303,13.8228587818971
1589552650.2906935,-0.6209003947450865,-2.7377067190208653,9.057015810689446,0.5688888888888889,0.14555555555555555,-0.6522222222222223,0.132855740512542,-4.324673917583909,14.467015810689446
1589552650.3006935,-0.8908003781314007,-2.92,8.8408003781314,0.5688888888888889,0.14555555555555555,-0.6522222222222223,-4.702477548448086,-1.9500059083031354,14.25375177249094
1589552650.3106935,-0.9670320444050562,-2.916042725873408,8.93483977797472,0.5688888888888889,0.14555555555555555,-0.6522222222222223,-0.5812246373431597,-2.927803885442418,14.19835638322683
1589552650.3206935,-0.9486216014897578,-2.8910849162011174,9.068152513966481,0.5699836954272709,0.14507657769501345,-0.6544118352989862,-5.6671578212290505,-0.9166014897579143,10.955271182495345
1589552650.3306935,-1.0579702048417132,-3.0316759776536313,9.044720670391062,0.5838692323608525,0.1390016552865715,-0.6821829091661494,-3.0310754189944134,-5.407704841713222,19.10760009310987
1589552650.3406935,-1.0368622938906864,-3.0217639323840335,8.841370486357423,0.5866666666666667,0.13777777777777778,-0.6877777777777778,-3.2304098828658927,-0.4252869958648373,16.973032769866947
1589552650.3506935,-1.087660951260446,-3.1088473450179075,9.073592920047755,0.5866666666666667,0.13777777777777778,-0.6877777777777778,-1.2347483433396196,4.291731188469989,17.698727875149228
1589552650.3606935,-1.1875181051881751,-3.137518105188175,9.006350666824964,0.5866666666666667,0.13777777777777778,-0.6877777777777778,-0.8275456092445288,-0.20299823894890956,15.40144297360402
1589552650.3706934,-1.1128244093553368,-3.0628244093553367,9.164037358027622,0.5866666666666667,0.13777777777777778,-0.6877777777777778,3.9445516245201633,6.436441390636749,6.5834372155605685
1589552650.3806934,-1.0908099681775179,-2.9829719618130217,8.914866044551475,0.5988888888888889,0.1511111111111111,-0.6877777777777778,-5.412149522662768,-4.184307000946074,16.2365654833577
1589552650.3906934,-1.146751161808196,-3.063502323616392,8.889636670891424,0.5988888888888889,0.1511111111111111,-0.6877777777777778,-4.421525137304605,3.7932245458386142,12.723568863540347
1589552650.4006934,-1.2552620730270907,-3.285262073027091,9.1030292991755,0.5988888888888889,0.1511111111111111,-0.6877777777777778,5.494892888692579,-0.3552156949352179,14.789697438162545
1589552650.4106934,-1.1974282678002126,-3.2274282678002124,9.159558979808713,0.5988888888888889,0.1511111111111111,-0.6877777777777778,-0.3601222104144527,0.7525239107332624,20.85162061636557
1589552650.4206934,-1.0401125210977058,-3.070112521097706,8.877701600300055,0.5988888888888889,0.1511111111111111,-0.6877777777777778,-1.9988279052322309,-2.2790816246796277,12.41228628805401
1589552650.4306934,-0.9500035341933203,-3.0288920303940627,8.714453083583672,0.5722222222222222,0.15777777777777774,-0.7177777777777777,-0.2429205690051246,4.951305442657714,9.402809683689698
1589552650.4406934,-1.108721429154091,-3.165498980340974,9.010769393914675,0.5722222222222222,0.15777777777777774,-0.7177777777777777,5.6457908475405825,-0.08965555918100998,11.199323966065748
1589552650.4506934,-1.0608217636022514,-3.1039136960600375,8.504401500938087,0.5722222222222222,0.15777777777777774,-0.7177777777777777,3.079737335834897,-4.451946529080676,12.311280487804877
1589552650.4606934,-0.9392251805723242,-3.0749636737201076,9.073099277710703,0.5722222222222222,0.15777777777777774,-0.7177777777777777,-3.0281475715405306,-3.4181295143081063,-1.4340196140729915
1589552650.4706933,-0.9214568638664719,-2.959469615132067,9.144172544534113,0.5722222222222222,0.15777777777777774,-0.7177777777777777,-0.8071079833089745,-2.973921596661795,-5.653994831712948
1589552650.4806933,-0.9593068627054975,-2.9927523528698954,9.048623823565052,0.5644444444444444,0.13111111111111112,-0.7655555555555555,0.6940612755988205,2.2863811245304357,-7.039115199741487
1589552650.4906933,-0.87954959505649,-2.8450455456213906,9.09702934788099,0.5644444444444444,0.13111111111111112,-0.7655555555555555,2.554086477749154,-3.5343496910306276,-14.391890185381623
1589552650.5006933,-0.8724874139179337,-2.767361553097271,8.736858109814618,0.5644444444444444,0.13111111111111112,-0.7655555555555555,-2.477717583472243,-3.092963369870856,-14.656721978077487
1589552650.5106933,-0.8611430580514102,-2.7637557621689193,9.211345417610751,0.5644444444444444,0.13111111111111112,-0.7655555555555555,2.916311821236034,7.056620634424564,-16.56531760293773
1589552650.5206933,-0.9184914837096648,-2.95218630361747,8.777135909055394,0.5644444444444444,0.13111111111111112,-0.7655555555555555,-1.2824122001718887,3.6259558852254083,-19.842370497695132
1589552650.5306933,-1.0541731727265968,-3.170843557141795,9.074162019481003,0.5455555555555556,0.10444444444444444,-0.7388888888888889,-2.635544464272437,3.4072607628819984,-19.140049910774035
1589552650.5406933,-0.9995964383969068,-3.0850801174808535,9.113145401145067,0.5455555555555556,0.10444444444444444,-0.7388888888888889,-1.5635014685106698,-5.071624749051974,-23.964243391701984
1589552650.5506933,-0.9999694295437503,-2.950366845474996,8.501895368287478,0.5455555555555556,0.10444444444444444,-0.7388888888888889,0.2450323008594335,4.030018890234759,-25.4355893464844
1589552650.5606933,-1.0196852209099891,-3.0484261045499457,8.99213052274973,0.5455555555555556,0.10444444444444444,-0.7388888888888889,-1.8415547216863501,-9.409573060273845,-25.068402107937704
1589552650.5706933,-1.0779981933152665,-3.1991382113821136,9.149138211382114,0.5455555555555556,0.10444444444444444,-0.7388888888888889,-4.153500451671183,0.47289972899728916,-29.7748532068654
1589552650.5806932,-1.151033301356722,-3.3139207893654925,9.004529258599424,0.554880087707277,0.06799400057862438,-0.7227828788086428,-2.908438399342195,7.092315335069206,-34.32617000137043
1589552650.5906932,-1.1487365963965277,-3.301239574975077,8.756305103703165,0.5577777777777778,0.05666666666666665,-0.7177777777777777,0.8426702652758529,-5.249776606608797,-21.5625
1589552650.6006932,-1.0802206796074902,-3.254053434460299,9.017398337404122,0.5577777777777778,0.05666666666666665,-0.7177777777777777,-4.8292679007584525,-3.0112509105711958,-22.848069856879633
1589552650.6106932,-1.154139703120985,-3.355600774810745,8.604610716897595,0.5577777777777778,0.05666666666666665,-0.7177777777777777,-0.20129761034135157,3.294236603878007,-31.446931887810567
1589552650.6206932,-1.295074417409523,-3.5462771529658252,9.102027355563022,0.5577777777777778,0.05666666666666665,-0.7177777777777777,1.4567578518767417,2.6724658055462216,-25.38466660407566
1589552650.6306932,-1.2447894176308274,-3.4462922980103596,9.039578835261654,0.5596348291943006,0.06966602658232615,-0.7354197662347443,-3.368497966790918,1.726826862564748,-35.07179164447887
1589552650.6406932,-1.117884850689507,-3.347532325804425,8.670705049770165,0.56,0.07222222222222223,-0.7388888888888889,-2.0693309963953834,-4.520050679585965,-20.928465723072854
1589552650.6506932,-1.0762733556003836,-3.2989855815337807,8.684575548133205,0.56,0.07222222222222223,-0.7388888888888889,1.4849842091338998,-1.2258073183637026,-24.439435621217633
1589552650.6606932,-1.0306132781037856,-3.1428619644843327,8.91529820120431,0.56,0.07222222222222223,-0.7388888888888889,-2.0227869827024128,3.858284911594369,-23.118717159513672
1589552650.6706932,-1.0488687556007839,-3.1777375112015678,8.92628958520026,0.56,0.07222222222222223,-0.7388888888888889,-0.7884631449444859,-0.07211056516654324,-23.376979260013062
1589552650.6806931,-1.0360617795799354,-3.2319176272267534,8.93,0.5537937947059092,0.014593173062807212,-0.6918990488050583,2.892534967424484,0.455034967424484,-23.861727755250808
1589552650.6906931,-1.0584122815877184,-3.2494707605292397,8.825821634178366,0.5522222222222222,0.0,-0.68,-2.649378850621149,1.1875,-26.541959145540854
1589552650.7006931,-1.0304523321056924,-3.1909046642113847,8.93819067157723,0.5522222222222222,0.0,-0.68,0.07788207232370192,2.295537546036533,-21.76288868428208
1589552650.7106931,-0.9379996438667172,-3.0703995370267325,8.755999287733434,0.5522222222222222,0.0,-0.68,-2.75001112916509,0.24249198700113528,-22.03250133549981
1589552650.720693,-0.8651103026713762,-2.9139981810105966,8.683221514837454,0.5522222222222222,0.0,-0.68,0.8528257788870319,3.611155322659109,-15.928395799403539
1589552650.730693,-0.9999731379249047,-3.1669051334215568,8.878658278852042,0.5572937776109871,0.034776379808673555,-0.6524686993181334,3.54315708388473,3.7854428785873706,-21.06132478421458
1589552650.740693,-0.9037510009532889,-3.0695408960915156,8.470529265967588,0.56,0.05333333333333334,-0.6377777777777778,-3.732683508102955,-4.5632769304099146,-16.619699714013347
1589552650.750693,-0.8707817824062964,-2.99234534721889,8.660618611124441,0.56,0.05333333333333334,-0.6377777777777778,-1.4922673609444734,-7.890061849114556,-23.387002387579784
1589552650.760693,-1.002936687394008,-3.3033507631430186,9.144773883550029,0.56,0.05333333333333334,-0.6377777777777778,0.28670859242509894,-0.5816580695308078,-15.556997244205766
1589552650.770693,-1.2271832369311362,-3.6153692022263453,8.926754774637129,0.56,0.05333333333333334,-0.6377777777777778,1.3523245661901124,2.744473698570337,-7.95795318127251
1589552650.780693,-1.188997647234567,-3.5015035291481493,8.469295290734586,0.5466666666666666,0.09888888888888887,-0.6311111111111111,-0.30324999066362923,-11.45115444224521,-13.770750084027338
1589552650.790693,-1.157670015311648,-3.548494977032528,9.072352205250775,0.5466666666666666,0.09888888888888887,-0.6311111111111111,-1.967530436568697,-6.01776828061396,1.2077739291182734
1589552650.800693,-1.0784661422064967,-3.3930876651484922,8.898097639929235,0.5466666666666666,0.09888888888888887,-0.6311111111111111,-0.1395669439530245,-4.9855577408062635,3.3101968607671175
1589552650.810693,-1.094288124288909,-3.440720310722272,9.258593118600182,0.5466666666666666,0.09888888888888887,-0.6311111111111111,-0.23220310722272353,0.1363602926752714,1.1450478637843775
1589552650.820693,-1.0559368870934691,-3.371873774186938,8.972901408038407,0.5466666666666666,0.09888888888888887,-0.6311111111111111,1.7402611896607243,-3.394390716021194,4.895944022423231
1589552650.830693,-0.9978694802956608,-3.2557389605913216,8.791957795565088,0.5574493508483015,0.11775858620674981,-0.61942986991434,3.952175328405653,-0.9798456589176974,7.579614434529509
1589552650.840693,-0.893033448673587,-3.1040445982314497,8.248312187620147,0.5733333333333334,0.14555555555555555,-0.6022222222222222,-3.948409265667051,-0.38872068435217244,2.1516724336793542
1589552650.850693,-0.820636940530896,-3.092468144557222,8.154649632210608,0.5733333333333334,0.14555555555555555,-0.6022222222222222,0.995023902102375,-19.786226623912203,10.207404391590499
1589552650.860693,-0.8771172717938359,-3.3113294282011143,9.453697251258227,0.5733333333333334,0.14555555555555555,-0.6022222222222222,0.5537713141106566,-6.372147948963963,11.972414743557373
1589552650.870693,-0.9,-3.2068215191563207,9.107366172740623,0.5733333333333334,0.14555555555555555,-0.6022222222222222,-1.5401314911226807,-4.517963222533707,12.937299759711655
1589552650.880693,-1.006896106516038,-3.4247496469638894,9.222296550332862,0.5654151032210343,0.15677304821464597,-0.6075010422970883,2.2509380673794634,-3.194696893282227,11.355131632035505
1589552650.890693,-1.0623185116128249,-3.436662883547485,8.981147906448868,0.56,0.16444444444444445,-0.6111111111111112,1.4111558104657291,3.799909306473187,16.762803493980787
1589552650.900693,-0.9646942060085837,-3.305163626609442,9.02389753218884,0.56,0.16444444444444445,-0.6111111111111112,-0.5545869098712446,-4.140021459227468,19.769380364806867
1589552650.910693,-1.0679570026354563,-3.4993052356346883,8.922042997364544,0.56,0.16444444444444445,-0.6111111111111112,-5.970947726659611,3.430470387432816,15.72280759094399
1589552650.920693,-1.0061759778269592,-3.414263966740439,9.02573603325956,0.56,0.16444444444444445,-0.6111111111111112,-0.644723302376569,-0.4384514551057981,21.380093387387014
1589552650.930693,-0.9790290653558114,-3.341941869288377,8.63757579756524,0.5660193769038743,0.18751872257596253,-0.6171304880149854,4.043676388109927,-0.6680969779947876,20.406578882253967
1589552650.940693,-1.1574686342065916,-3.627330169667815,9.274521874796854,0.5666666666666667,0.19,-0.6177777777777778,-2.193801599167913,1.7808579275823964,20.633816550737826
1589552650.950693,-1.1024216567243073,-3.4435384731556296,8.78695159707015,0.5666666666666667,0.19,-0.6177777777777778,2.9744298874877293,-2.1914171637846405,21.89946575549347
1589552650.960693,-1.012983434612503,-3.4177016565387497,8.984961291933738,0.5666666666666667,0.19,-0.6177777777777778,5.126519187546824,-1.0796272787813201,21.677417173062516
1589552650.9706929,-0.9668491323762999,-3.3459172236041597,8.91720427368358,0.5666666666666667,0.19,-0.6177777777777778,3.0112817304522435,0.13202602871100189,25.758594756795638
1589552650.9806929,-0.9632605963669598,-3.2925648349137435,8.851650862561408,0.5695096284448506,0.18250491894842402,-0.6211376416974498,-0.28206043642179823,0.15245487261510338,29.650962527133554
1589552650.9906929,-1.190661523906557,-3.5665206316861946,8.942465613856342,0.5788888888888889,0.15777777777777774,-0.6322222222222222,2.1415380976639256,-0.05863383305436276,20.837252565315477
1589552651.0006928,-1.2162082477364375,-3.5617288670775316,8.601060830860535,0.5788888888888889,0.15777777777777774,-0.6322222222222222,3.9007860648253825,-1.1614690329452941,19.461198451647263
1589552651.0106928,-1.2339181570399134,-3.587836314079827,8.714397938991151,0.5788888888888889,0.15777777777777774,-0.6322222222222222,2.0375704738080125,-0.38281979240563047,18.603069111003247
1589552651.0206928,-1.398213228035538,-3.7616276406712736,9.04187087857848,0.5788888888888889,0.15777777777777774,-0.6322222222222222,3.494970384995064,2.210885982230997,17.072147087857847
1589552651.0306928,-1.5923328531643137,-3.977618361663305,8.982381638336694,0.5991453845086804,0.15058998900946466,-0.6322222222222222,1.4791966772303846,1.7613163833669452,22.10160496494766
1589552651.0406928,-1.334175654853621,-3.6859974860108666,8.758710161381883,0.6133333333333333,0.14555555555555555,-0.6322222222222222,-3.6833438082880545,-3.1141939015489415,26.56083752331522
1589552651.0506928,-1.1608417239003355,-3.416873819208286,9.309378542375141,0.6133333333333333,0.14555555555555555,-0.6322222222222222,-0.5363239314529569,1.5204138049832192,25.847820953079506
1589552651.0606928,-1.3258970764407514,-3.5747493181760253,8.959683429765759,0.6133333333333333,0.14555555555555555,-0.6322222222222222,2.8913255422730866,-1.0890497158004737,19.65691031784467
1589552651.0706928,-1.3370539419087137,-3.6582572614107884,8.770539419087136,0.6133333333333333,0.14555555555555555,-0.6322222222222222,3.4118257261410787,2.078578838174274,27.20902489626556
1589552651.0806928,-1.5460558168488034,-3.9209562180107898,9.571673467976206,0.660517937012957,0.06608674935829452,-0.6322222222222222,-1.4357578849080097,2.2930773620141096,31.563744985475168
1589552651.0906928,-1.3068772870548169,-3.6743523785370096,8.686396145067208,0.6766666666666666,0.03888888888888889,-0.6322222222222222,-3.3598420347088873,-5.318620702148473,25.511528114923372
1589552651.1006927,-1.242116743706307,-3.6753867899300916,9.551235435687818,0.6766666666666666,0.03888888888888889,-0.6322222222222222,-3.7035279061771784,-1.1044738701913897,20.0548668678611
1589552651.1106927,-1.155176848350502,-3.4601370778458733,9.148541204850698,0.6766666666666666,0.03888888888888889,-0.6322222222222222,0.2537019983048632,0.2837091700352067,17.283212038727346
1589552651.1206927,-1.165352657004831,-3.3810428341384866,8.991410628019324,0.6766666666666666,0.03888888888888889,-0.6322222222222222,6.466924315619968,-1.7695531400966182,12.015821256038647
1589552651.1306927,-1.3049360216355859,-3.513407402922419,9.146242431581497,0.8098862606854857,-0.1756715149394975,-0.5162955562731537,3.3871637099378376,0.17992401307822714,12.538004813514169
1589552651.1406927,-1.3242767038287138,-3.552855340765743,8.919962156080597,0.9077777777777778,-0.3333333333333333,-0.4311111111111111,-4.179404895843987,-1.9922202618390097,8.301881967883808
1589552651.1506927,-1.2937364341085271,-3.493077519379845,8.738023255813953,0.9077777777777778,-0.3333333333333333,-0.4311111111111111,-2.5522286821705427,-5.337209302325581,6.336531007751938
1589552651.1606927,-1.2850698525175712,-3.4652095575527135,8.828323539578292,0.9077777777777778,-0.3333333333333333,-0.4311111111111111,0.5900737412144257,-1.9898893881783617,6.8389476394169835
1589552651.1706927,-1.2748360906862746,-3.4241804534313727,8.95,0.9077777777777778,-0.3333333333333333,-0.4311111111111111,1.898571537990196,-0.38216145833333304,3.8148217294730395
1589552651.1806927,-1.1732744836166047,-3.2880532025832894,8.879793629594394,1.1752961695847588,-0.16997733421963648,-0.3709997743585991,1.1109835525713971,-0.6734984174609853,-10.572632137433908
1589552651.1906927,-1.1170436904857166,-3.259156197487397,8.97324357845883,1.5555555555555556,0.06222222222222223,-0.2855555555555556,3.9154697127310554,6.174259322237337,-15.10558784108186
1589552651.2006927,-1.277339037433155,-3.3720534759358287,9.075929411764706,1.5555555555555556,0.06222222222222223,-0.2855555555555556,1.2575935828877005,1.7430882352941175,-12.418970588235293
1589552651.2106926,-1.412411458537158,-3.4436880209760106,8.939220052440026,1.5555555555555556,0.06222222222222223,-0.2855555555555556,0.9751790396430947,-0.757535807928619,-9.57933755332055
1589552651.2206926,-1.5882043413005982,-3.5891198673864833,8.972605004368182,1.5555555555555556,0.06222222222222223,-0.2855555555555556,-2.1280969288322398,-5.928931643556372,-7.594428328218454
1589552651.2306926,-1.4860939431396787,-3.4960939431396785,9.122949901839599,1.005052877352012,0.10948318346704153,-0.5910013976748507,-6.5,-7.265801097942267,-6.605649676434232
1589552651.2406926,-1.6416987022916976,-3.621026909925026,9.409366650383367,0.8566666666666667,0.12222222222222222,-0.6733333333333333,-2.1867791984368026,1.3929961451054513,-7.5400078053649935
1589552651.2506926,-1.513960055758508,-3.461635262449529,8.703515429725053,0.8566666666666667,0.12222222222222222,-0.6733333333333333,-3.1074793308979043,0.6498209478946357,-12.63792870361469
1589552651.2606926,-1.4365059929292057,-3.4237350176769854,8.480482021212381,0.8566666666666667,0.12222222222222222,-0.6733333333333333,0.6792273863930332,2.1769638699663707,-8.22137190652755
1589552651.2706926,-1.2670167472181633,-3.3071988310666516,8.638837585703046,0.8566666666666667,0.12222222222222222,-0.6733333333333333,-1.1995813195459144,-2.221640721591548,3.2646215016297635
1589552651.2806926,-1.3165616885140328,-3.3058564098302763,8.856259426220994,0.7579037377115778,0.13849565937959482,-0.6884844644798527,-3.748740573779006,-3.6017006149116066,-0.2794381141325797
1589552651.2906926,-1.5989257641921397,-3.501344978165939,9.091344978165939,0.6611111111111111,0.15444444444444444,-0.7033333333333334,-0.6216157205240176,-1.6055131004366812,-2.6830786026200872
1589552651.3006926,-1.6047079624436045,-3.4520619436654068,8.89990854773808,0.6611111111111111,0.15444444444444444,-0.7033333333333334,-0.9876844287282038,-5.27748902572857,12.572658822094867
1589552651.3106925,-1.6576815739138355,-3.6411243282630474,8.948922852718827,0.6611111111111111,0.15444444444444444,-0.7033333333333334,1.6990663994899355,-2.919932370889881,18.724533199744968
1589552651.3206925,-1.6683691711636917,-3.8068141690881414,9.032591670125917,0.6611111111111111,0.15444444444444444,-0.7033333333333334,0.42398989898989914,1.135666597481666,23.301911235644113
1589552651.3306925,-1.1685881615415072,-3.293176389072192,8.896745083806255,0.6392461836258854,0.1662178669364891,-0.7058562095816286,-6.26715718622146,-3.962010855219744,22.430146331001716
1589552651.3406925,-1.043752038502844,-3.270644365777018,9.090032616045503,0.6322222222222222,0.17,-0.7066666666666667,5.716710254166502,1.6261211765641779,14.272430989220794
1589552651.3506925,-1.160184796304074,-3.5572561423771525,9.107361402771945,0.6322222222222222,0.17,-0.7066666666666667,0.6342250498740025,-1.393640408441831,9.724108174086519
1589552651.3606925,-1.1140006382511918,-3.600000398906995,8.758002074316373,0.6322222222222222,0.17,-0.7066666666666667,-1.100020942617229,-3.487505484971179,8.612502991802462
1589552651.3706925,-1.0696063150822976,-3.618818945246893,8.697047363117232,0.6322222222222222,0.17,-0.7066666666666667,-2.7374538125629826,-6.092891333557272,4.360602116224387
1589552651.3806925,-1.0679877173850658,-3.6359754347701316,8.805975434770131,0.6322222222222222,0.15960531098739214,-0.711558285025541,-1.9473899443264644,-3.287228089307238,6.88807897606612
1589552651.3906925,-1.080284881518929,-3.6216320582278065,8.97334134734138,0.6322222222222222,0.1511111111111111,-0.7155555555555555,2.7943624746817726,2.6068624746817726,0.712308775338812
1589552651.4006925,-1.0366675619676158,-3.537932238508173,9.030232138746067,0.6322222222222222,0.1511111111111111,-0.7155555555555555,3.6048893024326607,3.130036067838232,-13.332627484460133
1589552651.4106925,-0.9332099855887686,-3.4392594486541768,8.906543628841058,0.6322222222222222,0.1511111111111111,-0.7155555555555555,6.597226419041421,4.798614662265818,-17.70293977499884
1589552651.4206924,-0.8644123183654476,-3.4249827619027475,8.914680302036846,0.6322222222222222,0.1511111111111111,-0.7155555555555555,5.900471139406502,3.057558588379619,-23.69463054421625
1589552651.4306924,-0.763752511547942,-3.334824657704497,8.746673364127846,0.6228568239304201,0.14798931168051038,-0.7108728564096545,-0.3810121797129069,-0.26258751579427053,-27.952530449282268
1589552651.4406924,-0.9268720858784834,-3.5714219105793905,9.14838869411212,0.6055555555555555,0.14222222222222222,-0.7022222222222222,-4.008886941121191,2.918542397079553,-39.685433006831246
1589552651.4506924,-7.072620922384701,-10.202474690663667,12.805140607424072,0.6055555555555555,0.14222222222222222,-0.7022222222222222,69.01188132733408,54.75028121484814,-60.19481158605174
1589552651.4606924,-20.83918532249632,-15.753597129141118,7.358810304672277,0.6055555555555555,0.14222222222222222,-0.7022222222222222,-33.04480221255761,-35.77983447407195,-269.2147187960454
1589552651.4706924,-10.02829618211999,-6.02752509683029,1.7627602561062368,0.6055555555555555,0.14222222222222222,-0.7022222222222222,-92.94220318551893,-34.3796735435934,-278.40554600426844
1589552651.4806924,2.2712505408913892,0.36898312418866275,12.794987018606665,0.5939860089427376,0.14970839944228087,-0.6933749218712438,24.60646094764172,39.43854121592385,-217.01488803548247
1589552651.4906924,0.37412498259710825,-0.8166057399709621,11.84245271385668,0.5866666666666667,0.15444444444444444,-0.6877777777777778,59.38984342369578,39.602966695837225,-198.58436300443526
1589552651.5006924,-0.9418393977415307,0.3737867001254702,6.104479297365119,0.5866666666666667,0.15444444444444444,-0.6877777777777778,-6.129093475533253,-1.9193851944792968,-158.3004234629862
1589552651.5106924,0.03681510530716259,0.045915913524704255,8.0118069435044,0.5866666666666667,0.15444444444444444,-0.6877777777777778,-13.694645309949436,-0.47726266074769796,-128.45431629971733
1589552651.5206923,0.723452498518665,-1.336024096385542,8.69511159391665,0.5866666666666667,0.15444444444444444,-0.6877777777777778,13.459189215879913,20.164465238001185,-113.80246395417737
1589552651.5306923,-0.01829331687189318,-1.2944605087884598,7.991405828649404,0.5796008100761342,0.2109712971687045,-0.6789454570396122,-8.328572240813543,-2.8575895903050785,-82.84303624224309
1589552651.5406923,-0.1057904678162604,-1.9668522951166691,8.751316659339228,0.5733333333333334,0.2611111111111111,-0.6711111111111111,-6.037458477846709,-2.050849372282741,-53.170746625307345
1589552651.5506923,-0.10336893203883496,-2.4510873786407767,8.914349514563106,0.5733333333333334,0.2611111111111111,-0.6711111111111111,10.359781553398058,5.9083131067961165,-38.24128640776699
1589552651.5606923,-0.15322649780808573,-2.5985776911836336,8.922835849975645,0.5733333333333334,0.2611111111111111,-0.6711111111111111,4.466061860691671,5.015227715538237,-29.198173404773502
1589552651.5706923,-0.35965680597957683,-2.7727013369828404,8.610611643330877,0.5733333333333334,0.2611111111111111,-0.6711111111111111,-5.263336930203179,-3.3462667122855034,-16.615867459732605
1589552651.5806923,-0.27668522569099224,-2.9784271226884074,8.904831974547625,0.5710611784980447,0.28837696913457506,-0.6784956143257993,-8.244034599323921,-0.8693950089481008,1.6004175780473255
1589552651.5906923,-0.03431456397626781,-2.6552363147878655,8.657846636068511,0.5688888888888889,0.3144444444444445,-0.6855555555555556,-6.763458524571813,2.735622131422814,3.25
1589552651.6006923,0.06166426927502877,-2.4975007192174914,8.661111430763329,0.5688888888888889,0.3144444444444445,-0.6855555555555556,-2.5867406261986963,0.3367945675105486,2.9201338943229764
1589552651.6106923,-0.09497778176758383,-2.644844472373087,8.99453341711926,0.5688888888888889,0.3144444444444445,-0.6855555555555556,3.5590746891691727,-1.248611360473989,2.874629696126397
1589552651.6206923,-0.2288781450226598,-2.865043366150961,9.206460970464136,0.5688888888888889,0.3144444444444445,-0.6855555555555556,3.4782632051883104,2.2464630704016253,6.21679046530708
1589552651.6306922,-0.39181758250281146,-2.9976612246480783,8.971556986078255,0.5657575091669791,0.32025986392799133,-0.6779507762309174,-2.1364010935742814,2.128092643580099,14.58448782332183
1589552651.6406922,0.9504501661129569,-8.375278239202657,9.151029485049834,0.5611111111111111,0.3288888888888889,-0.6666666666666666,-20.316829318936875,-17.028332641196013,-63.51288932724252
1589552651.6506922,0.08437845606684369,-16.35938150105966,8.023649606586929,0.5611111111111111,0.3288888888888889,-0.6666666666666666,-13.8799146184015,14.241416165257853,-121.00930702053543
1589552651.6606922,-1.5335710397387043,-12.365059491406797,7.955605218135158,0.5611111111111111,0.3288888888888889,-0.6666666666666666,5.625,41.11340063379734,-100.99961724278715
1589552651.6706922,-1.1240746054519368,-1.7071572043451528,8.947216642754663,0.5611111111111111,0.3288888888888889,-0.6666666666666666,-0.8307286329165811,10.957176163148187,-76.28390807542529
1589552651.6806922,-1.224257488442784,-2.3825197897536574,8.057440947375087,0.5535615223861693,0.32717307326958395,-0.6725004397723034,-8.018709233107465,-7.932956272560318,-44.82034861630042
1589552651.6906922,-0.8695453640406186,-2.91300391584257,10.4684781310148,0.5366666666666666,0.3233333333333333,-0.6855555555555556,6.5218606889228115,13.410570286055618,-41.20652751045331
1589552651.7006922,-0.33346601208459214,-2.995229607250755,9.399458081570996,0.5366666666666666,0.3233333333333333,-0.6855555555555556,-0.9424376888217525,-3.980825151057402,-70.48486357628398
1589552651.7106922,-0.5843745617830024,-3.4113294944281174,8.81000895081527,0.5366666666666666,0.3233333333333333,-0.6855555555555556,9.10596832903197,-2.00781797771247,-48.06769333760983
1589552651.7206922,-0.984826876314651,-2.1599160115167155,9.554599973147553,0.5366666666666666,0.3233333333333333,-0.6855555555555556,-1.2181929049870952,2.997835953933137,-43.17935941998717
1589552651.7306921,-0.13219919713572745,-6.13857871324726,8.43142128675274,0.5334534917362843,0.3444484828758454,-0.6832604306052825,-3.4561069219919713,-7.2888836524899645,-34.134189880112835
1589552651.7406921,-0.3881115530212277,-4.8661957928027215,9.032418898845178,0.5288888888888889,0.3744444444444445,-0.68,-0.19255834012171164,-1.6738972878432126,-26.550412693468783
1589552651.7506921,-0.4260069975140411,-4.583526010496271,8.663128993646994,0.5288888888888889,0.3744444444444445,-0.68,0.7081875517908112,0.23471250345272074,-15.184543320136267
1589552651.7606921,-0.3154551539491299,-4.72909192324855,8.60831070312998,0.5288888888888889,0.3744444444444445,-0.68,2.491876235099127,1.059244916172627,-6.49024869318544
1589552651.770692,-0.21890485681317529,-4.47,8.875707961816847,0.5288888888888889,0.3744444444444445,-0.68,2.4828542956047412,1.2240047728941572,-4.526480383929508
1589552651.780692,-0.21990505470657384,-4.352484853965096,8.943088886879465,0.5219250283831168,0.37792637469733054,-0.6660722789884559,1.1210100370738765,0.8315907857853331,5.151855954426259
1589552651.790692,-0.11755028593965687,-4.159271346874384,8.902713468743837,0.5111111111111111,0.38333333333333336,-0.6444444444444445,2.4453510155787814,0.713092831788602,-2.0411531256162476
1589552651.800692,-0.15,-4.15,8.81,0.5111111111111111,0.38333333333333336,-0.6444444444444445,1.75,-2.9375,-11.3125
1589552651.810692,-0.05883857358111502,-4.241161426418885,8.817596785534908,0.5111111111111111,0.38333333333333336,-0.6444444444444445,2.41471873430437,-0.08870542440984419,-1.4841587142139634
1589552651.820692,-0.12937994071146247,-4.254069911067194,8.789912611166008,0.5111111111111111,0.38333333333333336,-0.6444444444444445,0.125,3.6332448122529644,-1.5763108325098814
1589552651.830692,-0.07083079327862446,-4.1581230949589685,8.914584603360687,0.509305978898007,0.3854393209152881,-0.6516649732968608,-0.14576983196561155,-2.0651914810472842,0.679616060961313
1589552651.840692,-0.09887591524970202,-4.181124084750298,8.892131406747914,0.5044444444444445,0.3911111111111111,-0.6711111111111111,-1.0576637719234232,-1.160857415651074,1.120621396774429
1589552651.850692,-0.09355490387748452,-4.19710980775497,8.79800586510264,0.5044444444444445,0.3911111111111111,-0.6711111111111111,-1.9889825676116,-2.537390029325513,-0.6530017921146953
1589552651.860692,-0.09361693087105737,-4.23,8.70187971890832,0.5044444444444445,0.3911111111111111,-0.6711111111111111,1.4330732145775453,-4.937054665795064,2.679065206733126
1589552651.870692,-0.052489622487334534,-4.23,8.832116195456774,0.5044444444444445,0.3911111111111111,-0.6711111111111111,4.089211881026312,-3.994553848668083,-3.1473034809609413
1589552651.880692,-0.09194725975975976,-4.157315753253253,8.92610548048048,0.5044444444444445,0.38902336364141915,-0.6678303650873095,-2.3072173736236237,-2.1197173736236237,-3.594066722972973
1589552651.890692,-0.08961149041408611,-4.1656891923312696,8.950388509585915,0.5044444444444445,0.38333333333333336,-0.6588888888888889,1.7230574520704305,1.6163850958591388,-1.0759712739647846
1589552651.900692,-0.10816589282910526,-4.192958526792724,8.88745620528004,0.5044444444444445,0.38333333333333336,-0.6588888888888889,0.5806445281833883,1.7932606038175987,0.03548437745328936
1589552651.910692,-0.08,-4.215901326366559,8.812650221061094,0.5044444444444445,0.38333333333333336,-0.6588888888888889,0.034273889670418,2.5730946040996785,1.7380614449356915
1589552651.920692,-0.08773742959965843,-4.2496834272004556,8.827737429599658,0.5044444444444445,0.38333333333333336,-0.6588888888888889,4.370519285118842,1.0789106500213488,0.4632215399629954
1589552651.930692,-0.11,-4.213401999394122,8.858247500757345,0.5055441112120906,0.38681561143087956,-0.6623711669864351,-2.632724931838837,0.3679188124810663,3.6688219478945774
1589552651.940692,-0.10097350688486167,-4.17699116896162,8.918052986230277,0.5111111111111111,0.4044444444444445,-0.68,2.9491038170175363,2.2704740928305363,2.534876846775206
1589552651.950692,-0.08231419972343483,-4.181570998617174,8.913716005531304,0.5111111111111111,0.4044444444444445,-0.68,5.003474011008379,-1.457137482714677,-5.749244190775738
1589552651.960692,-0.08669494409333982,-4.22,8.76991516771998,0.5111111111111111,0.4044444444444445,-0.68,-1.3824228245017014,0.5412919299951384,3.7733288770053477
1589552651.970692,-0.08,-4.22,8.803896394657608,0.5111111111111111,0.4044444444444445,-0.68,3.3106133714197483,4.381306454103297,-1.402590133559793
1589552651.980692,-0.08197847302578434,-4.2140645809226465,8.846924655590245,0.5139689054816885,0.4025758865867593,-0.68,10.486160840992948,1.9493210051743335,-2.0580475078051657
1589552651.990692,-0.09919826988792507,-4.16,8.909839653977585,0.54,0.3855555555555555,-0.68,6.308857265753818,7.690872404234473,-16.013489616937893
1589552652.000692,-0.0510061919504644,-4.160603715170279,8.897987616099071,0.54,0.3855555555555555,-0.68,1.9921633126934983,3.8348490712074303,-1.497484520123839
1589552652.010692,-0.10084743887598187,-4.192542316627946,8.795762805620091,0.54,0.3855555555555555,-0.68,-9.625020743445072,-6.979878858280784,-0.8771296603606593
1589552652.0206919,-0.10858114835711916,-4.215743445071357,8.757094258214405,0.54,0.3855555555555555,-0.68,-1.06960462993694,-4.514758961168271,3.666424659807501
1589552652.0306919,-0.09793883770623885,-4.208969418853119,8.866183486881283,0.5363357114777579,0.38704417276771635,-0.6808015631142404,2.805351700704102,4.750917346831541,-2.1155200196167723
1589552652.0406919,-0.0831873427105484,-4.190437971868355,8.926374685421097,0.5044444444444445,0.4,-0.6877777777777778,3.2594300513080627,-2.0734492967088705,-8.54167560818588
1589552652.0506918,-0.08679558263171104,-4.179613252104867,8.920773495790266,0.5044444444444445,0.4,-0.6877777777777778,1.1153313026216716,-1.542472391448194,2.4240337006867914
1589552652.0606918,-0.07140720858895706,-4.228592791411043,8.817185582822086,0.5044444444444445,0.4,-0.6877777777777778,2.4277703220858897,-1.8420724693251533,-0.2121836656441718
1589552652.0706918,-0.08,-4.2243478618590204,8.808695723718042,0.5044444444444445,0.4,-0.6877777777777778,3.0217413661887815,-5.032614620400271,5.010860398625995
1589552652.0806918,-0.08359593783659025,-4.23640406216341,8.84479458378212,0.5047108102101179,0.3968036108119198,-0.6877777777777778,4.0,-7.452694645330051,1.2547122634251422
1589552652.0906918,-0.11,-4.201347793664689,8.882163051583829,0.5066666666666667,0.37333333333333335,-0.6877777777777778,2.404749456927018,-5.349317511266738,3.449457737574166
1589552652.1006918,-0.11,-4.174150050254514,8.888962487436372,0.5066666666666667,0.37333333333333335,-0.6877777777777778,-2.6098344843238337,-2.714536118406121,4.469373115455695
1589552652.1106918,-0.09294403296218179,-4.194703978025212,8.82,0.5066666666666667,0.37333333333333335,-0.6877777777777778,-5.037407416490901,-3.078312772845441,0.5960048069848434
1589552652.1206918,-0.07215391083261596,-4.21,8.822153910832617,0.5066666666666667,0.37333333333333335,-0.6877777777777778,-0.9250315309002821,5.9201955416307985,-2.0499789793998118
1589552652.1306918,-0.08,-4.210855782990108,8.836846263920862,0.5072371886600718,0.37371368132893673,-0.6871121687854719,-4.183043769053692,5.820424780688111,0.2432651029677098
1589552652.1406918,-0.08,-4.208923755930707,8.907230938982677,0.5133333333333333,0.37777777777777777,-0.68,1.1135082202361248,2.0162570340946706,-0.5962705505903121
1589552652.1506917,-0.08433075325656032,-4.18,8.88484236360204,0.5133333333333333,0.37777777777777777,-0.68,-0.6584623371719842,5.00048376439494,0.6261917122899754
1589552652.1606917,-0.09567713226205192,-4.1886457354758955,8.832161433868974,0.5133333333333333,0.37777777777777777,-0.68,-1.063788627935723,0.3603708281829421,-9.843947775030902
1589552652.1706917,-0.08198402853155529,-4.22,8.84,0.5133333333333333,0.37777777777777777,-0.68,-4.457386804155683,-4.944487517444565,0.18458288106683218
1589552652.1806917,-0.08964209499420767,-4.220357905005792,8.840178952502896,0.5134526350019307,0.37791696305780814,-0.6798806983314026,-0.7186833119931711,-1.4956595634412535,-4.629473812572404
1589552652.1906917,-0.07185309356903384,-4.228881438585797,8.861118561414203,0.52,0.3855555555555555,-0.6733333333333333,1.1389820176775374,-2.60276973483694,-5.03714568729046
1589552652.2006917,-0.07984284516915574,-4.180942928985065,8.909057071014935,0.52,0.3855555555555555,-0.6733333333333333,1.738213387686681,6.385700815300213,-5.7362489523011275
1589552652.2106917,-0.08,-4.18,8.832423259060809,0.52,0.3855555555555555,-0.6733333333333333,-3.583400939569459,1.6169827651265019,-2.356017583910345
1589552652.2206917,-0.09890841831633673,-4.191091581683664,8.838908418316336,0.52,0.3855555555555555,-0.6733333333333333,0.518501299740052,-1.807643471305739,-4.229301639672066
1589552652.2306917,-0.09052149570085982,-4.19947850429914,8.830521495700859,0.52,0.3855555555555555,-0.6733333333333333,4.502289542091582,2.071308238352329,-1.189042191561688
1589552652.2406917,-0.08339620159500123,-4.21,8.891698100797502,0.5133333333333333,0.3855555555555555,-0.6944444444444444,1.4056647208747841,2.3643827591877002,2.1037737400312424
1589552652.2506917,-0.09718983803337992,-4.21,8.89859491901669,0.5133333333333333,0.3855555555555555,-0.6944444444444444,-1.0082216558414867,4.605848680424238,2.0175635122913755
1589552652.2606916,-0.0982914591964727,-4.169145729598236,8.784271352008817,0.5133333333333333,0.3855555555555555,-0.6944444444444444,-6.917714707894637,3.765389220418868,6.033291839294538
1589552652.2706916,-0.08234900604355924,-4.16117450302178,8.824127484891102,0.5133333333333333,0.3855555555555555,-0.6944444444444444,2.5979370177505796,5.65855553232734,2.8448012087118473
1589552652.2806916,-0.0710570142535634,-4.2136579144786195,8.847885971492873,0.5133333333333333,0.3855555555555555,-0.6944444444444444,-0.9186421605401351,9.123438672168042,-4.2204519879969995
1589552652.2906916,-0.09508546724309944,-4.22,8.85,0.5133333333333333,0.3855555555555555,-0.6767917082363374,-0.7683405387429332,3.594462919853675,0.01709344861988704
1589552652.3006916,-0.09162352298340277,-4.211882385082986,8.897011816132778,0.5133333333333333,0.3855555555555555,-0.6733333333333333,-4.3279403729253465,2.107642920565535,0.0960359606584249
1589552652.3106916,-0.09875375012097165,-4.171246249879029,8.833738749637085,0.5133333333333333,0.3855555555555555,-0.6733333333333333,-5.585304667086035,6.4640547880576795,-8.118148468498983
1589552652.3206916,-0.09,-4.182288824008421,8.86228882400842,0.5133333333333333,0.3855555555555555,-0.6733333333333333,-6.225648721920992,-0.6408381993684085,-5.7033381993684085
1589552652.3306916,-0.09,-4.198949730878469,8.87894973087847,0.5133333333333333,0.3855555555555555,-0.6733333333333333,-0.1340046475600314,0.6087298158851218,-4.4537701841148785
1589552652.3406916,-0.08172648528352934,-4.2082735147164705,8.876547029432942,0.5133333333333333,0.3922222222222223,-0.6666666666666666,1.1062034996618157,-1.177676292191216,4.472965712477909
1589552652.3506916,-0.08900566005091574,-4.199005660050916,8.854033960305493,0.5133333333333333,0.3922222222222223,-0.6666666666666666,-3.7908252799129984,3.012783002545787,7.570837143775179
1589552652.3606915,-0.08111742385812552,-4.187765152283749,8.802234847716251,0.5133333333333333,0.3922222222222223,-0.6666666666666666,1.91903394679707,1.0469938924172637,5.039180599801148
1589552652.3706915,-0.08962806647322606,-4.170743867053548,8.819256132946453,0.5133333333333333,0.3922222222222223,-0.6666666666666666,5.110524927459773,-10.495565154312846,11.049821946715905
1589552652.3806915,-0.08347040437585466,-4.176529595624145,8.839588786872437,0.5133333333333333,0.3922222222222223,-0.6666666666666666,3.4543612033600315,-5.980373363938269,4.333994676694666
1589552652.3906915,-0.08788960293780124,-4.211558411751205,8.865779205875603,0.5133333333333333,0.39835858006273434,-0.6666666666666666,-0.35998106495294957,-1.1428591921046594,-1.0515406242827632
1589552652.4006915,-0.06243134861825473,-4.217568651381745,8.870274605526982,0.5133333333333333,0.4,-0.6666666666666666,3.7161755731845525,1.9629936361258826,-0.89166158137913
1589552652.4106915,-0.08079036307454616,-4.198814455388181,8.80355663383546,0.5133333333333333,0.4,-0.6666666666666666,4.305843230977211,-0.38960807744302817,-4.580542077056779
1589552652.4206915,-0.09954378094714122,-4.170912438105717,8.889087561894282,0.5133333333333333,0.4,-0.6666666666666666,2.4139986880528164,3.521660353802531,-3.209160353802531
1589552652.4306915,-0.09066845825045494,-4.18866308349909,8.871336916500908,0.5133333333333333,0.4,-0.6666666666666666,-1.6908380591645855,-2.1363578653349693,2.4488578653349693
1589552652.4406915,-0.08168010983353355,-4.1983198901664665,8.886639780332933,0.5133333333333333,0.39352897431497064,-0.6601956409816372,-0.8560151021108633,0.8694546936674103,0.5870302042217266
