time,acc_x,acc_y,acc_z,mag_x,mag_y,mag_z,gyr_x,gyr_y,gyr_z
1589551976.2060695,-0.18,-4.14,8.85,0.4533333333333333,0.3744444444444445,-0.6444444444444445,2.375,-1.8125,-5.0
1589551976.2160695,-0.1684382881951623,-4.157342567707256,8.90202770312177,0.4533333333333333,0.3744444444444445,-0.6444444444444445,-2.827770312176969,-0.5840681207359935,-0.80887947074633
1589551976.2260695,-0.1648794246834898,-4.17,8.94,0.45631520397324377,0.37308904869903065,-0.6411914946554512,-6.350532361553699,-0.1449460640771682,2.5244676384463007
1589551976.2360694,-0.17765033714049813,-4.167650337140498,8.94,0.4655555555555556,0.3688888888888889,-0.6311111111111111,-3.825865212604926,-0.8576011421494427,3.8449325719003715
1589551976.2460694,-0.17,-4.164270512764943,8.935729487235056,0.4655555555555556,0.3688888888888889,-0.6311111111111111,3.2264422868536258,2.825416648606476,2.2254968358545364
1589551976.2560694,-0.17382307256096058,-4.1585307823171185,8.93,0.4655555555555556,0.3688888888888889,-0.6311111111111111,4.7059623018318995,0.6254854039793889,-1.283173894819892
1589551976.2660694,-0.18690896447344202,-4.136545517763278,8.947272411183604,0.4655555555555556,0.3688888888888889,-0.6311111111111111,3.4954569161229623,-4.8579743010246865,-3.341986582946434
1589551976.2760694,-0.2,-4.136417871900827,8.967164256198346,0.463059716483012,0.3731674701561065,-0.6311111111111111,1.4048618285123966,-1.689372417355372,-4.363370028409091
1589551976.2860694,-0.2049031425891182,-4.154903142589118,8.910581144465292,0.4577777777777778,0.38222222222222224,-0.6311111111111111,-0.6613215290806753,0.8100785647279549,7.876587417917449
1589551976.2960694,-0.2562562123986398,-4.126959848286686,8.794095605545383,0.4577777777777778,0.38222222222222224,-0.6311111111111111,2.117303982474496,1.3092017067747843,3.2011713641119535
1589551976.3060694,-0.33919995614195386,-4.066840027776762,8.635480062863198,0.4577777777777778,0.38222222222222224,-0.6311111111111111,3.7399994517744233,1.8374990862907057,-8.886247761412228
1589551976.3160694,-0.09882913653393743,-4.217447242310708,8.984894484621417,0.4577777777777778,0.38222222222222224,-0.6311111111111111,0.8031824518602422,-2.593771238128431,4.043907379977346
1589551976.3260694,-0.22971073423914842,-4.130123971040365,8.810950444642799,0.4577594116977237,0.38216712398206004,-0.6310514213509354,2.6234503619954377,1.6683877979437336,-0.8646690799695858
1589551976.3360693,-0.16594936071680258,-4.16,9.034050639283196,0.4533333333333333,0.3688888888888889,-0.6166666666666667,2.126054985066613,-2.6152429611731938,1.2283759522131614
1589551976.3460693,-0.1870623175274338,-4.16,9.012937682472566,0.4533333333333333,0.3688888888888889,-0.6166666666666667,1.6862017181784625,-1.471624467264002,-0.17915450182892045
1589551976.3560693,-0.21488394776654193,-4.128294649255514,8.88852675372243,0.4533333333333333,0.3688888888888889,-0.6166666666666667,1.772324627756987,5.01986623138785,2.4157402062266105
1589551976.3660693,-0.19,-4.120080859351945,8.930323437407779,0.4533333333333333,0.3688888888888889,-0.6166666666666667,-2.412902821224104,4.771059582128313,-2.263139644691023
1589551976.3760693,-0.1916778442390188,-4.13,8.975033532717056,0.4496047905799582,0.36982102457723265,-0.6166666666666667,-5.919468612168449,-1.6862349706966346,-1.4106662739411515
1589551976.3860693,-0.20023763967549366,-4.129762360324507,8.99738596356957,0.4311111111111111,0.3744444444444445,-0.6166666666666667,-0.1876195851829175,-8.27572755625287,10.513965157661104
1589551976.3960693,-0.22545159621985048,-4.116137100945037,8.866822605670224,0.4311111111111111,0.3744444444444445,-0.6166666666666667,3.9201596219850483,2.0963697164887867,-0.5911302835112136
1589551976.4060693,-0.2462481343725569,-4.094992537490228,8.837503731254886,0.4311111111111111,0.3744444444444445,-0.6166666666666667,4.12388062353415,4.078194961029116,-1.7045941816114283
1589551976.4160693,-0.23690483290590644,-4.088571002564562,8.880951670940934,0.4311111111111111,0.3744444444444445,-0.6166666666666667,0.877964652790203,3.190501928391086,-5.038726864277052
1589551976.4260693,-0.21786026936026937,-4.127572053872054,8.954855892255893,0.43758563411896745,0.3779514777403667,-0.6182852974186308,1.332314814814815,0.5661026936026936,-0.04323232323232329
1589551976.4360693,-0.19698334751958793,-4.124245836879897,8.965754163120105,0.4577777777777778,0.3888888888888889,-0.6233333333333333,1.4790643619459178,-0.6085944149806849,6.277944193456863
1589551976.4460692,-0.21325452498484454,-4.123254524984844,8.936390837446957,0.4577777777777778,0.3888888888888889,-0.6233333333333333,3.656815623105569,-2.572843595739153,7.148688512167663
1589551976.4560692,-0.19770512716669367,-4.123769236999839,8.892294872833308,0.4577777777777778,0.3888888888888889,-0.6233333333333333,2.1147436416653167,-4.111698627085696,3.3504804187591124
1589551976.4660692,-0.1893662785964341,-4.171267442807132,8.903802328421396,0.4577777777777778,0.3888888888888889,-0.6233333333333333,1.9930228771472767,-3.445421517544574,1.2134087763575674
1589551976.4760692,-0.1825368395343157,-4.1849263209313685,8.944778962794107,0.4577777777777778,0.3888888888888889,-0.6233333333333333,-3.470528372547423,-3.5307895058210534,6.207436090531629
1589551976.4860692,-0.18996371744963908,-4.170072565100722,8.96996371744964,0.4655273357941638,0.38224641058912956,-0.6233333333333333,3.093706300313693,0.0493475754941608,1.2747174874333869
1589551976.4960692,-0.22284974520847517,-4.152849745208475,8.855751273957624,0.4655555555555556,0.38222222222222224,-0.6233333333333333,-3.3924872604237586,3.1719546223515094,5.551490839883642
1589551976.5060692,-0.23,-4.161474636654386,8.831797093235092,0.4655555555555556,0.38222222222222224,-0.6233333333333333,-4.026494372697462,-0.07631269989069267,6.871264068256346
1589551976.5160692,-0.23,-4.169964778753896,8.899718230031173,0.4655555555555556,0.38222222222222224,-0.6233333333333333,-5.618396016355613,-5.913285393303915,2.8915099591109676
1589551976.5260692,-0.22755852331096588,-4.146337784966449,8.926103691722584,0.46311407886652145,0.3805945710961995,-0.6233333333333333,-3.127926165548294,-5.8576492863543965,1.9566279972022471
1589551976.5360692,-0.21,-4.121201000270343,8.967597999459313,0.4455555555555555,0.3688888888888889,-0.6233333333333333,-2.0323187010002703,-1.484831204379562,7.318234235604217
1589551976.5460691,-0.21306251625769532,-4.1369374837423045,8.911624902453827,0.4455555555555555,0.3688888888888889,-0.6233333333333333,1.5281258128847655,0.34764913725830215,-0.07811280672851817
1589551976.5560691,-0.21512602981561396,-4.13,8.87,0.4455555555555555,0.3688888888888889,-0.6233333333333333,1.7226884317379365,-0.676987298940761,4.485291413299333
1589551976.5660691,-0.20670992966404,-4.125526713557306,8.885656502549425,0.4455555555555555,0.3688888888888889,-0.6233333333333333,0.24351055039400227,4.080723865857837,0.19346167798625524
1589551976.576069,-0.23353585451539574,-4.107642763656403,8.943535854515396,0.4464722585780655,0.3704603797846203,-0.6242500363558433,-2.542829096920851,-0.9299054556726596,-6.125602741613281
1589551976.586069,-0.25341571584082573,-4.093292142079587,8.976584284159175,0.4533333333333333,0.38222222222222224,-0.6311111111111111,1.5154467201548198,0.6797766399225901,5.224294944159981
1589551976.596069,-0.24,-4.091503210312209,8.96238543351468,0.4533333333333333,0.38222222222222224,-0.6311111111111111,-1.0796574033230408,2.8933888398764886,3.3419166299073666
1589551976.606069,-0.24,-4.065824521801116,8.865824521801116,0.4533333333333333,0.38222222222222224,-0.6311111111111111,-1.375,4.690143459664964,5.708773909944161
1589551976.616069,-0.23957624812950618,-4.091059379676234,8.890635627805741,0.4533333333333333,0.38222222222222224,-0.6311111111111111,-1.3140856686165148,-2.377108556658958,4.523836042715277
1589551976.626069,-0.22531186233165557,-4.12672034417086,8.912032206502516,0.4533333333333333,0.38222222222222224,-0.6311111111111111,0.7364197898245135,3.8635602299006937,5.326207743844375
1589551976.636069,-0.2002639076323287,-4.1893402309191785,8.949604138551507,0.4456581863014611,0.3690648273104413,-0.644268506022892,-2.0771667416404256,-8.429543409806568,4.76154595891438
1589551976.646069,-0.17371380966382438,-4.22,8.874429285504265,0.4455555555555555,0.3688888888888889,-0.6444444444444445,1.3769136528472017,-0.287583308830736,-4.109026756836225
1589551976.656069,-0.19,-4.219632253479148,8.850091936630212,0.4455555555555555,0.3688888888888889,-0.6444444444444445,-2.964374555792466,2.5406650503244146,-0.7201205951807781
1589551976.666069,-0.19,-4.181167434715822,8.859708141321043,0.4455555555555555,0.3688888888888889,-0.6444444444444445,0.7619047619047619,0.2568164362519201,2.4051459293394775
1589551976.676069,-0.23953748857055776,-4.14,8.950462511429441,0.4455555555555555,0.36858054793592737,-0.6438277625385215,3.9515582139591587,6.442095588235294,-2.709530249923804
1589551976.686069,-0.23154773697043585,-4.14,8.958452263029566,0.4455555555555555,0.36325404686917945,-0.6331747604050255,0.9554013639134409,-3.1955422794117645,-2.010426984913136
1589551976.696069,-0.25,-4.128685747373646,8.955543221110101,0.4455555555555555,0.3622222222222222,-0.6311111111111111,2.868574737364546,-1.5103678964347753,2.9321697410869385
1589551976.706069,-0.25,-4.121746711886839,8.879213830755232,0.4455555555555555,0.3622222222222222,-0.6311111111111111,2.1746711886839276,0.7448186367772354,-2.7057965919430895
1589551976.716069,-0.2603583190074771,-4.098566723970092,8.902149914044863,0.4455555555555555,0.3622222222222222,-0.6311111111111111,3.1066723970091754,-0.8169789875934632,-1.6958404962614693
1589551976.726069,-0.26904558729106687,-4.063817650835732,8.954273523746402,0.4455555555555555,0.3622222222222222,-0.6311111111111111,-0.36823491642675155,-0.925569841138336,2.64779364553344
1589551976.736069,-0.3041953783959141,-4.007413864812257,8.938390756791827,0.4455555555555555,0.3688888888888889,-0.6377777777777778,0.6242908715832902,-6.78251696917267,3.2370797218386596
1589551976.746069,-0.3181510256367599,-3.9655469230897205,8.966302051273521,0.4455555555555555,0.3688888888888889,-0.6377777777777778,-4.783522434244456,-1.0694238799514224,-3.0429615365419487
1589551976.756069,-0.36680514900974,-3.8168051490097397,8.88159742549513,0.4455555555555555,0.3688888888888889,-0.6377777777777778,-0.7655792635957479,4.922725269176124,-0.7100643626217498
1589551976.766069,-0.3524457796264914,-3.802445779626491,8.888777110186755,0.4455555555555555,0.3688888888888889,-0.6377777777777778,0.8498497920197199,4.294502858658998,-0.5305722453311422
1589551976.776069,-0.37657797840693974,-3.7824715524952675,8.954790830230284,0.446392049722748,0.36926911351034003,-0.6367891937620048,-1.6145415115142185,-5.280183218572528,-4.221479686297352
1589551976.786069,-0.3329518836720684,-3.6864941440785506,9.015867362859105,0.4570562062134944,0.37411645736977023,-0.6241860997274864,-4.668368142955211,-1.6810304029456433,-8.638621778203074
1589551976.796069,-0.3241397912239322,-3.427446346418813,9.006370939492305,0.4577777777777778,0.3744444444444445,-0.6233333333333333,0.17842588916653046,-6.837197286378179,15.363910230961444
1589551976.806069,-0.34475905209505525,-3.0428948500695046,9.021723538756868,0.4577777777777778,0.3744444444444445,-0.6233333333333333,3.166373618190243,-5.701701818693321,18.437939572714637
1589551976.816069,-0.4696968292844377,-2.5500847289336073,8.84819884821606,0.4577777777777778,0.3744444444444445,-0.6233333333333333,1.5178890580525586,0.7620929039518103,20.910666412921163
1589551976.8260689,-0.37922150439892216,-2.4470064604097,9.016765574781676,0.4557017895082369,0.3744444444444445,-0.6249768240467198,1.0194623900269455,-4.138844024932636,40.12053817809954
1589551976.8360689,-0.3451403737860116,-2.5465730841426586,8.88762180690443,0.4311111111111111,0.3744444444444445,-0.6444444444444445,-0.13109034522157836,-1.6635007753203297,43.195628111482904
1589551976.8460689,-0.2650998106157547,-2.608211342580744,8.93516635102626,0.4311111111111111,0.3744444444444445,-0.6444444444444445,-3.149853483134565,2.277764626094078,40.626980217024105
1589551976.8560688,-0.1804005098893869,-2.7230387762654717,8.83111887824335,0.4311111111111111,0.3744444444444445,-0.6444444444444445,0.23498087914799126,-3.033494901106131,53.2405834943871
1589551976.8660688,-0.13883483589393172,-2.8223303282121366,8.92699098463641,0.4311111111111111,0.3744444444444445,-0.6444444444444445,2.059496715674389,-2.898611600943417,46.66141137831463
1589551976.8760688,-0.12034430312782418,-2.8593113937443513,9.037934181233053,0.4311111111111111,0.3744444444444445,-0.6444444444444445,6.9710444816717,5.653259803381312,47.2392405272555
1589551976.8860688,-0.16448473690970586,-2.8524236845485293,8.884666053003382,0.4455555555555555,0.3744444444444445,-0.6377777777777778,-2.660661150832727,1.7102795735753737,51.17473348460847
1589551976.8960688,-0.17870979416421623,-2.9364510291789188,8.975160823343135,0.4455555555555555,0.3744444444444445,-0.6377777777777778,4.500045238633794,-4.401314747794617,36.23985806378647
1589551976.9060688,-0.1756573470971383,-2.98,9.002726268017964,0.4455555555555555,0.3744444444444445,-0.6377777777777778,1.125,3.3566807557551672,41.772228525407385
1589551976.9160688,-0.2418257642014548,-2.9818257642014547,8.923042940335758,0.4455555555555555,0.3744444444444445,-0.6377777777777778,1.1858588067151603,1.6349244864438235,52.896702148083364
1589551976.9260688,-0.2686669937498667,-3.0086669937498667,8.967778322916445,0.4455555555555555,0.3744444444444445,-0.6377777777777778,2.080566458328889,-10.164032669212228,55.97225970050556
1589551976.9360688,-0.2606198522144303,-2.9349588177154424,8.819917635430885,0.46431585112669505,0.3442195238020531,-0.6179752435637973,1.8904963053607569,-0.3732115122134907,46.51034851979103
1589551976.9460688,-0.2997710565007351,-2.979771056500735,9.056259189245957,0.4655555555555556,0.3422222222222222,-0.6166666666666667,5.340010852061892,3.3904160540502697,36.379292690611216
1589551976.9560688,-0.35288257494837283,-3.041530299793491,8.805943174535356,0.4655555555555556,0.3422222222222222,-0.6166666666666667,3.2264206366161075,-4.382339065726697,36.6535863063448
1589551976.9660687,-0.36885582100577335,-3.1054232840230935,8.962288357988454,0.4655555555555556,0.3422222222222222,-0.6166666666666667,-0.3389552514433451,-2.8834328771650175,43.49599070816243
1589551976.9760687,-0.3607025251248955,-3.072810100499582,8.97859494975021,0.4655555555555556,0.3422222222222222,-0.6166666666666667,1.699368718776121,0.17405307816418158,40.79521144762164
1589551976.9860687,-0.35932386294354346,-3.06,8.930142055846847,0.4655555555555556,0.3422222222222222,-0.6444444444444445,-4.104545177417388,-3.3765623094744543,39.90479438483112
1589551976.9960687,-0.3507999024509206,-3.06,9.058001463236192,0.4655555555555556,0.3422222222222222,-0.6444444444444445,-0.6949609803682475,-1.03247317400317,44.22004938422144
1589551977.0060687,-0.39070555319019523,-3.0778833404294144,8.979647223404903,0.4655555555555556,0.3422222222222222,-0.6444444444444445,0.31479228757374855,2.8111466759929447,44.46930691563774
1589551977.0160687,-0.40771303448695334,-3.02686089653914,8.971143482756524,0.4655555555555556,0.3422222222222222,-0.6444444444444445,-4.149671552825254,-3.24776853597713,34.690005170001825
1589551977.0260687,-0.41,-3.0026707718745524,8.97,0.4655555555555556,0.3422222222222222,-0.6444444444444445,0.340460761850208,-2.2212695116712013,29.15100064442217
1589551977.0360687,-0.444789424949711,-2.993991187458093,9.100421150100578,0.48,0.31555555555555553,-0.6444444444444445,1.2710575050288961,0.20800672115967944,28.57982374916185
1589551977.0460687,-0.48496599508285704,-3.0274716625690474,9.020068009834286,0.48,0.31555555555555553,-0.6444444444444445,-2.7465995082857058,-1.7171205977202337,29.24943325138095
1589551977.0560687,-0.5,-3.04,8.80138032217498,0.48,0.31555555555555553,-0.6444444444444445,0.5637313611593502,-1.74982409126295,31.07183064854183
1589551977.0660686,-0.5205624285883141,-3.0879790000393994,8.900791142980971,0.48,0.31555555555555553,-0.6444444444444445,-0.43827321618533555,-0.3630249990150112,30.386201784799653
1589551977.0760686,-0.53,-3.0384900581217495,8.906435607219334,0.48,0.31555555555555553,-0.6444444444444445,-1.202041908840624,2.372526001835424,22.4260477210156
1589551977.0860686,-0.5866882124178624,-3.161720531044656,9.05061660185061,0.48,0.31555555555555553,-0.6580916066931891,1.7094106208931206,-1.4322163738768943,28.294629207456083
1589551977.0960686,-0.590385346626478,-3.1417340598191514,9.085375840482262,0.48,0.31555555555555553,-0.6588888888888889,3.805155923950846,1.7139925805703686,27.220013621609088
1589551977.1060686,-0.6098349176907025,-3.229257129608161,8.851980987711569,0.48,0.31555555555555553,-0.6588888888888889,0.2799211685601666,3.051150591235799,28.861071180153026
1589551977.1160686,-0.6206612547288777,-3.259338745271122,9.048016235813368,0.48,0.31555555555555553,-0.6588888888888889,-5.342952001891551,-2.921983370113493,27.430285998581336
1589551977.1260686,-0.6371898644388398,-3.2428101355611605,8.99843040668348,0.48,0.31555555555555553,-0.6588888888888889,-1.417407195775536,0.5903461932534682,30.37444460316835
1589551977.1360686,-0.6739732980249366,-3.2407946596049877,8.997616021185038,0.4844444444444445,0.3022222222222222,-0.6588888888888889,0.2681976166832175,-0.19330105925190333,24.836498675935122
1589551977.1460686,-0.7197387514830702,-3.249843250889842,8.969373003559369,0.4844444444444445,0.3022222222222222,-0.6588888888888889,3.3093613101213837,1.1829281509537282,26.573276501323356
1589551977.1560686,-0.6718892032490645,-3.221133521949439,8.854534087797754,0.4844444444444445,0.3022222222222222,-0.6588888888888889,-8.712837683672538,0.34556105685862915,28.54707036597609
1589551977.1660686,-0.6542098455749785,-3.2042098455749786,8.992111389825194,0.4844444444444445,0.3022222222222222,-0.6588888888888889,-3.019470927725954,-6.842413723837892,16.535663018342873
1589551977.1760685,-0.6577758117975429,-3.1844483764049145,9.061103247190172,0.4844444444444445,0.3022222222222222,-0.6588888888888889,-4.679720013955691,-4.7162976300246715,19.72754473297281
1589551977.1860685,-0.6735511276189695,-3.152897744762061,8.893835340953398,0.489714327407377,0.28867109460325274,-0.6731928569311344,-3.7617199523917018,-4.240056380948472,21.096679988097925
1589551977.1960685,-0.7093164341917024,-3.216222728898426,8.903812589413448,0.4922222222222222,0.2822222222222222,-0.68,-5.403542449034335,-1.777438751788269,26.225249239985693
1589551977.2060685,-0.7390253388786199,-3.2248733056069008,8.95194932224276,0.4922222222222222,0.2822222222222222,-0.68,-0.47490420902649433,-2.8585518715341958,12.569814290665434
1589551977.2160685,-0.776504084619232,-3.3003089861623103,9.088715521553082,0.4922222222222222,0.2822222222222222,-0.68,2.348984865605839,-8.800003010206918,21.821245808865754
1589551977.2260685,-0.7601366500286393,-3.1433540626789953,8.953354062678995,0.4922222222222222,0.2822222222222222,-0.68,2.8450310940184926,-4.575699615416087,20.664752270681614
1589551977.2360685,-0.7430960989533777,-3.1145195052331114,8.979750713606089,0.4922222222222222,0.2822222222222222,-0.68,2.2322074215033303,-0.7115247383444339,18.875
1589551977.2460685,-0.8072224567327987,-3.206825664837484,9.12563528915154,0.4922222222222222,0.2822222222222222,-0.68,-1.961323343182778,-5.339304558885606,24.33682460953989
1589551977.2560685,-0.828594956604934,-3.2471899132098683,8.990537825462996,0.4922222222222222,0.2822222222222222,-0.68,-3.0547478302467024,0.9457348117269184,19.855651609376068
1589551977.2660685,-0.8397834789395503,-3.161948689544047,8.901732168483598,0.4922222222222222,0.2822222222222222,-0.68,-1.4128911855786903,-6.511576638384652,23.22995134570357
1589551977.2760684,-0.8183065793642412,-3.1672311402119195,8.928924560847678,0.4922222222222222,0.2822222222222222,-0.68,-2.911617295032914,-7.184640889569472,21.278741815397613
1589551977.2860684,-0.7248838216192812,-3.0848838216192815,9.015658825227305,0.4922222222222222,0.29378120940972724,-0.7073212424431937,-2.9089154279116753,-4.124034853514216,19.317830855823352
1589551977.2960684,-0.627207434603029,-2.8758563561266635,8.723063790729691,0.4922222222222222,0.29444444444444445,-0.7088888888888889,-0.7871672785681505,-3.7055185865075724,8.172887505736577
1589551977.3060684,-0.7738617100371747,-3.090792565055762,9.171201486988847,0.4922222222222222,0.29444444444444445,-0.7088888888888889,-1.586635687732342,-1.163206319702602,17.469776951672863
1589551977.3160684,-0.8265281910502774,-3.053471808949723,8.957359044748614,0.4922222222222222,0.29444444444444445,-0.7088888888888889,-1.3341988059357663,-3.8735782092875928,18.7474035821927
1589551977.3260684,-0.8472130013831258,-3.047213001383126,9.027047026279392,0.4922222222222222,0.29444444444444445,-0.7088888888888889,-3.504062932226833,-4.777662517289073,16.83609958506224
1589551977.3360684,-0.7671155831840691,-2.884231166368138,9.016242756295439,0.4830128425760077,0.28665189243610906,-0.7223487514487409,-1.8247102518175113,0.3677760509956798,16.47817932778422
1589551977.3460684,-0.8224326358572933,-3.1159220231822973,9.128992924883336,0.4777777777777778,0.2822222222222222,-0.73,-3.8670216769531836,0.16968049074213454,11.337366400722566
1589551977.3560684,-0.8634110690042893,-3.1483527672510725,8.939533585974264,0.4777777777777778,0.2822222222222222,-0.73,7.30785017490526,3.591835672344147,16.21018432723941
1589551977.3660684,-0.881555857385399,-3.196223429541596,9.004002716468591,0.4777777777777778,0.2822222222222222,-0.73,-0.7655475382003409,0.7012945670628183,13.963803056027164
1589551977.3760684,-0.8959085089449462,-3.206365964220215,8.950012803211184,0.4777777777777778,0.2822222222222222,-0.73,-5.469030070244646,-2.7499199799301013,8.202035537561853
1589551977.3860683,-0.9285607267485966,-3.264257889546351,8.928545744196631,0.48475928876076807,0.2771447596891384,-0.7496751673156998,-2.2861691131846458,-2.8840890987710512,5.303785465028069
1589551977.3960683,-1.0372866817155757,-3.4945733634311513,9.020286160791803,0.49,0.2733333333333333,-0.7644444444444445,0.8910965445389825,-3.0660770098975516,4.119634485153672
1589551977.4060683,-1.0600560785918953,-3.5201682357756856,8.840560785918951,0.49,0.2733333333333333,-0.7644444444444445,-1.4901862464183382,1.4241813344248868,6.035240994678674
1589551977.4160683,-0.9174112765799808,-3.319528784174261,8.79682373860858,0.49,0.2733333333333333,-0.7644444444444445,-3.25,-0.9228115507149743,2.8665282099725866
1589551977.4260683,-0.9250149170758826,-3.340029834151765,9.10029834151765,0.49,0.2733333333333333,-0.7644444444444445,-0.059330121374965294,1.4401104882794402,8.302515519318076
1589551977.4360683,-0.93,-3.324493912628312,8.953441155407019,0.48433198058406934,0.2563292750855415,-0.7776698230816159,2.2753043685843877,-3.213818930532347,-1.343376999283839
1589551977.4460683,-0.8427390893335434,-3.174565148889239,9.191174045480803,0.4833333333333333,0.2533333333333333,-0.78,-1.1358712777690245,6.6595159786775895,-5.677718475920383
1589551977.4560683,-0.7629527475381963,-2.9484891491723144,9.036274588518667,0.4833333333333333,0.2533333333333333,-0.78,1.5188856353460691,1.161262899378941,-4.305364016341181
1589551977.4660683,-0.902614960796779,-3.225229921593558,9.058522992159356,0.4833333333333333,0.2533333333333333,-0.78,3.2888412092957546,4.9782572225754045,-0.5657801794165431
1589551977.4760683,-0.9027582635241955,-3.2327582635241954,9.161384310661264,0.4833333333333333,0.2533333333333333,-0.78,3.2844782940524433,2.7434139394159653,-2.9096077665315914
1589551977.4860682,-0.9385215463887849,-3.23,8.783967299001123,0.5038781580740186,0.21823592440132925,-0.7731517250864383,-2.0467126284579296,2.4866270618037367,-8.44943363366821
1589551977.4960682,-0.95,-3.2742480972142096,8.900203956305711,0.51,0.20777777777777776,-0.7711111111111111,-3.783028918622178,3.0035578372443568,-8.153196354467127
1589551977.5060682,-1.0712824555194493,-3.399879669251311,8.81170361313986,0.51,0.20777777777777776,-0.7711111111111111,-2.180612753772401,0.7796865448344645,-10.932987596924166
1589551977.5160682,-1.1463592116811616,-3.545436846724647,8.886941673980692,0.51,0.20777777777777776,-0.7711111111111111,-0.950849756642464,-0.2973300486715072,2.4444715949892277
1589551977.5260682,-1.217320352990615,-3.6422804314329738,8.962360274548256,0.51,0.20777777777777776,-0.7711111111111111,-3.773515198207032,-0.7800024513237148,-0.26852500350189157
1589551977.5360682,-1.2490427334627352,-3.651914533074529,9.052341867701884,0.5180379853002092,0.19471605166493788,-0.7630731258109019,-1.4720091197584497,0.6449783559786795,-0.40555581230551185
1589551977.5460682,-1.2422428842504745,-3.6577571157495257,8.928129032258065,0.5188888888888888,0.19333333333333333,-0.7622222222222222,-4.906593927893738,0.03678842504743829,9.010056925996205
1589551977.5560682,-1.233619593668204,-3.640858781004612,8.947423656986166,0.5188888888888888,0.19333333333333333,-0.7622222222222222,-5.840489841705097,-3.6967234824878474,4.62917549545058
1589551977.5660682,-1.2221889136667727,-3.63,8.81596718700223,0.5188888888888888,0.19333333333333333,-0.7622222222222222,-2.2350111500477863,4.076357916533928,1.1131928958266963
1589551977.5760682,-1.2475734109045167,-3.6920401745351628,9.038840756319038,0.5188888888888888,0.19333333333333333,-0.7622222222222222,-1.1638330909233854,-0.9425218168953187,0.043663272927394914
1589551977.5860682,-1.1748021383401785,-3.5155251320164287,8.80216898102875,0.5349818183135219,0.16020083157673612,-0.7868349378128373,-2.722459906121651,3.5497995306082535,5.037861007888389
1589551977.5960681,-1.1716267213777238,-3.4509331965556904,8.931840902732445,0.5377777777777778,0.15444444444444444,-0.7911111111111111,3.7943653051074016,4.9375,2.366649569461283
1589551977.6060681,-1.18,-3.387066123091228,8.951931838500876,0.5377777777777778,0.15444444444444444,-0.7911111111111111,5.635169688516969,-0.42923461359653814,7.733017737724851
1589551977.6160681,-1.2557770632368703,-3.4409324758842446,9.07733118971061,0.5377777777777778,0.15444444444444444,-0.7911111111111111,8.446476420150054,1.946878349410504,22.250066988210076
1589551977.626068,-1.3062819455894477,-3.548845836768343,9.04487221764221,0.5377777777777778,0.15444444444444444,-0.7911111111111111,6.61479802143446,-0.24757831821929077,26.658645919208574
1589551977.636068,-1.2086238532110092,-3.415974770642202,8.704598623853212,0.4975586136595311,0.09643603465851172,-0.732329255861366,-0.5577694954128436,-0.12614678899082588,29.210220756880734
1589551977.646068,-1.3135284673335803,-3.4551463505001854,8.88705693466716,0.48,0.07111111111111111,-0.7066666666666667,-3.4507317525009262,-0.5977846733358034,29.970955292083488
1589551977.656068,-1.4155831604636973,-3.5614640634533252,8.972059548505186,0.48,0.07111111111111111,-0.7066666666666667,1.635549115314216,-1.161755643685174,34.71464307504576
1589551977.666068,-1.422959125774929,-3.587040874225071,8.984081748450143,0.48,0.07111111111111111,-0.7066666666666667,1.0637595881054953,0.7487404118945047,47.1148878323001
1589551977.676068,-1.4442615813305468,-3.5960653953326367,8.93541144200627,0.48,0.07111111111111111,-0.7066666666666667,4.533685453674678,0.2736034918146988,53.177213949843264
1589551977.686068,-1.3960290044965904,-3.5289211161073224,8.96397099550341,0.4760511731170735,0.1034914915511086,-0.6766555823564251,2.7367968494088917,0.7702290729877013,53.70710558053661
1589551977.696068,-1.2995986894360605,-3.384797855440826,8.874797855440827,0.4744444444444445,0.11666666666666667,-0.6644444444444444,1.435010424940429,-4.8076139297061165,54.44251638204925
1589551977.706068,-1.2686983837092503,-3.341745959273126,8.8273967674185,0.4744444444444445,0.11666666666666667,-0.6644444444444444,0.7714318327093417,-5.667667336316319,54.82877020363437
1589551977.716068,-1.3660325584701785,-3.432569133432857,8.89301627923509,0.4744444444444445,0.11666666666666667,-0.6644444444444444,-1.722053387360489,-3.4856712518660693,60.113417039880574
1589551977.726068,-1.5216893590051797,-3.578801057761654,9.079291474528487,0.4744444444444445,0.11666666666666667,-0.6644444444444444,-5.556708536398802,-5.65139623445593,66.86801882772035
1589551977.736068,-1.50614479200258,-3.579373750403096,8.888845211222186,0.47068275466695336,0.12494238417714716,-0.6546640510229675,-9.04953643985811,-7.926493469848436,71.15056634956466
1589551977.746068,-1.4687491056721185,-3.522810934926208,8.771250894327881,0.4688888888888889,0.1288888888888889,-0.65,-7.31434273140214,-11.464952746210546,68.4626628508677
1589551977.756068,-1.490252192066806,-3.466998747390397,9.083265970772443,0.4688888888888889,0.1288888888888889,-0.65,-1.4060542797494784,-7.388716075156576,70.19254175365344
1589551977.766068,-1.5760733640487918,-3.4387853271902418,9.114957898638988,0.4688888888888889,0.1288888888888889,-0.65,0.6191746544510937,-3.388417050609896,74.01871612914614
1589551977.776068,-1.624464538079037,-3.4255354619209633,8.907496466893484,0.4688888888888889,0.1288888888888889,-0.65,0.125,-6.030252224548548,75.17533204658466
1589551977.786068,-1.63,-3.401053398942956,8.981572808456352,0.478011326434873,0.1373096004697973,-0.6408775624540158,-0.6644417107101634,-1.5594966891440372,78.27299753963915
1589551977.796068,-1.5934743083972458,-3.309643478473941,8.953117786871188,0.4833333333333333,0.14222222222222222,-0.6355555555555555,1.1578557251721349,-3.281610656440666,77.86567193893804
1589551977.806068,-1.6641011006930289,-3.3711095257507813,8.924016850115505,0.4833333333333333,0.14222222222222222,-0.6355555555555555,-5.227438340807175,-5.2622893735561895,83.3882533292567
1589551977.816068,-1.720506708535541,-3.3416443048815303,8.923164430488153,0.4833333333333333,0.14222222222222222,-0.6355555555555555,-0.9215404653154433,-1.8551598629745931,79.85115436768484
1589551977.826068,-1.6729587142259663,-3.2472545856485633,9.00556192866105,0.4833333333333333,0.14222222222222222,-0.6355555555555555,1.1452694628667026,-4.982755272748999,80.05716750313677
1589551977.836068,-1.6684783429866532,-3.206413057164442,9.095652228657768,0.4868961428691345,0.132958917429139,-0.6405434889056772,-0.8369585746663308,-8.820652858222111,76.66099337383531
1589551977.846068,-1.7805414833223137,-3.2239294589726635,8.866234467978385,0.4888888888888889,0.12777777777777774,-0.6433333333333333,-2.15853206721233,-9.522354711474886,78.07060372540526
1589551977.856068,-1.7561706871182057,-3.185319480982744,8.951487938645384,0.4888888888888889,0.12777777777777774,-0.6433333333333333,-0.1861874080349577,-6.598427676461409,77.23007424087038
1589551977.866068,-1.7454775997424403,-3.102675400579509,9.002675400579509,0.4888888888888889,0.12777777777777774,-0.6433333333333333,2.956202481487902,-2.981297518512098,78.5310387206221
1589551977.8760679,-1.801078029133888,-3.090539014566944,8.980269507283472,0.4888888888888889,0.12777777777777774,-0.6433333333333333,1.432623179132006,-7.425267954605337,79.2247336921745
1589551977.8860679,-1.640406355206426,-2.910406355206426,8.985247770362058,0.49733729713411956,0.12672172674712393,-0.6433333333333333,-1.1782086114228338,-7.130234481129289,77.15414402575158
1589551977.8960679,-1.5162767541733047,-2.7109297291681096,9.076276754173305,0.5066666666666667,0.12555555555555556,-0.6433333333333333,1.816783698136732,-3.1031485938906975,75.71802703123917
1589551977.9060678,-1.666233413517498,-2.74,9.21,0.5066666666666667,0.12555555555555556,-0.6433333333333333,4.910743384806394,-5.734582331031272,75.78408473655622
1589551977.9160678,-1.6391141439205956,-2.6364940446650125,8.984722332506204,0.5066666666666667,0.12555555555555556,-0.6433333333333333,1.8966780397022331,-12.238266129032258,65.03500930521092
1589551977.9260678,-1.5829349904397707,-2.5244933078393883,8.697791586998088,0.5066666666666667,0.12555555555555556,-0.6433333333333333,-2.3029397705544934,-6.732911089866157,66.56692160611854
1589551977.9360678,-1.6335328665010165,-2.5126903094646487,8.884974023040433,0.5147343322540974,0.11345405717440955,-0.6398037296388324,-0.38313191777727607,1.2663061892929748,70.55552575107296
1589551977.9460678,-1.7041762495730388,-2.5167049982921554,8.867279972674485,0.5244444444444445,0.09888888888888887,-0.6355555555555555,2.931515427530457,-1.8273440168507347,69.89678925196402
1589551977.9560678,-1.8412787511838722,-2.6308136585035853,8.971510790150182,0.5244444444444445,0.09888888888888887,-0.6355555555555555,2.3081365850358546,-2.867736097956975,69.68968487856853
1589551977.9660678,-2.153405972558515,-2.9478853914447134,9.198991121872478,0.5244444444444445,0.09888888888888887,-0.6355555555555555,3.1983454398708635,-1.8598163841807909,74.14724576271186
1589551977.9760678,-2.2403093116102752,-3.16,8.882556760898495,0.5244444444444445,0.09888888888888887,-0.6355555555555555,-0.14149393071742544,-4.5748704480380695,73.67049189418074
1589551977.9860678,-1.497745471877979,-2.449508460438513,8.73747110343184,0.5218561328249126,0.0742999285033365,-0.6484971136532147,0.2868505719733081,-3.3072606351286944,60.3350773057674
1589551977.9960678,-1.0508569650192954,-2.2111405452508404,9.47304145400224,0.52,0.05666666666666665,-0.6577777777777778,4.8083125855844635,-2.8005804182746172,49.19647858832317
1589551978.0060678,-1.26399020984055,-2.324835690890113,9.580845481049563,0.52,0.05666666666666665,-0.6577777777777778,3.5833378324874925,-3.4656692041896124,44.76907641363424
1589551978.0160677,-2.0582114238750773,-2.425064207930964,8.843018800082186,0.52,0.05666666666666665,-0.6577777777777778,-3.8218871995068833,-2.7765564002465584,42.07438809841791
1589551978.0260677,-2.1962680155210643,-2.431453540742794,8.822762957317073,0.52,0.05666666666666665,-0.6577777777777778,-1.4430389065964522,-1.5414941622782705,44.51353112874168
1589551978.0360677,-2.0363167767400054,-2.313343624213529,9.046965102192347,0.5248296794195423,0.03734794898849765,-0.6577777777777778,0.9945972878971432,-3.2590688381726522,47.44541111415061
1589551978.0460677,-1.5448095707023661,-2.187404785351183,8.901882202645517,0.5344444444444445,-0.0011111111111111113,-0.6577777777777778,2.2237045218641045,-4.525603491869162,37.604102347430334
1589551978.0560677,-1.3912066752246468,-2.0761489088575096,8.798908857509629,0.5344444444444445,-0.0011111111111111113,-0.6577777777777778,2.5107509627727853,-4.301749037227214,27.376765083440308
1589551978.0660677,-1.53875225788523,-2.140715575934417,9.185853133249966,0.5344444444444445,-0.0011111111111111113,-0.6577777777777778,1.9587154369876338,-3.081995970543282,21.737386237321104
1589551978.0760677,-1.6246747720364743,-2.0787920104211897,8.965539730785931,0.5344444444444445,-0.0011111111111111113,-0.6577777777777778,2.815403821102909,-2.322953755970473,21.242851715154146
1589551978.0860677,-1.7719236713827131,-2.0712824475884752,9.035771014148139,0.5390767601509487,-0.03353732105664099,-0.6548299405100023,1.751097273411802,-1.3529579320730787,26.11023387032854
1589551978.0960677,-2.019935869693512,-2.2157638588346384,9.454390762088366,0.5466666666666666,-0.08666666666666667,-0.65,-1.2301019003029467,-3.4393393201400633,24.86858696935122
1589551978.1060677,-1.95,-2.172155435150694,8.835936335929564,0.5466666666666666,-0.08666666666666667,-0.65,-4.374555536742296,-7.536223755502879,15.549472993565866
1589551978.1160676,-1.9847901787437747,-2.2370590279118248,8.986639385399375,0.5466666666666666,-0.08666666666666667,-0.65,-3.057744276724704,0.4081163378759216,13.609774929544841
1589551978.1260676,-1.9851727403458315,-2.261724246781944,9.14,0.5466666666666666,-0.08666666666666667,-0.65,2.7715530847742977,1.0011092210024204,14.817888271193574
1589551978.1360676,-1.8876324105675641,-2.1983845278725824,8.820948047023132,0.6273287546173402,-0.2289813059172179,-0.6212288093933903,-0.6789596763999497,-4.040916129440021,10.877449121476426
1589551978.1460676,-1.85,-2.15,8.45,0.7211111111111111,-0.3944444444444444,-0.5877777777777777,-4.375,-2.5625,6.375
1589551978.1560676,-1.9065329073758284,-2.1330401277872517,8.506532907375828,0.7211111111111111,-0.3944444444444444,-0.5877777777777777,-1.0536916916700845,-1.0785111813845059,1.2870383361754483
1589551978.1660676,-1.894278114618905,-2.12,8.68677190048087,0.7211111111111111,-0.3944444444444444,-0.5877777777777777,-1.0961332961646573,-0.8873048644504843,-2.814960972890097
1589551978.1760676,-1.85006661804036,-2.113288921306427,8.950866034524678,0.7211111111111111,-0.3944444444444444,-0.5877777777777777,-1.2761224572493721,-2.399719385687657,-4.300271496879812
1589551978.1860676,-1.8580637753996796,-2.0946492786274424,9.197652181447944,0.7469500647478206,-0.4072495896095393,-0.580460551969152,3.0251451410250856,-3.5985144707768293,-6.954746328148694
1589551978.1960676,-1.680263157894737,-2.075276315789474,9.235855263157895,1.3488888888888888,-0.7055555555555556,-0.41,-4.749013157894737,-3.6855263157894735,-14.420970394736841
1589551978.2060676,-1.7165185861931136,-2.120750680446906,9.196039894173852,1.3488888888888888,-0.7055555555555556,-0.41,-3.740185861931137,-1.1388599421382213,-16.852379898741887
1589551978.2160676,-1.6339967720888704,-2.0360032279111295,8.919822464887881,1.3488888888888888,-0.7055555555555556,-0.41,-1.0264929088973591,3.011128137769994,-22.15475301328938
1589551978.2260675,-1.4677671602156594,-1.9611068640862637,9.082688098495213,1.3488888888888888,-0.7055555555555556,-0.41,2.119070370966444,6.331396606180092,-36.99308209946085
1589551978.2360675,-1.4737207540362587,-1.9863781004780372,9.06962622891675,1.1782193359590312,-0.5342167102612669,-0.49834659210486754,2.7258861729954,6.541460719761883,-39.07517475421665
1589551978.2460675,-1.9080438992898643,-2.2203421562298256,9.368754034861201,0.7822222222222223,-0.13666666666666666,-0.7033333333333334,2.8908973531310522,5.230592317624274,-43.00427695287282
1589551978.2560675,-1.7830293129714945,-2.3031689946953984,8.797817037132212,0.7822222222222223,-0.13666666666666666,-0.7033333333333334,-1.380272480314238,3.819552917530882,-44.87147354123456
1589551978.2660675,-1.38,-2.3303534661604104,8.822162289114182,0.7822222222222223,-0.13666666666666666,-0.7033333333333334,-5.14540112341958,-0.37694983755431166,-47.02754726582378
1589551978.2760675,-1.38,-2.4327519695734856,9.175067916327086,0.7822222222222223,-0.13666666666666666,-0.7033333333333334,-5.2258302770986145,-1.1568527574028797,-52.97221373268134
1589551978.2860675,-1.38,-2.458072987412841,9.244700715385312,0.7822222222222223,-0.13666666666666666,-0.7033333333333334,-0.8342162455854387,1.1378644842886896,-62.34890315131757
1589551978.2960675,-1.6782516856874767,-2.6686887642656076,9.227377528531216,0.6022222222222222,0.03333333333333333,-0.7233333333333334,0.8007724703777249,4.82502809479128,-70.1269311759443
1589551978.3060675,-1.548793697685869,-2.5751153783029705,8.91702708025603,0.6022222222222222,0.03333333333333333,-0.7233333333333334,-0.2410183817495487,4.119438289840801,-77.59875471852946
1589551978.3160675,-1.1928140703517587,-2.430631730078966,8.551270638908829,0.6022222222222222,0.03333333333333333,-0.7233333333333334,-0.8476310122038765,3.300924264178033,-93.1367103374013
1589551978.3260674,-1.2148597203428055,-2.6884118177717635,8.84696143437077,0.6022222222222222,0.03333333333333333,-0.7233333333333334,-3.112459122688317,3.517503946774921,-96.7935399751917
1589551978.3360674,-1.2904345928964132,-2.946249818192396,8.75597783401693,0.597107497583979,0.054257206853419435,-0.7210084584977682,-4.804693181487623,2.418810178316898,-106.5512842889141
1589551978.3460674,-1.43,-3.08,9.07,0.59,0.08333333333333333,-0.7177777777777777,-0.625,8.125,-111.3125
1589551978.3560674,-1.4152253806869854,-3.139098477252058,9.166035025534594,0.59,0.08333333333333333,-0.7177777777777777,-1.6407550777697457,8.402024112119022,-123.08602476505841
1589551978.3660674,-1.3725577264653641,-3.1081379514505625,8.623250444049734,0.59,0.08333333333333333,-0.7177777777777777,-0.28489490822972174,-0.9375,-135.28049141503848
1589551978.3760674,-1.5159226902339156,-3.3984343454818178,9.11488344752098,0.59,0.08333333333333333,-0.7177777777777777,-0.9810120809178255,3.154853904001297,-136.3569711051202
1589551978.3860674,-1.6731080340906601,-3.613547093749315,9.026655127839975,0.5877533855745192,0.09264073595318255,-0.7238757312183687,-3.3889369673334357,7.990395569966918,-135.89124838419912
1589551978.3960674,-1.6290673374613003,-3.684360165118679,9.077896026831786,0.5822222222222222,0.11555555555555555,-0.7388888888888889,-2.9205527605779156,5.8125,-142.63096620227037
1589551978.4060674,-1.446668190351808,-3.5533354011917395,8.843337686719451,0.5822222222222222,0.11555555555555555,-0.7388888888888889,-2.9166353767039426,4.729131295404457,-141.45836870459556
1589551978.4160674,-1.5363196608901633,-3.6703391098366787,9.095278643560652,0.5822222222222222,0.11555555555555555,-0.7388888888888889,-0.8389851639446453,2.717764306196235,-143.88664910858995
1589551978.4260674,-1.443551069912501,-3.475482976695833,8.82838083687083,0.5822222222222222,0.11555555555555555,-0.7388888888888889,3.2196406913280775,6.845618015247336,-145.68002793901064
1589551978.4360673,-1.4072147621935371,-3.487595079268821,8.913165554881747,0.5822222222222222,0.11555555555555555,-0.7388888888888889,4.809354154032747,8.851685003898467,-137.65575998440613
1589551978.4460673,-16.46818392026578,-13.49014219269103,12.013686910299004,0.5577777777777778,0.19,-0.7388888888888889,104.30501328903654,134.0999850498339,-154.95913621262457
1589551978.4560673,-11.257056318268365,-4.118801984166749,0.6210331696562783,0.5577777777777778,0.19,-0.7388888888888889,-77.76852953702776,-19.493874636737146,-254.0763321725624
1589551978.4660673,2.925500622607573,0.18353364386846838,7.761995803163769,0.5577777777777778,0.19,-0.7388888888888889,-10.275810831065812,23.791260722685976,-167.73501850528064
1589551978.4760673,1.7037989711119903,-0.5958884052235853,12.66087851206965,0.5577777777777778,0.19,-0.7388888888888889,72.44932231895528,39.982983775227545,-168.99658686189156
1589551978.4860673,-0.004381429701925614,-0.02592597853215106,8.67805896556622,0.5584749755944691,0.20812714323397521,-0.7300577165441318,36.439115668689,36.62772913580748,-143.53613568573343
1589551978.4960673,-0.26762517882689557,1.630290891750119,9.87620886981402,0.5611111111111111,0.2766666666666667,-0.6966666666666667,-33.760640200286126,-10.384895088221269,-87.48408440629471
1589551978.5060673,-0.07054885226603891,-0.7436599260068948,7.2223904817960145,0.5611111111111111,0.2766666666666667,-0.6966666666666667,-0.9649202787353905,1.6806813882115517,-71.26649867569158
1589551978.5160673,1.2028429985855729,-0.9810431400282886,10.208203677510607,0.5611111111111111,0.2766666666666667,-0.6966666666666667,5.058168316831683,11.54258751768034,-47.95502563649222
1589551978.5260673,0.9459866852146264,-0.8933384340222577,7.25943759936407,0.5611111111111111,0.2766666666666667,-0.6966666666666667,-8.161618143879174,-9.11829044117647,-36.05978363473768
1589551978.5360672,0.9240600965837954,-1.4189155189888512,8.208405174983605,0.5506683360162166,0.2985015600469008,-0.7001475916982982,-3.5036591545936924,2.357926429380552,-37.4692549037143
1589551978.5460672,-0.24659575960167374,-2.349728137637626,9.115910142827088,0.5244444444444445,0.3533333333333333,-0.7088888888888889,7.030659026625213,6.573212031604292,-24.831560169709437
1589551978.5560672,-0.7072377874398382,-2.678866981329489,8.838969983026809,0.5244444444444445,0.3533333333333333,-0.7088888888888889,2.6896666976679304,1.1748602036782998,-14.652799414076124
1589551978.5660672,-0.8510298045831576,-2.844538638174235,8.854203102300952,0.5244444444444445,0.3533333333333333,-0.7088888888888889,-4.826945381695487,-2.0614514503959884,0.6974612212381088
1589551978.5760672,-0.6532684542311826,-2.53218545739767,8.577970252447493,0.5244444444444445,0.3533333333333333,-0.7088888888888889,-2.845978706097667,0.5505439676960171,8.223776617377915
1589551978.5860672,-0.47049966592104114,-2.4286164773552565,9.120184324434245,0.5244444444444445,0.3533333333333333,-0.7088888888888889,0.6570897365133774,5.995530786102315,12.602612170641722
1589551978.5960672,-0.5264589794192275,-2.3805666760642796,8.74526924161263,0.5222222222222223,0.3855555555555555,-0.7144444444444444,5.424689878770792,-5.751356780377784,16.415844375528614
1589551978.6060672,-0.7038328164646179,-2.709975230577148,9.125356035281325,0.5222222222222223,0.3855555555555555,-0.7144444444444444,-4.81653761730235,-3.745343147126344,28.979824499577106
1589551978.6160672,-0.646151106779375,-2.6199981256911515,8.944613798661743,0.5222222222222223,0.3855555555555555,-0.7144444444444444,0.4998828556969619,-2.668260219668997,25.16360841939535
1589551978.6260672,-0.4986239650530807,-2.5190826433687206,8.86,0.5222222222222223,0.3855555555555555,-0.7144444444444444,-5.506327144816376,-2.1158315131812873,32.881030311880934
1589551978.6360672,-0.43537826685006875,-2.480770288858322,8.883878954607978,0.5219654592694483,0.3860690814611034,-0.7126471037750267,5.139786795048143,-0.6223349381017882,23.980312929848694
1589551978.6460671,-0.44372908366533864,-2.653151394422311,9.14122310756972,0.5188888888888888,0.3922222222222223,-0.6911111111111111,8.245343625498007,-19.022260956175298,-22.768849601593626
1589551978.6560671,-3.072611266577442,-9.651148314880157,8.132611753254654,0.5188888888888888,0.3922222222222223,-0.6911111111111111,14.770063268037475,6.753977065336416,-85.701566492274
1589551978.6660671,1.37,1.24,10.46,0.5188888888888888,0.3922222222222223,-0.6911111111111111,36.1875,11.375,-79.3125
1589551978.676067,-0.4069943613630792,-0.5565191631935932,8.263757048296151,0.5188888888888888,0.3922222222222223,-0.6911111111111111,-17.677903080820464,-6.469130505842935,-47.93163408106562
1589551978.686067,-1.0239544005883796,-1.4990970008989133,7.492556999264526,0.5188888888888888,0.3922222222222223,-0.6911111111111111,-3.9676799869249013,-2.8273524965269266,-24.902743728037915
1589551978.696067,-0.5373859987154784,-3.1939455362877327,9.217148876043675,0.5288888888888889,0.3944444444444444,-0.6966666666666667,3.6477569043031473,2.4917919075144512,-10.636628131021194
1589551978.706067,-0.7113838178232936,-6.572941606768017,8.53848769162267,0.5288888888888889,0.3944444444444444,-0.6966666666666667,-8.751748258698555,-6.91412958781248,-30.25756154188665
1589551978.716067,-1.8986260416004068,-9.867872272756186,8.204992684943706,0.5288888888888889,0.3944444444444444,-0.6966666666666667,-3.624262531009477,6.5090444310158375,-31.92503657528147
1589551978.726067,-1.0058552511415524,-2.725806392694064,9.244337899543378,0.5288888888888889,0.3944444444444444,-0.6966666666666667,1.8744035388127853,1.0802739726027397,-18.313561643835616
1589551978.736067,-1.2037598173515982,-3.696177168949772,8.605936073059361,0.5288888888888889,0.3944444444444444,-0.6966666666666667,-5.028316210045663,-2.271335616438356,-9.69513698630137
1589551978.746067,-1.3987323506058618,-4.988931197569649,8.671938757896918,0.5244444444444445,0.4011111111111111,-0.7111111111111111,2.5153795698553525,3.4510153795698555,2.3656790485725137
1589551978.756067,-0.9513746741665523,-4.401448758403073,9.268433255590615,0.5244444444444445,0.4011111111111111,-0.7111111111111111,4.963463781039923,5.854215255865002,-0.575850596789683
1589551978.766067,-1.1083410335887087,-3.9423206035440668,8.748508879661578,0.5244444444444445,0.4011111111111111,-0.7111111111111111,-5.420548472620231,-2.7731239156285943,0.99096925746145
1589551978.776067,-0.8793989901943583,-3.9668501081934617,8.838450396709359,0.5244444444444445,0.4011111111111111,-0.7111111111111111,-0.616853812113769,-1.0356173362964696,-7.032222888278067
1589551978.786067,-0.7852581912348849,-4.118948361753024,9.004225426295346,0.5257297800796386,0.4033312362991736,-0.7087741372289401,1.9870904382557553,0.5036992231219962,-5.925416145456142
1589551978.796067,-0.8306909198461994,-4.107236320615203,8.870345459923099,0.5366666666666666,0.4222222222222222,-0.6888888888888889,-0.1593167701863354,-3.0190882874889087,3.5945430346051466
1589551978.806067,-0.8382634262063395,-4.027652685241268,8.891736573793661,0.5366666666666666,0.4222222222222222,-0.6888888888888889,3.1965601655562286,2.3916944276196244,-0.8967071724207551
1589551978.816067,-0.8023854002011783,-4.012843799396465,8.925229199597643,0.5366666666666666,0.4222222222222222,-0.6888888888888889,4.324489869234085,3.6140699094697517,-1.4644525075441874
1589551978.826067,-0.8120267870202053,-3.995066967550513,8.915066967550514,0.5366666666666666,0.4222222222222222,-0.6888888888888889,-0.46032355460832863,0.1875,-1.0026222862993377
1589551978.836067,-0.8295545247497857,-4.038886311874465,8.958886311874465,0.5366666666666666,0.4222222222222222,-0.6888888888888889,0.9638051359200988,0.1875,5.460731001483524
1589551978.846067,-0.8316049272913238,-4.089506159114155,8.887283986303197,0.52,0.4155555555555556,-0.7111111111111111,-1.155865055365322,-2.454476475296838,-1.4506159114154846
1589551978.856067,-0.8062419637638808,-4.040637054354178,8.9743950905903,0.52,0.4155555555555556,-0.7111111111111111,-2.903272939801286,-4.973736119228521,2.3829631794272355
1589551978.866067,-0.833154532644434,-3.993422733677783,8.907113668388915,0.52,0.4155555555555556,-0.7111111111111111,1.6845467355565993,0.07591005166744946,-0.12180748003757635
1589551978.876067,-0.8052398305919433,-4.013929872943957,8.980830296464099,0.52,0.4155555555555556,-0.7111111111111111,4.050280705210283,1.8420232936078007,-9.07287870580124
1589551978.886067,-0.8382885846547818,-4.038716438491086,8.922994976854131,0.52,0.4155555555555556,-0.7111111111111111,-1.9398059686792077,-2.7021803900325025,-8.349937210676647
1589551978.896067,-0.8314815370116517,-4.057036925976696,8.937036925976695,0.52,0.4278600020942807,-0.691234697471632,2.222193068882796,-0.7014034655586019,6.701291016963674
1589551978.906067,-0.8202287563465938,-4.069771243653406,8.91068626903978,0.52,0.43,-0.6877777777777778,1.7785945433242203,1.2753270936785137,2.5336997154494227
1589551978.916067,-0.8287067815629565,-4.026466092185217,8.892586436874087,0.52,0.43,-0.6877777777777778,0.9881566132413033,-0.7553606212021768,3.35451292583261
1589551978.9260669,-0.8229919427386866,-3.99897582821606,8.904016114522626,0.52,0.43,-0.6877777777777778,0.5245971369343294,-2.7269135995619354,0.8719785270074709
1589551978.9360669,-0.8109818920291082,-4.026072431883568,8.982144863767136,0.52,0.43,-0.6877777777777778,-5.824949229988153,-4.677489845997631,-3.6317904890844477
1589551978.9460669,-0.8324327740749253,-4.059910365433234,8.952612043208457,0.5258159043897954,0.43,-0.6769768124824433,2.4731096299701214,0.047934382900482575,1.5147236267524704
1589551978.9560668,-0.8305002257034424,-4.068999548593116,8.925497968669019,0.5277777777777778,0.43,-0.6733333333333333,1.781151254743952,-5.693583543711234,8.765547414441677
1589551978.9660668,-0.8375125808770668,-4.054974838245866,8.862386772106397,0.5277777777777778,0.43,-0.6733333333333333,-1.2867541337167503,-0.521971603163192,6.355050323508268
1589551978.9760668,-0.84,-4.011181827960844,8.946749973107677,0.5277777777777778,0.43,-0.6733333333333333,1.6281239915378825,5.073010416293162,2.3460235218186383
1589551978.9860668,-0.8223140282586722,-4.018842985870664,9.003057915223984,0.5277777777777778,0.43,-0.6733333333333333,-0.3502091442826729,1.5397683283511476,3.4659105572162843
1589551978.9960668,-0.8206510258447446,-4.040651025844745,8.956093844931534,0.5155555555555555,0.43,-0.6944444444444444,3.668621769406926,3.458980815067533,1.5953813618731598
1589551979.0060668,-0.8304636618503343,-4.050927323700669,8.898145352598663,0.5155555555555555,0.43,-0.6944444444444444,2.5927323700668534,5.035084645244771,-0.6655704119042485
1589551979.0160668,-0.84,-4.0665613978839374,8.863438602116062,0.5155555555555555,0.43,-0.6944444444444444,4.162280149315257,-5.6896927815691845,-1.6596493839600606
1589551979.0260668,-0.839875116523386,-3.999875116523386,8.930249766953228,0.5155555555555555,0.43,-0.6944444444444444,-2.339876522202329,-3.3015726957962803,-4.759366260746045
1589551979.0360668,-0.8274628234911146,-3.9874628234911147,8.955074353017771,0.5155555555555555,0.43,-0.6944444444444444,1.1510808931240106,-2.2154970554725297,-5.690288238166403
1589551979.0460668,-0.8266466637523348,-4.013233318761674,8.963353336247666,0.5362340650072637,0.43,-0.6996140718073715,-1.0703314390176049,-4.719665282359019,-2.5943349362158727
1589551979.0560668,-0.839628957333021,-4.031484170667916,8.878144786665105,0.5466666666666666,0.43,-0.7022222222222222,-6.203165866416833,-2.479242300035133,1.6015829332084164
1589551979.0660667,-0.8314424015302337,-4.064230393879065,8.83721200765117,0.5466666666666666,0.43,-0.7022222222222222,0.3460787758129369,-3.4002298278486944,-1.6730393879064684
1589551979.0760667,-0.8170228348231052,-4.050534252234658,8.881908660707579,0.5466666666666666,0.43,-0.7022222222222222,0.36449804702170807,-1.0481742469766395,1.562042270712837
1589551979.0860667,-0.8258386426356853,-4.032080678682157,8.97335457054274,0.5466666666666666,0.43,-0.7022222222222222,0.7399151647303329,2.6882963953527987,-3.106423120166264
1589551979.0960667,-0.8370244629135957,-4.037024462913596,8.975951074172809,0.5333982367187636,0.42141454532782746,-0.6920757757914728,2.7561157283989335,2.6100537086404265,0.7445703308765879
1589551979.1060667,-0.8303566651805617,-4.0501783325902805,8.957146678555507,0.5277777777777778,0.4177777777777778,-0.6877777777777778,-3.598250111457869,-4.076042131074454,-2.9621043245653143
1589551979.1160667,-0.843252878687718,-4.056626439343859,8.853976970498255,0.5277777777777778,0.4177777777777778,-0.6877777777777778,-2.6310340984211416,-0.04597541008809003,-1.5918816394299506
1589551979.1260667,-0.8274836748480071,-4.037483674848008,8.920087067477295,0.5277777777777778,0.4177777777777778,-0.6877777777777778,2.190628987465286,0.2799575921339039,-3.220450536665916
1589551979.1360667,-0.8414361196024049,-3.98712776079519,8.952854626799198,0.5277777777777778,0.4177777777777778,-0.6877777777777778,1.9279738648096036,0.2234029900601251,-3.5534141749498955
1589551979.1460667,-0.8307461706026762,-4.027761488191971,8.969253829397324,0.5160115487016355,0.42419572091021907,-0.694195720910219,-4.0448030842640295,-4.616630216797483,-4.698700771066007
1589551979.1560667,-0.839520747419678,-4.049041494839356,8.893834020642576,0.5155555555555555,0.4244444444444445,-0.6944444444444444,-2.226841173318422,8.69506040166818,3.104616621234361
1589551979.1660666,-0.8205377183565922,-4.059731140821704,8.821882014248073,0.5155555555555555,0.4244444444444445,-0.6944444444444444,2.8622096711232556,8.401885917829608,-2.946880794378843
1589551979.1760666,-0.8296639928066065,-4.06,8.887647949646247,0.5155555555555555,0.4244444444444445,-0.6944444444444444,4.570398831073566,-2.9197915927214204,-4.574598920990985
1589551979.1860666,-0.8220978530059866,-4.028391412023946,8.961119322946121,0.5155555555555555,0.4244444444444445,-0.6944444444444444,1.7604717146701505,-0.6455253895204853,0.01751135898285927
1589551979.1960666,-0.8286263173909435,-4.028626317390944,8.988626317390944,0.5260988323667087,0.4292368429949686,-0.6704824516918234,-3.4209876628585647,2.9738821194434455,2.3282896738679426
1589551979.2060666,-0.83,-4.049127353610594,8.951745292778812,0.5277777777777778,0.43,-0.6666666666666666,4.601855084833437,-1.2247924425822472,6.56456264225119
