time,acc_x,acc_y,acc_z,mag_x,mag_y,mag_z,gyr_x,gyr_y,gyr_z
1590515194.6780286,0.0,-4.26,8.73,0.43,0.2611111111111111,-0.5633333333333334,-0.125,0.125,0.0625
1590515194.6880286,-0.012897491133015646,-4.28,8.66971756206889,0.43,0.2611111111111111,-0.5633333333333334,-0.026281360837304438,0.13317204125595666,0.04439068041865222
1590515194.6980286,-0.02,-4.275937459055772,8.626093811416343,0.43,0.2611111111111111,-0.5633333333333334,0.049804559549285934,0.012695440450714067,0.0
1590515194.7080286,-0.01842742982430834,-4.261572570175692,8.661007991229843,0.43,0.2611111111111111,-0.5633333333333334,-0.03931425439229149,0.052671436401927126,0.019657127196145745
1590515194.7180285,-0.01,-4.2653876530686174,8.738449387725527,0.43,0.2677733900119959,-0.582807687043612,-0.1346913267154554,-0.057654336642272305,0.03851849503659155
1590515194.7280285,-0.01,-4.271006444006261,8.75449677799687,0.43,0.27555555555555555,-0.6055555555555555,-0.03439513751956579,-0.021814587441302616,0.040685412558697384
1590515194.7380285,-0.01,-4.28,8.687548834278513,0.43,0.27555555555555555,-0.6055555555555555,0.07943446754883429,-0.04395085066162571,0.054032766225582854
1590515194.7480285,-0.004586273640066132,-4.263758820920199,8.661654905439736,0.43,0.27555555555555555,-0.6055555555555555,0.08599263075123997,-0.15883578974958668,0.06767157949917335
1590515194.7580285,0.0,-4.259670366576548,8.692893822102064,0.43,0.27555555555555555,-0.6055555555555555,0.02014659703447465,-0.12706020889657604,0.0847068059310507
1590515194.7680285,-0.0011824274013402828,-4.27940878629933,8.721773641102011,0.42967154794407214,0.2747015802101431,-0.6039132952759162,0.06619508562918838,-0.007390171258376769,0.0036950856291883844
1590515194.7780285,-0.013080706414593149,-4.273459646792703,8.732701766036483,0.4244444444444445,0.2611111111111111,-0.5777777777777777,0.125,-0.125,0.0625
1590515194.7880285,-0.004073365106648957,-4.28,8.675559809360106,0.4244444444444445,0.2611111111111111,-0.5777777777777777,0.15045853191655598,-0.15045853191655598,0.037041468083444024
1590515194.7980285,-0.005408047751363589,-4.275408047751363,8.65377585674591,0.4244444444444445,0.2611111111111111,-0.5777777777777777,0.1875,-0.13010059689204487,-0.05739940310795513
1590515194.8080285,-0.0026654891721701736,-4.27266548917217,8.680661956688681,0.4244444444444445,0.2611111111111111,-0.5777777777777777,0.15418138534787285,0.004137229304254336,-0.09168138534787283
1590515194.8180285,-0.012924929022602725,-4.274150141954794,8.721699716090411,0.4280193576942923,0.2594861505429985,-0.5797277304595129,0.04421919360873297,0.15093838721746594,0.0
1590515194.8280284,-0.01610031847133758,-4.26,8.75,0.43666666666666665,0.25555555555555554,-0.5844444444444444,0.07311902866242039,0.038126990445859876,0.048746019108280254
1590515194.8380284,-0.014653752687984056,-4.26,8.712769978496128,0.43666666666666665,0.25555555555555554,-0.5844444444444444,0.1293280914001993,0.0581719085998007,0.125
1590515194.8480284,-0.015768443004506014,-4.264231556995494,8.665768443004506,0.43666666666666665,0.25555555555555554,-0.5844444444444444,0.03605276877816259,0.1514472312218374,0.07210553755632518
1590515194.8580284,-0.005207963479584073,-4.265207963479583,8.693544255642912,0.43666666666666665,0.25555555555555554,-0.5844444444444444,0.05990045650519909,0.06769908698960182,0.0
1590515194.8680284,-0.013379981746273197,-4.255540006084575,8.73,0.4312155629922591,0.25555555555555554,-0.5685866883007132,0.09712503802859751,-0.0625,0.08362488591420748
1590515194.8780284,-0.014810382405389339,-4.25,8.74012641172974,0.4244444444444445,0.25555555555555554,-0.5488888888888889,0.030854963344561122,-0.030854963344561122,0.06091985337824449
1590515194.8880284,0.0,-4.2599337825617685,8.69536419591027,0.4244444444444445,0.25555555555555554,-0.5488888888888889,0.031043070505527844,0.0,-0.03145692949447215
1590515194.8980284,0.0,-4.26402767362539,8.65791697912383,0.4244444444444445,0.25555555555555554,-0.5488888888888889,0.09982703984131208,0.07465407968262415,0.0
1590515194.9080284,0.0,-4.26485479567746,8.689419182709841,0.4244444444444445,0.25555555555555554,-0.5488888888888889,0.06431505403174725,0.125,0.030342472984126373
1590515194.9180284,0.0,-4.27,8.730659675621574,0.4355394554264007,0.25976400799698723,-0.5561580340149981,0.0,0.125,0.08402049543913924
1590515194.9280283,-0.002533652639100794,-4.27,8.754798084165396,0.4566666666666666,0.2677777777777778,-0.57,0.031670657988759926,0.125,0.07749401301686012
1590515194.9380283,-0.01,-4.27,8.697283572839602,0.4566666666666666,0.2677777777777778,-0.57,0.125,0.11705223302475114,-0.04660446604950227
1590515194.9480283,-0.006818561804383104,-4.27,8.625907190978085,0.4566666666666666,0.2677777777777778,-0.57,0.125,0.0625,0.042616011277394394
1590515194.9580283,-0.00011450761724584288,-4.27,8.66057253808623,0.4566666666666666,0.2677777777777778,-0.57,0.12428432739221348,0.061784327392213484,0.0
1590515194.9680283,-0.01,-4.267336239758138,8.712663760241862,0.4551867998656326,0.26600193761653695,-0.57,0.029202996976733994,0.0,-0.033297003023266006
1590515194.9780283,-0.01,-4.26,8.72633859300626,0.4511111111111111,0.2611111111111111,-0.57,-0.022883793710880396,-0.019808103144559802,-0.1051918968554402
1590515194.9880283,-0.015189366590088613,-4.265189366590088,8.688106334099114,0.4511111111111111,0.2611111111111111,-0.57,-0.0023670823761076376,0.0023670823761076376,0.03480062356416147
1590515194.9980283,-0.02,-4.27,8.676559015964408,0.4511111111111111,0.2611111111111111,-0.57,-0.0625,-0.035425935618947926,0.027074064381052074
1590515195.0080283,-0.02,-4.2614466249029626,8.718553375097038,0.4511111111111111,0.2611111111111111,-0.57,-0.03577070282175805,-0.04481210846527414,-0.0625
1590515195.0180283,-0.013494680006352231,-4.253252659996824,8.739757979990472,0.44243735111958077,0.26580939777319007,-0.57,0.020329124980149278,0.021841750039701444,-0.0625
1590515195.0280282,0.0,-4.26,8.730591049017287,0.4244444444444445,0.27555555555555555,-0.57,0.12376864788065356,-0.09313432394032678,-0.0625
1590515195.0380282,0.0,-4.254876763214698,8.669260579288188,0.4244444444444445,0.27555555555555555,-0.57,0.12345954018372572,-0.09297977009186287,-0.03047977009186286
1590515195.0480282,-0.02097500756993455,-4.2552437518924835,8.666218759462419,0.4244444444444445,0.27555555555555555,-0.57,0.0625,0.003046898656045474,0.03277344932802274
1590515195.0580282,-0.02370426454165168,-4.264073933864587,8.702221801593762,0.4244444444444445,0.27555555555555555,-0.57,0.11342417330733849,0.13888625996100773,0.037037913346330754
1590515195.0680282,0.0,-4.272572755642645,8.722572755642645,0.4258737531348026,0.2704100442702663,-0.5662837974050688,0.15534055446694245,0.15352166340082735,0.0
1590515195.0780282,-0.005756055097547237,-4.274243944902453,8.731918685032516,0.43,0.25555555555555554,-0.5555555555555556,0.13445068871934046,-0.1369917814532234,0.0
1590515195.0880282,-0.02723334528137641,-4.252766654718624,8.739077781760459,0.43,0.25555555555555554,-0.5555555555555556,0.4029168160172052,-0.18173613600286753,0.0
1590515195.0980282,-0.02,-4.2737746066127285,8.67556348346818,0.43,0.25555555555555554,-0.5555555555555556,0.5972717716761164,-0.32368048034656305,-0.10554564566477671
1590515195.1080282,-0.016164908373752052,-4.267670183252496,8.725340366504993,0.43,0.25555555555555554,-0.5555555555555556,0.9563159359842981,-0.696907967992149,-0.15837729065619868
1590515195.1180282,-0.0007963226297165917,-4.2707963226297165,8.74693210754324,0.43647666185316236,0.2616913404690778,-0.5555555555555556,1.1875,-0.9083716392737855,-0.3700229835642713
1590515195.1280282,0.010988510683990121,-4.25,8.730988510683991,0.4511111111111111,0.27555555555555555,-0.5555555555555556,1.2719827123375926,-1.0123563835498766,-0.5563218082250617
1590515195.1380281,-0.0029184357940557322,-4.241244692617832,8.690815642059443,0.4511111111111111,0.27555555555555555,-0.5555555555555556,1.320279328861455,-0.8020391051486067,-0.6067597762871517
1590515195.1480281,-0.009043973802840862,-4.221912052394318,8.623824104788635,0.4511111111111111,0.27555555555555555,-0.5555555555555556,1.1516490176065324,-0.6070745088032662,-0.5385993450710215
1590515195.1580281,0.0,-4.24,8.68248372815534,0.4511111111111111,0.27555555555555555,-0.5555555555555556,0.7322009708737864,-0.3973504854368932,-0.3526495145631068
1590515195.168028,0.0,-4.24,8.728091650485437,0.4511111111111111,0.27555555555555555,-0.5555555555555556,0.5693155339805825,-0.31590776699029127,-0.43409223300970873
1590515195.178028,0.0,-4.216958267963602,8.7,0.4244444444444445,0.25555555555555554,-0.5633333333333334,0.5045144336366489,-0.45651082522748665,-0.23550360840916224
1590515195.188028,-0.0019000181785129978,-4.243800036357026,8.684799854571896,0.4244444444444445,0.25555555555555554,-0.5633333333333334,0.2649995455371751,-0.30062488638429374,-0.1875
1590515195.198028,-0.014447761869218069,-4.26,8.655582094953743,0.4244444444444445,0.25555555555555554,-0.5633333333333334,0.09029851168261292,-0.19440297663477416,-0.10410446495216123
1590515195.208028,-0.009933841257594753,-4.256644613752531,8.723487703732278,0.4244444444444445,0.25555555555555554,-0.5633333333333334,0.020144179766612022,-0.16694232809335519,0.0
1590515195.218028,0.01,-4.252076590556418,8.774153181112835,0.4255981058646765,0.258093610680066,-0.5647177270376118,-0.17452130902238971,-0.23702130902238971,0.02595738195522057
1590515195.228028,0.00674112592158586,-4.250223377764757,8.79,0.43,0.2677777777777778,-0.57,-0.06389611102973487,-0.1875,0.06389611102973487
1590515195.238028,0.0,-4.238713188349987,8.758051642716714,0.43,0.2677777777777778,-0.57,0.04434752427086078,-0.15119504854172156,-0.08065247572913922
1590515195.248028,0.004393334600519547,-4.253409998099221,8.68439333460052,0.43,0.2677777777777778,-0.57,0.027458341253247167,-0.03504165874675283,-0.11127082937337641
1590515195.258028,0.016821861976537112,-4.233178138023463,8.715890690117314,0.43,0.2677777777777778,-0.57,0.04554654941342781,0.1419534505865722,-0.022773274706713906
1590515195.268028,0.01,-4.243432075742361,8.75,0.43247872136948307,0.26663375253032406,-0.5713346961220294,-0.10354952661024243,0.2910495266102424,0.0625
1590515195.278028,-0.002131590806669671,-4.255956136397777,8.717649091182214,0.4444444444444444,0.2611111111111111,-0.5777777777777777,0.0505482950277903,0.11167755745831455,0.037225852486104855
1590515195.288028,-0.014559085766878224,-4.247279542883439,8.650956800184074,0.4444444444444444,0.2611111111111111,-0.5777777777777777,0.10799714302149445,0.0340057139570111,0.0
1590515195.298028,0.0,-4.243827821791705,8.606379702986175,0.4444444444444444,0.2611111111111111,-0.5777777777777777,0.07047462873271963,0.125,0.007974628732719632
1590515195.308028,0.0028907536663791075,-4.267109246333621,8.673126029331033,0.4444444444444444,0.2611111111111111,-0.5777777777777777,0.14306721041486942,0.07079836875539174,0.08056721041486942
1590515195.318028,0.008343245291819719,-4.25834324529182,8.734970264124541,0.440026431889297,0.262215614249898,-0.5753846876437395,0.16679056614774648,-0.05214528307387324,0.11464528307387324
1590515195.328028,0.0024095775462962964,-4.252409577546296,8.75277126736111,0.4177777777777778,0.2677777777777778,-0.5633333333333334,0.07755985966435185,0.015059859664351851,0.017320421006944448
1590515195.338028,0.009994755497685184,-4.259994755497685,8.730015733506946,0.4177777777777778,0.2677777777777778,-0.5633333333333334,0.12496722186053241,0.062467221860532406,-0.12490166558159721
1590515195.348028,0.0,-4.252982210454913,8.65,0.4177777777777778,0.2677777777777778,-0.5633333333333334,0.13158355397037264,0.03727763068641824,0.04386118465679088
1590515195.358028,-0.002159247511757629,-4.26,8.669433227605818,0.4177777777777778,0.2677777777777778,-0.5633333333333334,0.02699059389697036,0.11150470305151482,-0.01349529694848518
1590515195.368028,-0.01,-4.26,8.743463766469787,0.4223961330708264,0.26662318895451564,-0.5619863130395275,0.11417572978191731,0.05167572978191731,-0.03002718934575193
1590515195.378028,-0.006696628634712957,-4.256696628634713,8.763303371365287,0.4444444444444444,0.2611111111111111,-0.5555555555555556,0.041853928966955986,0.041292142066088035,0.10435392896695599
1590515195.388028,0.003246710928271761,-4.253246710928272,8.737532890717283,0.4444444444444444,0.2611111111111111,-0.5555555555555556,0.06087582990509552,0.08441611339660299,0.0827919433016985
1590515195.398028,0.0075868227277722826,-4.257586822727772,8.674826354544455,0.4444444444444444,0.2611111111111111,-0.5555555555555556,0.17241764204857676,0.0452470738542697,0.06467056819430707
1590515195.408028,0.0,-4.247234498330664,8.695531003338672,0.4444444444444444,0.2611111111111111,-0.5555555555555556,0.15956877086670399,0.17021561456664802,-0.10771561456664801
1590515195.4180279,0.0,-4.24,8.714261396238445,0.4444444444444444,0.26205808805298764,-0.5566603619877448,0.25,0.10724418233981511,-0.044744182339815114
1590515195.4280279,0.0,-4.247041488040856,8.729437767938718,0.4444444444444444,0.2677777777777778,-0.5633333333333334,0.22799534987232647,0.0,0.04049534987232647
1590515195.4380279,0.002109514597516133,-4.255780970804968,8.693123883219872,0.4444444444444444,0.2677777777777778,-0.5633333333333334,0.20068446623447583,0.0,-0.026368932468951667
1590515195.4480278,0.008303380244251812,-4.243393239511496,8.643572958045986,0.4444444444444444,0.2677777777777778,-0.5633333333333334,0.23939612652657383,0.0,-0.10379225305314767
1590515195.4580278,0.0,-4.249352291468839,8.702590834124644,0.4444444444444444,0.2677777777777778,-0.5633333333333334,0.3044036433604878,-0.11690364336048778,-0.05845182168024389
1590515195.4680278,0.0,-4.2423649357789,8.730540256884401,0.4444444444444444,0.2677777777777778,-0.5633333333333334,0.2170616972362437,-0.029561697236243703,-0.014780848618121852
1590515195.4780278,0.0,-4.242122814396443,8.785754371207114,0.4444444444444444,0.25555555555555554,-0.5555555555555556,0.11615494001482105,-0.11615494001482105,0.0
1590515195.4880278,0.0,-4.2673244006489215,8.735351198702157,0.4444444444444444,0.25555555555555554,-0.5555555555555556,0.011148330629493886,-0.011148330629493886,0.0
1590515195.4980278,0.002205628017583051,-4.265588743964834,8.668822512070331,0.4444444444444444,0.25555555555555554,-0.5555555555555556,0.03492964978021186,-0.13235929956042372,0.07628517510989408
1590515195.5080278,0.00976183613172876,-4.250476327736543,8.699047344526914,0.4444444444444444,0.25555555555555554,-0.5555555555555556,-0.05952295164660949,0.056545903293218985,0.12351147582330474
1590515195.5180278,-0.01,-4.24,8.723312373810211,0.4438003717591257,0.2572117424606608,-0.556751690542576,0.05214883184309201,0.229297663686184,-0.166797663686184
1590515195.5280278,-0.015027506566883085,-4.242513753283442,8.757486246716558,0.43666666666666665,0.27555555555555555,-0.57,-0.15676574812905786,-0.01571095802150964,0.07821095802150964
1590515195.5380278,-0.02543738212362194,-4.247718691061811,8.736312146370866,0.43666666666666665,0.27555555555555555,-0.57,-0.33769273395422994,-0.07675818086368144,0.09648363827263712
1590515195.5480278,-0.00936169002871684,-4.24,8.689361690028717,0.43666666666666665,0.27555555555555555,-0.57,-0.007978874641039493,-0.125,0.0
1590515195.5580277,0.0038822870920520104,-4.238058856453974,8.68,0.43666666666666665,0.27555555555555555,-0.57,-0.14926429432532506,-0.125,-0.024264294325325064
1590515195.5680277,0.00856546981568119,-4.208401442985176,8.662212953046614,0.4358196644307912,0.27372038404449206,-0.5691529977641245,-0.38499098134265264,-0.10117806211600248,-0.08529677019333747
1590515195.5780277,-0.1030912930474334,-4.07527290448343,8.6392738791423,0.43,0.2611111111111111,-0.5633333333333334,-1.94887102014295,0.28522985705003245,0.5534133365821963
1590515195.5880277,-0.21282654127481715,-4.105035701846047,8.876556078021595,0.43,0.2611111111111111,-0.5633333333333334,-3.371587643678161,0.9107780390107977,2.2396051027516544
1590515195.5980277,-0.26481769326167837,-3.9616756235358963,8.638246658398787,0.43,0.2611111111111111,-0.5633333333333334,-1.72992627807634,0.6217996417252308,4.971732465206008
1590515195.6080277,-0.3085554821179408,-3.4291517955496804,8.54482778879342,0.43,0.2611111111111111,-0.5633333333333334,-2.2364874788866858,-0.3433713372989645,8.344188330763016
1590515195.6180277,-0.3763197473746053,-3.1704155100242346,9.000696482338254,0.43,0.2611111111111111,-0.5633333333333334,-4.469628038481311,-0.22786406697510464,11.655396746713667
1590515195.6280277,-0.3795681391127106,-2.8888483709672284,8.899496162298163,0.4511111111111111,0.2611111111111111,-0.57,-3.9271533329086914,-0.07284666709130865,19.73113594381987
1590515195.6380277,-0.306432350718065,-2.7051259763164524,8.834522549760646,0.4511111111111111,0.2611111111111111,-0.57,-2.72612748803225,-1.5989307760141094,27.13503086419753
1590515195.6480277,-0.2571453967065868,-2.617145396706587,8.852854603293412,0.4511111111111111,0.2611111111111111,-0.57,-3.529735450973054,-2.0326534431137726,32.368608486152695
1590515195.6580276,-0.2335995508982036,-2.5935995508982033,8.876400449101798,0.4511111111111111,0.2611111111111111,-0.57,-3.7750046781437128,-2.8175149700598805,36.440077657185626
1590515195.6680276,-0.21052052373684632,-2.503123142421078,8.810520523736846,0.4497230478128542,0.26047491543274337,-0.5704048517953249,-2.3320196401317377,-4.9407532733552895,42.368995501646715
1590515195.6780276,-0.21894348943690256,-2.5536609366214154,8.818943489436903,0.4272618059460377,0.25018017957711913,-0.5769560473398131,-2.647880853883846,-4.993396808980641,46.31726067354808
1590515195.6880276,-0.23239425934121516,-2.731971296706076,8.784086109881773,0.4244444444444445,0.2488888888888889,-0.5777777777777777,-1.858289340582917,-3.819533571473731,53.097667857368656
1590515195.6980276,-0.24,-2.7754793109904514,8.690547416214192,0.4244444444444445,0.2488888888888889,-0.5777777777777777,-0.9152370810709605,-4.4803071171129005,56.66693971166448
1590515195.7080276,-0.24410738526998277,-2.816161077904974,8.816919461047513,0.4244444444444445,0.2488888888888889,-0.5777777777777777,-1.568917789484348,-4.78208894742174,59.982718316280014
1590515195.7180276,-0.2781002937898896,-2.8671504406848345,8.791424779657582,0.4244444444444445,0.2488888888888889,-0.5777777777777777,-1.6220317090467025,-5.047658545233512,62.425958616148314
1590515195.7280276,-0.3191303424350412,-2.9082606848700827,8.765978099261321,0.4566666666666666,0.2488888888888889,-0.5633333333333334,-1.4891292804380147,-5.764266160054752,65.79211408208057
1590515195.7380276,-0.3553700296333598,-2.9825300691445062,8.811049950611068,0.4566666666666666,0.2488888888888889,-0.5633333333333334,-1.8861875617361663,-5.8236875617361665,68.01656466076582
1590515195.7480276,-0.3797408533632895,-3.0393953245143424,8.770431911061184,0.4566666666666666,0.2488888888888889,-0.5633333333333334,-1.9369601111735197,-5.87446011117352,69.79360389107319
1590515195.7580276,-0.44,-3.1432499062936587,8.821392816982996,0.4566666666666666,0.2488888888888889,-0.5633333333333334,-1.5,-5.931696595904181,72.79776467782057
1590515195.7680275,-0.44,-3.19327222544042,8.84283095376018,0.4566666666666666,0.2488888888888889,-0.5633333333333334,-1.5,-5.842371025999251,74.49495050601425
1590515195.7780275,-0.5025017251446467,-3.22,8.894996549710706,0.4711111111111111,0.2088888888888889,-0.5777777777777777,-1.5677119273846807,-5.859407346462127,77.79182480492595
1590515195.7880275,-0.5373287291724383,-3.2141370166620495,8.819479558317173,0.4711111111111111,0.2088888888888889,-0.5777777777777777,-1.643321822931096,-6.42080455732774,80.7339019274152
1590515195.7980275,-0.5788285114972097,-3.1809371908022324,8.703280167807812,0.4711111111111111,0.2088888888888889,-0.5777777777777777,-1.7470712787430245,-6.680178196857561,83.12013941108957
1590515195.8080275,-0.6230693468494413,-3.196930653150559,8.694092462465921,0.4711111111111111,0.2088888888888889,-0.5777777777777777,-1.5319723630150137,-7.006394472603002,86.28135679453212
1590515195.8180275,-0.6472272779633683,-3.1727727220366315,8.726303037284492,0.4711111111111111,0.2088888888888889,-0.5777777777777777,-1.7836174787850863,-7.0567234957570175,88.49583381330876
1590515195.8280275,-0.7091921245092764,-3.221793108945617,8.766995077818297,0.48015435235558385,0.20395621184644921,-0.5720229878949314,-1.7200123054542555,-7.201231541818617,90.69224158546064
1590515195.8380275,-0.7646033683182817,-3.2409206736636564,8.755396631681718,0.4833333333333333,0.20222222222222225,-0.57,-1.8297626311935562,-7.534525262387112,94.49167683670979
1590515195.8480275,-0.7987283378081523,-3.2477456675616305,8.721271662191848,0.4833333333333333,0.20222222222222225,-0.57,-1.957731266780571,-7.790462533561143,96.283237734928
1590515195.8580275,-0.8340000752176611,-3.2720000376088305,8.756000112826491,0.4833333333333333,0.20222222222222225,-0.57,-1.9000004701103819,-8.20000023505519,99.88437752684331
1590515195.8680274,-0.8970971624137347,-3.3035485812068672,8.850645743620602,0.4833333333333333,0.20222222222222225,-0.57,-2.2943572650858424,-8.397178632542921,102.0040452998364
1590515195.8780274,-0.9529565217391304,-3.284130434782609,8.888173913043477,0.49,0.14888888888888888,-0.6133333333333333,-2.011141304347826,-8.602989130434782,105.1796195652174
1590515195.8880274,-0.9,-3.222946144905076,9.036657109647424,0.49,0.14888888888888888,-0.6133333333333333,-1.4879600929872143,-8.304266757070902,107.11419992251065
1590515195.8980274,-0.9149909426366991,-2.9962281113720226,8.203663200268366,0.49,0.14888888888888888,-0.6133333333333333,0.20337973834283796,-6.695043609527004,108.8359610868836
1590515195.9080274,-1.0187211803556822,-3.2474423607113643,9.20488472142273,0.49,0.14888888888888888,-0.6133333333333333,-2.880546172024116,-9.815164207592328,108.53852213166904
1590515195.9180274,-0.9996602235889357,-3.209320447177871,9.128640894355742,0.49,0.14888888888888888,-0.6133333333333333,-4.826352175296149,-9.854874534189717,108.18112919229254
1590515195.9280274,-0.9987652542372881,-3.119877966101695,8.52902372881356,0.513374011299435,0.12064529190207157,-0.6065159133709981,-0.44378177966101706,-8.779343220338983,107.72608580508475
1590515195.9380274,-1.12,-3.311698447431489,8.863272724115175,0.5166666666666667,0.11666666666666667,-0.6055555555555555,-3.014550988156021,-8.123032154145392,105.23586472335104
1590515195.9480274,-1.12,-3.26799416484318,8.564626793095064,0.5166666666666667,0.11666666666666667,-0.6055555555555555,-2.1040451008995866,-8.441709214685144,103.18722647702407
1590515195.9580274,-1.1516806154366386,-3.27048017583904,8.723361230873278,0.5166666666666667,0.11666666666666667,-0.6055555555555555,-1.8230038464789924,-8.30049560402401,99.14796263420408
1590515195.9680274,-1.2137317186575365,-3.288209062473582,8.847463437315072,0.5166666666666667,0.11666666666666667,-0.6055555555555555,-2.2108232416096034,-7.857273438160453,95.38057422436385
1590515195.9780273,-1.2759642207398423,-3.217614311704063,8.861192844147968,0.5288888888888889,0.08333333333333333,-0.62,-1.5997763796240145,-7.638170861127956,90.45576485748938
1590515195.9880273,-1.3183565797453003,-3.20065736810188,8.86967131594906,0.5288888888888889,0.08333333333333333,-0.62,-1.8647286234081262,-6.843314129775622,86.58746209824136
1590515195.9980273,-1.3681167203723594,-3.2068738171960516,8.794388010843434,0.5288888888888889,0.08333333333333333,-0.62,-1.5742704976727533,-6.683615927574037,83.21539818935094
1590515196.0080273,-1.331548229634608,-2.951142159810406,8.61804570054119,0.5288888888888889,0.08333333333333333,-0.62,-1.176554596583071,-5.8943528704325985,78.51427699763008
1590515196.0180273,-1.4570167670120415,-3.102262846541585,8.84445971016522,0.5288888888888889,0.08333333333333333,-0.62,-1.573566796765612,-5.342212002940353,75.02048402058247
1590515196.0280273,-1.6016438245073392,-3.2279109561268347,8.881489741302408,0.5288888888888889,0.032585624307301386,-0.6329356905360474,-2.316245641067229,-6.188463020030817,70.02975225042576
1590515196.0380273,-1.6703187006818356,-3.2149203248295413,8.764442273806788,0.5288888888888889,0.02666666666666667,-0.6344444444444445,-1.2440243622155827,-5.4642682716616875,68.58827233203095
1590515196.0480273,-1.7208333333333332,-3.230625,8.622291666666666,0.5288888888888889,0.02666666666666667,-0.6344444444444445,-1.7356770833333333,-5.30859375,66.7890625
1590515196.0580273,-1.7503291139240507,-3.252746835443038,8.70340506329114,0.5288888888888889,0.02666666666666667,-0.6344444444444445,-1.2287183544303797,-5.170332278481013,65.95949367088608
1590515196.0680273,-1.7940091081822844,-3.268502277045571,8.772511385227855,0.5288888888888889,0.02666666666666667,-0.6344444444444445,-1.328196157674096,-5.018721536930362,64.78413306390807
1590515196.0780272,-1.647932098060271,-3.0672427974136944,8.948964335488588,0.5354597241578894,0.009770233117807885,-0.6222414646591575,-0.8997878064383468,-5.264006774200919,62.9881579999543
1590515196.0880272,-1.5218758897914748,-2.7846897244786866,8.509004270999078,0.5366666666666666,0.006666666666666667,-0.62,1.0886546352901767,-4.331258897914747,60.47970752030818
1590515196.0980272,-1.6607066549287397,-3.0011306478859834,8.705229246472673,0.5366666666666666,0.006666666666666667,-0.62,0.010384199005448624,-4.811616681339076,56.439934331057124
1590515196.1080272,-1.7108702272640754,-3.080483459591153,9.067582702044234,0.5366666666666666,0.006666666666666667,-0.62,-3.5905535041303436,-4.742748106132704,52.22038810004187
1590515196.1180272,-1.7827205070615555,-3.120400281700864,8.86799859149568,0.5366666666666666,0.006666666666666667,-0.62,-0.7464799288134305,-4.143995774487038,49.775482745822075
1590515196.1280272,-1.85,-3.1467461349515964,8.99064513798584,0.5422222222222223,-0.01,-0.6488888888888888,-1.9913217020661753,-3.8572054255165438,45.99894794827337
1590515196.1380272,-1.854096479284186,-3.07,8.771365493094729,0.5422222222222223,-0.01,-0.6488888888888888,-0.3125,-3.4147417817545223,44.46870744991247
1590515196.1480272,-1.935681773973935,-3.07,8.798560591324646,0.5422222222222223,-0.01,-0.6488888888888888,-0.3125,-2.96149014458925,43.84548644881022
1590515196.1580272,-1.986571857340493,-3.0513712570638027,8.744113771191408,0.5422222222222223,-0.01,-0.6488888888888888,-1.0110778601073933,-3.1121444650268484,43.579640713297536
1590515196.1680272,-2.034757558377714,-3.0244242523555918,8.746393936911103,0.5422222222222223,-0.01,-0.6488888888888888,-0.982575788611225,-3.28484842277755,44.2018936911102
1590515196.1780272,-2.068256170283253,-3.01,8.948148086798078,0.5477263357443911,-0.016421465775863654,-0.6855829790366812,-1.3503085141626636,-3.8394095784329965,45.904127671028654
1590515196.1880271,-2.2194336633663365,-2.955660486048605,8.7115099909991,0.5488888888888889,-0.017777777777777778,-0.6933333333333334,-0.6308978397839784,-3.555425292529253,47.758251575157516
1590515196.1980271,-2.3964096395204297,-2.9493472071855327,9.044332972452786,0.5488888888888889,-0.017777777777777778,-0.6933333333333334,-2.2451807410080598,-4.6446604715505835,52.308981414651754
1590515196.2080271,-2.3553915401301517,-2.8756525668835864,8.718001807664498,0.5488888888888889,-0.017777777777777778,-0.6933333333333334,-2.126631417208966,-4.966302874186551,57.68828746384671
1590515196.218027,-2.316644973070018,-2.927850089766607,8.685635098743267,0.5488888888888889,-0.017777777777777778,-0.6933333333333334,-1.4299680206463194,-5.4030941427289045,65.4847256508079
1590515196.228027,-2.2955254655216395,-2.993423603435082,8.869219879261967,0.5472806072801821,-0.027427467430018237,-0.7086120086160473,-2.606987607346314,-6.495124245387297,73.02254671158916
1590515196.238027,-2.2190539215686274,-3.0366047794117645,8.717161764705882,0.5466666666666666,-0.031111111111111114,-0.7144444444444444,-1.2959214154411762,-6.320733762254902,83.61942018995099
1590515196.248027,-2.316475768695432,-3.059359230671897,8.786796153359482,0.5466666666666666,-0.031111111111111114,-0.7144444444444444,-2.332949512843224,-7.096966341895483,90.19278122232063
1590515196.258027,-2.3723603363940615,-3.0250931090706255,8.720186218141253,0.5466666666666666,-0.031111111111111114,-0.7144444444444444,-2.6477100853857376,-7.5613361366171805,93.21118488801167
1590515196.268027,-2.4183995222454464,-3.0430397133472677,8.825198566736338,0.5466666666666666,-0.031111111111111114,-0.7144444444444444,-2.3035047775455357,-7.38500298596596,95.06498208420425
1590515196.278027,-2.4379409509202454,-3.0182361963190183,8.80441334355828,0.5113735514655761,-0.030228783231083845,-0.759443166325835,-2.386023773006135,-7.411761886503068,95.69852377300613
1590515196.288027,-2.4956605529701616,-2.9636162058581985,8.808553517656721,0.5022222222222222,-0.03,-0.7711111111111111,-2.0896215439364907,-7.089621543936491,94.53242540377772
1590515196.298027,-2.5812246538223067,-2.8697503846418813,8.719750384641882,0.5022222222222222,-0.03,-0.7711111111111111,-2.45734206719177,-7.0625,92.46328966404116
1590515196.308027,-2.6432243034638554,-2.824517131024096,8.780965737951806,0.5022222222222222,-0.03,-0.7711111111111111,-2.6108839655496987,-7.0625,90.19864663733057
1590515196.318027,-2.673164328032429,-2.8142089179918925,8.847910820081072,0.5022222222222222,-0.03,-0.7711111111111111,-2.625,-6.953917212347989,88.63450654817586
1590515196.328027,-2.6424132441897488,-2.7556151362168553,8.794826488379497,0.45690150240293503,-0.07078864783735844,-0.7869733630478616,-2.4125591258470913,-6.322653727202438,86.96520102788011
1590515196.338027,-2.6566666666666667,-2.7422222222222223,8.841666666666667,0.4355555555555555,-0.09,-0.7944444444444444,-2.388888888888889,-6.100694444444445,85.86111111111111
1590515196.348027,-2.7108083844022017,-2.711489519497248,8.830681135095046,0.4355555555555555,-0.09,-0.7944444444444444,-3.4002620125687963,-6.413828603770639,84.02713318240369
1590515196.358027,-2.7389482535122447,-2.687367830991837,8.784735661983675,0.4355555555555555,-0.09,-0.7944444444444444,-3.1348426058928633,-5.947342605892864,82.55916073993623
1590515196.368027,-2.786693765352673,-2.655537489764885,8.806693765352673,0.4355555555555555,-0.09,-0.7944444444444444,-2.5449412943034275,-5.280995949818692,80.44681578254766
1590515196.378027,-2.803971899713949,-2.615887598855797,8.878224802288406,0.41144315441135226,-0.13822480228840653,-0.7629643651728457,-2.638729387514723,-5.100175626787817,77.65389428739694
1590515196.388027,-2.843406538244337,-2.5131869235113258,8.844890192633494,0.3955555555555556,-0.17,-0.7422222222222222,-2.541209135972893,-4.853709135972894,74.80975481583737
1590515196.398027,-2.8922382249902685,-2.4880595562475674,8.779702218762164,0.3955555555555556,-0.17,-0.7422222222222222,-2.2360110938108213,-4.095161054885169,73.07931101595952
1590515196.408027,-2.9,-2.4330356971729756,8.81068878773359,0.3955555555555556,-0.17,-0.7422222222222222,-2.7978318160038333,-4.039221969333973,72.15130719932918
1590515196.418027,-2.9352529712776496,-2.4975565368108286,8.932809508088479,0.3955555555555556,-0.17,-0.7422222222222222,-2.584970287223506,-4.106566214097062,72.22033107048532
1590515196.428027,-2.71487271518777,-2.540629444998338,8.90009903622466,0.37777777777777777,-0.23222222222222225,-0.7211111111111111,-1.2865985377201727,-2.69364406779661,74.45566633433035
1590515196.438027,-2.5801272848122303,-2.2943705550016618,8.639900963775341,0.37777777777777777,-0.23222222222222225,-0.7211111111111111,1.036598537720173,-1.2126059322033897,76.57558366566965
1590515196.448027,-2.44538185443669,-2.048111665004985,8.379702891326021,0.37777777777777777,-0.23222222222222225,-0.7211111111111111,3.359795613160519,0.26843220338983054,78.69550099700898
1590515196.458027,-2.43,-2.0447375663019596,8.160345325018309,0.37777777777777777,-0.23222222222222225,-0.7211111111111111,3.9342195787744956,5.591159646241594,85.94647711888857
1590515196.4680269,-2.359756953202027,-2.252924357416367,8.502434365900076,0.37777777777777777,-0.23222222222222225,-0.7211111111111111,0.29272808566253206,-3.6050575516474446,89.33991585077844
1590515196.4780269,-2.6096110411622275,-2.2159496368038742,8.860800968523002,0.370114414850686,-0.25381897228948075,-0.7343478288942696,-4.5903898305084745,-11.045767554479418,88.8561210653753
1590515196.4880269,-3.062704860868959,-2.1916437687425905,9.55585501080968,0.3655555555555556,-0.26666666666666666,-0.7422222222222222,-9.396612821675152,-16.419942987656043,84.7889627937792
1590515196.4980268,-3.149284644388203,-2.116438200506172,8.94794380455555,0.3655555555555556,-0.26666666666666666,-0.7422222222222222,-5.768351970456072,-9.175023242601105,81.14763571096535
1590515196.5080268,-3.113391430306995,-2.000174290920985,8.786275719203154,0.3655555555555556,-0.26666666666666666,-0.7422222222222222,-0.6326252277930937,-5.359250151862063,78.34439298007881
1590515196.5180268,-3.1381406105457907,-1.936017576318224,8.732035152636447,0.3655555555555556,-0.26666666666666666,-0.7422222222222222,1.1963748843663276,-3.1244507400555044,71.9862685013876
1590515196.5280268,-3.271688277782612,-1.9828161169611,8.959432599425638,0.34593150194838473,-0.30532010558988193,-0.700595441843375,-0.7957531981550778,-4.03695283265164,64.86098903489687
1590515196.5380268,-3.3384530542986424,-2.003839790723982,9.031491798642534,0.3288888888888889,-0.3388888888888889,-0.6644444444444444,-1.3748276654411764,-4.2978250494909505,58.78263309530543
1590515196.5480268,-3.2504425630943308,-1.9436283753962202,8.860442563094331,0.3288888888888889,-0.3388888888888889,-0.6644444444444444,0.050607119929382494,-3.0978990290093487,54.49751359186294
1590515196.5580268,-3.1479303990360763,-1.8579303990360763,8.720737826918988,0.3288888888888889,-0.3388888888888889,-0.6644444444444444,0.719518569707279,-2.4855278545609187,49.2342520731448
1590515196.5680268,-3.1957582958791826,-1.8698901344905374,8.875318833841332,0.3288888888888889,-0.3388888888888889,-0.6644444444444444,-0.20920403471612337,-2.7364013449053743,43.64079316698524
1590515196.5780268,-3.2241258860705444,-1.874125886070544,8.857132974634897,0.3394716315085262,-0.3459440506353138,-0.6177039978743796,-1.1101396361772995,-2.4910405457340508,34.49956764027671
1590515196.5880268,-3.2810796576695194,-1.87763495720869,8.8963495720869,0.3422222222222222,-0.3477777777777778,-0.6055555555555555,-0.32856731402238304,-1.6115042791310072,26.95790816326531
1590515196.5980268,-3.2925962941348117,-1.8577888824044355,8.7941370002918,0.3422222222222222,-0.3477777777777778,-0.6055555555555555,0.2151389699445579,-0.8659952217683105,18.878123176247446
1590515196.6080267,-3.32021745433459,-1.8953261815018845,8.863315453754712,0.3422222222222222,-0.3477777777777778,-0.6055555555555555,0.5485738619889823,-0.2625670484198318,9.841358002319513
1590515196.6180267,-3.244535669276698,-1.896851641427184,8.880277462140777,0.3422222222222222,-0.3477777777777778,-0.6055555555555555,0.871531723240295,0.45024068756068836,1.9136817449331653
1590515196.6280267,-3.2102196163765315,-1.9206588491295937,8.941537314635719,0.35073856920266494,-0.34721002131241496,-0.6055555555555555,1.0958089035299807,1.1012993129432624,-5.022601345905867
1590515196.6380267,-3.151691855745816,-1.95,8.893876154767886,0.3588888888888889,-0.3466666666666667,-0.6055555555555555,1.3155777704765954,1.8644259015886515,-13.594070097792894
1590515196.6480267,-3.150448003609294,-1.9423879990976765,8.832387999097676,0.3588888888888889,-0.3466666666666667,-0.6055555555555555,1.2798499887209565,2.490675050755696,-20.950600609068353
1590515196.6580267,-3.1444250732628025,-1.9607665689829301,8.824808357754268,0.3588888888888889,-0.3466666666666667,-0.6055555555555555,1.3148955280716568,2.8196865842149705,-25.96951522376198
1590515196.6680267,-3.1672466557597923,-2.000692586533218,8.873800724986367,0.3588888888888889,-0.3466666666666667,-0.6055555555555555,1.3491342668334776,3.1293286658326114,-31.763304782985276
1590515196.6780267,-3.2496954680884427,-2.0077283989336676,8.85348972871256,0.3729117488195425,-0.3169711985782238,-0.6162789190319377,1.358899168888192,3.405298337776384,-40.00071938215462
1590515196.6880267,-3.387291885986692,-2.040197437680008,8.920493594200021,0.37777777777777777,-0.30666666666666664,-0.62,1.2075106763333001,3.563116992750025,-45.07977579700069
1590515196.6980267,-3.4141247919543893,-2.0824220050285067,8.875827578880273,0.37777777777777777,-0.30666666666666664,-0.62,1.0689449874287333,3.4848624685718335,-48.382040351995464
1590515196.7080266,-3.3742818600222186,-2.11,8.78997302015553,0.37777777777777777,-0.30666666666666664,-0.62,1.374662751944136,3.7406860022218695,-51.944959133470874
1590515196.7180266,-3.4145497897973267,-2.0236255255066826,8.824241701700446,0.37777777777777777,-0.30666666666666664,-0.62,1.8390106356277844,4.63640427934994,-56.75222359917174
1590515196.7280266,-3.365890091434969,-2.0745334950550474,8.732415562604963,0.40921834504779087,-0.2924435529016608,-0.62,2.065147415562605,5.127647415562605,-65.2984407072215
1590515196.7380266,-3.3514894779994533,-2.21058554249795,8.883405301995081,0.4244444444444445,-0.2855555555555556,-0.62,2.1875,5.25,-68.5
1590515196.7480266,-3.414507379935566,-2.2466194650483255,8.899787592717464,0.4244444444444445,-0.2855555555555556,-0.62,1.7354719225294073,5.319542781149322,-72.49870991608601
1590515196.7580266,-3.4837640777134653,-2.3145394175977025,8.813764077713465,0.4244444444444445,-0.2855555555555556,-0.62,2.3035121371202942,6.345717234262126,-80.45667597702696
1590515196.7680266,-3.457890852550205,-2.396093554956967,8.88414033243545,0.4244444444444445,-0.2855555555555556,-0.62,2.75,6.511720375358605,-83.46435160852332
1590515196.7780266,-3.43,-2.4474634287366293,8.910845523754457,0.42749593652629214,-0.27436675125544746,-0.6067768676453268,2.75,6.398323214801966,-84.3380083357425
1590515196.7880266,-3.411528479213352,-2.5077072811799725,8.881528479213351,0.4311111111111111,-0.2611111111111111,-0.5911111111111111,2.5191059901668953,6.269105990166895,-85.1877027659788
1590515196.7980266,-3.3619969669067866,-2.51899772518009,8.782991658993662,0.4311111111111111,-0.2611111111111111,-0.5911111111111111,1.8999620863348319,5.956245260791854,-86.06254739208146
1590515196.8080266,-3.332593642066681,-2.5187031789666596,8.789164305349969,0.4311111111111111,-0.2611111111111111,-0.5911111111111111,1.8043948685416227,5.828710262916755,-86.03242052583352
1590515196.8180265,-3.3140191961607677,-2.5356268746250747,8.84,0.4311111111111111,-0.2611111111111111,-0.5911111111111111,1.8649520095980803,5.712619976004799,-85.66459208158368
1590515196.8280265,-3.3005716220137344,-2.6264126124383402,8.892825224876681,0.44798583572449513,-0.23029639659971413,-0.6101868867610235,2.1626970693490666,6.24761824160944,-83.86210586130187
1590515196.8380265,-3.2211906288245236,-2.682708199778542,8.846785943236785,0.4566666666666666,-0.21444444444444444,-0.62,2.4512646424616817,6.565661606154205,-82.71298589661401
1590515196.8480265,-3.170886927647676,-2.735484096469766,8.793628975882559,0.4566666666666666,-0.21444444444444444,-0.62,2.2610865955959456,6.607862198531982,-81.73235429045788
1590515196.8580265,-3.1416672193666058,-2.75,8.777778146244403,0.4566666666666666,-0.21444444444444444,-0.62,2.0486134140275243,6.486113414027525,-80.9409871911789
1590515196.8680265,-3.124978008883111,-2.8152858845195534,8.785065973350667,0.4566666666666666,-0.21444444444444444,-0.62,2.0627748889611093,6.406112555519445,-80.24835066623335
1590515196.8780265,-3.082900330348605,-2.9129774841345735,8.841221855168218,0.4699492644430921,-0.19749768176417745,-0.62,2.073472681039729,6.246181702599322,-79.64312706467878
1590515196.8880265,-3.008702944820356,-2.963549509196607,8.889351472410178,0.4888888888888889,-0.17333333333333334,-0.62,2.022184432478795,6.151237729915182,-79.44560659487277
1590515196.8980265,-2.941128155339806,-3.0335180582524273,8.806481941747572,0.4888888888888889,-0.17333333333333334,-0.62,2.2429490291262137,6.637308252427184,-80.22884708737864
1590515196.9080265,-2.8515559849486425,-3.1168544696430387,8.76526492423472,0.4888888888888889,-0.17333333333333334,-0.62,2.4079057764669987,6.842094223533001,-81.71089062341096
1590515196.9180264,-2.7775776746386023,-3.1665631004818637,8.774140775120465,0.4888888888888889,-0.17333333333333334,-0.62,2.3857403109941764,6.8125,-83.95561238064268
1590515196.9280264,-2.713018751725456,-3.1853018751725455,8.794094374482363,0.4988071524135148,-0.16759118076644464,-0.62,2.28313671982841,6.92995312068636,-87.57052337063858
1590515196.9380264,-2.5928296525429824,-3.1861063952233653,8.797787209553269,0.51,-0.16111111111111112,-0.62,2.3263299402920654,7.253324850730163,-92.10572305949212
1590515196.9480264,-2.5607505484444903,-3.211501096888981,8.746997806222039,0.51,-0.16111111111111112,-0.62,2.408595463889033,7.61016824722323,-96.37513711112263
1590515196.9580264,-2.554617724599473,-3.250509700534036,8.699745149732982,0.51,-0.16111111111111112,-0.62,2.245221557493409,7.940685628337727,-101.82804789427432
1590515196.9680264,-2.561266223733004,-3.3018993355995057,8.737849003399258,0.51,-0.16111111111111112,-0.62,2.0625,8.295099322079729,-107.9027481362021
1590515196.9780264,-2.5561704993097876,-3.395531126898084,8.803829500690213,0.5133096528736406,-0.149858291340733,-0.6239715834483688,2.5093031379414836,8.98403673276994,-113.34305242247736
1590515196.9880264,-2.52753212136357,-3.4711696965910748,8.75766060681785,0.5155555555555555,-0.14222222222222222,-0.6266666666666667,2.8514621207388435,9.390424241477687,-117.72003784802482
1590515196.9980264,-2.494527692513012,-3.521840384358735,8.732736153743494,0.5155555555555555,-0.14222222222222222,-0.6266666666666667,2.516795675964233,9.357899039103163,-121.5982283464567
1590515197.0080264,-2.417535454478654,-3.5885835354054914,8.767762020231709,0.5155555555555555,-0.14222222222222222,-0.6266666666666667,2.269121843387954,9.659525252896367,-124.5424917946457
1590515197.0180264,-2.374860437621014,-3.6503721663439626,8.800186083171981,0.5155555555555555,-0.14222222222222222,-0.6266666666666667,2.502326039649766,10.096366794605986,-125.72311132434331
1590515197.0280263,-2.3325021097046412,-3.69,8.783336146272855,0.5216661978434131,-0.1386576808876387,-0.6169914830442257,2.9505054500703234,10.546861814345991,-126.41664908579466
1590515197.0380263,-2.2795491676942046,-3.7145409987669544,8.756360665844635,0.5288888888888889,-0.13444444444444445,-0.6055555555555555,3.1619364596177557,10.698872919235512,-126.4574281365598
1590515197.0480263,-2.245852375283229,-3.766590498867084,8.755114251699373,0.5288888888888889,-0.13444444444444445,-0.6055555555555555,3.125,10.616359115173394,-125.96946407312109
1590515197.0580263,-2.195184848595005,-3.8629099567414302,8.649630302809989,0.5288888888888889,-0.13444444444444445,-0.6055555555555555,2.704028681522411,10.340936148169689,-124.6454978370715
1590515197.0680263,-2.1363751135331515,-3.8402679382379654,8.74583923705722,0.5288888888888889,-0.13444444444444445,-0.6055555555555555,2.010490463215259,9.925334922797457,-123.70803814713896
1590515197.0780263,-2.0508647029034437,-3.8064745104659012,8.77,0.5346440093030235,-0.15818431615274964,-0.5940453147272863,2.4338970712356516,9.97616422602971,-121.99417886985145
1590515197.0880263,-1.9508141586547116,-3.795063555507544,8.755750603147169,0.5466666666666666,-0.20777777777777776,-0.57,2.6652353174174497,10.16523531741745,-120.40314761801879
1590515197.0980263,-1.8621915527352784,-3.7856168945294435,8.703287329102917,0.5466666666666666,-0.20777777777777776,-0.57,2.625,10.041522903446618,-118.9366374206797
1590515197.1080263,-1.798492465800986,-3.838301506839803,8.674150753419902,0.5466666666666666,-0.20777777777777776,-0.57,2.6509422088743837,9.911557791125617,-118.10496232900493
1590515197.1180263,-1.6732197977647685,-3.883390101117616,8.722930130008363,0.5466666666666666,-0.20777777777777776,-0.57,2.7173125902835853,9.904812590283585,-117.42493632631339
1590515197.1280262,-1.557163076110983,-3.92,8.750961367160437,0.5704649577161206,-0.33628854944482933,-0.46370096664577215,2.98798291049454,10.145735046682722,-116.52403417901093
1590515197.1380262,-1.4800670817156378,-3.9499329182843623,8.664147579774403,0.5966666666666667,-0.4777777777777778,-0.3466666666666667,3.0629192607227367,10.113086965011831,-115.77550311286728
1590515197.1480262,-1.4657899593072774,-3.9989497965363867,8.64315983722911,0.5966666666666667,-0.4777777777777778,-0.3466666666666667,2.43087856061323,9.467065806283713,-115.69737449134097
1590515197.1580262,-1.3850572864321609,-4.007865326633166,8.66,0.5966666666666667,-0.4777777777777778,-0.3466666666666667,2.4796293969849246,9.504208542713569,-115.29494974874372
1590515197.1680262,-1.2910525341184749,-3.9415788011777124,8.689210599411144,0.5966666666666667,-0.4777777777777778,-0.3466666666666667,2.5370060459604096,9.597861461400292,-114.87828916912024
1590515197.1780262,-1.2274039377580184,-3.9071152746903777,8.738076849793586,0.7975205532620584,-0.4506625030873999,0.02591729296778522,2.3125,9.550480311209908,-114.55228445538266
1590515197.1880262,-1.1396847892486255,-3.94,8.723810873549175,1.0411111111111109,-0.4177777777777778,0.4777777777777778,2.350197006719609,9.536711973121564,-114.19940897984117
1590515197.1980262,-1.0847935155602888,-3.990688281465704,8.644242890387725,1.0411111111111109,-0.4177777777777778,0.4777777777777778,2.4700405277481954,9.469180175916065,-113.83987841675541
1590515197.2080262,-1.065183542324206,-4.0640822883789705,8.652613949785323,1.0411111111111109,-0.4177777777777778,0.4777777777777778,2.4420885581051492,9.560205720947426,-113.29157425573659
1590515197.2180262,-1.03661163056772,-4.085322326113544,8.705966978340632,1.0411111111111109,-0.4177777777777778,0.4777777777777778,2.3709709235806997,9.71270638537105,-112.5907035349351
1590515197.2280262,-0.9742958174245054,-4.073508330440819,8.715966678236724,1.0623893613328705,-0.13286561379150763,0.2235207200431949,2.254921793648039,9.548775924158278,-111.75984358729607
1590515197.2380261,-0.8827832818323723,-4.073773374534102,8.759669969099424,1.106666666666667,0.46,-0.3055555555555556,1.9395626931286036,8.978479102290466,-110.61262384122838
1590515197.2480261,-0.8393347868055786,-4.121330426388843,8.686673934027894,1.106666666666667,0.46,-0.3055555555555556,2.106938388310089,8.89306161168991,-109.29730095196885
1590515197.2580261,-0.8107011016796098,-4.157675275419902,8.601623622900487,1.106666666666667,0.46,-0.3055555555555556,2.2092942929384143,8.8125,-108.07564565649268
1590515197.268026,-0.7162931669315142,-4.116293166931515,8.720480213945196,1.106666666666667,0.46,-0.3055555555555556,2.3961668152397193,8.79133318476028,-106.15732917328786
1590515197.278026,-0.6536601170568562,-4.089063196767001,8.752766861761426,1.0040885126347086,0.43095131921218877,-0.37817725752508363,2.4375,8.715958577201784,-104.50639936942586
1590515197.288026,-0.61,-4.125779378658262,8.732142278253038,0.73,0.3533333333333333,-0.5722222222222222,2.2301159387663216,8.565747411076092,-102.32833746060334
1590515197.298026,-0.5671507645471529,-4.118569847090569,8.70858645263959,0.73,0.3533333333333333,-0.5722222222222222,2.1874654051062064,8.446438455683941,-100.54479606310109
1590515197.308026,-0.4841572977313793,-4.1472284681790805,8.643071170447701,0.73,0.3533333333333333,-0.5722222222222222,2.35674155541056,8.348080518470187,-98.62991555410561
1590515197.318026,-0.43552710192578675,-4.17,8.703618224518554,0.73,0.3533333333333333,-0.5722222222222222,2.2047721935180835,8.244658290277126,-96.88408290277125
1590515197.328026,-0.3942944033606091,-4.175235198879797,8.70650986741347,0.7086714119711975,0.34751644568911444,-0.5836621012558526,2.1468133286658206,8.103186671334178,-95.31667341268106
1590515197.338026,-0.31690936433994793,-4.2,8.699271906980156,0.6077777777777778,0.32,-0.6377777777777778,2.163075872061035,7.961367054249349,-93.27275290687011
1590515197.348026,-0.2740897692096705,-4.188895615375573,8.67226930762901,0.6077777777777778,0.32,-0.6377777777777778,1.8494389424395596,7.703731730731555,-90.99347596097331
1590515197.358026,-0.22655879976107657,-4.17,8.56925020203085,0.6077777777777778,0.32,-0.6377777777777778,2.038969994026914,7.6034924985067285,-89.5113949790942
1590515197.368026,-0.21182179122307718,-4.17,8.694514774603844,0.6077777777777778,0.32,-0.6377777777777778,1.6705447805769298,7.511386195144232,-88.22190673201925
1590515197.378026,-0.11708287768830566,-4.193541438844153,8.698751366935083,0.5751261630454393,0.32143523581241046,-0.6370601598715725,1.8587189747158432,7.334633992775955,-85.80792490969944
1590515197.388026,-0.07449406210016038,-4.17224703105008,8.76837054657512,0.5066666666666667,0.3244444444444444,-0.6355555555555555,1.7563242237479952,7.25,-84.02315916094501
1590515197.398026,-0.04349786678098271,-4.158374466695246,8.732119133647702,0.5066666666666667,0.3244444444444444,-0.6355555555555555,2.082819166309429,7.229680833690571,-82.59053167166799
1590515197.408026,-0.006218418237182125,-4.1447057855320555,8.641134474528846,0.5066666666666667,0.3244444444444444,-0.6355555555555555,2.1804095341947165,7.108455579787671,-81.04936836474364
1590515197.418026,0.10377927911206801,-4.01,8.68033445933405,0.5066666666666667,0.3244444444444444,-0.6355555555555555,1.913879505549575,6.622909629162181,-78.52215653884703
1590515197.428026,0.13629114965814132,-4.003708850341859,8.704194099772094,0.4973464449509018,0.3272405109591739,-0.642079710756591,1.6975737528488224,6.460680314636617,-76.8900572138516
1590515197.438026,0.18581770252458685,-4.023029504207645,8.676970495792355,0.4622222222222222,0.3377777777777778,-0.6666666666666666,1.6075737605191118,6.366286880259556,-74.25569679610666
1590515197.448026,0.2381480877246137,-4.048240846481926,8.63361106579346,0.4622222222222222,0.3377777777777778,-0.6666666666666666,1.5798616775817464,6.352430838790873,-72.28009561376932
1590515197.458026,0.26,-4.035450002292421,8.65,0.4622222222222222,0.3377777777777778,-0.6666666666666666,1.3484895809453945,6.1969791618907895,-70.25963533308881
1590515197.468026,0.2567618131074969,-4.0440945048599755,8.659714560677509,0.4622222222222222,0.3377777777777778,-0.6666666666666666,1.4339320084688674,5.983329323452988,-68.2714079491868
1590515197.478026,0.26050067825872486,-4.004700949562215,8.70100135651745,0.45755525410723336,0.34151135226976886,-0.6680667571011633,1.6612483043531878,5.674374152176594,-66.23809193488717
1590515197.488026,0.3154601866325612,-4.071595139974421,8.760674766709299,0.44,0.3555555555555556,-0.6733333333333333,1.4658738335464923,5.576686916773246,-63.22545562739804
1590515197.498026,0.3475060249420904,-4.105012049884181,8.688716862818502,0.44,0.3555555555555556,-0.6733333333333333,1.3359563279440323,5.3827183602798385,-60.44446524251854
1590515197.508026,0.3784766799185494,-4.059788616309512,8.58674197614661,0.44,0.3555555555555556,-0.6733333333333333,1.5135750993891206,5.002733200814506,-57.62509090468341
1590515197.5180259,0.4288386664564943,-3.949419333228247,8.630472887767969,0.44,0.3555555555555556,-0.6733333333333333,1.612634723754729,4.765994443568727,-54.71357779003783
1590515197.5280259,0.4640499318099585,-3.95611650755657,8.804382810543014,0.4338295589140311,0.3575389116189028,-0.669807366998494,1.262916098416321,4.8631241476244815,-51.87864086114281
1590515197.5380259,0.4367485710043798,-3.8934971420087594,8.691531437903643,0.4088888888888889,0.3655555555555556,-0.6555555555555556,1.0015357063321209,4.3592856877737365,-49.3527856135402
1590515197.5480258,0.4434101192924722,-3.902350198820787,8.78859454271219,0.4088888888888889,0.3655555555555556,-0.6555555555555556,0.875,3.923531125737008,-47.14933840669135
1590515197.5580258,0.4817509941039353,-3.966251656839892,8.641621189268248,0.4088888888888889,0.3655555555555556,-0.6555555555555556,0.875,3.8835927144750673,-45.4319867224279
1590515197.5680258,0.5066504975330997,-3.97,8.756601990132399,0.4088888888888889,0.3655555555555556,-0.6555555555555556,0.7433250411150057,3.854065609581873,-42.20691853414622
1590515197.5780258,0.4857476286193664,-3.97,8.672990514477465,0.4088888888888889,0.3655555555555556,-0.6555555555555556,1.0917061896772264,3.72342267887104,-40.37791750419456
1590515197.5880258,0.5543452598927257,-4.0096378950089395,8.760223165241367,0.3622222222222222,0.37666666666666665,-0.6433333333333333,0.837394718135407,3.319289468582384,-36.96292112745837
1590515197.5980258,0.6627647933136592,-4.000602933890528,8.516279215044268,0.3622222222222222,0.37666666666666665,-0.6433333333333333,1.4585482950261723,3.4886949895525925,-34.47830681989531
1590515197.6080258,0.61,-3.8934940867884587,8.732170171644196,0.3622222222222222,0.37666666666666665,-0.6433333333333333,0.3862885969352538,2.579816851502462,-31.62426084855736
1590515197.6180258,0.6227112839212684,-3.8749154864314925,8.611014162822089,0.3622222222222222,0.37666666666666665,-0.6433333333333333,1.0127198460825593,2.875,-29.349603118641337
1590515197.6280258,0.655657923738153,-3.8578289618690764,8.767204099625303,0.3586038253373497,0.38209426199397545,-0.6417653613498886,0.5814139299096319,2.813939552567776,-27.394327198589377
1590515197.6380258,0.5696697533393428,-4.5734712775547,7.958851102187987,0.3288888888888889,0.4266666666666667,-0.6288888888888889,-0.1463574530853069,1.1808366795050398,-23.40546382037204
1590515197.6480258,-3.265030572321728,-11.980230619507303,-2.9471446827752983,0.3288888888888889,0.4266666666666667,-0.6288888888888889,-50.410086900104204,-21.060298006409376,187.7459105833317
1590515197.6580257,-5.4062710887561565,-5.477507597191659,-0.5753209158545536,0.3288888888888889,0.4266666666666667,-0.6288888888888889,-97.64037612648015,-42.495494079429946,524.0000802289636
1590515197.6680257,3.919160424672702,-5.8214995983412585,9.4518597885321,0.3288888888888889,0.4266666666666667,-0.6288888888888889,-73.94860803534597,-75.68966027269371,620.6050215484487
1590515197.6780257,4.458317585835974,-7.322301072767974,0.6669081605954006,0.3288888888888889,0.43171620264041116,-0.6288888888888889,-13.494623440997762,-60.68532866238335,544.6435990057272
1590515197.6880257,-0.3993664457794018,-4.7265628290084845,1.4330278070229774,0.3288888888888889,0.4444444444444444,-0.6288888888888889,26.699371400260112,-27.906402892178114,262.2155934538924
1590515197.6980257,-1.5650348389780566,0.1044039241515583,12.381322147883662,0.3288888888888889,0.4444444444444444,-0.6288888888888889,52.01989808298956,-3.0156753735223765,43.23048540576143
1590515197.7080257,-5.461704856657537,3.3395124276354564,20.4509186397199,0.3288888888888889,0.4444444444444444,-0.6288888888888889,93.0494342999272,-8.649853104308939,45.0933990102957
1590515197.7180257,0.7917543071393159,1.1877579635597422,-0.26835848413485375,0.3288888888888889,0.4444444444444444,-0.6288888888888889,83.23796557387209,-14.360850737481409,46.480163725520576
1590515197.7280257,-0.35845500743678715,1.324223475458602,1.5446833168071392,0.3288888888888889,0.4444444444444444,-0.6288888888888889,24.915205131383246,-11.599048710956867,41.89069859320773
1590515197.7380257,-3.1979425867507887,-1.1536208201892744,13.086259936908517,0.4688888888888889,0.32,-0.6433333333333333,-46.91075315457413,18.102007097791798,37.23177050473186
1590515197.7480257,-1.59,-0.77,8.14,0.4688888888888889,0.32,-0.6433333333333333,-19.3125,8.5625,43.8125
1590515197.7580256,-2.2923993590244667,-0.7134851090440084,10.158388962713985,0.4688888888888889,0.32,-0.6433333333333333,9.19724409833503,-4.557028257640898,54.15674343390917
1590515197.7680256,-2.16160765428432,-1.5480624562445637,10.22382120202813,0.4688888888888889,0.32,-0.6433333333333333,-0.2937925621062014,-1.3564781912298196,56.72315537688016
1590515197.7780256,-1.5743326856109432,-1.7408665371221888,8.920651441983955,0.46973926501679164,0.3171654129069909,-0.6467348378449442,-6.774522865882987,-6.220667314389057,56.00255641918541
1590515197.7880256,-0.9691178790618928,-1.6198235758123787,7.153424206860727,0.47511895218611655,0.29923312234257454,-0.6682535865222439,-2.184977249552687,-6.8258821209381075,56.80950949458414
1590515197.7980256,-3.08149836573198,-6.817728271881033,10.403297207408682,0.4755555555555556,0.2977777777777777,-0.67,-1.428303658466655,-4.293426371924996,53.244380411720854
1590515197.8080256,-7.137307325009727,-22.76442400877162,7.338739787076009,0.4755555555555556,0.2977777777777777,-0.67,-3.9351435114773814,-5.122950783432957,47.60512237824072
1590515197.8180256,-0.29552007721231377,0.28392817646230867,10.66730722055778,0.4755555555555556,0.2977777777777777,-0.67,-4.193686787444955,2.7227595359218224,-44.097314660285925
1590515197.8280256,-0.9179757544325954,-0.7082548377686299,7.558181582444654,0.4755555555555556,0.29237978959803207,-0.6641521794719423,17.013709036984213,8.973710333538621,-77.19083052413212
1590515197.8380256,-0.91,-1.45,6.96,0.4755555555555556,0.27111111111111114,-0.6411111111111111,9.1875,4.4375,-70.0625
1590515197.8480256,-0.730874040474529,-1.6977909106769016,7.294368457780879,0.4755555555555556,0.27111111111111114,-0.6411111111111111,7.620147854152128,4.120297780006978,-66.7971830294836
1590515197.8580256,-0.37809413614917997,-2.9016335654909007,7.94600831273871,0.4755555555555556,0.27111111111111114,-0.6411111111111111,4.48664625926758,4.981252808357672,-58.35619523702539
1590515197.8680255,-0.5629543476540866,-4.9228902603054046,7.708450826805918,0.4755555555555556,0.27111111111111114,-0.6411111111111111,5.339371192341166,9.71772391011947,-58.17779294247963
1590515197.8780255,-0.23110056175330324,-3.834409842550835,9.095599651871193,0.4755555555555556,0.27111111111111114,-0.6411111111111111,-1.0488141862489124,4.076209549806156,-73.02824986153968
1590515197.8880255,-0.2924477982220385,-2.5441790956614194,8.786447916359018,0.4688888888888889,0.2822222222222222,-0.6344444444444445,1.3348869576774272,7.907275392067102,-102.95764973862194
1590515197.8980255,-0.13544009904004223,-2.7561254642501978,8.194855600430255,0.4688888888888889,0.2822222222222222,-0.6344444444444445,5.387401568810505,10.38618386337345,-99.96681118462443
1590515197.9080255,-0.2335673222390318,-3.473518910741301,8.939833585476551,0.4688888888888889,0.2822222222222222,-0.6344444444444445,-0.5127080181543117,5.876040090771558,-98.57513237518911
1590515197.9180255,0.07577023449319215,-5.036070158850227,8.820857602118004,0.4688888888888889,0.2822222222222222,-0.6344444444444445,-0.6614279973524962,6.619639986762481,-101.6486786119516
1590515197.9280255,0.12287831995058679,-3.319561457689932,8.398536133415687,0.46698647999450965,0.2847587674147279,-0.6344444444444445,4.360369054972205,10.011735639283508,-117.39785361334157
1590515197.9380255,-0.022847050648548473,-3.060494132180358,8.641411751080915,0.4507947721501613,0.30634771120719234,-0.6344444444444445,2.6400000965101915,11.175514640596047,-123.97573492510809
1590515197.9480255,0.272578706460256,-4.631931378386425,8.441616552545401,0.4488888888888889,0.3088888888888889,-0.6344444444444445,1.9012203687853528,9.641139010866329,-125.39522900230723
1590515197.9580255,0.13990696635903543,-4.350979458172075,8.691351592735934,0.4488888888888889,0.3088888888888889,-0.6344444444444445,2.632865994343555,10.324008261387318,-130.0289846308425
1590515197.9680254,-11.260830738171432,-21.815631537123345,8.339174845901075,0.4488888888888889,0.3088888888888889,-0.6344444444444445,-1.0073572839930414,12.51027818345826,-106.22954967676812
1590515197.9780254,1.3662774355323035,-1.2854988700739869,8.314841655573787,0.44396863724387486,0.31563666257347955,-0.6355690733918763,-3.877582964430548,-4.4003962480264995,10.666822740921896
1590515197.9880254,1.5747070620254977,-2.3377539034522274,6.752599914052428,0.41,0.3622222222222222,-0.6433333333333333,17.752721673112735,-10.286420283626988,44.36136477582008
1590515197.9980254,0.2759077577928314,-2.6471623971553893,8.595346881569727,0.41,0.3622222222222222,-0.6433333333333333,4.623131277738846,0.8421010797061954,7.207079407718862
1590515198.0080254,0.11354796674904521,-3.974496966973714,9.02393192541002,0.41,0.3622222222222222,-0.6433333333333333,-10.981535048303751,3.040052797124242,-15.939899741631095
1590515198.0180254,-1.1841099097090624,-5.859859547430609,8.877903243785532,0.41,0.3622222222222222,-0.6433333333333333,-8.474724111024411,4.764038290045702,-24.94967116263516
1590515198.0280254,-1.1625136942510066,-7.2423958459331965,8.470935874617684,0.41063678027183065,0.36267706527352983,-0.6445159252667331,1.2317244388381055,3.0515337993122635,-29.630836256501528
1590515198.0380254,0.49720308963038495,-3.988191322078416,8.833319451884364,0.41627385814042345,0.3667035494653818,-0.6549847841655483,-0.036618081595272134,0.7413384942371826,-8.657886722192465
1590515198.0480254,-0.1491423691594486,-3.777773575698426,8.359543735512993,0.4177777777777778,0.36777777777777776,-0.6577777777777778,2.1261792932373633,-0.9502358586474726,6.334970111016226
1590515198.0580254,-0.021220568500670972,-4.340629498597047,8.589802976698792,0.4177777777777778,0.36777777777777776,-0.6577777777777778,-0.8053619718596234,-0.36392760562807536,-1.5002401793339022
1590515198.0680254,0.01,-4.259741386992711,8.684174880139732,0.4177777777777778,0.36777777777777776,-0.6577777777777778,0.27062799650667474,-0.017395333915554208,-0.1614069991266687
1590515198.0780253,0.01,-4.3120701516744795,8.706601493574777,0.4177777777777778,0.36777777777777776,-0.6577777777777778,-0.2900373393694191,-0.11083955656156985,-0.021240665157645222
1590515198.0880253,-0.018173775358733303,-4.334086887679367,8.674782780801584,0.42247340700423336,0.36777777777777776,-0.6577777777777778,0.021193715982187056,-0.03695695200395843,0.044021523998020784
1590515198.0980253,0.019942792948496373,-4.438970273072935,8.590343242309022,0.4244444444444445,0.36777777777777776,-0.6577777777777778,0.00035754407189768405,-0.18678491185620463,0.12392736778430695
1590515198.1080253,0.012693743518838577,-4.308487383339094,8.633837538886969,0.4244444444444445,0.36777777777777776,-0.6577777777777778,0.0456641030072589,-0.0961717939854822,-0.011992309021776698
1590515198.1180253,0.0004135109619217455,-4.308345956152313,8.65248106577153,0.4244444444444445,0.36777777777777776,-0.6577777777777778,0.07025333053603273,0.18233111297597818,0.05474666946396727
1590515198.1280253,0.009213049407321934,-4.273147802370712,8.705278296443932,0.4244444444444445,0.36777777777777776,-0.6577777777777778,0.23524467638728627,0.07233688240847583,-0.11024467638728627
1590515198.1380253,0.0,-4.35,8.7,0.4033333333333333,0.3622222222222222,-0.6488888888888888,-0.009067064757101395,0.0670335323785507,-0.07610059713565209
1590515198.1480253,0.002988935482241196,-4.344769362906078,8.689538725812156,0.4033333333333333,0.3622222222222222,-0.6488888888888888,-0.11565957661799627,0.12032978830899813,-0.23131915323599253
1590515198.1580253,0.03542096534493528,-4.290302827973896,8.572592345301429,0.4033333333333333,0.3622222222222222,-0.6488888888888888,0.014309483297077258,0.0625,-0.007154741648538629
1590515198.1680253,0.00012123427902895584,-4.368666422930682,8.670606171395145,0.4033333333333333,0.3622222222222222,-0.6488888888888888,0.12424228575606902,0.06325771424393098,-0.06174228575606903
1590515198.1780252,0.006255045334893244,-4.301194501316174,8.701275226674467,0.4033333333333333,0.3622222222222222,-0.6488888888888888,0.08590596665691723,0.10159403334308277,-0.02340596665691723
1590515198.1880252,0.016574234314001693,-4.325742343140017,8.72,0.4033333333333333,0.36587457461888984,-0.6437755955335542,-0.06076689338753169,0.0017331066124683103,-0.04108896446251057
1590515198.1980252,0.010361731471847855,-4.254702509134022,8.655659222337826,0.4033333333333333,0.36777777777777776,-0.6411111111111111,-0.11369589150475454,0.11821753490285272,0.004521643398098188
1590515198.2080252,0.02,-4.3734433534547525,8.544917484908934,0.4033333333333333,0.36777777777777776,-0.6411111111111111,0.18067015984870075,-0.0625,0.12841492007564964
1590515198.2180252,0.02,-4.2630117642726955,8.639035292818088,0.4033333333333333,0.36777777777777776,-0.6411111111111111,0.10014705340869341,-0.037401964394204394,0.15612745549275547
1590515198.2280252,0.02,-4.28617743984388,8.708532319531638,0.4033333333333333,0.36777777777777776,-0.6411111111111111,0.3897179980484931,0.15564533203232872,-0.08518166504041091
1590515198.2380252,0.013813569800922083,-4.283813569800922,8.732372860398156,0.3998964276671789,0.36777777777777776,-0.6411111111111111,0.16684367879034107,0.07150443376728904,-0.04766962251152604
1590515198.2480252,0.002561759976611607,-4.317191200116942,8.717685279929835,0.3977777777777778,0.36777777777777776,-0.6411111111111111,0.0,-0.09297800029235492,-0.09297800029235492
1590515198.2580252,0.009800478686089218,-4.358403829488714,8.590997606569553,0.3977777777777778,0.36777777777777776,-0.6411111111111111,0.06374700821194239,-0.18001795072834564,0.0625
1590515198.2680252,0.0011463706515908046,-4.289170965212727,8.634268146742047,0.3977777777777778,0.36777777777777776,-0.6411111111111111,0.11783518342755747,0.14451110056534477,0.0625
1590515198.2780252,0.0063266335153180095,-4.31163316757659,8.690613068122545,0.3977777777777778,0.36777777777777776,-0.6411111111111111,0.16454145947073756,0.10841708105852489,0.10204145947073756
1590515198.2880251,0.0023431177812109176,-4.2764018244684765,8.72765688221879,0.4020316012326606,0.3728823659236372,-0.6640817577674784,0.1875,0.11035551386743177,0.07714448613256823
1590515198.2980251,0.0,-4.342329314734163,8.707546550527047,0.4033333333333333,0.3744444444444445,-0.6711111111111111,0.0003879210587220405,0.07822198026468051,0.10927801973531949
1590515198.3080251,0.009604529467272884,-4.28276829372909,8.601581882130908,0.4033333333333333,0.3744444444444445,-0.6711111111111111,-0.11758492751136657,-0.007415072488633439,0.12005661834091104
1590515198.318025,0.002408338337479626,-4.333141631637642,8.630366646650081,0.4033333333333333,0.3744444444444445,-0.6711111111111111,0.017343656172257027,-0.14234365617225703,0.03010422921849533
1590515198.328025,0.0156436920144631,-4.295247077949379,8.663465538021695,0.4033333333333333,0.3744444444444445,-0.6711111111111111,0.20915961263559157,0.008046150180788747,0.04888653754519719
1590515198.338025,0.012530547115783951,-4.28,8.714816717305297,0.40831296858947735,0.36946480918830044,-0.648702752458463,0.2033159194736497,-0.0308681610527006,0.0625
1590515198.348025,0.0,-4.281401972371302,8.657196055257396,0.41,0.36777777777777776,-0.6411111111111111,-0.06542077577354542,0.05957922422645458,0.008762327320636273
1590515198.358025,0.0,-4.305781295410071,8.608437409179858,0.41,0.36777777777777776,-0.6411111111111111,-0.1162110321043148,0.008788967895685194,0.1611330963129444
1590515198.368025,0.0,-4.348547454989998,8.6289105912425,0.41,0.36777777777777776,-0.6411111111111111,-0.0045392031562569435,0.0,0.006808804734385415
1590515198.378025,0.0,-4.35,8.697761802416068,0.41,0.36777777777777776,-0.6411111111111111,0.0,0.047056807233380266,0.047056807233380266
1590515198.388025,-0.00905141591520329,-4.32284575225439,8.710948584084797,0.38586289089279124,0.3808520452108492,-0.6300482694369738,0.0,0.17564269894004114,0.005928650529979429
1590515198.398025,-0.0021806609645424243,-4.280903304822711,8.725638678070915,0.38333333333333336,0.38222222222222224,-0.6288888888888889,0.09774173794321969,0.04088739308517045,0.0
1590515198.408025,0.019623736741000587,-4.339623736741,8.610940658147499,0.38333333333333336,0.38222222222222224,-0.6288888888888889,-0.12264835463125365,0.06720329073749269,0.060148354631253655
1590515198.418025,0.0021080765054706414,-4.3221080765054705,8.654729808736324,0.38333333333333336,0.38222222222222224,-0.6288888888888889,-0.013175478159191525,0.286149043681617,-0.049324521840808475
1590515198.428025,0.011336436680954355,-4.337004655021431,8.677004655021431,0.38333333333333336,0.38222222222222224,-0.6288888888888889,-0.10627909388394709,0.24164727074403525,-0.02707363537201763
1590515198.438025,0.02,-4.3180760150172235,8.721923984982777,0.39752177110345627,0.3780839278726031,-0.6395302172164811,-0.087737546928823,0.02122924488137168,0.06650830204745133
1590515198.448025,0.008117972496965114,-4.307823041254553,8.70247188998786,0.41,0.3744444444444445,-0.6488888888888888,0.0,-0.05073732810603196,0.08786866405301598
1590515198.458025,0.023209579548310655,-4.296790420451689,8.608107787871171,0.41,0.3744444444444445,-0.6488888888888888,0.0,-0.048353290725647195,0.0625
1590515198.468025,0.016349394821510647,-4.310475907767734,8.624126512946225,0.41,0.3744444444444445,-0.6488888888888888,-0.1706325647311169,0.022816282365558452,-0.022816282365558452
1590515198.478025,0.01,-4.32,8.6684963208448,0.41,0.3744444444444445,-0.6488888888888888,0.06167850924001572,-0.026551002640004498,0.07107650396000673
1590515198.488025,0.016948298156793128,-4.326948298156793,8.714741490783966,0.39147120491521836,0.36981224567324905,-0.6488888888888888,0.10064627304008592,-0.019073136520042958,-0.005280590439871141
1590515198.498025,0.02,-4.311381487142002,8.711381487142004,0.38333333333333336,0.36777777777777776,-0.6488888888888888,0.0625,0.0,-0.004317147318758714
1590515198.508025,0.02,-4.318131527415144,8.636816253263706,0.38333333333333336,0.36777777777777776,-0.6488888888888888,0.11332204634464751,0.10164409268929504,0.0
1590515198.518025,0.01977076500903554,-4.339770765009035,8.640802322468376,0.38333333333333336,0.36777777777777776,-0.6488888888888888,-0.12356728130647213,0.0625,-0.06178364065323606
1590515198.528025,0.0057345559199518115,-4.325734555919952,8.689929054280169,0.38333333333333336,0.36777777777777776,-0.6488888888888888,-0.03584097449969881,0.0625,-0.017920487249849404
1590515198.538025,0.008076772807188904,-4.336153545614378,8.718076772807189,0.38333333333333336,0.37944422738816175,-0.6488888888888888,0.0,-0.13941932017972258,0.050479830044930646
1590515198.548025,0.018232472071825098,-4.298837639640874,8.711767527928176,0.38333333333333336,0.38222222222222224,-0.6488888888888888,0.10290590089781372,-0.13604704955109315,0.0625
1590515198.558025,0.002038908871327679,-4.298980545564336,8.611213998792302,0.38333333333333336,0.38222222222222224,-0.6488888888888888,0.068871590222899,-0.012743180445798002,0.006371590222899001
1590515198.5680249,0.009226219334820129,-4.309226219334819,8.636904877339282,0.38333333333333336,0.38222222222222224,-0.6488888888888888,0.004836129157374192,0.0,0.0
1590515198.5780249,0.024407718619869123,-4.317203859309934,8.65440771861987,0.38333333333333336,0.38222222222222224,-0.6488888888888888,-0.04502412068709102,0.04502412068709102,-0.04502412068709102
1590515198.5880249,0.01871513066823273,-4.314357565334117,8.693854607995302,0.3946182026651006,0.37407203881594586,-0.6457542029633979,-0.09776521666177274,-0.043295649985318166,-0.0625
1590515198.5980248,0.015588499313549477,-4.31,8.7088230013729,0.4033333333333333,0.36777777777777776,-0.6433333333333333,-0.020215637870947295,-0.020215637870947295,0.00735624141936847
1590515198.6080248,0.010821663696213582,-4.328356672607573,8.617394973265922,0.4033333333333333,0.36777777777777776,-0.6433333333333333,0.0625,-0.10959380569599533,0.11986460189866512
1590515198.6180248,0.01,-4.309857882448482,8.656998274286874,0.4033333333333333,0.36777777777777776,-0.6433333333333333,0.02053725510100498,-0.08303725510100499,0.08303725510100499
1590515198.6280248,0.0038144414842484,-4.3,8.692371117031502,0.4033333333333333,0.36777777777777776,-0.6433333333333333,-0.0386597407234475,-0.0625,0.0625
1590515198.6380248,0.011883935190087895,-4.305941967595044,8.705941967595043,0.4072946450633626,0.36777777777777776,-0.6505957381717203,0.08604918987609869,-0.025362702530975327,0.0625
1590515198.6480248,0.02,-4.31,8.718546081998575,0.41,0.36777777777777776,-0.6555555555555556,0.1875,0.0,0.0625
1590515198.6580248,0.011208341994041433,-4.31,8.658458393958291,0.41,0.36777777777777776,-0.6555555555555556,0.07760427492551791,0.10989572507448209,0.11744786253724104
1590515198.6680248,0.01,-4.3194142838825496,8.678242851647648,0.41,0.36777777777777776,-0.6555555555555556,-0.05517854853186306,-0.0515178227977946,-0.0515178227977946
1590515198.6780248,0.01727541230210416,-4.32,8.68,0.41,0.36777777777777776,-0.6555555555555556,-0.10797132688815102,-0.0625,0.028442653776302035
1590515198.6880248,0.02,-4.33760699314334,8.70641048971501,0.3992401708568478,0.36777777777777776,-0.6496865578411088,0.040065560718811954,-0.0625,-0.04754370714587462
1590515198.6980247,0.012955461859959862,-4.33295546185996,8.674777309299799,0.3977777777777778,0.36777777777777776,-0.6488888888888888,0.10652836337525086,-0.01847163662474914,-0.01847163662474914
1590515198.7080247,0.018351666075287897,-4.3216483339247125,8.609890003548273,0.3977777777777778,0.36777777777777776,-0.6488888888888888,0.125,-0.20879165188219737,0.0
1590515198.7180247,0.0026537628331920506,-4.302653762833192,8.634692474333617,0.3977777777777778,0.36777777777777776,-0.6488888888888888,0.07079300885372516,0.07524194687764907,0.10841398229254968
1590515198.7280247,0.0,-4.306724949064641,8.68034969438785,0.3977777777777778,0.36777777777777776,-0.6488888888888888,-0.021561863308020013,-0.0010927949620299915,0.08296906834599
1590515198.7380247,0.01019348333018214,-4.31,8.7,0.4006093009250506,0.36777777777777776,-0.6534193259245253,0.0012092708136383634,0.0012092708136383634,0.09435463540681918
1590515198.7480247,0.0071428571428571435,-4.322857142857143,8.687142857142856,0.4033333333333333,0.36777777777777776,-0.6577777777777778,0.022321428571428575,0.0625,0.16517857142857142
1590515198.7580247,0.0,-4.3212148753439505,8.600933878095555,0.4033333333333333,0.36777777777777776,-0.6577777777777778,-0.054907029100308515,0.0625,0.07768594179938297
1590515198.7680247,0.0,-4.296742444172767,8.619071944784043,0.4033333333333333,0.36777777777777776,-0.6577777777777778,-0.09883993098005231,-0.01017986196010462,0.02616006901994769
1590515198.7780247,0.0,-4.298161424042917,8.671782492075105,0.4033333333333333,0.36777777777777776,-0.6577777777777778,-0.06824554986588637,0.022631675201170445,0.028377225067056817
1590515198.7880247,0.009196356817572998,-4.310803643182427,8.700803643182427,0.397713337500372,0.3652232342173408,-0.650114147096467,0.02873861505491562,0.15373861505491562,0.0625
1590515198.7980247,0.00999635222878821,-4.320007295542424,8.710007295542423,0.3911111111111111,0.3622222222222222,-0.6411111111111111,0.031238600714963156,0.12497720142992631,0.0625
1590515198.8080246,0.005335134318207579,-4.329329731363585,8.676648656817925,0.3911111111111111,0.3622222222222222,-0.6411111111111111,0.06668917897759474,-0.004189178977594743,0.0625
1590515198.8180246,0.0039013611454834724,-4.313901361145484,8.660493194272583,0.3911111111111111,0.3622222222222222,-0.6411111111111111,0.0868835071592717,-0.0625,0.0243835071592717
1590515198.8280246,0.005326118798573177,-4.304673881201427,8.69597835639572,0.3911111111111111,0.3622222222222222,-0.6411111111111111,-0.03736472747324705,0.004076484982164716,0.0
1590515198.8380246,0.015220699616021419,-4.3,8.70477930038398,0.40097243260804044,0.35874175581154133,-0.6376306447004302,-0.09237062739986614,0.09512937260013386,-0.03262937260013386
1590515198.8480246,0.02,-4.305902321324569,8.69409767867543,0.41,0.3555555555555556,-0.6344444444444445,-0.025610491721441052,0.051220983442882104,-0.0625
1590515198.8580246,0.012340037192644121,-4.317659962807356,8.628720297541152,0.41,0.3555555555555556,-0.6344444444444445,0.047874767545974244,0.0,-0.014625232454025756
1590515198.8680246,0.01,-4.32,8.665272841641768,0.41,0.3555555555555556,-0.6344444444444445,0.1612015029317278,0.0987015029317278,-0.0493507514658639
1590515198.8780246,0.0037257092232729234,-4.32,8.698822872330181,0.41,0.3555555555555556,-0.6344444444444445,0.10907136529091155,0.16421431735454423,-0.023285682645455774
1590515198.8880246,0.004666212393400648,-4.310667575213198,8.714666212393402,0.40688919173773286,0.3612587040363786,-0.6442953372749569,0.03333617254124595,0.07084469016498379,0.0
1590515198.8980246,0.0038851569319518766,-4.306114843068048,8.72,0.4033333333333333,0.36777777777777776,-0.6555555555555556,0.0,0.013935538350601545,0.0
1590515198.9080245,0.007784051851124423,-4.325568103702249,8.618807325935382,0.4033333333333333,0.36777777777777776,-0.6555555555555556,0.09730064813905528,0.15980064813905528,0.0
1590515198.9180245,0.017384301321309196,-4.307847096036072,8.656458711891782,0.4033333333333333,0.36777777777777776,-0.6555555555555556,0.03269623348363507,0.14134811674181752,-0.046151883258182466
1590515198.9280245,0.013796755295178008,-4.3,8.698609734114466,0.4033333333333333,0.36777777777777776,-0.6555555555555556,0.03877027940513745,0.125,-0.02372972059486255
1590515198.9380245,0.01,-4.3216580310880826,8.68112262521589,0.4137612742275955,0.3725906735751296,-0.6571598541546728,0.01737910189982729,-0.05548359240069084,-0.13536269430051812
1590515198.9480245,0.01,-4.316815752067108,8.689776371899336,0.4177777777777778,0.3744444444444445,-0.6577777777777778,0.0,-0.125,-0.06389767562914173
1590515198.9580245,0.002457096159084719,-4.317542903840915,8.609485153909016,0.4177777777777778,0.3744444444444445,-0.6577777777777778,-0.04714314900572051,-0.0778568509942795,0.04714314900572051
1590515198.9680245,0.005854608394634357,-4.32,8.62098225876244,0.4177777777777778,0.3744444444444445,-0.6577777777777778,0.0472739073993942,0.0472739073993942,-0.08386520986585894
1590515198.9780245,0.005823642736114012,-4.315823642736114,8.67088178631943,0.4177777777777778,0.3744444444444445,-0.6577777777777778,0.09889776710071257,0.09889776710071257,-0.13529553420142515
1590515198.9880245,0.0,-4.31,8.706508960296617,0.41271525310263146,0.3744444444444445,-0.6519920352918962,-0.05954300556156342,-0.01886200370770895,-0.021818998146145525
