time,acc_x,acc_y,acc_z,mag_x,mag_y,mag_z,gyr_x,gyr_y,gyr_z
1590515284.505308,0.09,-4.29,8.65,0.4488888888888889,0.28444444444444444,-0.6111111111111112,-0.125,0.0,0.0
1590515284.515308,0.08220665564205949,-4.297793344357941,8.688966721789702,0.4488888888888889,0.28444444444444444,-0.6111111111111112,0.02112520671138446,-0.04870840223712815,-0.0974168044742563
1590515284.525308,0.08,-4.286952635119009,8.739142094642974,0.4488888888888889,0.28879356607144147,-0.6067619894841141,-0.18213809151858362,-0.021726984746902732,-0.125
1590515284.535308,0.0705552924029878,-4.298889415194024,8.703331754417926,0.4488888888888889,0.2911111111111111,-0.6044444444444445,-0.37152942248132625,0.05902942248132628,-0.06597057751867372
1590515284.5453079,0.07800772659732541,-4.308007726597325,8.651953640416048,0.4488888888888889,0.2911111111111111,-0.6044444444444445,-0.375,-0.03759658246656762,-0.0625
1590515284.5553079,0.07130789150879106,-4.31,8.674768433964836,0.4488888888888889,0.2911111111111111,-0.6044444444444445,-0.2663486438598882,-0.0625,-0.00817432192994412
1590515284.5653079,0.06214477551969886,-4.317855224480302,8.766407469283312,0.4488888888888889,0.2911111111111111,-0.6044444444444445,-0.15180969399623576,0.035690306003764244,-0.09819030600376424
1590515284.5753078,0.06,-4.3003248159376355,8.809675184062366,0.43686516529522157,0.29766950579856594,-0.5967929839757471,0.059454850584668706,0.30843980077955824,-0.06351504980511044
1590515284.5853078,0.08743943643309851,-4.309146478811033,8.791707042377933,0.43666666666666665,0.2977777777777777,-0.5966666666666667,0.0625,0.1410035222931343,-0.11966549256895523
1590515284.5953078,0.07581402280008942,-4.302907011400045,8.676512182400716,0.43666666666666665,0.2977777777777777,-0.5966666666666667,0.0625,0.03633764250055882,0.00799353624916177
1590515284.6053078,0.05998603301287865,-4.299986033012878,8.640069834935607,0.43666666666666665,0.2977777777777777,-0.5966666666666667,-0.18741270633049156,0.125,-0.125
1590515284.6153078,0.05237801559949211,-4.292378015599492,8.67810992200254,0.43666666666666665,0.2977777777777777,-0.5966666666666667,-0.13986259749682567,0.125,-0.125
1590515284.6253078,0.059714295340453485,-4.29,8.719142886021361,0.4679682849859057,0.2913015808841421,-0.5966666666666667,-0.1857143458778343,0.06428565412216569,0.057143037633502924
1590515284.6353078,0.0671037165082109,-4.304207433016422,8.734207433016422,0.4688888888888889,0.2911111111111111,-0.5966666666666667,-0.09870354364736386,0.01810177182368193,-0.0706946845289542
1590515284.6453078,0.052985679546068636,-4.318507160226966,8.688957038638206,0.4688888888888889,0.2911111111111111,-0.5966666666666667,0.25651850851121316,-0.05316975141853553,-0.07183024858146447
1590515284.6553078,0.07627109150738641,-4.284971877990151,8.697514061004924,0.4688888888888889,0.2911111111111111,-0.5966666666666667,0.5861572032019418,-0.3361572032019417,-0.007768559359611654
1590515284.6653078,0.08728798041518221,-4.301863941245546,8.736439902075912,0.4688888888888889,0.2911111111111111,-0.5966666666666667,0.7160997551897776,-0.5116496327846665,0.0
1590515284.6753078,0.07382994518044769,-4.31,8.782340109639104,0.4527188340693366,0.285721092837927,-0.5912766483934826,0.699468578688899,-0.4109057360666971,-0.05053142131110096
1590515284.6853077,0.06061049377781331,-4.272441975111253,8.752441975111253,0.4488888888888889,0.28444444444444444,-0.59,0.6288155861113331,-0.25763117222266635,-0.0038155861113331677
1590515284.6953077,0.06,-4.278392135283287,8.666078647167136,0.4488888888888889,0.28444444444444444,-0.59,0.3102949268767593,-0.09264746343837965,-0.10490169104108023
1590515284.7053077,0.07694299879140666,-4.2969429987914065,8.67541449818711,0.4488888888888889,0.28444444444444444,-0.59,0.09115938633056261,-0.0095531287768542,-0.125
1590515284.7153077,0.08,-4.3,8.6945120168886,0.4488888888888889,0.28444444444444444,-0.59,-0.07355015833062681,0.2721003166612536,-0.034299894446248785
1590515284.7253077,0.07107815442561206,-4.2910781544256125,8.726765536723164,0.4617759991630048,0.2794878635697845,-0.59,-0.125,0.2634769303201506,0.0
1590515284.7353077,0.0610805364463901,-4.31675839066083,8.76567785421444,0.4633333333333333,0.2788888888888889,-0.59,-0.18074664721006184,0.19425335278993816,0.0
1590515284.7453077,0.06,-4.308703294039213,8.696571411254887,0.4633333333333333,0.2788888888888889,-0.59,-0.1875,0.08159338161762476,-0.03530220612745841
1590515284.7553077,0.0647411258515597,-4.3,8.663705629257798,0.4633333333333333,0.2788888888888889,-0.59,-0.1578679634277519,-0.059264073144496235,-0.003235926855503765
1590515284.7653077,0.07599367144238375,-4.305993671442383,8.725962028654303,0.4633333333333333,0.2788888888888889,-0.59,-0.125,-0.125,-0.08734178605959392
1590515284.7753077,0.0876035787583376,-4.302396421241662,8.765207157516675,0.4633333333333333,0.28818215181574597,-0.59,-0.029955265520779886,-0.17252236723961006,-0.09245526552077989
1590515284.7853076,0.09,-4.306055229596318,8.757889540807364,0.4633333333333333,0.2911111111111111,-0.59,0.0,-0.14965481502301234,-0.0625
1590515284.7953076,0.08308579335793358,-4.303085793357933,8.694686346863469,0.4633333333333333,0.2911111111111111,-0.59,0.08642758302583026,-0.08178620848708487,0.023927583025830257
1590515284.8053076,0.08,-4.3,8.694232661540145,0.4633333333333333,0.2911111111111111,-0.59,0.04927293268705127,-0.10036353365647437,-0.05109060096942308
1590515284.8153076,0.06320525895096607,-4.311196494032689,8.715598247016345,0.4633333333333333,0.2911111111111111,-0.59,-0.06997808770430804,0.049945219260770085,-0.159989043852154
1590515284.8253076,0.061019282577798525,-4.308980717422202,8.7255096412889,0.4486409565629353,0.2874380169185116,-0.5979583707506323,-0.056129483888759255,0.11862948388875925,-0.15306474194437963
1590515284.8353076,0.08591405262553142,-4.284085947374469,8.706128921061703,0.43666666666666665,0.28444444444444444,-0.6044444444444445,0.0,0.11223141445478571,-0.025537171090428593
1590515284.8453076,0.08339747867332768,-4.286602521326673,8.653782350713294,0.43666666666666665,0.28444444444444444,-0.6044444444444445,-0.16506303316680793,0.04246848341659604,-0.04126575829170198
1590515284.8553076,0.08,-4.282476392054705,8.660094431781179,0.43666666666666665,0.28444444444444444,-0.6044444444444445,-0.20297745034190817,-0.09404509931618366,-0.015477450341908172
1590515284.8653076,0.06642981346822636,-4.307140373063548,8.724280746127095,0.43666666666666665,0.28444444444444444,-0.6044444444444445,-0.3147204987353778,-0.1674068329117926,0.042406832911792605
1590515284.8753076,0.05250948240648889,-4.3125094824064885,8.779962070374044,0.45164770185368885,0.28444444444444444,-0.598618486316158,-0.18773706016222208,-0.09386853008111104,-0.12476293983777792
1590515284.8853076,0.05818911948913177,-4.31,8.749054402554341,0.4566666666666666,0.28444444444444444,-0.5966666666666667,0.18209198084244133,-0.21604599042122066,-0.08513600638585288
1590515284.8953075,0.07728586429321466,-4.301357067853393,8.688142407120356,0.4566666666666666,0.28444444444444444,-0.5966666666666667,0.41205497774888744,-0.35803665183259165,-0.17053665183259165
1590515284.9053075,0.08,-4.29157378562363,8.713704857505482,0.4566666666666666,0.28444444444444444,-0.5966666666666667,0.27950848044305987,-0.48032767970462675,-0.08217232029537325
1590515284.9153075,0.07490675754060325,-4.284906757540603,8.730186484918795,0.4566666666666666,0.28444444444444444,-0.5966666666666667,0.2818327653712297,-0.4363344692575406,-0.0306672346287703
1590515284.9253075,0.07331262770739681,-4.286625255414794,8.74,0.462923852336194,0.28886128138764017,-0.5918817599782046,0.37461176951369024,-0.2921843073150797,0.0
1590515284.9353075,0.06598718089185932,-4.314012819108141,8.74,0.4755555555555556,0.2977777777777777,-0.5822222222222222,0.1934695820094226,-0.08120994028706037,0.0
1590515284.9453075,0.04694532137896199,-4.32,8.668199267584292,0.4755555555555556,0.2977777777777777,-0.5822222222222222,0.02170412930925622,0.05988761207223134,0.0
1590515284.9553075,0.060514136744786076,-4.299485863255214,8.684704364652763,0.4755555555555556,0.2977777777777777,-0.5822222222222222,0.04273778488497097,0.125,0.0
1590515284.9653075,0.07,-4.308014206976143,8.72200947131743,0.4755555555555556,0.2977777777777777,-0.5822222222222222,0.024970402133036196,0.1625295978669638,0.0
1590515284.9753075,0.08378779757212676,-4.285530506069683,8.757575595144253,0.45257589293534434,0.2977777777777777,-0.5875841435002714,-0.04308686741289611,0.1444131325871039,-0.12926060223868832
1590515284.9853075,0.07352228383651674,-4.302955432326966,8.761761141918258,0.44222222222222224,0.2977777777777777,-0.59,-0.11399286301088518,0.22798572602177036,-0.13600713698911482
1590515284.9953074,0.08236666784165815,-4.297633332158342,8.679616659029222,0.44222222222222224,0.2977777777777777,-0.59,-0.009062488984454858,0.05677081497409142,-0.2022916740103634
1590515285.0053074,0.08294183133871416,-4.304116337322571,8.672349011967714,0.44222222222222224,0.2977777777777777,-0.59,0.1507271082660729,-0.0625,-0.25
1590515285.0153074,0.06782202341988508,-4.291733035129828,8.720444941450287,0.44222222222222224,0.2977777777777777,-0.59,0.1494438231871409,-0.024443823187140883,-0.2119438231871409
1590515285.0253074,0.0738855667300897,-4.300828350095134,8.746942783365045,0.44222222222222224,0.2931492555344145,-0.6046569871039836,0.1683923960315303,-0.043392396031530306,-0.1875
1590515285.0353074,0.07192564089995589,-4.2938512817999115,8.758074359100045,0.44222222222222224,0.2911111111111111,-0.6111111111111112,0.2379647443752757,0.03842948875055144,-0.08657051124944856
1590515285.0453074,0.07,-4.312424016490505,8.685253278364984,0.44222222222222224,0.2911111111111111,-0.6111111111111112,0.01641649489057498,0.202650103065655,-0.10921670102188501
1590515285.0553074,0.062441999105767795,-4.304883998211536,8.682674002682695,0.44222222222222224,0.2911111111111111,-0.6111111111111112,-0.0625,0.15552498882209748,-0.030524988822097476
1590515285.0653074,0.06495303317754847,-4.295046966822452,8.709812132710194,0.44222222222222224,0.2911111111111111,-0.6111111111111112,-0.09345645735967795,0.0630870852806441,0.030956457359677943
1590515285.0753074,0.07,-4.29,8.737351428913069,0.4401801586352585,0.29356158741546756,-0.6058017457850055,-0.125,0.09189286141336842,0.0854732153533421
1590515285.0853074,0.05557424208895774,-4.304425757911042,8.74278712104448,0.43666666666666665,0.2977777777777777,-0.5966666666666667,-0.21516098694401417,0.25,0.125
1590515285.0953074,0.0706794289422453,-4.296213714038503,8.698641142115509,0.43666666666666665,0.2977777777777777,-0.5966666666666667,-0.16383571274064462,0.2069178563703223,0.08191785637032231
1590515285.1053073,0.08,-4.29794331960485,8.68,0.43666666666666665,0.2977777777777777,-0.5966666666666667,-0.025708504939373877,0.13785425246968694,0.0625
1590515285.1153073,0.08,-4.3,8.68,0.43666666666666665,0.2977777777777777,-0.5966666666666667,0.0,0.125,0.0625
1590515285.1253073,0.08,-4.304948610323312,8.740102779353375,0.4380698304657465,0.2960939812188819,-0.6003148925442743,-0.0625,0.17171440726035167,-0.015785592739648326
1590515285.1353073,0.08327058652518352,-4.299811759575551,8.747105894323715,0.44222222222222224,0.2911111111111111,-0.6111111111111112,-0.08294116578239698,0.16588233156479396,-0.0011765026528090666
1590515285.1453073,0.08555730460674796,-4.32,8.682229218426992,0.44222222222222224,0.2911111111111111,-0.6111111111111112,-0.1527668462078252,0.16669946137652436,0.125
1590515285.1553073,0.06478881713529341,-4.309859211423529,8.690422365729413,0.44222222222222224,0.2911111111111111,-0.6111111111111112,-0.1875,0.0625,0.06162007139705587
1590515285.1653073,0.07140972184617606,-4.305352430461544,8.72,0.44222222222222224,0.2911111111111111,-0.6111111111111112,-0.1205946192306998,0.0959526903846501,0.0
1590515285.1753073,0.0726240120167376,-4.31,8.754751975966524,0.46152887553695826,0.2872497804481639,-0.6027448946747256,0.00989994993026,0.05260005006974,0.0
1590515285.1853073,0.06,-4.304490030674846,8.78,0.4755555555555556,0.28444444444444444,-0.5966666666666667,0.13137461656441718,0.0,0.03443730828220859
1590515285.1953073,0.06,-4.2869783497804965,8.695359273573224,0.4755555555555556,0.28444444444444444,-0.5966666666666667,0.10611468612810025,-0.040692656935949874,0.0625
1590515285.2053072,0.0738842694000808,-4.300826404100121,8.677768538800162,0.4755555555555556,0.28444444444444444,-0.5966666666666667,-0.024276683750505082,0.11105336750101016,-0.024276683750505082
1590515285.2153072,0.06788289080358713,-4.305960963601195,8.694039036398804,0.4755555555555556,0.28444444444444444,-0.5966666666666667,-0.11298795498505362,0.16225602250747317,-0.03725602250747319
1590515285.2253072,0.05143849658314351,-4.299520501138952,8.702876993166287,0.4746498354846875,0.28444444444444444,-0.5966666666666667,-0.19349373576309795,0.13399060364464693,0.008990603644646926
1590515285.2353072,0.07388336839051281,-4.29,8.76,0.4566666666666666,0.28444444444444444,-0.5966666666666667,-0.23604210488141003,0.3125,0.14927105244070502
1590515285.2453072,0.06329721030042919,-4.28329721030043,8.692972103004292,0.4566666666666666,0.28444444444444444,-0.5966666666666667,-0.1456075643776824,0.2706075643776824,-0.0006773068669528037
1590515285.2553072,0.06,-4.294515168892166,8.696287922230415,0.4566666666666666,0.28444444444444444,-0.5966666666666667,0.01107970836405342,0.023200486059910985,-0.017140097211982196
1590515285.2653072,0.06,-4.3,8.71,0.4566666666666666,0.28444444444444444,-0.5966666666666667,0.0625,-0.0625,0.0
1590515285.2753072,0.08301718314616229,-4.303017183146162,8.735085915730812,0.4566666666666666,0.2864558998752193,-0.5966666666666667,0.25,-0.05657218399054294,0.06842781600945706
1590515285.2853072,0.09971787750328899,-4.293803537494518,8.750564244993422,0.4566666666666666,0.2911111111111111,-0.5966666666666667,0.22975442186814793,-0.1875,-0.08274557813185207
1590515285.2953072,0.09121893470368486,-4.284669484539699,8.693553676973535,0.4566666666666666,0.2911111111111111,-0.5966666666666667,0.05901310135573601,-0.1361052405422944,-0.0736052405422944
1590515285.3053071,0.052870322735535207,-4.322870322735535,8.687221936413211,0.4566666666666666,0.2911111111111111,-0.5966666666666667,-0.017362897417429773,-0.044560482902904965,0.0
1590515285.3153071,0.0636471622646714,-4.3081170264119715,8.715411350941315,0.4566666666666666,0.2911111111111111,-0.5966666666666667,0.2955895283083925,-0.045589528308392524,0.0
1590515285.3253071,0.07,-4.273815587431182,8.70907793715591,0.4528510792354843,0.2898392486340503,-0.5981505062232376,0.2796103142204412,-0.1011525785551103,0.011923710722444853
1590515285.3353071,0.05756816236703754,-4.298287891755308,8.785856054122345,0.43666666666666665,0.28444444444444444,-0.6044444444444445,-0.021401353058646128,-0.051799323470676936,0.010700676529323064
1590515285.345307,0.055015350794071945,-4.31,8.719938596823711,0.43666666666666665,0.28444444444444444,-0.6044444444444445,0.21884594246294964,-0.25012792328393285,-0.031218019179016794
1590515285.355307,0.07,-4.304920357420357,8.665079642579643,0.43666666666666665,0.28444444444444444,-0.6044444444444445,0.34424776612276614,-0.3115044677544678,-0.06349553224553224
1590515285.365307,0.07706401766004416,-4.296467991169978,8.68766004415011,0.43666666666666665,0.28444444444444444,-0.6044444444444445,0.33084988962472406,-0.20584988962472406,-0.125
1590515285.375307,0.08648258598171528,-4.29,8.716482585981716,0.4409657282445702,0.28444444444444444,-0.6044444444444445,0.16206464954288202,-0.08103232477144101,-0.05904848715716152
1590515285.385307,0.08486674669867947,-4.299733493397358,8.71486674669868,0.4488888888888889,0.28444444444444444,-0.6044444444444445,-0.060834333733493395,0.060834333733493395,0.0016656662665066047
1590515285.395307,0.07640851480988727,-4.296408514809887,8.69961277221483,0.4488888888888889,0.28444444444444444,-0.6044444444444445,-0.1674733912191023,0.1674733912191023,-0.020026608780897702
1590515285.405307,0.05005631214363131,-4.29,8.703295791904246,0.4488888888888889,0.28444444444444444,-0.6044444444444445,-0.1044013005984638,0.06285195089769569,0.0415493497007681
1590515285.415307,0.04529001965911477,-4.29,8.72058003931823,0.4488888888888889,0.28444444444444444,-0.6044444444444445,-0.029437377130532703,-0.0330626228694673,0.0625
1590515285.425307,0.05711779861898382,-4.286441100690508,8.737117798618984,0.45165692168516036,0.28681704398410574,-0.5965357793122402,-0.022243120684324436,-0.040256879315675564,0.040256879315675564
1590515285.435307,0.07415914747977598,-4.284159147479776,8.733363410080896,0.4566666666666666,0.2911111111111111,-0.5822222222222222,-0.14048401524579962,0.025994671748599877,-0.025994671748599877
1590515285.445307,0.07591748544395925,-4.29,8.681422398107715,0.4566666666666666,0.2911111111111111,-0.5822222222222222,-0.2755157159752547,0.1390471479257642,0.014047147925764197
1590515285.455307,0.07,-4.29,8.64820253164557,0.4566666666666666,0.2911111111111111,-0.5822222222222222,-0.34179475587703434,0.2719710669077758,0.13232368896925858
1590515285.465307,0.07323334682314853,-4.29,8.719700040469446,0.4566666666666666,0.2911111111111111,-0.5822222222222222,-0.5827084176446783,0.4981252529340348,0.1875
1590515285.475307,0.08005058961844028,-4.29,8.74010117923688,0.456593592773364,0.2911111111111111,-0.5822615697032313,-0.6240514446542449,0.625,0.1865514446542449
1590515285.485307,0.08136094674556213,-4.295759368836292,8.768639053254438,0.44222222222222224,0.2911111111111111,-0.59,-0.4015039447731755,0.4990138067061144,0.01799802761341223
1590515285.495307,0.057031167243837846,-4.318906498268486,8.760311672438378,0.44222222222222224,0.2911111111111111,-0.59,-0.20116877164391933,0.09472397636993278,0.0625
1590515285.505307,0.054305773591487874,-4.322776905634048,8.698611547182976,0.44222222222222224,0.2911111111111111,-0.59,0.08941108494679922,-0.2595554247339962,0.08941108494679922
1590515285.515307,0.07238577327827361,-4.302477154655654,8.707522845344347,0.44222222222222224,0.2911111111111111,-0.59,0.07855335020647396,-0.40653556680431596,0.09403556680431598
1590515285.525307,0.10702205323193917,-4.307022053231939,8.70297794676806,0.446523700887199,0.2970670046472328,-0.59,-0.08111216730038023,-0.1822148288973384,0.03722433460076046
1590515285.535307,0.08881407151989462,-4.296271357173298,8.713728642826702,0.4566666666666666,0.3111111111111111,-0.59,-0.1949120530006586,0.1949120530006586,0.125
1590515285.545307,0.06401857872735718,-4.295981421272643,8.666167208546215,0.4566666666666666,0.3111111111111111,-0.59,-0.3872677659080353,0.3872677659080353,0.08761611704598235
1590515285.555307,0.04831776587169883,-4.30584111706415,8.659205585320754,0.4566666666666666,0.3111111111111111,-0.59,-0.5105139633018823,0.40099301834905887,0.1720209449528235
1590515285.565307,0.04,-4.305330411651005,8.71268711844296,0.4566666666666666,0.3111111111111111,-0.59,-0.5041301456375711,0.316630145637571,0.1332602912751421
1590515285.575307,0.048786754388700074,-4.3087867543887,8.7587867543887,0.4566666666666666,0.29939543859284434,-0.5836540107192721,-0.24528974774718593,0.16762417760593684,0.027458607464687725
1590515285.585307,0.06,-4.300801986940672,8.77,0.4566666666666666,0.28444444444444444,-0.5755555555555556,0.0,-0.05748758162079877,0.0625
1590515285.5953069,0.06902233138533638,-4.289022331385336,8.72037717738065,0.4566666666666666,0.28444444444444444,-0.5755555555555556,0.028194785579176197,-0.1875,0.0625
1590515285.6053069,0.08499433999955608,-4.3,8.655005660000445,0.4566666666666666,0.28444444444444444,-0.5755555555555556,7.075000554902094e-05,-0.24992924999445099,0.03128537500277451
1590515285.6153069,0.08588790397828484,-4.283551615913139,8.666448384086861,0.4566666666666666,0.28444444444444444,-0.5755555555555556,-0.16530240054287898,-0.15829639918568156,0.02570060013571974
1590515285.6253068,0.07087076903264579,-4.278258461934708,8.72043076989118,0.45058051268843047,0.28647316243718984,-0.5819798291992493,-0.33151923118198795,0.043480768818012064,0.0625
1590515285.6353068,0.04530703698232137,-4.315307036982322,8.775921110946964,0.43666666666666665,0.2911111111111111,-0.5966666666666667,-0.3163379622790171,-0.014665509430245728,0.10649652829073719
1590515285.6453068,0.022732809101555965,-4.3,8.71183202275389,0.43666666666666665,0.2911111111111111,-0.5966666666666667,-0.10229002844236239,-0.0625,0.2954199431152752
1590515285.6553068,0.01,-4.303810862046029,8.699054310230146,0.43666666666666665,0.2911111111111111,-0.5966666666666667,-0.11013577557536251,-0.13395366336304376,0.5655431023014501
1590515285.6653068,0.011330666741781922,-4.3086693332582175,8.726007999774655,0.43666666666666665,0.2911111111111111,-0.5966666666666667,-0.17918333286386298,-0.23336666572772596,0.9997500070420552
1590515285.6753068,0.03433345456879399,-4.2976110909052005,8.707166727284397,0.43958644444919875,0.29270371717431043,-0.600117313136932,-0.15486136368498749,-0.06527727263002503,1.9020840910549626
1590515285.6853068,0.09475896168108777,-4.29,8.73245982694685,0.4488888888888889,0.2977777777777777,-0.6111111111111112,-0.3268695920889988,0.14037391841779975,2.126004326328801
1590515285.6953068,0.13566219144161573,-4.29,8.696621914416157,0.4488888888888889,0.2977777777777777,-0.6111111111111112,-0.6709452139596069,0.4315017314091155,1.7748321790605897
1590515285.7053068,0.11606678576336403,-4.296966607118318,8.671349732032432,0.4488888888888889,0.2977777777777777,-0.6111111111111112,-0.7907293527552562,0.7282293527552562,1.257710938573588
1590515285.7153068,0.0796852546815773,-4.313438248439474,8.743752993757898,0.4488888888888889,0.2977777777777777,-0.6111111111111112,-0.771489052746714,0.6875,0.5155875780262885
1590515285.7253067,0.05200268516446632,-4.32,8.777997314835533,0.44711170781432585,0.2942234156286516,-0.6093339300365481,-0.7625167822779145,0.7041610725740285,0.2041610725740285
1590515285.7353067,0.02530941401890805,-4.315309414018908,8.804690585981092,0.44222222222222224,0.28444444444444444,-0.6044444444444445,-0.5663676752363506,0.6034191880908766,0.3086323247636494
1590515285.7453067,0.00796156798771711,-4.31,8.745795029267825,0.44222222222222224,0.28444444444444444,-0.6044444444444445,-0.575240200076768,0.41241993330774396,0.5505604668457922
1590515285.7553067,-0.017273895169578623,-4.30636305241521,8.668184737923946,0.44222222222222224,0.28444444444444444,-0.6044444444444445,-0.7102309224049332,0.4431927672147996,1.1307329136690647
1590515285.7653067,-0.016693774101256373,-4.298099110585894,8.701900889414105,0.44222222222222224,0.28444444444444444,-0.6044444444444445,-0.7143583234855082,0.4436944116183605,1.7944250295434756
1590515285.7753067,0.028958825724592623,-4.291577310610773,8.708422689389229,0.44222222222222224,0.28444444444444444,-0.6044444444444445,-0.5920745739519842,0.036081913173280245,2.1612762781440478
1590515285.7853067,0.0487603734439834,-4.262304921622868,8.695647475795298,0.4566666666666666,0.2911111111111111,-0.59,-1.9949501498386355,-0.20839096357768555,2.8789602783540804
1590515285.7953067,0.15064968152866243,-4.397388535031847,8.927821656050956,0.4566666666666666,0.2911111111111111,-0.59,-3.347770700636943,-0.42794585987261147,3.7255573248407643
1590515285.8053067,-0.010462224509047255,-4.26194494468742,8.758426378526714,0.4566666666666666,0.2911111111111111,-0.59,-1.726564509904811,0.5642365577566246,4.153645163365063
1590515285.8153067,-0.5383770708107316,-3.8739785955138544,8.493613253188682,0.4566666666666666,0.2911111111111111,-0.59,-0.6528185016859698,-0.1531465327664565,5.09621023310365
1590515285.8253067,-0.5457414702139265,-3.3309272165323316,8.997901945336647,0.45090539967274706,0.28847053040556464,-0.59,-4.5505386037209865,-3.9548663717350463,12.072900884794862
1590515285.8353066,-0.24134353304191308,-2.7698470043713037,8.708061198251478,0.43,0.2788888888888889,-0.59,-5.414221200822833,-1.153807212651067,19.57759064026742
1590515285.8453066,-0.28298114842903577,-2.7954825568797403,9.019137594799567,0.43,0.2788888888888889,-0.59,-6.580525460455038,0.832310400866739,26.961557421451786
1590515285.8553066,-0.1935026306856755,-2.765371902579769,8.952830957230143,0.43,0.2788888888888889,-0.59,-3.552629624915139,-1.598797893329939,30.370463923540395
1590515285.8653066,-0.002949036740954196,-2.4773725918523857,8.510643257186679,0.43,0.2788888888888889,-0.59,-0.021949292370616602,-2.1337131951383888,34.99011177987962
1590515285.8753066,-0.08805321038038569,-2.651559861677934,8.96961307205832,0.4393510701267952,0.2761614934352403,-0.5950651629853474,-2.4748337175612947,-2.3725817003644973,42.67707132620954
1590515285.8853066,-0.15767702154753527,-2.766566468952113,8.94919004054824,0.4566666666666666,0.27111111111111114,-0.6044444444444445,-1.4507451995576557,-3.349751600147448,50.13639790891726
1590515285.8953066,-0.19,-2.8766841233012928,8.725596287703016,0.4566666666666666,0.27111111111111114,-0.6044444444444445,-0.11869199535962877,-3.9585515412661585,55.16144970169042
1590515285.9053066,-0.19672532551215394,-2.940087988268231,8.829824023463537,0.4566666666666666,0.27111111111111114,-0.6044444444444445,-1.8313169355197085,-4.940249633382216,61.992731524685595
1590515285.9153066,-0.20832223720238507,-2.96,8.781611186011924,0.4566666666666666,0.27111111111111114,-0.6044444444444445,-1.3540279650298137,-5.677846192336025,65.56582883928448
1590515285.9253066,-0.2024925292229002,-2.96,8.7524626461145,0.4566666666666666,0.27111111111111114,-0.6044444444444445,-1.2811566152862524,-6.078638615925612,67.31474123312994
1590515285.9353065,-0.23836382519773108,-3.0750914755931933,8.84550051929376,0.4566666666666666,0.26684846386691874,-0.5831312082234827,-2.0892086762003674,-5.950282615642726,70.28040864424383
1590515285.9453065,-0.26598559392887,-3.12997598988145,8.76002401011855,0.4566666666666666,0.26666666666666666,-0.5822222222222222,-1.7250600252963748,-6.150090037944563,72.3617796964435
1590515285.9553065,-0.2926890347204642,-3.1708963449068213,8.727170759254571,0.4566666666666666,0.26666666666666666,-0.5822222222222222,-1.6137956886647324,-5.966387065994197,73.63532802367924
1590515285.9653065,-0.317191790158316,-3.1790639300527723,8.792511440422176,0.4566666666666666,0.26666666666666666,-0.5822222222222222,-1.5117008743403502,-5.66010262302105,74.29894431678773
1590515285.9753065,-0.3462423393769663,-3.2110403898961613,8.892717270726873,0.46140622063806697,0.2658574745252081,-0.5822222222222222,-1.4440024368510065,-5.83200731055302,74.83850974740403
1590515285.9853065,-0.39200749240757243,-3.2186679154012623,8.839324592191165,0.49615383682797165,0.2599249546879073,-0.5822222222222222,-1.491674471257888,-5.9750234137736635,75.02919788503155
1590515285.9953065,-0.4033813885616836,-3.2077457409588774,8.798584539109338,0.5022222222222222,0.2588888888888889,-0.5822222222222222,-1.9788663214894777,-5.951589119007015,74.91636632148948
1590515286.0053065,-0.4255036129327168,-3.1929975913781887,8.658477118092794,0.5022222222222222,0.2588888888888889,-0.5822222222222222,-1.84060241917052,-6.04376505388632,74.77810241917052
1590515286.0153065,-0.4656111970092078,-3.1833667182055247,8.711122239401842,0.5022222222222222,0.2588888888888889,-0.5822222222222222,-1.4515279925230193,-5.9375,74.35395801121547
1590515286.0253065,-0.5122243571268453,-3.21,8.726673071380537,0.5028400992019015,0.2538222976555189,-0.5838287023693883,-1.5694511160213918,-5.9305488839786085,74.21530446408556
1590515286.0353065,-0.5516673211169285,-3.203809336823735,8.79238132635253,0.5077777777777778,0.21333333333333332,-0.5966666666666667,-1.5863083551483421,-5.952383289703316,74.55357493455497
1590515286.0453064,-0.6047817501800358,-3.1995635003600715,8.796091249099822,0.5077777777777778,0.21333333333333332,-0.5966666666666667,-1.5149429693126117,-6.139942969312612,74.96192969312612
1590515286.0553064,-0.6299201036493198,-3.2379360829194557,8.737856186568775,0.5077777777777778,0.21333333333333332,-0.5966666666666667,-1.6369007773698985,-6.237100518246599,75.62350194342474
1590515286.0653064,-0.676023489234101,-3.27100391487235,8.81100391487235,0.5077777777777778,0.21333333333333332,-0.5966666666666667,-1.9312255320478113,-6.4312255320478116,76.5381361667569
1590515286.0753064,-0.7284282203989838,-3.2797380367331637,8.819738036733165,0.5077777777777778,0.21333333333333332,-0.5966666666666667,-1.8766372704177252,-6.376637270417725,77.95743096913914
1590515286.0853064,-0.7387630309296114,-3.262473938140777,8.828763030929611,0.5077777777777778,0.1899652508543695,-0.5966666666666667,-1.765462113379857,-6.429768943310071,79.69783724261222
1590515286.0953064,-0.7932128312762359,-3.273212831276236,8.799116596704467,0.5077777777777778,0.18666666666666668,-0.5966666666666667,-1.792419804523526,-6.479919804523526,82.55898361631476
1590515286.1053064,-0.8114240718538539,-3.290712035926927,8.691780089817318,0.5077777777777778,0.18666666666666668,-0.5966666666666667,-1.6919502245432931,-6.38167533681494,84.5623031436061
1590515286.1153064,-0.8455164495742822,-3.307758224787141,8.734395561967853,0.5077777777777778,0.18666666666666668,-0.5966666666666667,-1.7984889049196318,-6.541483357379447,86.05384466887485
1590515286.1253064,-0.891252302600768,-3.289582565799744,8.799582565799744,0.5088909356451271,0.18522883775467372,-0.5972696271781476,-1.6354358550064005,-6.7526089637516,87.8568523837772
1590515286.1353064,-0.9408804261084202,-3.2779119573891577,8.783735872167473,0.5344444444444445,0.15222222222222226,-0.6111111111111112,-1.9141507989532878,-6.8908015979065755,89.03160319581315
1590515286.1453063,-1.018721303565132,-3.270127869643487,8.76038360893046,0.5344444444444445,0.15222222222222226,-0.6111111111111112,-2.060102444184622,-7.182704888369244,89.61540977673849
1590515286.1553063,-1.0432458709148413,-3.241622935457421,8.676491741829683,0.5344444444444445,0.15222222222222226,-0.6111111111111112,-1.864856653391121,-7.645286693217758,90.8802235855687
1590515286.1653063,-1.059622818320253,-3.2498114091601265,8.709245636640507,0.5344444444444445,0.15222222222222226,-0.6111111111111112,-1.8136786927492092,-7.747642614501581,91.85260483776503
1590515286.1753063,-1.0848546300040438,-3.2417151233319856,8.776279013344116,0.5344444444444445,0.15222222222222226,-0.6111111111111112,-1.9678414375252729,-7.75,92.3928047917509
1590515286.1853063,-1.1541180561592628,-3.1976458315222116,8.838236112318526,0.5344444444444445,0.12555555555555556,-0.6322222222222222,-1.8210792836651308,-7.823524298009215,92.7867621490046
1590515286.1953063,-1.1759956533078326,-3.132013040076502,8.881991306615665,0.5344444444444445,0.12555555555555556,-0.6322222222222222,-1.866657611057985,-7.550054333652091,92.65002716682605
1590515286.2053063,-1.2183724957115578,-3.0579025471728647,8.771627504288443,0.5344444444444445,0.12555555555555556,-0.6322222222222222,-1.603187607211056,-7.271812392788944,92.04362478557789
1590515286.2153063,-1.2115849435220247,-3.132565621257727,8.778415056477975,0.5344444444444445,0.12555555555555556,-0.6322222222222222,-1.7728764119493803,-7.1021235880506195,91.70424717610123
1590515286.2253063,-1.2876381803362815,-3.2276381803362817,8.789704772542034,0.5344444444444445,0.12555555555555556,-0.6322222222222222,-2.05511931355088,-7.0625,90.35124860385788
1590515286.2353063,-1.3155371540187848,-3.23,8.798512384672929,0.528769521329159,0.10474750413284202,-0.638842965856722,-2.0092975957941985,-7.115702404205802,89.03564229906075
1590515286.2453063,-1.3707074259434602,-3.2269407354447255,8.77858514811308,0.5277777777777778,0.10111111111111112,-0.64,-1.7308795965295356,-6.980879596529536,86.83819394794304
1590515286.2553062,-1.4274408223995672,-3.2107311936001235,8.665118355200866,0.5277777777777778,0.10111111111111112,-0.64,-1.629569960000773,-6.879569960000773,85.31854940001159
1590515286.2653062,-1.4580541890562324,-3.1649661318398548,8.735033868160146,0.5277777777777778,0.10111111111111112,-0.64,-1.5750846704003634,-6.681207664799818,83.354852938394
1590515286.2753062,-1.5215416635132066,-3.125286460304246,8.774713539695753,0.5277777777777778,0.10111111111111112,-0.64,-1.6742838492393854,-6.631608075380307,81.71806648755015
1590515286.2853062,-1.5946860348463445,-3.134005282230821,8.865994717769178,0.56,0.06888888888888889,-0.6533333333333333,-1.6166556620191226,-6.46662264807649,78.92457081874578
1590515286.2953062,-1.6891464488258296,-3.1597672133161354,8.840232786683865,0.56,0.06888888888888889,-0.6533333333333333,-1.5629849722580513,-6.251939889032205,76.831413918064
1590515286.3053062,-1.711998272273923,-3.1529995680684806,8.768001727726077,0.56,0.06888888888888889,-0.6533333333333333,-1.6125107982879805,-5.762516197431971,73.4906803412259
1590515286.3153062,-1.7778764675855028,-3.1694691168963756,8.702123532414497,0.56,0.06888888888888889,-0.6533333333333333,-1.2007720775906074,-5.144908116385912,71.38051939765187
1590515286.3253062,-1.7717184885950954,-3.236252091239238,8.832504182478475,0.56,0.06888888888888889,-0.6533333333333333,-1.5498161239645816,-5.642594462806545,68.87980602480924
1590515286.3353062,-1.77,-3.2312342047751286,8.781107842976157,0.5577777777777778,0.022222222222222227,-0.6677777777777778,-0.8510688992227682,-4.781644880621785,65.41138344808321
1590515286.3453062,-1.77,-3.238126263207191,8.843136368864716,0.5577777777777778,0.022222222222222227,-0.6677777777777778,-1.066445725224707,-4.6093434198202345,63.17146445766305
1590515286.3553061,-1.7520088803552143,-3.166026641065643,8.684687387495499,0.5577777777777778,0.022222222222222227,-0.6677777777777778,-1.2625555022200887,-4.4500555022200885,59.88253780151206
1590515286.3653061,-1.773580428931443,-3.230741286794329,8.735021000840034,0.5577777777777778,0.022222222222222227,-0.6677777777777778,-1.3973776808215186,-4.584877680821519,57.950086574891564
1590515286.3753061,-1.8752659660468876,-3.126154244139046,8.759526596604688,0.5577777777777778,0.022222222222222227,-0.6677777777777778,-1.2588763136620857,-4.386835084882781,54.57656224737268
1590515286.3853061,-1.9090250160359203,-3.2041681730713165,8.902294302874804,0.5577777777777778,0.01,-0.7033333333333334,-1.7135510816957258,-4.488288311271794,51.902364933815385
1590515286.395306,-2.114093260248591,-3.081208986335212,8.759930904037676,0.5577777777777778,0.01,-0.7033333333333334,-1.3707900679379295,-4.20552671195862,50.23197328804138
1590515286.405306,-2.163261886535681,-3.016738113464319,8.882823849621502,0.5577777777777778,0.01,-0.7033333333333334,-2.3423811346431913,-4.83830377647359,49.66035659607043
1590515286.415306,-2.2166727397795087,-2.9716681849448774,8.776663630110246,0.5577777777777778,0.01,-0.7033333333333334,-1.697755349606797,-4.27079537637807,51.37528467716447
1590515286.425306,-2.2478635036903456,-2.9794658759225863,8.761068248154826,0.5577777777777778,0.01,-0.7033333333333334,-0.8692506832251947,-4.07585310193534,52.83735173548495
1590515286.435306,-2.232038915792011,-3.0499513552599864,8.86796108420799,0.57,0.004444444444444445,-0.7477777777777778,-1.5755472533251529,-4.1875,54.07372307557464
1590515286.445306,-2.1849111017779648,-3.100059265481357,8.887425918148304,0.57,0.004444444444444445,-0.7477777777777778,-1.1092823976853796,-4.163923596528069,55.16429400578655
1590515286.455306,-2.0939458044137815,-3.153265034703462,8.79070279705748,0.57,0.004444444444444445,-0.7477777777777778,-0.982567744482773,-3.9477032334483186,55.367770977931094
1590515286.465306,-2.224685382984913,-2.9963775404181043,8.703543078010057,0.57,0.004444444444444445,-0.7477777777777778,-0.8191432712688583,-3.457429813806575,54.714073085075434
1590515286.475306,-2.123625308424392,-2.9102189813182937,8.620218981318294,0.57,0.004444444444444445,-0.7477777777777778,-0.5354825740218541,-2.551044236869933,53.13620241452238
1590515286.485306,-2.2144771033013844,-2.9348257011004613,8.670944976925806,0.5467828659330257,0.004444444444444445,-0.785505620636611,-0.010263578274760432,-2.9816515796947107,50.8697239971601
1590515286.495306,-2.265211498735448,-2.9470422997470895,8.912395891653956,0.5433333333333333,0.004444444444444445,-0.7911111111111111,-2.1822330443848097,-3.76672997470896,48.58185319613105
1590515286.505306,-2.320951530405131,-3.008287245270764,8.682093366891289,0.5433333333333333,0.004444444444444445,-0.7911111111111111,-1.6321364780384835,-4.049416456929447,47.878568239019245
1590515286.515306,-2.3550044653730615,-2.946991962328489,8.757009823820734,0.5433333333333333,0.004444444444444445,-0.7911111111111111,-1.8875334902979621,-3.581188601120403,48.006266745148984
1590515286.525306,-2.338176518438178,-2.975691092733189,8.885470444685467,0.5433333333333333,0.004444444444444445,-0.7911111111111111,-2.546966089343818,-4.071138659164859,47.96305162011931
1590515286.535306,-2.351252277918945,-2.999284412617746,8.887853237853239,0.44222222222222224,-0.04,-0.8044444444444444,-1.6138189471522806,-3.4229646312979645,47.5970473678807
1590515286.545306,-2.422598117971081,-2.9593504705072298,8.762855175579526,0.44222222222222224,-0.04,-0.8044444444444444,-1.0365360339683267,-2.6006426440211152,45.904177186137254
1590515286.555306,-2.452218357726735,-2.9519454105683165,8.681399516251478,0.44222222222222224,-0.04,-0.8044444444444444,-1.4530706555322117,-2.322952896311859,44.09919382602708
1590515286.565306,-2.414995797356155,-2.8904995797356157,8.782497898678077,0.44222222222222224,-0.04,-0.8044444444444444,-2.5531328799572095,-3.025031519828838,40.64701421257737
1590515286.575306,-2.47909452128066,-2.896909452128066,8.81454726064033,0.44222222222222224,-0.04,-0.8044444444444444,-2.4329477725987623,-2.5442910903950486,38.52374398257813
1590515286.585306,-2.5386411287664004,-2.835557460275598,8.8443205643832,0.4191502018270661,-0.08455286696995672,-0.7742121418576882,-2.106489417814993,-1.9097341267224897,35.57567416100745
1590515286.595306,-2.501586843743515,-2.8722454866154803,8.877664660717992,0.41,-0.10222222222222224,-0.7622222222222222,-2.086452064743723,-1.6635479352562772,32.82410251089438
1590515286.605306,-2.54,-2.8342559670413325,8.742708342662667,0.41,-0.10222222222222224,-0.7622222222222222,-1.6826636738166674,-0.8004091845416685,28.640810420491693
1590515286.615306,-2.54,-2.937559222605347,8.808446778021585,0.41,-0.10222222222222224,-0.7622222222222222,-1.5652736106757423,-0.5069340266893556,24.47346317898885
1590515286.625306,-2.548521901987306,-2.9144342940380814,8.801478098012694,0.41,-0.10222222222222224,-0.7622222222222222,-2.095118874206638,0.19240453646862965,20.167310893767556
1590515286.635306,-2.6028783361556993,-2.92,8.8228783361557,0.4511111111111111,-0.1511111111111111,-0.72,-1.7230155985403202,0.03148180170295991,15.771096190998641
1590515286.6453059,-2.64209557807462,-2.9206985260248732,8.85161768770152,0.4511111111111111,-0.1511111111111111,-0.72,-1.34880527406725,0.4418657876554583,13.515855308613542
1590515286.6553059,-2.6695296962369652,-2.9295296962369655,8.74,0.4511111111111111,-0.1511111111111111,-0.72,-0.9911818044431011,0.5029393985189663,12.008121127399123
1590515286.6653059,-2.656852350007556,-2.9168523500075563,8.74,0.4511111111111111,-0.1511111111111111,-0.72,-0.7534815626416805,0.5821728124527732,10.542302969623696
1590515286.6753058,-2.7146542662243265,-2.859713348492191,8.819021880940843,0.4511111111111111,-0.1511111111111111,-0.72,-0.625,0.8045951839564618,7.639756588511574
1590515286.6853058,-2.743082025631668,-2.8888470042719447,8.869623038447504,0.4533333333333333,-0.17777777777777778,-0.7477777777777778,-0.13705643689758068,0.9807373398020737,3.2767452718802996
1590515286.6953058,-2.690245293782088,-2.880245293782088,8.789018824871647,0.4533333333333333,-0.17777777777777778,-0.7477777777777778,0.2507665430690245,1.3117334569309755,0.07440815744438106
1590515286.7053058,-2.7043196537028957,-2.8943196537028957,8.732721385188416,0.4533333333333333,-0.17777777777777778,-0.7477777777777778,0.2947489178215496,1.2677510821784503,-2.8284285762222745
1590515286.7153058,-2.71,-2.9296515073689204,8.7594191789482,0.4533333333333333,-0.17777777777777778,-0.7477777777777778,0.18895205262949938,1.4353219210557508,-8.694822000079023
1590515286.7253058,-2.7220089961506857,-2.960022490376714,8.784017992301372,0.4533333333333333,-0.17777777777777778,-0.7477777777777778,0.45019679079624586,1.7001967907962459,-11.41449602093335
1590515286.7353058,-2.7035343352429138,-2.995879398854252,8.826465664757087,0.42569141680926514,-0.2095365754862816,-0.7213121130206913,0.5588358381072837,2.040410404731791,-15.17242485678149
1590515286.7453058,-2.698701912332791,-3.0474038246655812,8.85,0.4011111111111111,-0.23777777777777775,-0.6977777777777778,0.6168869520799413,2.538160856239824,-19.216795565558854
1590515286.7553058,-2.4628321923224656,-3.413616439594207,8.818976027474639,0.4011111111111111,-0.23777777777777775,-0.6977777777777778,0.7979987121263472,2.9069991414175647,-20.70499785354391
1590515286.7653058,-2.330158159922276,-3.110361508393773,8.800022594274612,0.4011111111111111,-0.23777777777777775,-0.6977777777777778,1.6864408933776183,3.499293928918412,-22.18573482229603
1590515286.7753057,-2.2861788702928867,-3.1187642259414226,8.475723640167363,0.4011111111111111,-0.23777777777777775,-0.6977777777777778,2.6186990062761506,4.4859754184100415,-20.982418933054394
1590515286.7853057,-2.361295324036095,-3.3343240360951603,8.96211484823626,0.42246139823170176,-0.22463913954972198,-0.6649311822076384,0.8561884741591468,2.5002358490566037,-17.948687448728467
1590515286.7953057,-2.3852653798534575,-3.081238912906696,8.595884836306805,0.43,-0.22,-0.6533333333333333,0.8047567943331506,1.8575777872495889,-11.63385191499726
1590515286.8053057,-2.529987416022245,-3.1152911567111166,8.757632994377802,0.43,-0.22,-0.6533333333333333,0.5919302705555217,1.3787181087499238,-8.441454058332827
1590515286.8153057,-2.55,-3.1289970626306878,8.762005874738623,0.43,-0.22,-0.6533333333333333,-0.9557543189286071,-0.37444924325400786,-6.931598812605795
1590515286.8253057,-2.4005557745368544,-2.9176318901313194,8.76,0.43,-0.22,-0.6533333333333333,-0.6334071530817584,0.027411416301890035,-7.254933562226418
1590515286.8353057,-2.373133148952983,-2.793374160410905,8.725061240616357,0.4655555555555556,-0.19333333333333333,-0.6322222222222222,0.8019557487159226,1.128012643224022,-10.500024693796918
1590515286.8453057,-2.5,-2.93,8.93,0.4655555555555556,-0.19333333333333333,-0.6322222222222222,0.375,1.25,-15.5625
1590515286.8553057,-2.513152483324128,-2.908079194459787,8.81601181119089,0.4655555555555556,-0.19333333333333333,-0.6322222222222222,0.18319295152313378,1.3048020138505332,-18.439605727152994
1590515286.8653057,-2.60648480479569,-2.915300679136472,8.770018590886671,0.4655555555555556,-0.19333333333333333,-0.6322222222222222,0.1949007853701104,1.7427154076715863,-26.206641025154607
1590515286.8753057,-2.6651220677385346,-2.960488270954138,8.82975586452293,0.4655555555555556,-0.19333333333333333,-0.6322222222222222,0.3109741532683184,2.2881163102925672,-32.391844030047444
1590515286.8853056,-2.7268795337330705,-3.0006834668120255,8.861366933624051,0.47532274821678994,-0.15943542939140237,-0.6247531925401019,0.5731791689379009,3.0795866703006416,-37.92170793324668
1590515286.8953056,-2.6755350398657156,-3.0838396978598404,8.801338648762066,0.4844444444444445,-0.12777777777777774,-0.6177777777777778,1.0563627780109106,3.8889530004196393,-41.39453944607637
1590515286.9053056,-2.3868198824158204,-3.442156600748263,8.806135756280064,0.4844444444444445,-0.12777777777777774,-0.6177777777777778,1.4254242383752005,3.98224545697488,-43.21661210582576
1590515286.9153056,-2.251415944082819,-3.4114048951552856,8.57280979031057,0.4844444444444445,-0.12777777777777774,-0.6177777777777778,3.000276223188336,5.384194929503039,-43.821487762111786
1590515286.9253056,-2.36308656607558,-3.316148060354652,8.644880795003875,0.4844444444444445,-0.12777777777777774,-0.6177777777777778,3.6090024843871085,5.471141792405525,-43.66985572320737
1590515286.9353056,-2.47514638881947,-3.3327486110844116,8.846842499855821,0.4895386728353529,-0.12268354938686932,-0.6177777777777778,1.7635190987908265,3.9228767373459696,-44.11622916626617
1590515286.9453056,-2.4045561703151312,-3.3981015957020286,8.930379680859595,0.4922222222222222,-0.12,-0.6177777777777778,-0.27215890866811,1.9825871020768182,-44.79588896239275
1590515286.9553056,-2.230358916281906,-3.524998693265964,8.688931091558498,0.4922222222222222,-0.12,-0.6177777777777778,1.2499836658245491,3.6673926300200366,-43.9196521909574
1590515286.9653056,-2.1226259646472987,-3.286615297477167,8.555151157576757,0.4922222222222222,-0.12,-0.6177777777777778,3.403415795435773,4.8579578977178866,-45.66919825124489
1590515286.9753056,-2.4590033381020504,-3.1845618741058654,8.823565212207916,0.4922222222222222,-0.12,-0.6177777777777778,2.324205710538865,4.500125427197584,-51.57244972977269
1590515286.9853055,-2.5807420657061275,-3.2340634743509797,9.263285634579407,0.5097094314439813,-0.06445239423676523,-0.6177777777777778,-2.295708342905904,1.2458092651547474,-60.34164027372083
1590515286.9953055,-2.5128869989610765,-3.364638430500858,8.88732199376646,0.5111111111111111,-0.06,-0.6177777777777778,-0.048340138684191736,3.3968928942472636,-62.972281282466355
1590515287.0053055,-2.506533937933966,-3.37,8.78681451041519,0.5111111111111111,-0.06,-0.6177777777777778,1.6222279297151763,4.474829956071986,-63.647397973643194
1590515287.0153055,-2.456675630947456,-3.449983450558544,8.713316094331818,0.5111111111111111,-0.06,-0.6177777777777778,3.8126551510136535,5.937577575506826,-65.33321266032272
1590515287.0253055,-2.3861634579288893,-3.5372644393199977,8.892122593446668,0.5111111111111111,-0.06,-0.6177777777777778,2.110456775888883,5.212755403013889,-66.37372298493055
1590515287.0353055,-2.432972127959736,-3.384055744080528,8.821393220726732,0.513663569773304,-0.05197798706167944,-0.6225180581504217,2.325270713386968,5.455108285354787,-65.44911017272277
1590515287.0453055,-2.4388234298290166,-3.3403269190978686,8.681176570170985,0.5188888888888888,-0.03555555555555556,-0.6322222222222222,2.5457496285010253,5.446077394052255,-62.22180957620902
1590515287.0553055,-2.362863208035622,-3.3457264160712437,8.698340409374893,0.5188888888888888,-0.03555555555555556,-0.6322222222222222,1.223290100445273,4.315615184149667,-58.74585792689241
1590515287.0653055,-2.3025685129661775,-3.334862974067645,8.7217208458261,0.5188888888888888,-0.03555555555555556,-0.6322222222222222,1.1553935879227817,3.8625318894324336,-53.99968110567566
1590515287.0753055,-2.2371971130572548,-3.399602165207059,8.736799278264314,0.5188888888888888,-0.03555555555555556,-0.6322222222222222,1.5187612771200987,4.123756766272059,-49.73734212031862
1590515287.0853055,-2.2046183066547496,-3.4146183066547495,8.740763386690501,0.5218787185251392,-0.021204373301553774,-0.6322222222222222,1.9277202506703501,4.08659324977655,-46.60185641301698
1590515287.0953054,-2.1924562092530047,-3.4477189537349777,8.863156861204933,0.5244444444444445,-0.008888888888888889,-0.6322222222222222,1.2445261566255597,3.6228104626502238,-43.91448531144451
1590515287.1053054,-2.158339062742576,-3.3571019539133715,8.765441016655947,0.5244444444444445,-0.008888888888888889,-0.6322222222222222,0.5912084987469227,2.906357426423296,-42.11483399498769
1590515287.1153054,-2.1255211493618837,-3.370798084396861,8.746319233758744,0.5244444444444445,-0.008888888888888889,-0.6322222222222222,1.5199521099215205,3.4129688714489883,-40.57705507359025
1590515287.1253054,-2.1063789167060305,-3.414052708234924,8.838537041410802,0.5244444444444445,-0.008888888888888889,-0.6322222222222222,1.1115117205951819,3.2219729176507634,-40.099670573531725
1590515287.1353054,-2.1,-3.444234438514504,8.844413903713741,0.5378880808192535,0.0006007367874469611,-0.6219417944061917,1.0349131017891215,3.0625,-39.86655213892653
1590515287.1453054,-2.079890257130096,-3.476812990493205,8.823296752376699,0.5433333333333333,0.004444444444444445,-0.6177777777777778,1.3763717858737956,3.146290595291265,-40.10576708351943
1590515287.1553054,-2.014082474226804,-3.4620412371134024,8.722144329896906,0.5433333333333333,0.004444444444444445,-0.6177777777777778,1.0631443298969072,3.2311855670103093,-40.90528350515464
1590515287.1653054,-1.966992871843783,-3.4269928718437828,8.641654786406306,0.5433333333333333,0.004444444444444445,-0.6177777777777778,1.3543151699211886,3.6334521359369507,-42.09819882285026
1590515287.1753054,-1.9650088962513037,-3.4750978587643413,8.690106755015645,0.5433333333333333,0.004444444444444445,-0.6177777777777778,1.5,3.7813056015706485,-43.09502883612492
1590515287.1853054,-1.9769402516883787,-3.550820755065136,8.784701258441894,0.5421766247186035,0.0017454576767415835,-0.6254891685426431,1.4132468538952652,3.7691234269476324,-44.658343174521164
1590515287.1953053,-1.9603702346041056,-3.604814882697947,8.82777767595308,0.54,-0.0033333333333333327,-0.64,1.25,3.6875,-46.25
1590515287.2053053,-1.8906235333556822,-3.557220918538384,8.707844451894067,0.54,-0.0033333333333333327,-0.64,1.3324673147837747,3.8524346295675493,-47.19837412001341
1590515287.2153053,-1.8923377182313206,-3.590055762429595,8.677718044198276,0.54,-0.0033333333333333327,-0.64,1.201762223760783,3.9375,-47.62975407458693
1590515287.2253053,-1.9067515642901207,-3.6522505214300405,8.7293736964249,0.54,-0.0033333333333333327,-0.64,1.0484342410622485,4.010151361593373,-47.320328794688756
1590515287.2353053,-1.87,-3.662395888636412,8.782395888636412,0.5479629826262798,-0.011794002373755608,-0.6335300766161477,1.097005139204485,3.9850256960224257,-46.48958222727176
1590515287.2453053,-1.87,-3.7037566320148385,8.858148212051935,0.5577777777777778,-0.022222222222222227,-0.6255555555555555,1.1914684251391106,3.8984789500927404,-44.90575259888712
1590515287.2553053,-1.8195804748914466,-3.676386983260964,8.762354441413375,0.5577777777777778,-0.022222222222222227,-0.6255555555555555,1.3200271182063243,3.7974457635873513,-43.49213390421462
1590515287.2653053,-1.78,-3.6443497482028215,8.686950755391534,0.5577777777777778,-0.022222222222222227,-0.6255555555555555,1.1631155576058125,3.7228140737323647,-41.549321493099605
1590515287.2753053,-1.7633853498001917,-3.6289235665334614,8.733229300399616,0.5577777777777778,-0.022222222222222227,-0.6255555555555555,1.0,3.5077030179194617,-39.34428738043144
1590515287.2853053,-1.7567135803429104,-3.693849383772015,8.739859258971268,0.5533020575491708,-0.09383374587993383,-0.6061607678982587,0.7482407371408577,3.3125,-36.29842589712686
1590515287.2953053,-1.7461402528607197,-3.7507896207089204,8.757719494278561,0.5511111111111111,-0.1288888888888889,-0.5966666666666667,0.754935129430753,3.139253160758996,-33.1036027996772
1590515287.3053052,-1.7069592140227698,-3.7269592140227696,8.723742899631878,0.5511111111111111,-0.1288888888888889,-0.5966666666666667,0.7298980350569249,2.773393122699237,-29.93604792900851
1590515287.3153052,-1.668387755888816,-3.699193877944408,8.705403061027797,0.5511111111111111,-0.1288888888888889,-0.5966666666666667,0.7888073942711746,2.625,-27.29288908593238
1590515287.3253052,-1.6327922324926776,-3.7106493210087867,8.723766214005858,0.5511111111111111,-0.1288888888888889,-0.5966666666666667,0.8319805812316938,2.560470871847541,-25.16112133401803
1590515287.3353052,-1.583277292086976,-3.75,8.760033624747814,0.5789822909661511,-0.2325696779496376,-0.5193705945353558,0.6454830755436001,2.3329830755436003,-22.91449506837032
1590515287.3453052,-1.556460056738265,-3.8146005673826497,8.75415977304694,0.6344444444444445,-0.4388888888888889,-0.3655555555555556,0.5586260638424678,2.0442492907716883,-20.736742198488567
1590515287.3553052,-1.5467672771672771,-3.8566163614163615,8.720150915750917,0.6344444444444445,-0.4388888888888889,-0.3655555555555556,0.5836477411477412,1.9586477411477412,-19.5470115995116
1590515287.3653052,-1.4809606221973095,-3.879679792600897,8.723119861733931,0.6344444444444445,-0.4388888888888889,-0.3655555555555556,0.6444991358370703,1.896500432081465,-19.26949913583707
1590515287.3753052,-1.4162719986780137,-3.828165330909692,8.718757332892672,0.6344444444444445,-0.4388888888888889,-0.3655555555555556,0.6875,1.980400004131207,-19.734100016524827
1590515287.3853052,-1.373672425327614,-3.7759181063319036,8.71,0.8222115531768832,-0.3762998526447427,-0.009070175208461817,0.6875,2.139035506276809,-20.700295885640077
1590515287.3953052,-1.333592934425663,-3.7617964672128315,8.771526495903764,1.0944444444444446,-0.2855555555555556,0.5077777777777778,0.8669522797193128,2.403816239759411,-22.31717307891735
1590515287.4053051,-1.2962773937343728,-3.772871010442712,8.818832181203117,1.0944444444444446,-0.2855555555555556,0.5077777777777778,0.6961685541991469,2.482056184733049,-24.45605052213561
1590515287.4153051,-1.2510120481927711,-3.8144939759036145,8.765168674698796,1.0944444444444446,-0.2855555555555556,0.5077777777777778,0.45926204819277106,2.5238704819277107,-27.020331325301203
1590515287.4253051,-1.2029992482095517,-3.8186661654730347,8.725998496419104,1.0944444444444446,-0.2855555555555556,0.5077777777777778,0.8916729315870692,2.9270911644838367,-29.90632048035453
1590515287.435305,-1.1372830697399139,-3.842948081412554,8.746127313977574,1.068818158901347,0.1273937314817859,-0.0984669202132129,0.7940744911715385,2.8977595929372306,-33.43136569887877
1590515287.445305,-1.116926806792751,-3.922341261134758,8.700731932072491,1.0555555555555556,0.3411111111111111,-0.4122222222222222,1.2070105094563166,3.2887179670016238,-37.265845089736274
1590515287.455305,-1.0938641094608819,-3.9565339726347797,8.722271781078236,1.0555555555555556,0.3411111111111111,-0.4122222222222222,1.3558253420652555,3.9083732896737224,-41.091926382879194
1590515287.465305,-1.061037913918859,-3.9410379139188594,8.642548178873534,1.0555555555555556,0.3411111111111111,-0.4122222222222222,1.391508692004754,3.966982615990492,-45.146791182159255
1590515287.475305,-1.0460641083521445,-3.93,8.678397291196388,1.0555555555555556,0.3411111111111111,-0.4122222222222222,1.068510158013544,3.9979966139954852,-48.45865124153499
1590515287.485305,-1.036926091825308,-3.924620660694289,8.820778275475924,1.0320743125544358,0.33248709095433615,-0.42870178549209903,0.6008626119820829,4.2403327967525195,-51.53331466965285
1590515287.495305,-1.0319758716231817,-3.840814477026091,8.71,0.75,0.2288888888888889,-0.6266666666666667,1.6126508023551143,4.994909518586931,-58.685237964673284
1590515287.505305,-0.9040391286548447,-3.569808881515158,8.34827088405766,0.75,0.2288888888888889,-0.6266666666666667,4.236766337721661,7.957919458749004,-62.635806974639635
1590515287.515305,-0.8456565604703103,-3.5867676430570175,7.832121274356275,0.75,0.2288888888888889,-0.6266666666666667,5.371527866916541,8.302083600749622,-67.5454538161374
1590515287.525305,-0.9416294628900144,-3.8315975739385983,8.744505721253049,0.75,0.2288888888888889,-0.6266666666666667,-2.236228349903082,3.481026855499281,-74.33636591008566
1590515287.535305,-0.9868250060052847,-3.8433833773720876,9.440950036031708,0.6992518749833186,0.21620185763471855,-0.6393536979208371,-3.1632311434061977,3.5268736488109536,-78.43619760389143
1590515287.545305,-0.9071664912016845,-3.767125131598737,8.947290570010528,0.6344444444444445,0.2,-0.6555555555555556,3.454950932471048,7.607032072492104,-80.9487892916228
1590515287.555305,-0.85,-3.7964298848798577,8.684990805840995,0.6344444444444445,0.2,-0.6555555555555556,2.34544058564475,7.366120682994669,-84.44474619485436
1590515287.565305,-0.85,-3.792182370137171,8.795127051945132,0.6344444444444445,0.2,-0.6555555555555556,0.5129862828873397,7.039331290757814,-87.48411850685855
1590515287.575305,-0.814266596607609,-3.822853319321522,8.719253214232936,0.6344444444444445,0.2,-0.6555555555555556,2.6651666228797555,7.870499868639267,-90.3353352161705
1590515287.585305,-0.7463153745072273,-3.812456416995182,8.635792378449409,0.6280304667348031,0.20095527327590404,-0.6573296344965202,2.5559132720105127,7.788381515549715,-92.31581800262812
1590515287.595305,-0.7253555370931483,-3.846066611279445,8.750378017789073,0.5822222222222222,0.20777777777777776,-0.67,1.9955557863356466,8.229860534160883,-95.16263531179747
1590515287.605305,-0.7242080808080807,-3.86,8.724751515151516,0.5822222222222222,0.20777777777777776,-0.67,2.0822979797979797,8.483598484848486,-97.07608585858586
1590515287.615305,-0.6693288343968196,-3.826219222931213,8.716219222931214,0.5822222222222222,0.20777777777777776,-0.67,2.451412320849898,8.48332630374503,-98.15558601710487
1590515287.625305,-0.5876715083798882,-3.8046569832402235,8.686437988826816,0.5822222222222222,0.20777777777777776,-0.67,2.735446927374302,8.38784217877095,-98.79194832402234
1590515287.635305,-0.5290516099380898,-3.9,8.771896780123821,0.5660023850934662,0.22318662305009596,-0.6732439674257512,2.186599394414556,8.619973167698506,-99.59716402173619
1590515287.645305,-0.4897758719894786,-3.8898879359947394,8.779663807984218,0.5377777777777778,0.25,-0.6788888888888889,2.066002000164397,8.81109919993424,-100.06460120009864
1590515287.655305,-0.3902284052166035,-3.8686040578880863,8.693020289440431,0.5377777777777778,0.25,-0.6788888888888889,2.268163042700808,8.65188768090027,-100.03632608540161
1590515287.665305,-0.31814474924351405,-3.9370591299171585,8.673710501512971,0.5377777777777778,0.25,-0.6788888888888889,2.44683361029813,8.662047658614018,-99.57861873108786
1590515287.675305,-0.2518298595284465,-3.947694443293416,8.753458335059877,0.5377777777777778,0.25,-0.6788888888888889,2.658051216177019,8.588346351468942,-98.97838540587577
1590515287.6853049,-0.22417805200528867,-3.946267078007933,8.876489643014544,0.5230023015523236,0.2553729004456197,-0.686276627001616,2.347496143675628,8.386665381225209,-98.09610511238431
1590515287.6953049,-0.16047765793528504,-3.9332973805855165,8.74260400616333,0.5133333333333333,0.2588888888888889,-0.6911111111111111,2.086768104776579,8.3125,-97.40591294298922
1590515287.7053049,-0.15289660252278797,-3.8724654727925607,8.672896602522789,0.5133333333333333,0.2588888888888889,-0.6911111111111111,2.096012970720928,8.077909204953503,-96.55075355630237
1590515287.7153049,-0.17978845027527235,-3.8553173245870913,8.699788450275273,0.5133333333333333,0.2588888888888889,-0.6911111111111111,2.156911092889774,8.03455546444887,-95.3936892350943
1590515287.7253048,-0.14537417751133208,-3.833061266266998,8.730016961544084,0.5133333333333333,0.2588888888888889,-0.6911111111111111,2.206738923819272,8.206738923819271,-94.46619937125311
1590515287.7353048,-0.0963108641614271,-3.759466296242141,8.809744845737681,0.5133333333333333,0.2588888888888889,-0.6911111111111111,2.245069637373885,8.245069637373884,-93.77624652727008
1590515287.7453048,-0.054025014212620806,-3.6611625923820355,8.762487208641273,0.4666666666666667,0.3211111111111111,-0.6488888888888888,2.2450788800454804,7.83195352472996,-91.63953240477544
1590515287.7553048,-0.022455053326561707,-3.600703656678517,9.019296343321484,0.4666666666666667,0.3211111111111111,-0.6488888888888888,1.6096559167089894,7.6293978542407315,-89.67758062468258
1590515287.7653048,0.03135685806122986,-3.6539363813605465,8.889413521156447,0.4666666666666667,0.3211111111111111,-0.6488888888888888,1.8806535752551246,7.722570828869022,-87.8628541443451
1590515287.7753048,0.10300459561906679,-3.6702465532857,8.716748851095234,0.4666666666666667,0.3211111111111111,-0.6488888888888888,2.3383566468753143,7.508618882291771,-85.91934814330281
1590515287.7853048,-1.5043393946481123,-7.299575902863046,6.453208598881288,0.4537984455835125,0.33544998603234005,-0.6503595427269636,-13.10735567834103,4.400580307548383,-37.11053372702645
1590515287.7953048,-4.6530782398941755,-9.894950005835895,1.5013099638174532,0.42777777777777776,0.3644444444444445,-0.6533333333333333,-89.11586925650703,-23.559258646850562,149.84563329183362
1590515287.8053048,-1.5585923839129587,0.003838158150378801,0.582134252962891,0.42777777777777776,0.3644444444444445,-0.6533333333333333,-179.1352669030503,-13.24949606566932,230.87852146881679
1590515287.8153048,-1.7526432378414387,-1.2812974683544305,6.050144903397736,0.42777777777777776,0.3644444444444445,-0.6533333333333333,-166.44951282478348,28.251561459027315,128.2821660559627
1590515287.8253047,-1.3069969806175126,-0.7291461965520601,5.617399240284406,0.42777777777777776,0.3644444444444445,-0.6533333333333333,-131.7344197428655,-18.77183695334567,132.29072635628714
1590515287.8353047,0.3880278229688901,-0.09530130482419734,1.5030130482419735,0.43392236720268856,0.3823196136805487,-0.6533333333333333,-60.580779574355056,-69.56832066137655,140.01917394335803
1590515287.8453047,-0.04743954970995348,-0.49383160071219345,3.4841804606283384,0.44,0.4,-0.6533333333333333,29.207069525012926,-58.873548331514556,148.43677129400953
1590515287.8553047,-0.16788926540692667,-1.0286283384067543,5.714909195336281,0.44,0.4,-0.6533333333333333,112.25714849807594,-40.595303974498876,156.11544066969157
1590515287.8653047,-1.6130555254428376,-0.7337345792771502,8.69735077943759,0.44,0.4,-0.6533333333333333,186.49652694967804,-25.818962339830453,161.501285963619
1590515287.8753047,-4.282458144934621,0.2794121960161311,7.865083710130758,0.44,0.4,-0.6533333333333333,225.68382622510083,-14.505510662348772,160.94032598069168
1590515287.8853047,-4.271500882246647,0.9540283594464168,2.553975424647633,0.4529520894009935,0.398528171658978,-0.6477403856374497,185.47487855821765,-17.072667095388933,146.85526504602564
1590515287.8953047,1.2058485182218661,0.6360317380857029,-0.5950670804965958,0.4888888888888889,0.3944444444444444,-0.6322222222222222,48.49457786844213,-35.316007333800556,116.55120519623549
1590515287.9053047,-1.1136534350057015,-0.9403666619156215,5.998062642531358,0.4888888888888889,0.3944444444444444,-0.6322222222222222,-29.42299075327822,8.459117998147093,105.08227845282212
1590515287.9153047,-2.486753781993622,-2.77035702019789,13.173244419004007,0.4888888888888889,0.3944444444444444,-0.6322222222222222,-63.214344999591134,2.9457927876359484,93.72738776678388
1590515287.9253047,-0.7608792538121161,-1.1718899818546462,7.342994301722217,0.4888888888888889,0.3944444444444444,-0.6322222222222222,-27.07716550472734,-12.500085553751632,90.34036465794416
1590515287.9353046,-1.927821819815461,-2.9346286760894356,13.050247434080934,0.49559955919564724,0.3580949802828366,-0.6364163911639462,23.21498643605073,10.858498634965615,89.59168840930298
1590515287.9453046,-0.9711787676676917,-3.869529840688392,15.354887514255106,0.5149256814612587,0.2534118180107744,-0.6484952175799533,0.9748472975774973,3.611202785361302,61.2366433977261
1590515287.9553046,-0.5187410506919519,1.3526941016142344,7.948460239160061,0.5155555555555555,0.25,-0.6488888888888888,3.5563710435900884,-10.137561421524406,-34.81628246223536
1590515287.9653046,-1.1347972951111398,-0.19153395670883622,5.2751150224868155,0.5155555555555555,0.25,-0.6488888888888888,9.702029475523345,19.999874623871616,-39.122979826576504
1590515287.9753046,-1.3763129775734608,-2.3661506284814977,8.170395932989583,0.5155555555555555,0.25,-0.6488888888888888,-11.322954846658797,-2.471673034312812,-36.6525413638152
1590515287.9853046,-1.8345916217277956,-5.755620156422984,7.575579086461198,0.5099141697320334,0.25,-0.6653790936037999,-2.381981893503803,0.9849759830006071,-34.34361496017999
1590515287.9953046,-2.0713191682248286,-7.001781177403818,8.257823672729334,0.5011111111111111,0.25,-0.6911111111111111,6.904241033486317,5.185519009575613,-44.583928976145955
1590515288.0053046,-1.0113963397359622,-4.2735493229078125,8.709360303699926,0.5011111111111111,0.25,-0.6911111111111111,5.478335883052864,6.552011445407672,-59.79358391410278
1590515288.0153046,-0.5490168021240803,-2.975651918360729,8.632250349622002,0.5011111111111111,0.25,-0.6911111111111111,2.358702040981779,6.158320496969942,-67.3545610470419
1590515288.0253046,-0.7524154929577465,-3.5929454793275784,8.510039073148569,0.5011111111111111,0.25,-0.6911111111111111,-0.49693179236710583,5.128068207632894,-67.32335018173558
1590515288.0353045,-0.9373124346505158,-4.738716684093196,9.009007871530313,0.5025638917933104,0.25266343125069873,-0.6848157281549142,0.8917972834342757,6.108202716565724,-69.77617555090848
1590515288.0453045,-0.7845546565794542,-4.666080697698854,8.245251654933277,0.5077777777777778,0.26222222222222225,-0.6622222222222223,1.6703136492592203,5.556254597036881,-77.16547143707751
1590515288.0553045,-0.3838941830454636,-3.515047647409172,8.877068691681556,0.5077777777777778,0.26222222222222225,-0.6622222222222223,2.1144840678975583,7.551984067897558,-87.84252779432202
1590515288.0653045,-0.40080462993254506,-3.713161346606222,8.745919677213315,0.5077777777777778,0.26222222222222225,-0.6622222222222223,1.8818243601127884,7.454382234269602,-91.31537618201929
1590515288.0753045,-0.42694100419061864,-4.059468305525696,8.856999267810128,0.5077777777777778,0.26222222222222225,-0.6622222222222223,1.5959577666651088,7.495220319047841,-93.43895659048776
1590515288.0853045,-0.399617046183004,-4.049170266729842,8.500127651272331,0.5014412949698214,0.2707951107271044,-0.6670677678988948,1.3781912818083,8.583865213634716,-101.01316403745923
1590515288.0953045,-0.28371503047966995,-3.8420104267153796,8.644020853430758,0.4888888888888889,0.2877777777777778,-0.6766666666666666,2.1892484760165023,8.75,-106.72710689435768
1590515288.1053045,-0.2689299339350516,-3.972140132129897,8.772592351353866,0.4888888888888889,0.2877777777777778,-0.6766666666666666,2.1712978040383364,8.898148902019168,-110.49100330324742
1590515288.1153045,-0.1724881372429736,-4.09,8.777543496775763,0.4888888888888889,0.2877777777777778,-0.6766666666666666,2.8827754288842926,9.35157485703857,-114.98095685302349
1590515288.1253045,-0.07172393159701446,-4.032125783390546,8.863733190564671,0.4888888888888889,0.2877777777777778,-0.6766666666666666,2.396549144962681,9.6278757125311,-119.68859241646459
1590515288.1353045,-0.032096494819387145,-3.9066389002613926,8.394808522029415,0.4888888888888889,0.2877777777777778,-0.6766666666666666,1.9012061852423394,10.040661512298051,-122.53681443485655
1590515288.1453044,0.05092962949806401,-4.1876281482007744,8.83195481510426,0.4544444444444444,0.3411111111111111,-0.6677777777777778,2.02063425810806,10.72616203687258,-127.91116434584917
1590515288.1553044,0.13150962589006518,-4.185321176958143,8.708774064725162,0.4544444444444444,0.3411111111111111,-0.6677777777777778,2.6825481294503257,10.862854613269036,-131.58043316505294
1590515288.1653044,-4.9872587407132976,-12.322239143575844,8.462174404773512,0.4544444444444444,0.3411111111111111,-0.6677777777777778,2.292810239260574,12.666971754772536,-134.70781862410544
1590515288.1753044,-10.848517494055418,-21.095650749745232,7.612306983064007,0.4544444444444444,0.3411111111111111,-0.6677777777777778,-2.021147243655069,12.174158053088757,-104.39487947056826
1590515288.1853044,1.4453034844082453,-2.2985563613901028,7.045514424946807,0.4456860143219931,0.34986954123356234,-0.6697797046629095,-4.27224942231577,-2.223957022581162,10.583386716694502
1590515288.1953044,1.9922683481729067,-2.463697441226863,5.893109850293515,0.4155555555555556,0.38,-0.6766666666666666,20.256300381990282,-11.15178145100132,47.428561146532594
1590515288.2053044,0.2490529349865032,-2.6797204556892527,8.526458342864986,0.4155555555555556,0.38,-0.6766666666666666,4.014880816214484,1.2252138902868646,3.9376858672278914
1590515288.2153044,0.3843982280371906,-3.7185278285729004,9.85302907770366,0.4155555555555556,0.38,-0.6766666666666666,-13.56923983310583,0.9722583511473974,-18.95190041723543
1590515288.2253044,0.06277727870975827,-5.082151168863727,9.527640127854264,0.4155555555555556,0.38,-0.6766666666666666,-5.876649100633005,5.581367382539119,-27.53231218793741
1590515288.2353044,-0.020887809770130106,-5.527909266052625,8.75027684674461,0.4193062849870536,0.38057703529715353,-0.6766666666666666,3.3843376395450107,1.6909605843076192,-23.409277598902115
1590515288.2453043,0.72567009098914,-3.415202426377067,8.56369122395069,0.43,0.38222222222222224,-0.6766666666666666,-0.092909206535564,-0.5054532335387927,3.180160943156247
1590515288.2553043,-0.13702858591620715,-4.348992203841035,8.517002598719655,0.43,0.38222222222222224,-0.6766666666666666,1.2002598719655195,-0.6031980889903024,3.6007796158965584
1590515288.2653043,0.046932721960720666,-4.372394497646486,8.5889510631391,0.43,0.38222222222222224,-0.6766666666666666,-0.2124426838175621,-0.08665902450900828,-1.0015673186171077
1590515288.2753043,0.036686559529391705,-4.324910482117737,8.771776077411653,0.43,0.38222222222222224,-0.6766666666666666,0.3443094867641417,-0.010354501470650923,0.11464549852934908
1590515288.2853043,0.021949621990732675,-4.394151134027802,8.675125945023169,0.43,0.3854715922067767,-0.6758001680041188,-0.13718513744207922,-0.06859256872103961,0.05640743127896039
1590515288.2953043,0.03753750249504829,-4.391712447603986,8.61522501497029,0.43,0.4155555555555556,-0.6677777777777778,-0.2961718282178446,-0.10960939059405181,0.0
1590515288.3053043,0.031097514164197208,-4.5269522025518585,8.576585084985183,0.43,0.4155555555555556,-0.6677777777777778,-0.41692160942130235,-0.06935946352623254,0.0
1590515288.3153043,0.04754609254192935,-4.318297847032235,8.67245390745807,0.43,0.4155555555555556,-0.6677777777777778,-0.018883073629118605,-0.038918460806470795,-0.0271276912097062
1590515288.3253043,0.07881573431459314,-4.438578881177512,8.642842237644977,0.43,0.4155555555555556,-0.6677777777777778,0.4375,0.059539335786482836,0.12648033210675858
1590515288.3353043,0.03000904698262568,-4.380018093965251,8.759972859052123,0.4299964817289789,0.4155434929120547,-0.6677817986589448,0.43730209725506325,-0.06247172817929475,0.187386912717179
1590515288.3453043,0.047257119358486685,-4.414514238716973,8.708228641924538,0.42328889802725517,0.39254606307757334,-0.6754476086037718,0.06000051403310369,-0.008571502004729108,-0.02821399198108357
1590515288.3553042,0.046712163332269976,-4.38,8.62315134667092,0.4222222222222222,0.3888888888888889,-0.6766666666666666,-0.45804897917331266,-0.0625,-0.048516326391104224
1590515288.3653042,0.06388809850228926,-4.382037300499237,8.566671408986265,0.4222222222222222,0.3888888888888889,-0.6766666666666666,-0.21063497503815412,-0.0625,0.02546625624046147
1590515288.3753042,0.04,-4.373251730541955,8.716280601046767,0.4222222222222222,0.3888888888888889,-0.6766666666666666,0.16133082897180484,-0.0625,0.11191541448590242
1590515288.3853042,0.04,-4.310306151162136,8.7398851933142,0.4222222222222222,0.3888888888888889,-0.6766666666666666,0.06297836119083798,-0.0625,0.062739180595419
1590515288.3953042,0.03,-4.410127091027591,8.761772575856325,0.4155555555555556,0.4088888888888889,-0.6677777777777778,0.021362879281627924,0.010284280179593019,-0.11471571982040699
1590515288.4053042,0.03,-4.364566587008473,8.723805489173728,0.4155555555555556,0.4088888888888889,-0.6677777777777778,-0.1684725541313636,0.0577431385328409,-0.06725686146715909
1590515288.4153042,0.03507684853183448,-4.420307394127338,8.55969260587266,0.4155555555555556,0.4088888888888889,-0.6677777777777778,-0.2192303033239655,-0.10448686888264366,0.04198686888264366
1590515288.4253042,0.010689020253900575,-4.322756081015602,8.657243918984397,0.4155555555555556,0.4088888888888889,-0.6677777777777778,-0.06680637658687857,-0.0028709177245857115,-0.05962908227541429
1590515288.4353042,0.02845882113176785,-4.356917642263536,8.70614705282942,0.4155555555555556,0.4088888888888889,-0.6677777777777778,0.1682352641470981,-0.05768381603677453,0.11055144811032358
1590515288.4453042,0.04,-4.330421754398475,8.755262838909784,0.4355555555555555,0.3944444444444444,-0.6488888888888888,-0.01184290272553878,-0.04473564591169183,-0.11907854863723061
1590515288.4553041,0.04,-4.412664396869819,8.717879819604628,0.4355555555555555,0.3944444444444444,-0.6488888888888888,-0.10530045098843117,0.09545067648264674,-0.07234977450578442
1590515288.4653041,0.06,-4.393446484239695,8.543744866148744,0.4355555555555555,0.3944444444444444,-0.6488888888888888,-0.306648646642585,0.0625,-0.0058513533574150135
1590515288.4753041,0.06,-4.345019050917908,8.571417685189767,0.4355555555555555,0.3944444444444444,-0.6488888888888888,-0.26340986689098916,0.0625,-0.049090133109010836
1590515288.485304,0.042065823726292306,-4.356901264410562,8.714506322052808,0.4355555555555555,0.3944444444444444,-0.6488888888888888,0.1983544068426925,-0.10563290256600966,-0.006455699144663436
1590515288.495304,0.04,-4.325651758112226,8.764348241887774,0.4183814346116684,0.4068479762372519,-0.6851453664370952,0.25,0.08967651179858996,0.0
1590515288.505304,0.03340398281275822,-4.4031920343744835,8.706384068748967,0.4155555555555556,0.4088888888888889,-0.6911111111111111,-0.11568723144934721,0.10372510742026111,0.041225107420261115
1590515288.515304,0.04952781474580783,-4.370944370508385,8.639055629491617,0.4155555555555556,0.4088888888888889,-0.6911111111111111,-0.3690976843225978,-0.005902315677402183,-0.05954884216129891
1590515288.525304,0.03880177774312392,-4.386405333229371,8.630784000311884,0.4155555555555556,0.4088888888888889,-0.6911111111111111,-0.21255555447262237,-0.125,0.007488889105475527
1590515288.535304,0.030625913724878655,-4.361877741174636,8.704366776476093,0.4155555555555556,0.4088888888888889,-0.6911111111111111,0.04294019609754196,-0.125,0.0585880392195084
1590515288.545304,0.04,-4.373715252992882,8.734762710827402,0.4155555555555556,0.4011111111111111,-0.6533333333333333,0.17440677706850488,-0.0625,0.11190677706850488
1590515288.555304,0.04,-4.322391042767117,8.691992535639264,0.4155555555555556,0.4011111111111111,-0.6533333333333333,0.06748133909815839,-0.0625,0.0049813390981583855
1590515288.565304,0.04124556243026676,-4.4,8.62,0.4155555555555556,0.4011111111111111,-0.6533333333333333,-0.25,0.10943046962166549,0.05471523481083274
1590515288.575304,0.04975413327923725,-4.4,8.62,0.4155555555555556,0.4011111111111111,-0.6533333333333333,-0.25,0.003073334009534426,0.001536667004767213
1590515288.585304,0.05,-4.346712746936461,8.64664362653177,0.4155555555555556,0.4011111111111111,-0.6533333333333333,-0.027969778901923148,-0.05550755527451921,-0.11101511054903843
1590515288.595304,0.05,-4.34,8.749909203059461,0.4155555555555556,0.3950560078953861,-0.6815904816733832,0.22706637058968665,-0.0057334073525783374,0.045299777942264974
1590515288.605304,0.05,-4.333037847879936,8.753037847879936,0.4155555555555556,0.3944444444444444,-0.6844444444444444,0.2064865492495993,0.0435134507504007,0.018986549249599298
1590515288.615304,0.05,-4.4,8.610088329468919,0.4155555555555556,0.3944444444444444,-0.6844444444444444,-0.1257360789076589,-0.06231598027308528,0.00018401972691472525
1590515288.625304,0.05,-4.4,8.633243347686872,0.4155555555555556,0.3944444444444444,-0.6844444444444444,-0.3186945640572669,-0.014076358985683268,0.04842364101431673
1590515288.635304,0.05,-4.3918299089583845,8.664510273124845,0.4155555555555556,0.3944444444444444,-0.6844444444444444,-0.22181079296971698,0.051063069010094345,0.011436930989905655
1590515288.645304,0.042336091384889356,-4.351680456924447,8.715983451690665,0.406188556137087,0.38507744502597585,-0.6674135364108652,0.05199714422220775,-0.03329885768888309,0.0
1590515288.655304,0.04,-4.37,8.75621526023244,0.4033333333333333,0.38222222222222224,-0.6622222222222223,0.03772422940879232,0.125,0.054241409802930775
1590515288.665304,0.03896239363162229,-4.375188031841889,8.604150425473511,0.4033333333333333,0.38222222222222224,-0.6622222222222223,-0.13797007960472138,0.11202992039527862,0.006485039802360692
1590515288.675304,0.030990942118327827,-4.418018115763345,8.642972826354985,0.4033333333333333,0.38222222222222224,-0.6622222222222223,-0.23761322352090217,0.006193388239548914,0.06869338823954892
1590515288.685304,0.03788594631026944,-4.404228107379462,8.663657838930808,0.4033333333333333,0.38222222222222224,-0.6622222222222223,-0.15142567112163208,0.04928716443918397,0.11178716443918396
1590515288.695304,0.030905294450736125,-4.404568233295583,8.693621177802944,0.4088888888888889,0.3944444444444444,-0.6533333333333333,-0.08539336778029445,0.056841909682899205,0.056841909682899205
1590515288.705304,0.04,-4.350783698336141,8.720595619966307,0.4088888888888889,0.3944444444444444,-0.6533333333333333,0.3076018853991185,-0.004898114600881545,0.0
1590515288.715304,0.03952842164652781,-4.360943156706945,8.610471578353472,0.4088888888888889,0.3944444444444444,-0.6533333333333333,0.2293684470355917,-0.05660527058159763,0.0
1590515288.725304,0.030843042361235584,-4.38,8.622248112963295,0.4088888888888889,0.3944444444444444,-0.6533333333333333,-0.18925633825257412,0.05898732349485172,-0.001756338252574137
1590515288.7353039,0.05590308896456951,-4.38,8.689074903905517,0.4088888888888889,0.3944444444444444,-0.6533333333333333,-0.2414647686761865,-0.045429537352372984,-0.05396476867618649
1590515288.7453039,0.05262015438655533,-4.402139536840334,8.707379845613445,0.42446856296171653,0.4051042214416423,-0.6902325614005567,-0.11162789474791243,-0.0625,0.029748070168058388
1590515288.7553039,0.05,-4.386322646698653,8.721838676650673,0.43,0.4088888888888889,-0.7033333333333334,0.048487593600064244,-0.09949586453335474,-0.011491729066709491
1590515288.7653039,0.04179502751945341,-4.378204972480547,8.680770165116721,0.43,0.4088888888888889,-0.7033333333333334,0.0737189219965838,0.08012431201366482,0.09134323401024863
1590515288.7753038,0.040576259362608315,-4.3911525187252165,8.652305037450434,0.43,0.4088888888888889,-0.7033333333333334,-0.19110162101630196,-0.12139837898369804,0.007203242032603906
1590515288.7853038,0.04827617858716405,-4.406552357174328,8.683104714348655,0.43,0.4088888888888889,-0.7033333333333334,-0.2392261161697753,-0.0732738838302247,0.10345223233955059
1590515288.7953038,0.043465483670233056,-4.403465483670233,8.716138065319068,0.4249175984101813,0.40380648729907015,-0.6706607516844986,-0.25,-0.02165927293895658,0.04331854587791316
1590515288.8053038,0.04,-4.352807205415535,8.673368646498643,0.4222222222222222,0.4011111111111111,-0.6533333333333333,0.10394595938348566,0.2359639729223238,-0.05899099323058095
1590515288.8153038,0.04,-4.357228453048541,8.641086187805836,0.4222222222222222,0.4011111111111111,-0.6533333333333333,0.125,0.11446650533985783,-0.0625
1590515288.8253038,0.04020737463709439,-4.379896312681453,8.670207374637094,0.4222222222222222,0.4011111111111111,-0.6533333333333333,-0.06444413722275986,0.0625,0.0625
1590515288.8353038,0.05677483064404637,-4.371612584677977,8.686774830644046,0.4222222222222222,0.4011111111111111,-0.6533333333333333,-0.21976403728793475,0.0625,0.0625
1590515288.8453038,0.06924644788405544,-4.379623223942027,8.71,0.4088888888888889,0.4011111111111111,-0.6622222222222223,-0.05779029927534646,-0.06014514963767323,0.12029029927534646
1590515288.8553038,0.05088140639709263,-4.370440703198547,8.71,0.4088888888888889,0.4011111111111111,-0.6622222222222223,0.05699121001817106,-0.002754394990914469,0.005508789981828938
1590515288.8653038,0.040908070978820835,-4.34,8.643178248425874,0.4088888888888889,0.4011111111111111,-0.6622222222222223,0.12216227819118489,-0.125,0.06533772180881511
1590515288.8753037,0.05995164335529611,-4.3400483566447035,8.709903286710594,0.4088888888888889,0.4011111111111111,-0.6622222222222223,0.06129108388240281,-0.1246977709706007,0.1246977709706007
1590515288.8853037,0.05187107463491697,-4.348128925365082,8.693742149269834,0.4088888888888889,0.4011111111111111,-0.6622222222222223,-0.14072313412707588,-0.07419421646823103,0.07419421646823103
1590515288.8953037,0.05,-4.378303220565959,8.67584838971702,0.41832329574420857,0.39639390768345123,-0.6724428296488185,-0.231723782134311,-0.01827621786568901,-0.025947564268621978
1590515288.9053037,0.03013666472980825,-4.3704099941894246,8.708360023242301,0.4222222222222222,0.3944444444444444,-0.6766666666666666,-0.12329169087739686,-0.058229227193492154,0.12414584543869843
1590515288.9153037,0.03988518303312028,-4.399655549099362,8.591377803602557,0.4222222222222222,0.3944444444444444,-0.6766666666666666,-0.0014352120859965206,0.24641196978500873,0.06321760604299825
1590515288.9253037,0.04,-4.380157499162238,8.669370003351046,0.4222222222222222,0.3944444444444444,-0.6766666666666666,0.0,-0.060039075590023416,0.0625
1590515288.9353037,0.031971059232104956,-4.36394211846421,8.694086822303685,0.4222222222222222,0.3944444444444444,-0.6766666666666666,-0.050180879799344005,0.08804263939803203,0.112680879799344
1590515288.9453037,0.04827592165898618,-4.36,8.7,0.41613024833589357,0.40053641833077314,-0.6766666666666666,-0.1767245103686636,0.010775489631336399,0.125
1590515288.9553037,0.042202358311144925,-4.37559528337771,8.692202358311144,0.4155555555555556,0.4011111111111111,-0.6766666666666666,-0.09002947888931152,0.04873526055534424,-0.021205781666032708
1590515288.9653037,0.05215747907744293,-4.367842520922557,8.641370083690228,0.4155555555555556,0.4011111111111111,-0.6766666666666666,-0.024507877882990844,-0.013484244234018311,0.013484244234018311
1590515288.9753036,0.04414897068897141,-4.3441489706889715,8.641702058622057,0.4155555555555556,0.4011111111111111,-0.6766666666666666,0.049534466596964345,0.08610339979089304,-0.03656893319392869
1590515288.9853036,0.04,-4.368580228632352,8.69287034294853,0.4155555555555556,0.4011111111111111,-0.6766666666666666,0.01784339276194989,-0.05362642895220043,-0.01784339276194989
1590515288.9953036,0.04,-4.389641804658995,8.71,0.4155555555555556,0.39468324133844757,-0.6627396154925624,-0.12052255823744037,0.05578383735616052,0.0
1590515289.0053036,0.049314850223072026,-4.39,8.700685149776927,0.4155555555555556,0.3944444444444444,-0.6622222222222223,-0.18321781389420014,0.0625,0.05821781389420013
1590515289.0153036,0.040386201447020764,-4.370772402894041,8.632703410129146,0.4155555555555556,0.3944444444444444,-0.6622222222222223,0.05284496382448081,-0.057672481912240406,0.002413759043879797
1590515289.0253036,0.030078138437722682,-4.37,8.69945303093594,0.4155555555555556,0.3944444444444444,-0.6622222222222223,0.0625,0.12353490429269973,0.0
1590515289.0353036,0.04466546876651517,-4.355334531233485,8.714665468766515,0.4155555555555556,0.3944444444444444,-0.6622222222222223,-0.0749887696860797,-0.012488769686079704,0.0
1590515289.0453036,0.05753034389750506,-4.357530343897505,8.697408968307485,0.4109536787293025,0.40239314078069977,-0.6643139844159737,-0.05440302596089008,-0.015435350640593391,0.0
1590515289.0553036,0.0693147336480108,-4.369314733648011,8.662055799055969,0.4037521072151045,0.4148322188506781,-0.6675874260133363,0.05607562795010115,0.05821708530006743,0.0
1590515289.0653036,0.05147700098466733,-4.388522999015333,8.604431002954001,0.4033333333333333,0.4155555555555556,-0.6677777777777778,0.17826874384582922,-0.16903748769165844,-0.05788437192291461
1590515289.0753036,0.05923994855182926,-4.3715201028963415,8.655439691310976,0.4033333333333333,0.4155555555555556,-0.6677777777777778,0.1875,-0.01425096465320122,0.11074903534679878
1590515289.0853035,0.05276231743304322,-4.355524634866086,8.696188412834784,0.4033333333333333,0.4155555555555556,-0.6677777777777778,0.1875,0.0,-0.14641309626087928
1590515289.0953035,0.05831638591117917,-4.366632771822358,8.72663277182236,0.396865033180194,0.39799874085417725,-0.6631575633826783,-0.020409647779479317,0.1559322358346095,-0.0940677641653905
1590515289.1053035,0.05083188690161749,-4.40667245239353,8.711663773803236,0.3955555555555556,0.3944444444444444,-0.6622222222222223,-0.1198007068648907,0.1301992931351093,-0.2344021205946721
1590515289.1153035,0.04097795628619466,-4.382933868858584,8.62880160657575,0.3955555555555556,0.3944444444444444,-0.6622222222222223,-0.012224453577433222,0.125,-0.08083668036614983
1590515289.1253035,0.04,-4.38,8.670870017130868,0.3955555555555556,0.3944444444444444,-0.6622222222222223,0.04541965815256097,0.034160683694878055,-0.0625
1590515289.1353035,0.04464499171284593,-4.38,8.69,0.3955555555555556,0.3944444444444444,-0.6622222222222223,0.12056239641057406,0.029031198205287035,-0.0625
1590515289.1453035,0.0462169452887538,-4.38,8.697566109422493,0.39303351908139145,0.3999088568051334,-0.6643239192840257,0.04563544832826749,0.08614409194528876,-0.015211816109422488
1590515289.1553035,0.04,-4.38,8.720012525442305,0.3888888888888889,0.4088888888888889,-0.6677777777777778,-0.12492171598559573,0.06242171598559573,-0.09394571003601065
1590515289.1653035,0.04,-4.360614821807883,8.633074109039415,0.3888888888888889,0.4088888888888889,-0.6677777777777778,0.05865736370073164,0.08077157580048776,-0.08845684839902448
1590515289.1753035,0.04,-4.356318050202305,8.624226351416135,0.3888888888888889,0.4088888888888889,-0.6677777777777778,0.125,0.0065365587067824915,0.03948781376440584
1590515289.1853034,0.04562920792079208,-4.36,8.683775247524753,0.3888888888888889,0.4088888888888889,-0.6677777777777778,0.0898174504950495,-0.0625,0.0273174504950495
1590515289.1953034,0.0446295886775763,-4.370740822644848,8.736852056612118,0.39962971153373633,0.40471190230478155,-0.6725514767310433,0.0625,-0.0625,-0.03356507076514817
1590515289.2053034,0.047905174035747886,-4.364189651928505,8.712568955785512,0.4088888888888889,0.4011111111111111,-0.6766666666666666,0.11190733772342426,0.08572201317027281,-0.11190733772342426
1590515289.2153034,0.05,-4.385022470879575,8.591569292855178,0.4088888888888889,0.4011111111111111,-0.6766666666666666,0.020739704668439884,0.020739704668439884,-0.125
1590515289.2253034,0.033078835746672516,-4.39,8.620763492759982,0.4088888888888889,0.4011111111111111,-0.6766666666666666,0.0,0.21151455316659354,-0.07212136170835162
1590515289.2353034,0.03,-4.383211645453852,8.691095190915327,0.4088888888888889,0.4011111111111111,-0.6766666666666666,0.08485443182684246,0.08029113634631507,-0.020072784086578768
1590515289.2453034,0.04666744178321098,-4.38,8.72,0.41444470281662593,0.3909254522435933,-0.6535174419677625,0.125,0.2604287778626715,-0.052085755572534295
1590515289.2553034,0.0427491753063148,-4.372749175306315,8.72,0.4155555555555556,0.3888888888888889,-0.6488888888888888,-0.10158827167766257,0.13122938265786993,-0.10781765433553252
1590515289.2653034,0.04,-4.37,8.663236160487557,0.4155555555555556,0.3888888888888889,-0.6488888888888888,-0.1520226003047232,0.09797739969527679,-0.125
1590515289.2753034,0.060757560534512214,-4.37,8.654595934224186,0.4155555555555556,0.3888888888888889,-0.6488888888888888,-0.038510164439532465,0.08175508221976624,-0.08175508221976624
1590515289.2853034,0.06522563900675095,-4.365225639006751,8.674774360993249,0.4155555555555556,0.3888888888888889,-0.6488888888888888,0.08951926862341979,-0.027019268623419787,-0.0326602437921934
1590515289.2953033,0.05754682099509686,-4.364906358009806,8.689812716019613,0.412557225660674,0.3872534362189535,-0.6521597942287597,0.17216763121935535,-0.09433526243871071,-0.030664737561289283
1590515289.3053033,0.04574196275940665,-4.371483925518813,8.698709813797034,0.4033333333333333,0.38222222222222224,-0.6622222222222223,0.07177453449258313,0.0,-0.09838726724629157
1590515289.3153033,0.04,-4.370976485063914,8.640729373162895,0.4033333333333333,0.38222222222222224,-0.6622222222222223,-0.0228676772164878,0.0228676772164878,-0.0853676772164878
1590515289.3253033,0.04,-4.3852651821862345,8.60893927125506,0.4033333333333333,0.38222222222222224,-0.6622222222222223,-0.03290738866396761,0.0625,-0.09540738866396761
1590515289.3353033,0.049032568950367075,-4.375483715524816,8.661613991326284,0.4033333333333333,0.38222222222222224,-0.6622222222222223,-0.028226777969897105,0.0625,-0.0907267779698971
1590515289.3453033,0.05527713915478828,-4.37,8.714168582535635,0.40910571881081437,0.391143181596511,-0.6648460338028954,-0.03298211971742675,-0.02605364084771976,-0.09548211971742675
1590515289.3553033,0.038226250088158546,-4.3758868749559205,8.735886874955922,0.4155555555555556,0.4011111111111111,-0.6677777777777778,0.03679296847450455,-0.0514140630509909,-0.02570703152549545
1590515289.3653033,0.03,-4.38,8.658552291801161,0.4155555555555556,0.4011111111111111,-0.6677777777777778,0.0625,-0.03393654508284915,0.0
1590515289.3753033,0.02353142318122863,-4.38,8.6352800377314,0.4155555555555556,0.4011111111111111,-0.6677777777777778,0.02207139488267893,-0.02207139488267893,0.0
1590515289.3853033,0.045431536710521234,-4.38,8.691789420888153,0.4155555555555556,0.4011111111111111,-0.6677777777777778,0.039736776110189435,0.039736776110189435,0.0
1590515289.3953032,0.04619354066269568,-4.3730967703313475,8.716903229668652,0.41095340244312084,0.3926738304049807,-0.6838853136712995,0.019354814570924007,-0.066935556287228,-0.08629037085815199
1590515289.4053032,0.04,-4.37,8.733849222003068,0.4088888888888889,0.3888888888888889,-0.6911111111111111,0.08655763751917599,0.04811527503835197,-0.03844236248082401
1590515289.4153032,0.046988856892450234,-4.3839777137849,8.656133717290597,0.4088888888888889,0.3888888888888889,-0.6911111111111111,0.08131964442218606,-0.09340177788906975,-0.0873607111556279
