time,acc_x,acc_y,acc_z,mag_x,mag_y,mag_z,gyr_x,gyr_y,gyr_z
1590512609.5809145,-3.72,-0.51,9.16,0.2588888888888889,-0.3955555555555556,-0.6555555555555556,0.1875,0.5,0.0
1590512609.5909145,-3.7051178881260314,-0.5174410559369844,9.137676832189047,0.2588888888888889,-0.3955555555555556,-0.6555555555555556,0.2805131992123051,0.4069868007876949,0.04650659960615254
1590512609.6009145,-3.724224709127223,-0.51,9.048449418254446,0.2588888888888889,-0.3955555555555556,-0.6555555555555556,0.14260295469676315,0.5809926132580921,-0.11619852265161842
1590512609.6109145,-3.740438909168993,-0.51,9.112748121108009,0.2588888888888889,-0.3955555555555556,-0.6555555555555556,0.2101621215374705,0.3125,-0.0625
1590512609.6209145,-3.72208614140424,-0.5120861414042397,9.14,0.2574981279527291,-0.39717810998107533,-0.6599596318533949,0.16411515132949395,0.338576767552996,-0.036423232447004045
1590512609.6309144,-3.73,-0.518703545753625,9.14,0.25222222222222224,-0.4033333333333333,-0.6766666666666666,0.3125,0.42939716096015595,0.0625
1590512609.6409144,-3.73,-0.5194038368974765,9.069471223268927,0.25222222222222224,-0.4033333333333333,-0.6766666666666666,0.3125,0.375,0.0625
1590512609.6509144,-3.7254871647371828,-0.5164614942115482,9.017077011576903,0.25222222222222224,-0.4033333333333333,-0.6766666666666666,0.34070522039260803,0.375,0.006089559214783921
1590512609.6609144,-3.7274896795753882,-0.5037448397876941,9.064979359150778,0.25222222222222224,-0.4033333333333333,-0.6766666666666666,0.32818950265382346,0.32818950265382346,0.007715746019264794
1590512609.6709144,-3.728199912574676,-0.504099956287338,9.09295002185633,0.25222222222222224,-0.4010388718895203,-0.6661777000663784,0.21312472679586186,0.28687527320413814,0.05124945359172374
1590512609.6809144,-3.7089946795034203,-0.4944973397517102,9.08201064099316,0.25222222222222224,-0.3955555555555556,-0.6411111111111111,0.012566506207246017,0.431216746896377,-0.09689162655181151
1590512609.6909144,-3.7248223568124375,-0.5048223568124374,9.0214211455005,0.25222222222222224,-0.3955555555555556,-0.6411111111111111,-0.21541919023320139,0.5,-0.002220539844532403
1590512609.7009144,-3.73,-0.5143487327213707,9.001743663606854,0.25222222222222224,-0.3955555555555556,-0.6411111111111111,-0.23096126147429974,0.41846126147429974,0.03532042049143324
1590512609.7109144,-3.726828660562353,-0.5136573211247063,9.055370715501175,0.25222222222222224,-0.3955555555555556,-0.6411111111111111,-0.14482087148529293,0.21339564257353538,0.0
1590512609.7209144,-3.7180630895532922,-0.501936910446708,9.115810731340124,0.25222222222222224,-0.394264281924417,-0.6426175970141061,-0.19960569029192443,-0.024211380583848887,0.0
1590512609.7309144,-3.71,-0.4995198058716976,9.137379951467924,0.25222222222222224,-0.3888888888888889,-0.6488888888888888,-0.34825181995283505,-0.059498786698109984,-0.03275060665094501
1590512609.7409143,-3.705650594169445,-0.4830482174916645,9.069108318372233,0.25222222222222224,-0.3888888888888889,-0.6488888888888888,-0.5978162135590323,0.34247029152774217,-0.07063242711806446
1590512609.7509143,-3.702724908173846,-0.5027249081738459,9.011799265390767,0.25222222222222224,-0.3888888888888889,-0.6488888888888888,-0.6306227043461451,0.7953067608653627,0.017030676086536266
1590512609.7609143,-3.710485761648215,-0.51064768219762,9.071133443845836,0.25222222222222224,-0.3888888888888889,-0.6488888888888888,-0.8195840240364691,1.2641680480729383,0.06148799656621869
1590512609.7709143,-3.746120756308428,-0.55,9.152241512616856,0.2440612138109854,-0.3933094351116422,-0.6444683426661356,-1.2117452730723273,2.086745273072327,0.0
1590512609.7809143,-3.7689354507578043,-0.55,9.148725922347683,0.2255555555555556,-0.4033333333333333,-0.6344444444444445,-0.817843880200471,1.469457611255359,0.0
1590512609.7909143,-3.772452032265643,-0.5424520322656434,9.076034145195395,0.2255555555555556,-0.4033333333333333,-0.6344444444444445,-0.20162600830135483,0.3643394157725742,-0.023587399169864517
1590512609.8009143,-3.755720772924008,-0.53,9.024279227075992,0.2255555555555556,-0.4033333333333333,-0.6344444444444445,0.5351871999243158,-0.6691968614744211,-0.0625
1590512609.8109143,-3.7395487098989504,-0.5195487098989503,9.047418816835082,0.2255555555555556,-0.4033333333333333,-0.6344444444444445,0.9782264789561463,-1.3455557735700971,-0.0625
1590512609.8209143,-3.716997214867792,-0.5090083553966235,9.101019495925454,0.23556483932958164,-0.4009978337860606,-0.6301070881423665,0.8436629646185057,-1.743628150465908,-0.08126740707629887
1590512609.8309143,-3.7273965936739657,-0.5265206812652068,9.153479318734794,0.2588888888888889,-0.3955555555555556,-0.62,0.625,-1.3070255474452555,-0.125
1590512609.8409142,-3.757322465872785,-0.52,9.151967397618357,0.2588888888888889,-0.3955555555555556,-0.62,0.625,-1.0825815059541097,-0.1316938353180366
1590512609.8509142,-3.71,-0.5125050166434524,9.028737458391369,0.2588888888888889,-0.3955555555555556,-0.62,0.5078908850539436,-1.3906563540215775,-0.22657817701078872
1590512609.8609142,-3.7143286382347176,-0.5021643191173588,9.066492957352077,0.2588888888888889,-0.3955555555555556,-0.62,0.20428404413206014,-1.0825410937806277,-0.16044601103301503
1590512609.8709142,-3.7260737587858084,-0.5080368793929042,9.084110638178712,0.2588888888888889,-0.3955555555555556,-0.62,-0.08934396964520736,-0.4585815645039343,-0.08703900758869816
1590512609.8809142,-3.714053320013736,-0.5213511066712453,9.104053320013735,0.2588888888888889,-0.3955555555555556,-0.6411111111111111,-0.070944416695283,-0.16216674991415103,0.045611166609434026
1590512609.8909142,-3.732674418604651,-0.53,9.100697674418605,0.2588888888888889,-0.3955555555555556,-0.6411111111111111,-0.10210755813953488,0.022892441860465115,-0.039607558139534885
1590512609.9009142,-3.72,-0.527151297707411,9.061394809170357,0.2588888888888889,-0.3955555555555556,-0.6411111111111111,-0.009086832013956318,0.08030438932868122,-0.05341316798604368
1590512609.9109142,-3.72,-0.5202483500929873,9.089006599628052,0.2588888888888889,-0.3955555555555556,-0.6411111111111111,0.12034343575648854,0.1234478119188295,-0.18284343575648854
1590512609.9209142,-3.7186538802006495,-0.5186538802006492,9.13865388020065,0.2569444936231599,-0.3966025376217174,-0.6411111111111111,0.24158675125405724,-0.11658675125405725,-0.11658675125405725
1590512609.9309142,-3.7153675140942455,-0.5019487288586321,9.124632485905755,0.24444444444444444,-0.4033333333333333,-0.6411111111111111,0.17072651845548345,0.004593926178066157,-0.02895303691096692
1590512609.9409142,-3.732051163674877,-0.4820511636748771,9.087437199576351,0.24444444444444444,-0.4033333333333333,-0.6411111111111111,0.125,0.20031977296798198,0.03686045406403607
1590512609.9509141,-3.7313863337713538,-0.4928712220762155,9.008613666228646,0.24444444444444444,-0.4033333333333333,-0.6411111111111111,0.05321944809461236,0.2141097240473062,-0.044554862023653094
1590512609.9609141,-3.707915613996698,-0.49791561399669776,9.036253158009906,0.24444444444444444,-0.4033333333333333,-0.6411111111111111,-0.15105482504127793,0.13802741252063896,-0.05210965008255585
1590512609.9709141,-3.697696506939737,-0.48923216897991223,9.059232168979912,0.2435059843087816,-0.4033333333333333,-0.642220200362349,-0.2739947193777429,0.21629366325329147,-0.24520105612445142
1590512609.980914,-3.6521975308641976,-0.47745679012345676,9.039827160493827,0.23222222222222225,-0.4033333333333333,-0.6555555555555556,-0.7055555555555555,0.8486111111111111,-0.17160493827160495
1590512609.990914,-3.605726970560304,-0.470818138651472,9.013272554605887,0.23222222222222225,-0.4033333333333333,-0.6555555555555556,-1.0789797008547009,1.5954594017094017,-0.13011336657169992
1590512610.000914,-3.455019083584079,-0.5099872776106141,8.954968194026534,0.23222222222222225,-0.4033333333333333,-0.6555555555555556,-2.405892182798522,4.108440699529473,-1.1712587592641208
1590512610.010914,-3.4202912412681354,-0.5441164965072542,9.041320365394949,0.23222222222222225,-0.4033333333333333,-0.6555555555555556,-3.320752283718431,6.486164696399785,-2.9851934443847394
1590512610.020914,-3.510686045958418,-0.5801960131309767,9.14068604595842,0.23224944626819125,-0.40329521966897675,-0.6554521041808734,-3.9359686474142443,7.999081188448547,-6.150114182406394
1590512610.030914,-3.6504980609595847,-0.620071151565655,9.279750969520206,0.23777777777777775,-0.3955555555555556,-0.6344444444444445,-3.6189965866478637,7.803828402935803,-11.265342056344348
1590512610.040914,-3.79,-0.6356483560545308,9.177362670408982,0.23777777777777775,-0.3955555555555556,-0.6344444444444445,-1.4615389434643142,4.695055633520449,-16.09285660585405
1590512610.050914,-3.795024640727849,-0.6159802874177206,9.05799014370886,0.23777777777777775,-0.3955555555555556,-0.6344444444444445,0.34421201364717235,2.1181031808939585,-18.012561601819623
1590512610.060914,-3.8523030326563896,-0.5738484836718052,9.036924241835901,0.23777777777777775,-0.3955555555555556,-0.6344444444444445,1.1490530229487828,1.0336174426280433,-17.54829534423174
1590512610.070914,-3.898443537859008,-0.5579507180156659,9.046394255874674,0.24460871772555845,-0.39714944154337106,-0.6344444444444445,0.8831878263707572,1.416504161227154,-15.62240739229765
1590512610.080914,-3.97,-0.564332178520481,9.106416955369879,0.27111111111111114,-0.4033333333333333,-0.6344444444444445,-0.05883431832076627,2.1296820868147543,-12.090192582025677
1590512610.090914,-3.9555540714812087,-0.59,9.068700488209284,0.27111111111111114,-0.4033333333333333,-0.6344444444444445,-0.5451435266212232,2.144665104550479,-9.447847100681651
1590512610.100914,-3.8885321276493947,-0.5964403617051816,8.974293574470122,0.27111111111111114,-0.4033333333333333,-0.6344444444444445,-0.7009174202191283,1.7051606382469737,-6.7758031912348695
1590512610.110914,-3.804523222976627,-0.6218255923411244,8.995476777023374,0.27111111111111114,-0.4033333333333333,-0.6344444444444445,-0.772819904264055,1.3010900478679726,-4.53866114883134
1590512610.120914,-3.78,-0.6306560139453806,9.02065601394538,0.27111111111111114,-0.4028595454838918,-0.6346631157595714,-0.8791000871586288,1.25,-3.3022497821034285
1590512610.130914,-3.78,-0.6421545157780196,9.041569096844395,0.27111111111111114,-0.3888888888888889,-0.6411111111111111,-0.9901931447225245,1.3088411316648532,-2.960772578890098
1590512610.140914,-3.78,-0.6041213275299238,9.049175734494016,0.27111111111111114,-0.3888888888888889,-0.6411111111111111,-0.9426516594124048,1.5940900435255712,-2.7706066376496192
1590512610.150914,-3.720141341020014,-0.5840848046120083,8.981547708735956,0.27111111111111114,-0.3888888888888889,-0.6411111111111111,-1.0246466474499656,1.686616618624914,-2.600353352550034
1590512610.160914,-3.6857944904844575,-0.5634766942906745,9.091457630449735,0.27111111111111114,-0.3888888888888889,-0.6411111111111111,-1.1105137737888564,1.9012844344721413,-2.5144862262111434
1590512610.170914,-3.603781130112491,-0.5722264126406138,9.245335847584368,0.27111111111111114,-0.3892343816604172,-0.6411111111111111,-1.3166980948046036,1.8199370895376812,-2.733805026334612
1590512610.180914,-3.5098871727035754,-0.4399435863517877,9.155028206824106,0.27111111111111114,-0.3955555555555556,-0.6411111111111111,-0.203389438975995,0.765889438975995,-2.15783663385597
1590512610.190914,-3.5779059047921797,-0.47175686773159553,9.125945058147236,0.27111111111111114,-0.3955555555555556,-0.6411111111111111,-0.05700978833876394,0.5920587300325837,-1.032499205276961
1590512610.200914,-3.6714551555826724,-0.4938183851942241,8.987636770388448,0.27111111111111114,-0.3955555555555556,-0.6411111111111111,0.023864907463900752,0.17840527760829775,2.793798937360179
1590512610.210914,-3.7077125010844107,-0.5328196408432376,9.02,0.27111111111111114,-0.3955555555555556,-0.6411111111111111,0.10305803765073306,-0.24568079292096817,7.817511060987247
1590512610.220914,-3.6567710592521903,-0.6274251756745033,9.02,0.27111111111111114,-0.3955555555555556,-0.6411111111111111,0.012091177236054476,-0.7459985252017003,12.502304372343193
1590512610.2309139,-3.3296062454479243,-0.67,9.036672205025491,0.2788888888888889,-0.4033333333333333,-0.6555555555555556,0.19211039921704298,-0.9490779201565914,21.25041537691187
1590512610.2409139,-2.9511519483636945,-0.6749177179740219,9.10180380337663,0.2788888888888889,-0.4033333333333333,-0.6555555555555556,-0.0625,-0.9795095084415758,27.538883924999332
1590512610.2509139,-2.4644492772163233,-0.7135550722783677,9.028371498017142,0.2788888888888889,-0.4033333333333333,-0.6555555555555556,0.1351781373928617,-0.6349622617372394,32.11317481130869
1590512610.2609138,-1.987734186304589,-0.7624531627390821,8.916320255891376,0.2788888888888889,-0.4033333333333333,-0.6555555555555556,0.7971677328807364,0.15683546576147267,33.977001599321106
1590512610.2709138,-1.8955473251028805,-0.7762323520101299,8.890342513453625,0.2783941472336534,-0.4028385916780978,-0.6553652703035419,0.6596707818930041,-0.11601772712883823,33.73971589110478
1590512610.2809138,-1.780477366255144,-0.6788654637543526,8.899194048749605,0.26560859625057154,-0.390053040695016,-0.6504477506946643,-0.05951646090534979,-1.4990701171256726,31.858764640709087
1590512610.2909138,-1.8984450434024336,-0.6851111815767569,9.013333861825677,0.2644444444444444,-0.3888888888888889,-0.65,-0.45555709699155733,-2.9000059455388643,28.901375896785446
1590512610.3009138,-1.953498046426109,-0.6373764651804184,8.834372558032637,0.2644444444444444,-0.3888888888888889,-0.65,-0.6000488393472765,-1.6086029073776142,23.28850407952195
1590512610.3109138,-1.9810404833043307,-0.616719637521752,8.868800604130413,0.2644444444444444,-0.3888888888888889,-0.65,0.08851208260826737,-1.47949773451095,20.14694487309978
1590512610.3209138,-2.030203846674793,-0.5799417580929161,8.970378572396045,0.26438620253736056,-0.38893095248844944,-0.6499741147079627,-0.12445398212108899,-0.750182005959637,13.984711499390492
1590512610.3309138,-2.096482459704727,-0.5610050115129351,9.09346742516592,0.24544945595737955,-0.4026074916851024,-0.6415577828946378,0.053078017066233246,-0.8093593390220777,9.01381552214547
1590512610.3409138,-2.1272082125498573,-0.56,9.078197946862536,0.24444444444444444,-0.4033333333333333,-0.6411111111111111,0.14244867156339225,-0.06868583945424031,1.907505285412262
1590512610.3509138,-2.1632661989892132,-0.5578225340071912,9.071088732996405,0.24444444444444444,-0.4033333333333333,-0.6411111111111111,-0.0556954187724724,0.27595955595785876,-3.7769810288903973
1590512610.3609138,-2.19,-0.5412318360078056,9.07137714794536,0.24444444444444444,-0.4033333333333333,-0.6411111111111111,0.02309692514635394,1.069290775439062,-10.456489305268741
1590512610.3709137,-2.19,-0.5491781444783359,9.015752988651649,0.24444444444444444,-0.4033333333333333,-0.6411111111111111,0.17209020896879676,1.5162706269063904,-15.820247522876684
1590512610.3809137,-2.2039377693257,-0.5213125897752332,8.961312589775234,0.23777777777777775,-0.4033333333333333,-0.6555555555555556,0.3535184304760363,2.2285184304760364,-24.318423900948837
1590512610.3909137,-2.2293942827085313,-0.5297980942361772,8.969798094236177,0.23777777777777775,-0.4033333333333333,-0.6555555555555556,0.6186904448805357,2.493690444880536,-30.41738023225232
1590512610.4009137,-2.2744007558688857,-0.5908801511737771,8.897921360563995,0.23777777777777775,-0.4033333333333333,-0.6555555555555556,1.0845037793444292,3.1690075586888584,-38.58661149066066
1590512610.4109137,-2.32,-0.6,8.980540482775963,0.23777777777777775,-0.4033333333333333,-0.6555555555555556,1.3260120693990445,3.645268104098567,-45.70097199522253
1590512610.4209137,-2.32,-0.6,8.985813678652251,0.23777777777777775,-0.4033333333333333,-0.6555555555555556,1.457841966306261,3.8430129494593914,-49.49108153130501
1590512610.4309137,-2.342841804381245,-0.6166122213681783,9.000382638355111,0.24331518490050386,-0.4033333333333333,-0.6574013579297976,1.5625,4.298500852709454,-55.34224724971176
1590512610.4409137,-2.4331050861560866,-0.6831050861560864,9.03068474153174,0.2644444444444444,-0.4033333333333333,-0.6644444444444444,1.54309321152446,5.49572036542662,-67.24516997191692
1590512610.4509137,-2.447646916062823,-0.6976469160628228,8.987059251811532,0.2644444444444444,-0.4033333333333333,-0.6644444444444444,1.452206774607357,5.768379676177929,-72.19848078389904
1590512610.4609137,-2.4572175573302677,-0.714435114660535,9.023305343981605,0.2644444444444444,-0.4033333333333333,-0.6644444444444444,1.4375,6.173377866513375,-77.73652199798805
1590512610.4709136,-2.4906521269704167,-0.7736412221982294,9.024673936514791,0.2644444444444444,-0.4033333333333333,-0.6644444444444444,1.2938181548261714,6.839333432304038,-84.25610694234507
1590512610.4809136,-2.4859734513274336,-0.8320796460176991,9.027013274336282,0.2745747295968535,-0.4033333333333333,-0.6582104228121927,1.25,7.350663716814159,-89.93929756637168
1590512610.4909136,-2.4918650454705324,-0.8649734545880855,9.013161499941383,0.2788888888888889,-0.4033333333333333,-0.6555555555555556,1.6560840911755346,7.79274062536636,-97.38888295734311
1590512610.5009136,-2.5129387529518166,-0.9211700078715102,8.935891239176673,0.2788888888888889,-0.4033333333333333,-0.6555555555555556,2.0073125491969384,8.27567975514579,-101.07678176656785
1590512610.5109136,-2.4880172018348623,-1.019956995412844,8.917995699541285,0.2788888888888889,-0.4033333333333333,-0.6555555555555556,2.474811854931193,8.687365610665138,-106.36032289277523
1590512610.5209136,-2.5032018232912177,-1.1018715287765806,8.997339410970724,0.2788888888888889,-0.4033333333333333,-0.6555555555555556,2.8041856592835175,8.846674263713407,-111.14529628482288
1590512610.5309136,-2.5527979693380143,-1.1387252797211629,8.98559593867603,0.34444444444444444,-0.37666666666666665,-0.65,2.9284974616725177,9.48251269163741,-117.3531700679413
1590512610.5409136,-2.51,-1.25,8.9,0.34444444444444444,-0.37666666666666665,-0.65,2.875,9.75,-120.9375
1590512610.5509136,-2.51,-1.3492863514719002,8.85035682426405,0.34444444444444444,-0.37666666666666665,-0.65,2.6267841213202496,9.874107939339876,-124.84690008920606
1590512610.5609136,-2.5102804103021517,-1.4016824618129111,8.940841230906456,0.34444444444444444,-0.37666666666666665,-0.65,2.316005128776898,10.073015386330695,-129.10164873453004
1590512610.5709136,-2.518074478760174,-1.4484468725610435,8.964223436280522,0.34444444444444444,-0.37666666666666665,-0.65,2.413430984502174,10.365292953506522,-131.92699855056304
1590512610.5809135,-2.4999447513812156,-1.5535911602209946,8.983370165745857,0.3800982197667281,-0.36329650092081034,-0.6678268876611418,2.479281767955801,10.688190607734807,-135.04834254143645
1590512610.5909135,-2.48,-1.6725652521393344,8.926472778308415,0.3977777777777778,-0.3566666666666667,-0.6766666666666666,2.8225205161692752,11.201528722636986,-139.7412379875636
1590512610.6009135,-2.48,-1.7379721642852966,8.836538274107717,0.3977777777777778,-0.3566666666666667,-0.6766666666666666,3.0780162667394397,11.559222773435216,-142.7049886941775
1590512610.6109135,-2.4506225724321213,-1.8537354345927262,8.922490289728485,0.3977777777777778,-0.3566666666666667,-0.6766666666666666,3.144455388503782,11.691391077700757,-146.7765092735416
1590512610.6209135,-2.4584173651247934,-1.9005041907487594,8.953669460499174,0.3977777777777778,-0.3566666666666667,-0.6766666666666666,3.388042660149789,11.740108532029957,-149.45596926164768
1590512610.6309135,-2.4551180871681617,-1.9765092171091179,8.95162730427728,0.44,-0.3033333333333333,-0.6766666666666666,3.646817393068013,12.061023910397981,-153.59284997971784
1590512610.6409135,-2.423633705475811,-2.016366294524189,8.944880050505052,0.44,-0.3033333333333333,-0.6766666666666666,3.4424736675970227,12.39489467038809,-156.218841374269
1590512610.6509135,-2.367888091440723,-2.0721119085592767,8.812484217171717,0.44,-0.3033333333333333,-0.6766666666666666,3.4860249285619354,12.569099714247741,-158.13509685672514
1590512610.6609135,-2.346614720515072,-2.122418056774949,8.850483611354989,0.44,-0.3033333333333333,-0.6766666666666666,3.29738714515657,12.875,-161.43038026777876
1590512610.6709135,-2.303652911911033,-2.1531050629206905,8.856621012584137,0.44,-0.3033333333333333,-0.6766666666666666,3.1055933567456835,12.875,-162.92637181738368
1590512610.6809134,-2.2679179618650855,-2.2545742669443998,8.884164076269828,0.46080795456568574,-0.2691008919510762,-0.6853925830974381,3.0,12.875,-164.61839649094696
1590512610.6909134,-2.2279731133913496,-2.34202688660865,8.867973113391349,0.4744444444444445,-0.2466666666666667,-0.6911111111111111,3.080067216521626,12.995100824782439,-165.98817216521627
1590512610.7009134,-2.164347591077799,-2.414782890706641,8.8043475910778,0.4744444444444445,-0.2466666666666667,-0.6911111111111111,3.2961965334582537,13.176631022305502,-167.46467920074952
1590512610.7109134,-2.1392560392473454,-2.481735908422861,8.830991947670206,0.4744444444444445,-0.2466666666666667,-0.6911111111111111,3.505424713821441,13.379649754704092,-168.69679950940818
1590512610.7209134,-2.08716264050177,-2.603287172162537,8.900449812664307,0.4744444444444445,-0.2466666666666667,-0.6911111111111111,3.885272413007928,13.705233496863938,-169.34796699372788
1590512610.7309134,-2.0359715207205014,-2.6787046390393314,8.917338079879917,0.5119501860529062,-0.1985614763427701,-0.697633848782148,3.7081850037526114,13.704137000750523,-170.07958198949268
1590512610.7409134,-1.9650559813796702,-2.6928251534973313,8.87505598137967,0.5255555555555556,-0.1811111111111111,-0.7,3.7411713953208396,13.62941430233958,-171.24047162807497
1590512610.7509134,-1.906144909506802,-2.7264886231389704,8.816144909506802,0.5255555555555556,-0.1811111111111111,-0.7,3.635973052690718,13.68201347365464,-171.8716616838557
1590512610.7609134,-1.799738394460118,-2.8106104129263914,8.810043600923315,0.5255555555555556,-0.1811111111111111,-0.7,3.314952551936394,13.876635034624263,-172.63045011541422
1590512610.7709134,-1.745951526032316,-2.9361131059245964,8.819008078994614,0.5255555555555556,-0.1811111111111111,-0.7,3.819204443447038,14.212802962298024,-173.75100987432674
1590512610.7809134,-1.57,-3.03,8.78,0.56,-0.11,-0.7055555555555556,4.0,14.1875,-174.8125
1590512610.7909133,-1.5643521425540943,-3.04976750106067,8.777176071277047,0.56,-0.11,-0.7055555555555556,3.9382265591854053,14.1875,-174.9713459906661
1590512610.8009133,-1.5253368287599114,-3.179326342480177,8.690052431398671,0.56,-0.11,-0.7055555555555556,3.5916448202505533,14.1875,-176.63697568601327
1590512610.8109133,-1.4882344858320644,-3.177293794332826,8.692590336836632,0.56,-0.11,-0.7055555555555556,3.148517287480967,13.988965536450403,-178.31105163961823
1590512610.8209133,-1.4589568042353507,-3.1644784021176755,8.80073757670557,0.56,-0.11,-0.7055555555555556,3.0820599205871737,13.875,-179.12308988088077
1590512610.8309133,-1.379979167501302,-3.1663655302271545,8.856365530227153,0.56,-0.03997916750130204,-0.7430414557821313,3.568276511357718,14.272845639197147,-179.29543087216058
1590512610.8409133,-1.2752898330261109,-3.1994137122608586,8.830586287739141,0.56,0.0,-0.7644444444444445,3.63969857902178,14.426465719347853,-179.28676714032608
1590512610.8509133,-1.2223634970562143,-3.2810920235502863,8.764180982337285,0.56,0.0,-0.7644444444444445,3.0374904226147272,14.518184430195983,-178.78749042261472
1590512610.8609133,-1.1775589100176436,-3.3636616349735347,8.764147029994119,0.56,0.0,-0.7644444444444445,3.0960473436581064,14.606709468731621,-177.82922956283082
1590512610.8709133,-1.0896301120083356,-3.39,8.699630112008336,0.56,0.0,-0.7644444444444445,2.992028088912043,14.478396066684033,-176.1316966223843
1590512610.8809133,-1.0567438500510489,-3.39,8.766164974668182,0.5349606056519813,0.06112558032016335,-0.7769641416184538,2.7717981256381115,14.230372657047639,-174.30010859933347
1590512610.8909132,-1.0029856488784579,-3.418208610672925,8.772388519102766,0.5222222222222223,0.09222222222222222,-0.7833333333333333,2.6287320610980722,13.772392366588434,-170.8004068716094
1590512610.9009132,-0.9646015915305335,-3.476637453551146,8.670884456285494,0.5222222222222223,0.09222222222222222,-0.7833333333333333,2.625,13.705751989413168,-168.23560742831103
1590512610.9109132,-0.903331856610182,-3.481332742644073,8.695335400745744,0.5222222222222223,0.09222222222222222,-0.7833333333333333,2.3333241038136374,13.279153745339093,-163.74988924576365
1590512610.9209132,-0.831015926364435,-3.5106595882824734,8.761319176564946,0.5222222222222223,0.09222222222222222,-0.7833333333333333,2.216688786617271,12.866755146469083,-160.33822995836994
1590512610.9309132,-0.7882901913654433,-3.4417098086345566,8.807910233891098,0.4777777777777778,0.10666666666666667,-0.7622222222222222,1.626187367107331,12.678001063141352,-154.65976009984283
1590512610.9409132,-0.7010462697605621,-3.528953730239438,8.701278774151797,0.4777777777777778,0.10666666666666667,-0.7622222222222222,1.6867734237773875,12.1933126097809,-150.05521979291856
1590512610.9509132,-0.685715516795643,-3.4942887919891072,8.7,0.4777777777777778,0.10666666666666667,-0.7622222222222222,1.1518318798366107,11.830387919891074,-146.11640612881544
1590512610.9609132,-0.6492162039144288,-3.5107837960855712,8.730783796085571,0.4777777777777778,0.10666666666666667,-0.7622222222222222,0.9375,11.39890191169777,-139.94493058716432
1590512610.9709132,-0.5825229657145726,-3.5027568897143717,8.722756889714372,0.4777777777777778,0.10666666666666667,-0.7622222222222222,0.7219611214296471,10.98919168214447,-135.0061085035892
1590512610.9809132,-0.5277319281579338,-3.428659640789669,8.716134035921034,0.49754300463444,0.1339290485379249,-0.7533619481140633,-0.012565867596853186,10.481635928454802,-128.42621437583495
1590512610.9909132,-0.5146280076341081,-3.395371992365892,8.703884022902324,0.51,0.1511111111111111,-0.7477777777777778,-0.7107495228682434,10.211775143139526,-122.24425524844932
1590512611.0009131,-0.4482610874467552,-3.3691305437233776,8.646782761212728,0.51,0.1511111111111111,-0.7477777777777778,-1.424455023803558,10.009239538962666,-114.77936294161864
1590512611.0109131,-0.41575509129213484,-3.35,8.666040730337079,0.51,0.1511111111111111,-0.7477777777777778,-1.3637761148174157,9.829592038272471,-107.98852813377809
1590512611.0209131,-0.39266908732845096,-3.322669087328451,8.743729460274478,0.51,0.1511111111111111,-0.7477777777777778,-0.749199950766201,9.340036309926765,-100.76953581758877
1590512611.030913,-0.35420010452354683,-3.315799895476453,8.732600313570641,0.5336998432146798,0.18271090206401747,-0.7872775164689108,-0.09187728645258697,8.456878592996922,-91.23941517623831
1590512611.040913,-0.3327771851043243,-3.2941657776564863,8.68555437020865,0.54,0.19111111111111112,-0.7977777777777778,0.6458555585878384,7.343716662118243,-83.11262311757262
1590512611.050913,-0.3070102679795062,-3.259347023972675,8.710652976027326,0.54,0.19111111111111112,-0.7977777777777778,0.41473307470113224,6.612756699487655,-76.31506699487655
1590512611.060913,-0.2837223409024976,-3.31511063639001,8.703722340902496,0.54,0.19111111111111112,-0.7977777777777778,0.6177061080781707,5.827087783843659,-68.40751015375689
1590512611.070913,-0.28,-3.3018944612286,8.7281055387714,0.54,0.19111111111111112,-0.7977777777777778,0.5996701913393756,5.424010574018127,-61.46672205438067
1590512611.080913,-0.25530827932893224,-3.306461147114045,8.731769426442979,0.5207953283669473,0.13166807986594795,-0.7447363037436322,0.6139410847313912,4.798089152686088,-52.90062874750166
1590512611.090913,-0.24228022154267262,-3.3254395569146546,8.768598892286636,0.5166666666666667,0.11888888888888888,-0.7333333333333333,0.33550830785022345,4.301511077133632,-45.48317446485469
1590512611.100913,-0.23188607299421546,-3.297544291976862,8.69074680293637,0.5166666666666667,0.11888888888888888,-0.7333333333333333,0.4528481751446136,3.731091605924619,-37.39920657051698
1590512611.110913,-0.16418531261122316,-3.2324121485348205,8.735814687388777,0.5166666666666667,0.11888888888888888,-0.7333333333333333,0.4485822754775181,2.9565695812077353,-29.818790781824653
1590512611.120913,-0.13100512481401885,-3.2484923127789718,8.73100512481402,0.5166666666666667,0.11888888888888888,-0.7333333333333333,0.49685898495619113,2.486025582740949,-25.057178872540916
1590512611.130913,-0.1133676703645008,-3.2917868462757527,8.740309033280507,0.5076862123613313,0.13348212713505897,-0.7163078887128015,0.4467363312202853,2.08290412044374,-20.102887282091917
1590512611.140913,-0.13,-3.3574215253855315,8.75641254306043,0.4633333333333333,0.20555555555555555,-0.6322222222222222,0.2924608029361579,1.457539197063842,-9.706277566723545
1590512611.150913,-0.0701751224289912,-3.3001751224289912,8.690058374142998,0.4633333333333333,0.20555555555555555,-0.6322222222222222,-0.01949559255631733,0.5646890303623898,-3.907994613124388
1590512611.160913,-0.023112033195020747,-3.298146611341632,9.141604426002766,0.4633333333333333,0.20555555555555555,-0.6322222222222222,0.45366528354080227,-0.34024896265560167,1.2836272475795298
1590512611.170913,-0.04802549907733602,-3.212261085947548,8.758502767991947,0.4633333333333333,0.20555555555555555,-0.6322222222222222,4.525280643628026,-3.2058134820779514,6.777071800033552
1590512611.180913,-0.03021595633583575,-3.081798782290004,7.909425824121692,0.4513349709584267,0.23713019338425734,-0.628433265682778,-0.04449296565584859,-6.0103372347342905,10.76483098855195
1590512611.190913,-0.19390678228553732,-3.1618566119541653,10.040981728089193,0.44222222222222224,0.2611111111111111,-0.6255555555555555,-7.098521213998142,6.414021368844843,19.078807293279652
1590512611.200913,-0.14765092469785254,-3.156905652504359,8.794593982385289,0.44222222222222224,0.2611111111111111,-0.6255555555555555,1.8403908916143834,3.5790082038060893,22.952712620896236
1590512611.210913,-0.10206033228696118,-3.1662663655156575,7.633136053900927,0.44222222222222224,0.2611111111111111,-0.6255555555555555,2.849743511216599,-2.292650830717403,25.886809968608837
1590512611.220913,-0.1759895025647143,-3.2619790051294286,8.430607181200047,0.44222222222222224,0.2611111111111111,-0.6255555555555555,-3.568919241321723,-2.97048341882381,29.95680245735417
1590512611.230913,-0.17373755177579978,-3.2412126553273994,8.396162862430598,0.425959773998022,0.290022130176356,-0.6255555555555555,2.486709042037543,-1.2522335198730943,35.862331453247556
1590512611.240913,-0.19580914567360352,-3.1525725629791896,8.80875547645126,0.4222222222222222,0.2966666666666667,-0.6255555555555555,-2.1356362951807224,-3.6535288882803947,38.68568592552026
1590512611.250913,-0.20920984196839368,-3.165787557511502,8.887367873574716,0.4222222222222222,0.2966666666666667,-0.6255555555555555,-2.3668233646729346,-3.871729345869174,39.65620124024805
1590512611.260913,-0.26435779001598864,-3.327859300053295,8.872140699946705,0.4222222222222222,0.2966666666666667,-0.6255555555555555,0.3178517498667614,-3.1986809379996446,43.818806626399
1590512611.270913,-0.2645734577356914,-3.3594312769809216,8.835426542264308,0.4222222222222222,0.2966666666666667,-0.6255555555555555,0.15536137028269043,-3.8803317783038573,46.50518381840969
1590512611.2809129,-0.26946377502383223,-3.365951700031776,8.785120749920559,0.4315936694559192,0.3045963527874872,-0.6298808388941849,0.9765401572926597,-3.494806561804894,49.53417937718462
1590512611.2909129,-0.300142806976472,-3.3867142689921574,8.776857075968628,0.43666666666666665,0.3088888888888889,-0.6322222222222222,0.808037281985251,-3.816962718014749,51.5071403488236
1590512611.3009129,-0.3155705702708637,-3.317582586478772,8.828993991896045,0.43666666666666665,0.3088888888888889,-0.6322222222222222,-0.7533783109443302,-4.682057027086369,52.76595341224376
1590512611.3109128,-0.3320167913852893,-3.3200839569264464,8.697773316298594,0.43666666666666665,0.3088888888888889,-0.6322222222222222,-0.39811096915495514,-4.449055484577477,54.46402171929184
1590512611.3209128,-0.3284429384874489,-3.3253288154623464,8.774912984200817,0.43666666666666665,0.3088888888888889,-0.6322222222222222,-0.2584321617611677,-3.9638841827732776,55.94593216176117
1590512611.3309128,-0.3317497937448436,-3.2960834020850522,8.87475061876547,0.4401480870355092,0.3114999541655208,-0.6322222222222222,-0.6166701042526064,-4.084372421810546,56.96509600240006
1590512611.3409128,-0.3628109511446778,-3.315621902289356,8.813594524427662,0.4455555555555555,0.31555555555555553,-0.6322222222222222,-0.37255133349067737,-4.3125,58.007773778616944
1590512611.3509128,-0.4054106827025115,-3.3545893172974885,8.784589317297488,0.4455555555555555,0.31555555555555553,-0.6322222222222222,-0.6444751503360453,-4.336579191722675,58.928291917226744
1590512611.3609128,-0.44009305102004986,-3.34009305102005,8.747383686224937,0.4455555555555555,0.31555555555555553,-0.6322222222222222,-0.7646072544682047,-4.45385196109414,59.5963670599389
1590512611.3709128,-0.478351363921299,-3.3741756819606494,8.785162275291691,0.4455555555555555,0.31555555555555553,-0.6322222222222222,-0.6462840980324753,-4.765794036762178,60.620186085778414
1590512611.3809128,-0.47885496183206105,-3.4301526717557254,8.78412213740458,0.4715606446140797,0.30812553011026295,-0.6365564037319763,-0.3802480916030534,-4.875,61.153625954198475
1590512611.3909128,-0.4628436428068422,-3.4270618568410534,8.721469071579474,0.4922222222222222,0.3022222222222222,-0.64,-0.78731741668749,-4.606636605256582,61.55390892982894
1590512611.4009128,-0.48063512471072256,-3.3618513756749806,8.702486500385703,0.4922222222222222,0.3022222222222222,-0.64,-0.523142195937259,-4.457010156852661,61.839949215736695
1590512611.4109128,-0.495080592134492,-3.3603223685379677,8.552824012368715,0.4922222222222222,0.3022222222222222,-0.64,-0.027724094115974485,-4.056455589913099,61.8104851966377
1590512611.4209127,-0.526214385126441,-3.409959297287361,8.625970168850609,0.4922222222222222,0.3022222222222222,-0.64,-1.0295964522990466,-4.4598881331897795,61.33641448491374
1590512611.4309127,-0.5896162900825328,-3.46,8.916055202273034,0.5276405237601287,0.29513856191464094,-0.6536224236684256,-2.0203845893654444,-5.075690028412935,60.780650453253955
1590512611.4409127,-0.6516135919333265,-3.3827176149809652,8.889723994238091,0.5644444444444444,0.2877777777777778,-0.6677777777777778,-1.1975849495832904,-4.63508494958329,60.8125
1590512611.4509127,-0.667126312424697,-3.362184218938258,8.78126312424697,0.5644444444444444,0.2877777777777778,-0.6677777777777778,-1.415230273672822,-4.651578905308712,60.732039452654355
1590512611.4609127,-0.6721372358298701,-3.337519674595455,8.643245202935715,0.5644444444444444,0.2877777777777778,-0.6677777777777778,-1.0961402422849058,-4.600428861968344,60.53578455212662
1590512611.4709127,-0.7202155683638861,-3.3250808381364574,8.655296406500344,0.5644444444444444,0.2877777777777778,-0.6677777777777778,-1.1263473022742878,-4.7820920639214295,60.500336825568574
1590512611.4809127,-0.7637987662378677,-3.358993831189338,8.728993831189339,0.6792516018555558,0.2903102886030229,-0.681284502179085,-1.1613193991199444,-4.842530844053309,60.63372686696002
1590512611.4909127,-0.7959997918184657,-3.3596669095451235,8.777333194545644,0.8666666666666667,0.29444444444444445,-0.7033333333333334,-1.1104142812532527,-4.6333337670448635,60.6687506505673
1590512611.5009127,-0.8422620852551109,-3.3240873617517037,8.75503902073126,0.8666666666666667,0.29444444444444445,-0.7033333333333334,-1.2700859014666688,-4.639138032844444,60.613592021896295
1590512611.5109127,-0.863654621472301,-3.315381514110796,8.695481932208452,0.8666666666666667,0.29444444444444445,-0.7033333333333334,-1.017444844706585,-4.7271586157981185,60.69892069210094
1590512611.5209126,-0.8768448053378655,-3.2405344160135967,8.745241557297076,0.8666666666666667,0.29444444444444445,-0.7033333333333334,-1.375,-4.565840100084978,60.75
1590512611.5309126,-0.8702443898907878,-3.2207331696723633,8.798044880873698,0.8666666666666667,0.29444444444444445,-0.7033333333333334,-1.375,-4.442082310452271,60.75
1590512611.5409126,-0.9047700038654812,-3.18,8.81380749903363,1.5055555555555555,-0.045555555555555564,-1.0788888888888888,-1.139906262079629,-4.269351565519907,60.758890606880556
1590512611.5509126,-0.9851374835019797,-3.1297250329960407,8.74613396392433,1.5055555555555555,-0.045555555555555564,-1.0788888888888888,-1.222723273207215,-4.357388363396392,60.4775558183018
1590512611.5609126,-0.9875997088034943,-3.082400291196506,8.768720815350216,1.5055555555555555,-0.045555555555555564,-1.0788888888888888,-0.9829994540065519,-4.517000545993448,60.4375
1590512611.5709126,-0.9166396761133604,-3.1239676113360324,8.85251012145749,1.5055555555555555,-0.045555555555555564,-1.0788888888888888,-0.6244939271255061,-4.491396761133603,60.3706983805668
1590512611.5809126,-0.9676517432261823,-3.0168907448771485,8.797773137807129,1.2281864836575918,-0.013611364690902426,-0.9585138281915984,-0.7044527532290958,-4.497519908711276,59.61776366902981
1590512611.5909126,-1.1081950969505423,-2.9290732040659435,8.962804732211497,0.7144444444444444,0.045555555555555564,-0.7355555555555555,-1.6707311864696335,-5.028505915264372,58.76692096608866
1590512611.6009126,-1.064659793407201,-2.985340206592799,8.69193814066481,0.7144444444444444,0.045555555555555564,-0.7355555555555555,-0.5078607967450771,-4.41623708795007,59.65902065927989
1590512611.6109126,-1.0756383160047724,-3.0108510880063633,8.707340492017499,0.7144444444444444,0.045555555555555564,-0.7355555555555555,-0.7087772001590819,-4.581117550139196,60.809176325208796
1590512611.6209126,-1.061029346675647,-3.0444853266621763,8.798627537765803,0.7144444444444444,0.045555555555555564,-0.7355555555555555,-1.1573222361204656,-4.698222361204657,62.43336620802463
1590512611.6309125,-1.0573782703488372,-3.072168120155039,8.83391593992248,0.6661099671619294,0.08341192937123171,-0.731161512166236,-1.0679619367732558,-4.546114189680233,64.10840600775194
1590512611.6409125,-1.155629691409508,-3.0228023352793993,8.802185154295247,0.5555555555555556,0.17,-0.7211111111111111,-1.0488427856547122,-4.9375,65.8525854879066
1590512611.6509125,-1.1559520122049884,-2.924047987795012,8.692761609763991,0.5555555555555556,0.17,-0.7211111111111111,-1.2774800050854118,-5.112599974572941,67.07271994406047
1590512611.6609125,-1.0945597772031033,-2.9626413367813806,8.662798886015516,0.5555555555555556,0.17,-0.7211111111111111,-0.6230306345733041,-4.965013924806048,67.20400835488363
1590512611.6709125,-1.1,-2.9489588542850647,8.742136849283927,0.5555555555555556,0.17,-0.7211111111111111,-0.28972493748579226,-4.728681234371448,66.60008666742442
1590512611.6809125,-1.1,-3.0034426655408697,8.891967330237392,0.5555555555555556,0.17,-0.7211111111111111,-1.4815583087065243,-5.026639577176631,65.45081877374729
1590512611.6909125,-0.9827563576702215,-3.0909187858900737,8.858648482362591,0.5488888888888889,0.1511111111111111,-0.7266666666666667,-0.39493180885972107,-4.51418939704676,62.50944678014766
1590512611.7009125,-0.8835628878462237,-3.0680463901922206,8.789423717269562,0.5488888888888889,0.1511111111111111,-0.7266666666666667,-0.27011597548055094,-4.502152073558348,58.68745506659604
1590512611.7109125,-0.8132524073316727,-3.1026504814663345,8.729218500204484,0.5488888888888889,0.1511111111111111,-0.7266666666666667,-0.35203275458229544,-3.797056827899022,51.27706156820463
1590512611.7209125,-0.6960116902094496,-3.1696970287384314,8.88714564052606,0.5488888888888889,0.1511111111111111,-0.7266666666666667,-0.10361665854846566,-2.9161166585484657,43.627380662445205
1590512611.7309124,-0.48287854387476126,-3.4357009100782743,8.825009362945208,0.5417487068732341,0.13127727217873655,-0.7290467273385516,0.43306079360323585,-2.0001170368151007,30.667059520242688
1590512611.7409124,-0.37147245683533897,-3.525582629493983,8.7942125719411,0.5288888888888889,0.09555555555555556,-0.7333333333333333,0.5789857238956574,-0.9222942671350625,16.810491254951792
1590512611.7509124,-1.7259598812016161,-4.793964896051414,7.121146599152831,0.5288888888888889,0.09555555555555556,-0.7333333333333333,-5.858663700764399,8.593308766249574,-6.894420371001509
1590512611.7609124,-4.909709952606635,-4.403423696682465,-0.19763412322274831,0.5288888888888889,0.09555555555555556,-0.7333333333333333,-51.22273696682464,104.24785545023697,-169.468009478673
1590512611.7709124,-2.7698657302210288,-2.3007963230737447,-2.4722482958066516,0.5288888888888889,0.09555555555555556,-0.7333333333333333,-53.76460829374096,61.411613044825444,-380.857415823177
1590512611.7809124,1.3372545952287838,-1.521091122409073,0.21795463433711382,0.5104949376439404,0.13602224829444226,-0.7137131186720549,-31.078925498631207,-11.440139812280016,-469.3734601095033
1590512611.7909124,0.49809940090475613,-1.4912813302359702,-0.060632106614500525,0.4955555555555556,0.1688888888888889,-0.6977777777777778,-32.087850745812446,41.51307082161634,-453.9482669030444
1590512611.8009124,-0.2465892450176987,-1.1883048053144547,-0.4010594966784658,0.4955555555555556,0.1688888888888889,-0.6977777777777778,-27.710141589487467,57.996842118023565,-440.948731392135
1590512611.8109124,-0.3450926495463632,-1.051450484391819,-0.42072524219590957,0.4955555555555556,0.1688888888888889,-0.6977777777777778,-28.56713247731816,64.7228034176534,-428.21208120290635
1590512611.8209124,-0.38,-0.9622346368715083,-0.3314664804469274,0.4955555555555556,0.1688888888888889,-0.6977777777777778,-31.125436452513966,66.61400139664805,-416.5243540502793
1590512611.8309124,-0.38,-0.9343395849960097,-0.15712240622505985,0.4955555555555556,0.1688888888888889,-0.6977777777777778,-34.04569969573025,67.92158195331206,-404.7125430217478
1590512611.8409123,1.149152555538294,-4.248671741494485,5.446794314121485,0.4755555555555556,0.3388888888888889,-0.6622222222222223,84.10984348298896,2.570354979027499,-366.78826025322354
1590512611.8509123,-0.22683242400623538,2.7188199532346062,3.270252533125487,0.4755555555555556,0.3388888888888889,-0.6622222222222223,232.27383086515977,-14.939818784099764,-298.1629384255651
1590512611.8609123,0.7198482625120983,0.6505332667270285,9.506397639639077,0.4755555555555556,0.3388888888888889,-0.6622222222222223,85.73914265197165,38.60924864966125,-244.41431202972308
1590512611.8709123,-1.105122933295325,-0.579981114595211,14.130642816419613,0.4755555555555556,0.3388888888888889,-0.6622222222222223,-57.30462514253136,41.916628064424174,-210.90938123574688
1590512611.8809123,1.5819712974429956,0.2766722517665914,9.061209295548917,0.4363811790226885,0.35910792193811064,-0.6628540670050104,19.681863298608583,10.876315837400742,-195.30381274131275
1590512611.8909123,1.8765651149565359,0.4135522788203754,6.0791449346006985,0.3377777777777778,0.41,-0.6644444444444444,37.37983893898773,13.313898874807052,-189.29238514501583
1590512611.9009123,0.9527987997999667,-0.7886540613911841,7.387892029623984,0.3377777777777778,0.41,-0.6644444444444444,-1.5700042268949588,5.690481151620508,-171.31870192651155
1590512611.9109123,1.2518386692899302,-1.1858129136111608,9.575335360400643,0.3377777777777778,0.41,-0.6644444444444444,-7.885563852620282,21.97601055267394,-156.73028080844213
1590512611.9209123,1.2953327452709988,-1.404493776340292,9.079701068313241,0.3377777777777778,0.41,-0.6644444444444444,0.36722655101440704,20.867704351661274,-146.98909021856318
1590512611.9309123,1.5951375285120086,-1.7061773782369516,9.082125318663627,0.3297128673017577,0.4187512858356814,-0.665302413644021,8.143633436200188,2.963974238561653,-138.4762008587146
1590512611.9409122,0.9941283797519821,-1.7165836552144744,8.663891034763163,0.2855555555555556,0.4666666666666667,-0.67,-2.2837308141898762,12.35053491563326,-118.92638557125431
1590512611.9509122,0.6699790705786597,-1.7399790705786597,8.473058408588814,0.2855555555555556,0.4666666666666667,-0.67,-3.6115630208131466,10.08676989263982,-105.71764418045812
1590512611.9609122,0.8428586052987184,-2.016900618320298,8.853560460259613,0.2855555555555556,0.4666666666666667,-0.67,5.529777138528316,7.224737418615126,-85.00044787273248
1590512611.9709122,0.7763291083141287,-2.1773417833717423,9.312126617620988,0.2855555555555556,0.4666666666666667,-0.67,3.0409806550257046,6.121835390444956,-68.22436597012941
1590512611.9809122,0.674412555294516,-2.238825110589032,9.366499671936843,0.276235034323167,0.47909402830985154,-0.6685877998132744,-0.4407991512688636,4.578539378161576,-49.804868563083375
1590512611.9909122,0.5473591275870218,-2.0616972213781692,8.463014281373443,0.2488888888888889,0.5155555555555555,-0.6644444444444444,0.8302145582227625,1.6344407306121072,-29.793766248016475
1590512612.0009122,0.4508911761014183,-2.136559558177482,8.771585289318438,0.2488888888888889,0.5155555555555555,-0.6644444444444444,-1.4764889544370527,0.33477940253545874,-4.005303125392242
1590512612.0109122,0.47973413015858074,-2.262464825184697,8.957553997458943,0.2488888888888889,0.5155555555555555,-0.6644444444444444,0.1213442896804856,-0.6226736388875818,12.488153498658887
1590512612.0209122,0.5784188979342149,-2.584835066585102,9.865453860994778,0.2488888888888889,0.5155555555555555,-0.6644444444444444,1.4782598465954542,-1.48616535692438,24.61815620441391
1590512612.0309122,0.4603570287307905,-2.275951544025797,8.594045260436337,0.23968264112818627,0.5228438350327784,-0.6636772571310525,-0.7246971501612294,-3.1108542979984315,47.60336294047585
1590512612.0409122,0.46461068702290076,-2.400763358778626,8.79993893129771,0.2222222222222222,0.5366666666666666,-0.6622222222222223,-2.2020992366412213,-5.178053435114504,63.429580152671754
1590512612.0509121,0.43456749558160956,-2.402595026510343,8.5940825927862,0.2222222222222222,0.5366666666666666,-0.6622222222222223,-2.938257660617828,-6.249242339382172,75.9624639061061
1590512612.0609121,0.4233562695178108,-2.4799311914465676,8.742255332662891,0.2222222222222222,0.5366666666666666,-0.6622222222222223,-1.9550362568146933,-6.959766844863177,89.94533689726353
1590512612.0709121,0.4444212734980516,-2.5573435961118487,8.743662698582623,0.2222222222222222,0.5366666666666666,-0.6622222222222223,-1.067599719522117,-7.69046535776988,102.26091669164562
1590512612.080912,-0.3430161579892279,-2.6324380610412925,8.468916816277678,0.22463115898663474,0.532250282598577,-0.6682445641332536,-6.652775284260922,-17.238345302214242,121.43473967684021
1590512612.090912,-1.1951000570896309,-2.2217074306661457,8.49474429854872,0.2288888888888889,0.5244444444444445,-0.6788888888888889,-22.385865809320634,-21.67457783720441,181.87872303266127
1590512612.100912,-0.004146209548991697,-1.7365040112977375,11.538293020041465,0.2288888888888889,0.5244444444444445,-0.6788888888888889,-34.75225166010637,1.6403916649139134,261.551329963042
1590512612.110912,-1.64587892799041,-2.328822673174073,7.673814538916003,0.2288888888888889,0.5244444444444445,-0.6788888888888889,29.801834489254215,-26.72429681479579,278.4162760082199
1590512612.120912,-0.6559070361384243,-1.4431901417443493,4.43321312731452,0.2288888888888889,0.5244444444444445,-0.6788888888888889,16.27252266632614,-20.059666709232538,272.00848550632105
1590512612.130912,-0.1417026465290287,-3.2025539697935432,11.010783428017183,0.2547988237648761,0.5201261219651132,-0.678169168475667,-28.92257863378135,-22.498959055009006,262.37353470971317
1590512612.140912,-0.3322038319032762,-2.99006264625585,9.478735861934478,0.3088888888888889,0.5111111111111111,-0.6766666666666666,-12.328483022133383,-21.76373890893136,259.6603786807722
1590512612.150912,-0.5514757072777368,-3.053398069126179,8.9687185001008,0.3088888888888889,0.5111111111111111,-0.6766666666666666,6.960193927379432,-18.29975724077683,258.73762123961205
1590512612.160912,-0.22052102950408037,-3.2152242986141295,9.777539717031242,0.3088888888888889,0.5111111111111111,-0.6766666666666666,-4.653212371432712,-19.843341059442754,255.22196267323386
1590512612.170912,4.378581328398108,-9.909010692987867,7.64563623277812,0.3088888888888889,0.5111111111111111,-0.6766666666666666,-13.30998097881966,-22.705693501953526,250.95264754266913
1590512612.180912,9.46568124356213,-16.382413771576616,3.8732955645035427,0.3328661651631967,0.4818055512202904,-0.6746685603104743,-9.482067609326716,-20.369939445016698,180.25229812404407
1590512612.190912,-0.5925496163573235,0.1365995113378199,5.589094689013674,0.3888888888888889,0.4133333333333333,-0.67,-8.999099832826095,1.1943584165630767,-40.830956106133996
1590512612.200912,-1.3053592410793764,0.2659571708334394,4.946744576413439,0.3888888888888889,0.4133333333333333,-0.67,24.679795391540985,20.68205574912892,-117.13445789567385
1590512612.210912,-0.5833007238063453,-1.5859608685676143,6.229693581694166,0.3888888888888889,0.4133333333333333,-0.67,26.770075457332972,3.8238876952921297,-94.90439811434888
1590512612.220912,-1.0303328782707621,-2.3603927189988623,10.239214562002275,0.3888888888888889,0.4133333333333333,-0.67,-16.655007110352674,0.04756257110352724,-78.58007110352673
1590512612.230912,-0.3969126873744398,-2.3492743007263175,9.481845155308298,0.4018176823091056,0.4094546953072683,-0.6683839008224729,-19.27548678720445,14.12523180343069,-65.03421032297945
1590512612.240912,-0.17,-2.25,7.78,0.43333333333333335,0.4,-0.6644444444444444,11.4375,-0.5,-57.5
1590512612.250912,-5.392948726843822,-10.15927426628738,6.956637063761882,0.43333333333333335,0.4,-0.6644444444444444,15.855798584611115,7.556897418996739,-49.547062547699994
1590512612.260912,-0.2357491744384368,-10.19278731356824,7.823079435352179,0.43333333333333335,0.4,-0.6644444444444444,-14.017785862031426,1.0851575824654347,18.890973709039447
1590512612.270912,6.826540624886597,-9.058863628116269,5.205161664912726,0.43333333333333335,0.4,-0.6644444444444444,-5.075770221722248,-16.323234568349243,92.42478317668832
1590512612.280912,0.9756753720864926,-3.91674950856501,9.51,0.43237776529688915,0.40210224968017727,-0.6644444444444444,10.690211668070766,-7.955235537770289,71.35376298792474
1590512612.290912,-0.727693198486837,-0.0997243881726241,9.478217401374199,0.42777777777777776,0.4122222222222222,-0.6644444444444444,-3.224441249131475,-2.163639697367405,-16.559078977842972
1590512612.300912,-0.8074343594973468,-3.574852816621437,8.379698373463778,0.42777777777777776,0.4122222222222222,-0.6644444444444444,2.3129656197604276,10.088548778801446,-35.755655497554145
1590512612.310912,-1.2112120194295164,-7.436060097147582,8.647240982844151,0.42777777777777776,0.4122222222222222,-0.6644444444444444,-3.919528666287722,-2.9592144868747416,-30.22766380735841
1590512612.320912,-0.7452268499379908,-5.106134249689955,8.500943313352625,0.42777777777777776,0.4122222222222222,-0.6644444444444444,0.3474866938817698,-4.110631330095081,-5.844718892104176
1590512612.3309119,-0.21720459679795698,-3.501289657204597,8.513275709655241,0.4243401106636545,0.40878455510809897,-0.6694687271497015,4.023745211668794,-3.2031848541400647,8.362691533248206
1590512612.3409119,0.13807179580508666,-4.355872651167023,8.906023931935028,0.4133333333333333,0.3977777777777778,-0.6855555555555556,2.004882501478684,1.1839156126302381,-5.909615428363438
1590512612.3509119,0.0,-4.12,8.86,0.4133333333333333,0.3977777777777778,-0.6855555555555556,-1.375,-0.9375,0.5625
1590512612.3609118,0.003697894332979756,-4.363697894332979,8.615798596221985,0.4133333333333333,0.3977777777777778,-0.6855555555555556,-0.22688816041887652,-0.2599824527748313,0.5168179715182017
1590512612.3709118,-0.014728228883868396,-4.350543542232263,8.598682057220966,0.4133333333333333,0.3977777777777778,-0.6855555555555556,-0.43265999658268944,-0.0625,-0.13323714236895562
1590512612.3809118,0.01712338389687316,-4.414246767793746,8.590719154025782,0.4133333333333333,0.3977777777777778,-0.6855555555555556,-0.7810370113720502,-0.0625,-0.18300528733886431
1590512612.3909118,-0.024134169884169884,-4.223016087516087,8.798491956241957,0.4066666666666667,0.3911111111111111,-0.6855555555555556,0.34776383526383525,-0.05027952059202059,0.012220479407979407
1590512612.4009118,-0.0038914092664092646,-4.371462998712999,8.724268500643502,0.4066666666666667,0.3911111111111111,-0.6855555555555556,0.6851431788931789,-0.00810710263835264,0.05439289736164736
1590512612.4109118,0.0,-4.374665869825057,8.559779238654063,0.4066666666666667,0.3911111111111111,-0.6855555555555556,0.252759516824224,-0.00555638559889891,-0.0625
1590512612.4209118,0.0,-4.329090513962838,8.643334057734798,0.4066666666666667,0.3911111111111111,-0.6855555555555556,-0.7916757216849579,-0.05303071462204354,-0.0625
1590512612.4309118,0.009722476801466377,-4.380555046397067,8.638889907205867,0.40685168213235573,0.3916969934191265,-0.6847229859599547,-0.6684202801008133,-0.05556192003665941,0.05729644002749456
1590512612.4409118,0.0,-4.383226787634056,8.616773212365944,0.4133333333333333,0.4122222222222222,-0.6555555555555556,0.17035293809161706,0.14818778351731915,-0.11189592783910637
1590512612.4509118,0.0,-4.287276508237252,8.690907830587582,0.4133333333333333,0.4122222222222222,-0.6555555555555556,0.7272825735345086,0.01704348529309827,-0.07954348529309826
1590512612.4609118,0.0,-4.224538122479602,8.697915689768358,0.4133333333333333,0.4122222222222222,-0.6555555555555556,0.31596408140298227,0.031827346900497044,-0.10966367345024852
1590512612.4709117,-0.00350404022266116,-4.314016160890644,8.635256060333992,0.4133333333333333,0.4122222222222222,-0.6555555555555556,-0.31570075417489674,-0.04059974860836775,-0.08440025139163225
1590512612.4809117,-0.018567067696175256,-4.374268270784701,8.657850601544263,0.4133333333333333,0.4122222222222222,-0.6555555555555556,-0.598132519303286,0.05354417310109534,-0.17854417310109533
1590512612.4909117,-0.01,-4.313820070560565,8.678539788318307,0.4066666666666667,0.4044444444444445,-0.6855555555555556,-0.11025088200705606,0.04962514700117601,-0.11212514700117601
1590512612.5009117,-0.007842076675870186,-4.28568415335174,8.739210383379351,0.4066666666666667,0.4044444444444445,-0.6855555555555556,0.2819091454306794,0.0,-0.04901297922418865
1590512612.5109117,-0.0018234558639659915,-4.284587646911728,8.694529632408102,0.4066666666666667,0.4044444444444445,-0.6855555555555556,0.4882408102025506,0.022793198299574893,0.011396599149787447
1590512612.5209117,-0.01,-4.3437994634473505,8.660699195171025,0.4066666666666667,0.4044444444444445,-0.6855555555555556,-0.20250670690811534,0.11531166163648558,0.03343498490945674
1590512612.5309117,-0.01,-4.315668678739101,8.618503018108651,0.4066666666666667,0.4044444444444445,-0.6855555555555556,-0.554141515761234,0.07135731052984574,-0.09842806841046278
1590512612.5409117,-0.01,-4.369885389438281,8.6605730528086,0.4133333333333333,0.3977777777777778,-0.6644444444444444,-0.6767552598387775,-0.05891841994625916,-0.1228510519677555
1590512612.5509117,-0.01,-4.3622185460727145,8.698907269636427,0.4133333333333333,0.3977777777777778,-0.6644444444444444,0.042011305683002265,0.1806704352276674,0.02090226113660043
1590512612.5609117,-0.009254152608357125,-4.244475084349857,8.69,0.4133333333333333,0.3977777777777778,-0.6644444444444444,0.6063538152089281,0.0,-0.05317690760446406
1590512612.5709116,-0.0024505255644951983,-4.285296846613028,8.69,0.4133333333333333,0.3977777777777778,-0.6644444444444444,0.43626313911238,0.0,0.031868430443810006
1590512612.5809116,0.0,-4.3,8.673240593286495,0.4133333333333333,0.3977777777777778,-0.6644444444444444,-0.35822404371584704,0.0,-0.04224629195940671
1590512612.5909116,0.0,-4.355686673448627,8.654089521871821,0.4195207414942918,0.3924742850683847,-0.668864021702272,-0.5994404883011191,0.14916073245167855,-0.0625
1590512612.6009116,0.0012026152647447406,-4.298797384735255,8.699176462617299,0.4211111111111111,0.3911111111111111,-0.67,-0.21478750973948982,-0.007516345404654628,-0.10996730919069074
1590512612.6109116,0.008307022595616383,-4.2916929774043835,8.635236796639452,0.4211111111111111,0.3911111111111111,-0.67,0.362445585893831,-0.05191889122260239,-0.02116221755479522
1590512612.6209116,-0.017840349917987972,-4.278638600328048,8.687840349917987,0.4211111111111111,0.3911111111111111,-0.67,0.3700109349371241,-0.0692489065062876,-0.049002186987424826
1590512612.6309116,-0.004350818512205319,-4.332596725951178,8.674350818512206,0.4211111111111111,0.3911111111111111,-0.67,-0.05153692149358374,-0.11140369214935839,0.03530738429871676
1590512612.6409116,0.0,-4.310977416826957,8.67,0.42777777777777776,0.3977777777777778,-0.6644444444444444,-0.5,0.0625,-0.0625
1590512612.6509116,0.0,-4.368587576223291,8.67,0.42777777777777776,0.3977777777777778,-0.6644444444444444,-0.48635727033860493,0.06330251350949383,-0.06330251350949383
1590512612.6609116,-0.0005090201542194144,-4.261527060462658,8.673054120925316,0.42777777777777776,0.3977777777777778,-0.6644444444444444,0.5402303682529006,0.11863724807225733,-0.12181862403612866
1590512612.6709116,-0.010484391176236363,-4.29,8.73,0.42777777777777776,0.3977777777777778,-0.6644444444444444,0.10078044118818189,0.006054889702954528,-0.0625
1590512612.6809115,-0.01883491279764275,-4.29,8.73,0.42777777777777776,0.3977777777777778,-0.6644444444444444,-0.31674563988213744,0.11043640997053436,-0.0625
1590512612.6909115,-0.005039379870668215,-4.297480310064666,8.707559069806003,0.41198601208570534,0.40858267009340626,-0.6644444444444444,-0.46850387580832364,0.03149612419167634,-0.01574806209583817
1590512612.7009115,-0.006540910887610348,-4.319622732662831,8.67383635644956,0.4066666666666667,0.4122222222222222,-0.6644444444444444,-0.21383514866704728,-0.04088069304756467,-0.04088069304756467
1590512612.7109115,-0.01006958869962609,-4.3199304113003745,8.610139177399251,0.4066666666666667,0.4122222222222222,-0.6644444444444444,0.375,-0.062210047084891286,0.0
1590512612.7209115,-0.03185137100124637,-4.298148628998754,8.653702742002492,0.4066666666666667,0.4122222222222222,-0.6644444444444444,0.375,0.028547379171859857,0.0
1590512612.7309115,-0.014158873904911901,-4.298613708698363,8.713068543491815,0.4066666666666667,0.4122222222222222,-0.6644444444444444,-0.1095211142829019,0.17017135872953376,0.0
1590512612.7409115,-0.017240929161067384,-4.3217227874832025,8.705518141677866,0.42195307267336446,0.3969358162155244,-0.6732944689746378,-0.4590348435400269,0.1875,-0.0905116145133423
1590512612.7509115,-0.009836097050096002,-4.35,8.658688776400767,0.42777777777777776,0.3911111111111111,-0.6766666666666666,-0.2387316721941002,0.0,0.06147560656310002
1590512612.7609115,-0.0025149240705184157,-4.35,8.600119392564148,0.42777777777777776,0.3911111111111111,-0.6766666666666666,0.26459897015185896,0.0,0.0157182754407401
1590512612.7709115,-0.010614885503424463,-4.27,8.722459542013699,0.42777777777777776,0.3911111111111111,-0.6766666666666666,0.34809875922517974,-0.05865696560359711,0.0
1590512612.7809114,-0.018572350073042556,-4.27,8.754289400292171,0.42777777777777776,0.3911111111111111,-0.6766666666666666,-4.031569561174786e-05,-0.008922812043484038,0.0
1590512612.7909114,-0.009273956262425448,-4.302178131212724,8.718547912524851,0.4211111111111111,0.4122222222222222,-0.6644444444444444,-0.43296222664015904,0.013613320079522864,-0.0625
1590512612.8009114,-0.0009353876739562634,-4.3271938369781315,8.701870775347912,0.4211111111111111,0.4122222222222222,-0.6644444444444444,-0.38084617296222667,0.1699614811133201,-0.0625
1590512612.8109114,0.0,-4.318656444657403,8.60470244369909,0.4211111111111111,0.4122222222222222,-0.6644444444444444,0.0876916626736943,0.125,-0.0625
1590512612.8209114,-0.002226706407242164,-4.298886646796379,8.672226706407242,0.4211111111111111,0.4122222222222222,-0.6644444444444444,0.4201038561934206,0.11804154247736824,-0.05902077123868412
1590512612.8309114,-0.03328581742784679,-4.283357091286077,8.703285817427847,0.4211111111111111,0.4122222222222222,-0.6644444444444444,0.17745455134494692,0.020981820537978785,-0.010490910268989392
1590512612.8409114,-0.011366734165088075,-4.308633265834912,8.731474949376185,0.4211111111111111,0.4066546427543227,-0.6580814964811307,-0.14343686720229926,0.04473947786704988,-0.04473947786704988
1590512612.8509114,0.0,-4.34060084612825,8.691931359034083,0.4211111111111111,0.4044444444444445,-0.6555555555555556,-0.4645921471692732,0.019581570566145366,-0.0625
1590512612.8609114,-0.018727657496337296,-4.340636171251831,8.566997883770146,0.4211111111111111,0.4044444444444445,-0.6555555555555556,-0.2113564219436757,0.1170478593521081,-0.0625
1590512612.8709114,-0.0011492681547128,-4.321149268154713,8.607126829613218,0.4211111111111111,0.4044444444444445,-0.6555555555555556,0.34267683314870245,-0.051725611049567494,-0.0625
1590512612.8809114,0.0,-4.280274923073828,8.729175230778512,0.4211111111111111,0.4044444444444445,-0.6555555555555556,0.22603096152685878,-0.0625,-0.012843653842286272
1590512612.8909113,0.0,-4.308510883905013,8.739503627968338,0.4211111111111111,0.3977777777777778,-0.6855555555555556,-0.19680697559366755,-0.006204650395778364,-0.05319302440633245
1590512612.9009113,-0.00024450549450549455,-4.281711538461539,8.726576923076923,0.4211111111111111,0.3977777777777778,-0.6855555555555556,-0.37347184065934064,-0.12041552197802198,0.12194368131868132
1590512612.9109113,-0.006646062271062272,-4.326522435897436,8.636955128205129,0.4211111111111111,0.3977777777777778,-0.6855555555555556,-0.3334621108058608,-0.0003863324175824162,0.041924221611721615
1590512612.9209113,-0.01,-4.326754365541327,8.636491268917347,0.4211111111111111,0.3977777777777778,-0.6855555555555556,0.026498835855646108,0.0625,0.0
1590512612.9309113,-0.0025724444079082576,-4.305144888815817,8.716848000328826,0.4211111111111111,0.3977777777777778,-0.6855555555555556,0.21784444490114677,0.016077777549426617,0.0
1590512612.9409113,-0.00971539883782356,-4.280569202324353,8.778861595351295,0.41355468979280385,0.4042547103363269,-0.6650452691201502,0.18927875726360274,0.12144248547279451,-0.06072124273639726
1590512612.9509113,-0.01,-4.300295522033496,8.668965672882765,0.4133333333333333,0.4044444444444445,-0.6644444444444444,-0.24907649364532605,0.12222948093597814,-0.002770519064021855
1590512612.9609113,-0.01,-4.32,8.6,0.4133333333333333,0.4044444444444445,-0.6644444444444444,-0.18648720866087437,-0.061487208660874364,-0.1854744173217487
1590512612.9709113,-0.01,-4.32,8.6,0.4133333333333333,0.4044444444444445,-0.6644444444444444,-0.0961052785822645,0.028894721417735497,-0.004710557164529006
1590512612.9809113,-0.01,-4.293248724522172,8.6936294641724,0.4133333333333333,0.4044444444444445,-0.6644444444444444,0.06289660380231996,0.10429886793410666,-0.021097735868213313
1590512612.9909112,-0.0034495579233733845,-4.2996513262298794,8.753100884153254,0.40532723746190075,0.4044444444444445,-0.6629887906496386,0.043119474042167316,-0.03876105191566537,-0.021559737021083658
1590512613.0009112,-0.01790693779102878,-4.292093062208971,8.742093062208971,0.4011111111111111,0.4044444444444445,-0.6622222222222223,-0.16787754179089479,0.042877541790894785,-0.11191836119392985
1590512613.0109112,-0.02,-4.318871011726207,8.624515953095173,0.4011111111111111,0.4044444444444445,-0.6622222222222223,-0.4280917643850559,0.0625,-0.18514794109626398
1590512613.0209112,-0.00038716250636780525,-4.329806418746816,8.64941925624045,0.4011111111111111,0.4044444444444445,-0.6622222222222223,-0.13104941416199695,0.001209882832399388,-0.06491976566479878
1590512613.0309112,0.007931566265060242,-4.298273734939759,8.705520963855422,0.4011111111111111,0.4044444444444445,-0.6622222222222223,0.22200602409638553,0.0,-0.0625
1590512613.0409112,0.0010720517147678847,-4.298927948285232,8.737855896570464,0.4060710823806845,0.4044444444444445,-0.669166181999625,0.20090064643459854,-0.05579967678270072,-0.0625
1590512613.0509112,-0.026869504045022863,-4.3,8.757913002696682,0.4066666666666667,0.4044444444444445,-0.67,-0.0923906671356548,0.10543440028139289,-0.11847813342713095
1590512613.0609112,-0.016342591749385304,-4.306828704125307,8.650740733995082,0.4066666666666667,0.4044444444444445,-0.67,-0.2957176031326837,0.08232059921682908,-0.16767940078317092
1590512613.0709112,-0.01,-4.327779952163514,8.644449880408784,0.4066666666666667,0.4044444444444445,-0.67,-0.20831294846705806,0.006937649489019357,-0.020812948467058057
1590512613.0809112,-0.01568645517967619,-4.324313544820324,8.655686455179676,0.4066666666666667,0.4044444444444445,-0.67,-0.00979827563511912,0.0,0.03554034487297617
1590512613.0909111,-0.025020363724343724,-4.304938908826969,8.705183273519093,0.4100135758162291,0.4044444444444445,-0.67,0.125,-0.031377273277148274,0.0625
1590512613.1009111,-0.02096228431821652,-4.299037715681783,8.731924568636433,0.4133333333333333,0.4044444444444445,-0.67,-0.044457169033440214,-0.006014276988853262,0.006014276988853262
1590512613.1109111,-0.02,-4.3,8.65122652045893,0.4133333333333333,0.4044444444444445,-0.67,-0.11173342471316886,-0.14770027413950654,0.0
1590512613.1209111,-0.007638619011168031,-4.312361380988832,8.63,0.4133333333333333,0.4044444444444445,-0.67,-0.1636293155900999,-0.1488706844099001,0.038629315590099904
1590512613.130911,0.0,-4.31386253207403,8.672962275481792,0.4133333333333333,0.4044444444444445,-0.67,-0.07242247638805481,-0.00992247638805481,-0.05257752361194519
1590512613.140911,-0.00586028760595454,-4.304139712394045,8.717580862817863,0.4250539085452424,0.3966307276365051,-0.6739068584039697,0.03662679753721587,0.02587320246278413,0.021507190148863486
1590512613.150911,-0.01881539434171013,-4.3,8.74763078868342,0.43333333333333335,0.3911111111111111,-0.6766666666666666,0.11759621463568831,0.16528864390706496,0.06990378536431169
1590512613.160911,0.005516510876212109,-4.291494496374596,8.656439460120556,0.43333333333333335,0.3911111111111111,-0.6766666666666666,-0.0876375906351009,0.028021807023674322,0.009340602341224774
1590512613.170911,-0.007440127198648514,-4.333600317996622,8.65744012719865,0.43333333333333335,0.3911111111111111,-0.6766666666666666,-0.28850119248732986,0.0,-0.054500397495776606
1590512613.180911,-0.01,-4.332778999018646,8.674442001962708,0.43333333333333335,0.3911111111111111,-0.6766666666666666,-0.13197497546614329,0.0,0.07289376840039252
1590512613.190911,-0.01899537022048111,-4.312009259559037,8.68899537022048,0.4153425928923711,0.3911111111111111,-0.6766666666666666,-0.006278936121993074,0.056221063878006926,-0.0998842555120277
1590512613.200911,-0.0024324935546609985,-4.30121624677733,8.70756750644534,0.4133333333333333,0.3911111111111111,-0.6766666666666666,0.21959383056673754,0.0625,-0.07010154235831562
1590512613.210911,0.0,-4.293352301650789,8.64352301650789,0.4133333333333333,0.3911111111111111,-0.6766666666666666,0.042259426587157284,0.10404811468256854,0.02059622936513708
1590512613.220911,-0.023580242785004847,-4.305720161856669,8.64144032371334,0.4133333333333333,0.3911111111111111,-0.6766666666666666,-0.35725303481256065,0.026748988395813134,0.013374494197906567
1590512613.230911,-0.03,-4.31,8.665291907473003,0.4133333333333333,0.3911111111111111,-0.6766666666666666,-0.37378371886248585,0.06371628113751415,0.0
1590512613.240911,-0.023844444444444446,-4.319233333333333,8.692311111111112,0.41128148148148147,0.39316296296296294,-0.6766666666666666,-0.23555555555555557,0.14423611111111112,0.0
1590512613.250911,0.005039749531907058,-4.324960250468093,8.72,0.4066666666666667,0.3977777777777778,-0.6766666666666666,0.0314984345744191,-0.09449530372325732,-0.04699921728720955
1590512613.260911,0.0031703037392602157,-4.30634060747852,8.658532733653344,0.4066666666666667,0.3977777777777778,-0.6766666666666666,0.1478712032592473,0.06861360977774195,0.06555680488887097
1590512613.270911,-0.006206570103190382,-4.30620657010319,8.679652560825524,0.4066666666666667,0.3977777777777778,-0.6766666666666666,0.07112681056518035,0.07112681056518035,0.008626810565180346
1590512613.280911,-0.01,-4.31,8.703813411635513,0.4066666666666667,0.3977777777777778,-0.6766666666666666,-0.15466470911217742,-0.07733235455608871,-0.0625
1590512613.290911,-0.01,-4.320646959944241,8.7,0.4143561377375079,0.4013267644258584,-0.6654282089477448,-0.1834565003484892,-0.025184750522733806,-0.0957717498257554
1590512613.300911,-0.0023298985606030227,-4.314659797121206,8.707670101439398,0.4211111111111111,0.4044444444444445,-0.6555555555555556,0.06675253598492442,0.014561866003768895,-0.0770618660037689
1590512613.310911,0.0,-4.304003584705257,8.662028677642061,0.4211111111111111,0.4044444444444445,-0.6555555555555556,0.125,-0.0374775955921402,-0.0250224044078598
1590512613.320911,-0.006901239349341596,-4.306901239349341,8.685209914794733,0.4211111111111111,0.4044444444444445,-0.6555555555555556,-0.04753098373353987,-0.0625,0.0
1590512613.330911,-0.003445845482456987,-4.323108309035086,8.703445845482458,0.4211111111111111,0.4044444444444445,-0.6555555555555556,-0.20692693146928764,-0.0625,-0.04096346573464383
1590512613.340911,-0.014516867469879518,-4.315483132530121,8.7,0.4211111111111111,0.3996054886211513,-0.6708789156626506,-0.1139043674698795,0.11896084337349397,-0.017134789156626508
1590512613.350911,-0.012229189342671904,-4.317770810657328,8.707770810657328,0.4211111111111111,0.3977777777777778,-0.6766666666666666,0.0832026998249018,0.09036486678339879,0.0
1590512613.360911,-0.0016483911558511609,-4.303296782311702,8.65153873809096,0.4211111111111111,0.3977777777777778,-0.6766666666666666,0.33379022110372103,0.01030244472406975,-0.05219755527593025
1590512613.370911,0.0,-4.292327761219818,8.647672238780183,0.4211111111111111,0.3977777777777778,-0.6766666666666666,0.08729104574316443,-0.04795149237613926,0.08135447712841778
1590512613.3809109,-0.013337945989129348,-4.294445981996376,8.672229909981882,0.4211111111111111,0.3977777777777778,-0.6766666666666666,-0.05557477495470563,0.020862162432058434,-0.013936937386764048
1590512613.3909109,-0.026154206403269754,-4.30512772479564,8.70128193119891,0.41925943271268545,0.3977777777777778,-0.6750998618679988,-0.125,0.11698793000681199,-0.17147586001362397
1590512613.4009109,-0.01434605359887723,-4.332826973200562,8.702826973200562,0.4066666666666667,0.3977777777777778,-0.6644444444444444,-0.08016858250350865,0.10733141749649135,0.027162834992982693
1590512613.4109108,-0.013404313995863292,-4.316808627991726,8.647234511966905,0.4066666666666667,0.3977777777777778,-0.6644444444444444,0.1023921501034177,0.0013308874224367273,0.021276962474145573
1590512613.4209108,-0.005645087235996327,-4.31,8.654839302112029,0.4066666666666667,0.3977777777777778,-0.6644444444444444,0.13306359044995408,-0.00806359044995409,-0.05443640955004591
