time,acc_x,acc_y,acc_z,mag_x,mag_y,mag_z,gyr_x,gyr_y,gyr_z
1590515540.467653,0.13,-4.32,8.79,0.3855555555555555,0.29444444444444445,-0.6111111111111112,0.3125,-0.1875,-0.375
1590515540.477653,0.11159789404409345,-4.310798947022047,8.743994735110233,0.3855555555555555,0.29444444444444445,-0.6111111111111112,0.3125,-0.014980256663376101,-0.2024802566633761
1590515540.487653,0.1,-4.32,8.65,0.3855555555555555,0.29444444444444445,-0.6111111111111112,0.1561613257160153,-0.17183066285800763,-0.125
1590515540.497653,0.1,-4.32,8.6516408501863,0.3855555555555555,0.29444444444444445,-0.6111111111111112,0.0625,-0.13183687577625197,-0.12158156211187401
1590515540.507653,0.10035646028712387,-4.32,8.679643539712876,0.3848426349813077,0.2939295573630433,-0.61059622402971,0.0625,-0.25,-0.0647278767945242
1590515540.517653,0.1096775412240544,-4.32,8.670322458775946,0.36620047310744674,0.280465773787477,-0.5971324404541436,0.0625,-0.25,-0.12298463265034001
1590515540.527653,0.10683944641556428,-4.32,8.644197232077822,0.3655555555555556,0.28,-0.5966666666666667,0.06573962029183017,-0.23348616038910688,0.0
1590515540.537653,0.0968635452812668,-4.32,8.650773911343531,0.3655555555555556,0.28,-0.5966666666666667,0.03551420996041249,-0.0821028419920825,-0.05880852597624749
1590515540.547653,0.08745177011494253,-4.322548229885058,8.750192919540229,0.3655555555555556,0.28,-0.5966666666666667,0.2340735632183908,-0.1090735632183908,-0.13972068965517243
1590515540.557653,0.08,-4.33,8.781402080803439,0.36591905798607693,0.2803635024305214,-0.5973417426090635,0.1904210016738324,-0.0625,-0.00876300502149726
1590515540.567653,0.08,-4.33,8.79293689641487,0.37333333333333335,0.2877777777777778,-0.6111111111111112,0.2677740662345107,-0.13359626493804294,-0.1875
1590515540.577653,0.09223434437222738,-4.33,8.725531311255546,0.37333333333333335,0.2877777777777778,-0.6111111111111112,0.32779293046528424,-0.3125,-0.1875
1590515540.587653,0.13,-4.327409491844545,8.652590508155455,0.37333333333333335,0.2877777777777778,-0.6111111111111112,0.3426186480568119,-0.3125,-0.1875
1590515540.597653,0.12755152549605292,-4.317551525496053,8.66367271175592,0.37333333333333335,0.2877777777777778,-0.6111111111111112,0.25765148282483463,-0.2818940687006614,-0.2028029656496693
1590515540.607653,0.1102462201712308,-4.300492440342461,8.690492440342462,0.373634269098171,0.28807871354261544,-0.6109469643302906,0.3125,-0.06711662821057746,-0.3109611239298075
1590515540.617653,0.1183616517007711,-4.32,8.71163834829923,0.3855555555555555,0.3,-0.6044444444444445,0.3534587074807224,-0.2909587074807224,-0.2397603231298194
1590515540.627653,0.11136111760189606,-4.32,8.718638882398105,0.3855555555555555,0.3,-0.6044444444444445,0.5284720599525987,-0.4659720599525987,-0.19600698501185032
1590515540.6376529,0.10282989177558689,-4.30424483766338,8.629904621214553,0.3855555555555555,0.3,-0.6044444444444445,0.241156588201291,-0.34787364719483604,-0.16981317640258198
1590515540.6476529,0.11629949580911397,-4.324449243713671,8.677048235331899,0.3855555555555555,0.3,-0.6044444444444445,0.19906407559651884,-0.5162436976139246,-0.08562815119303768
1590515540.6576529,0.12,-4.310094228504122,8.709905771495878,0.3855555555555555,0.3,-0.6044444444444445,0.1252944640753828,-0.6869110718492344,-0.1869110718492344
1590515540.6676528,0.12645369064409967,-4.321773154677951,8.74468053596615,0.4122222222222222,0.29444444444444445,-0.59,0.125,-0.6542533497884344,-0.125
1590515540.6776528,0.11,-4.33,8.709897217104626,0.4122222222222222,0.29444444444444445,-0.59,0.15657119654804616,-0.4579050712692718,-0.11447626781731796
1590515540.6876528,0.11189245446660885,-4.326215091066782,8.667569817866436,0.4122222222222222,0.29444444444444445,-0.59,0.3243278404163053,-0.21451647875108412,-0.05067215958369471
1590515540.6976528,0.11824426173347036,-4.30824426173347,8.705267214799589,0.4122222222222222,0.29444444444444445,-0.59,0.3420799075025694,-0.07347336416581021,-0.021946728331620417
1590515540.7076528,0.11026150508164898,-4.300261505081648,8.729215484755054,0.4122222222222222,0.29444444444444445,-0.59,0.19240322028091814,-0.12336559323969395,-0.12173118647938792
1590515540.7176528,0.1029695908991468,-4.311484795449573,8.747030409100853,0.37333333333333335,0.2733333333333333,-0.59,0.15038011376066507,-0.125,0.0971600853204988
1590515540.7276528,0.12,-4.31838765649609,8.721938282480448,0.37333333333333335,0.2733333333333333,-0.59,-0.0625,-0.125,-0.07257714689944209
1590515540.7376528,0.12,-4.303662281237033,8.639155703092582,0.37333333333333335,0.2733333333333333,-0.59,-0.07394462886572775,-0.1478892577314555,-0.17605537113427225
1590515540.7476528,0.12307552749505615,-4.3215377637475285,8.683075527495056,0.37333333333333335,0.2733333333333333,-0.59,-0.125,-0.24038897657794953,-0.11538897657794953
1590515540.7576528,0.13829459895861682,-4.329147299479309,8.698294598958617,0.37333333333333335,0.2733333333333333,-0.59,-0.125,-0.19282937825432245,-0.06782937825432246
1590515540.7676528,0.12295046694744552,-4.312950466947445,8.7,0.3960660440700727,0.2856468849824005,-0.6136799070174368,-0.07172020921076726,-0.08094041842153452,-0.009220209210767258
1590515540.7776527,0.11301014078960323,-4.31,8.720969577631191,0.4,0.2877777777777778,-0.6177777777777778,0.11224648025991926,-0.14987324012995962,-0.13105986019493945
1590515540.7876527,0.10041633709642626,-4.338750988710721,8.691665348385705,0.4,0.2877777777777778,-0.6177777777777778,0.24739789314733587,-0.1875,-0.12760210685266413
1590515540.7976527,0.11461801759825092,-4.318072973602623,8.704618017598252,0.4,0.2877777777777778,-0.6177777777777778,0.11295608501639756,-0.1875,-0.07931869500546584
1590515540.8076527,0.11148230158479107,-4.318517698415209,8.744070793660836,0.4,0.2877777777777778,-0.6177777777777778,0.0625,-0.2939712301901117,0.04397123019011166
1590515540.8176527,0.11774123171542553,-4.304517536569149,8.726776304853724,0.39397904199911354,0.2877777777777778,-0.5962743563460402,0.15926539644281915,-0.11896920711436171,0.15926539644281915
1590515540.8276527,0.12,-4.32,8.682349239454853,0.3922222222222223,0.2877777777777778,-0.59,0.058515228882735804,-0.23007614441367902,0.003984771117264195
1590515540.8376527,0.12,-4.32,8.591854076018555,0.3922222222222223,0.2877777777777778,-0.59,0.01138233125966414,0.005588343701679321,0.05111766874033586
1590515540.8476527,0.12763618895116094,-4.317636188951161,8.677091433146517,0.3922222222222223,0.2877777777777778,-0.59,-0.03295236188951162,-0.014773819055244193,0.0625
1590515540.8576527,0.11420368294635709,-4.304203682946357,8.71738895116093,0.3922222222222223,0.2877777777777778,-0.59,0.1349539631705364,-0.0987269815852682,0.0625
1590515540.8676527,0.11013964833279725,-4.319860351667203,8.760558593331188,0.37333333333333335,0.29444444444444445,-0.6111111111111112,0.0625,-0.1936096145598799,-0.061627197920017154
1590515540.8776526,0.12,-4.312499030632027,8.783756300891818,0.37333333333333335,0.29444444444444445,-0.6111111111111112,0.07811894145017448,-0.6093810585498255,0.015618941450174485
1590515540.8876526,0.12140267794898915,-4.328597322051011,8.674208033846968,0.37333333333333335,0.29444444444444445,-0.6111111111111112,0.17873326281881777,-0.5,0.08116631409408881
1590515540.8976526,0.13102808558783402,-4.32,8.704112342351335,0.37333333333333335,0.29444444444444445,-0.6111111111111112,0.1121489301520748,-0.4742978603041496,-0.1746489301520748
1590515540.9076526,0.13800672190609298,-4.32,8.732026887624372,0.37333333333333335,0.29444444444444445,-0.6111111111111112,0.02491597617383781,-0.2998319523476756,-0.08741597617383781
1590515540.9176526,0.13287477408922288,-4.312874774089223,8.747125225910777,0.3765001004047898,0.28415245146221085,-0.6063609605039264,0.04453266194235708,-0.027336690288214588,-0.10703266194235708
1590515540.9276526,0.13,-4.31,8.738914633693513,0.37777777777777777,0.28,-0.6044444444444445,-0.006783539415543424,0.20106707883108685,-0.125
1590515540.9376526,0.13,-4.31,8.65260500575374,0.37777777777777777,0.28,-0.6044444444444445,-0.0625,0.43342967850978137,-0.004070321490218645
1590515540.9476526,0.11985381843353625,-4.32,8.67043854469939,0.37777777777777777,0.28,-0.6044444444444445,-0.12408636520960156,0.3740863652096016,-0.06341363479039844
1590515540.9576526,0.11131441252519494,-4.32,8.696056762424414,0.37777777777777777,0.28,-0.6044444444444445,-0.0707150782824684,0.32071507828246837,-0.1167849217175316
1590515540.9676526,0.12082342074434531,-4.31,8.709176579255656,0.3855555555555555,0.3,-0.6044444444444445,-0.0625,-0.35441448139136705,0.057353620347841756
1590515540.9776525,0.12979777384096,-4.310202226159039,8.69817996456864,0.3855555555555555,0.3,-0.6044444444444445,-0.06376391349400007,-0.12752782698800014,0.0
1590515540.9876525,0.12278787980078217,-4.317212120199218,8.63509091820704,0.3855555555555555,0.3,-0.6044444444444445,-0.10757575124511147,-0.21515150249022294,0.0
1590515540.9976525,0.1498616966783561,-4.33990779778557,8.659769494463927,0.3855555555555555,0.3,-0.6044444444444445,-0.18721186807990858,-0.3122118680799086,0.0
1590515541.0076525,0.1336900699955156,-4.307380139991031,8.741549650022423,0.3855555555555555,0.3,-0.6044444444444445,-0.13653146873598626,-0.1086258749439451,0.0
1590515541.0176525,0.13714321949451944,-4.309285804873629,8.78785741462089,0.3855555555555555,0.2877777777777778,-0.5822222222222222,-0.1294637195398134,0.1339274390796268,-0.058036280460186614
1590515541.0276525,0.10674698795180723,-4.301686746987952,8.765060240963855,0.3855555555555555,0.2877777777777778,-0.5822222222222222,-0.17695783132530118,0.2289156626506024,-0.010542168674698801
1590515541.0376525,0.129786278457488,-4.32,8.67,0.3855555555555555,0.2877777777777778,-0.5822222222222222,-0.12767151928140003,0.2486642403593,-0.12099272107789995
1590515541.0476525,0.12050664837717648,-4.32,8.67,0.3855555555555555,0.2877777777777778,-0.5822222222222222,-0.24366689528529392,0.19066655235735303,0.0530003429279409
1590515541.0576525,0.12,-4.32,8.70211549364218,0.3855555555555555,0.2877777777777778,-0.5822222222222222,-0.19981954118409329,0.23768045881590671,0.0625
1590515541.0676525,0.12,-4.32,8.695610829405588,0.3799597669910623,0.2925741679759148,-0.6030065797474826,-0.052601525677396316,0.07013536756986175,0.017533841892465436
1590515541.0776525,0.13,-4.31,8.707999544718739,0.37777777777777777,0.29444444444444445,-0.6111111111111112,-0.18636337768110076,0.25,0.06477324463779846
1590515541.0876524,0.12786752165904905,-4.3092891738863495,8.607819087250153,0.37777777777777777,0.29444444444444445,-0.6111111111111112,-0.14721331605157242,0.24555733678968553,0.19638532642062898
1590515541.0976524,0.09935975609756098,-4.300213414634146,8.711067073170733,0.37777777777777777,0.29444444444444445,-0.6111111111111112,-0.43883384146341464,0.18483231707317074,0.3178353658536585
1590515541.1076524,0.07476840994371482,-4.308410530018762,8.752052650093809,0.37777777777777777,0.29444444444444445,-0.6111111111111112,-0.4900658126172608,0.08236837476547842,0.5227632504690432
1590515541.1176524,0.07772580918488392,-4.288862904592442,8.770568547703778,0.37333333333333335,0.28,-0.6044444444444445,-0.4339465768513811,-0.02132053889171327,1.1321068462972377
1590515541.1276524,0.04218691747161498,-4.271093458735807,8.779453270632096,0.37333333333333335,0.28,-0.6044444444444445,-0.3784170585493984,-0.35449764870360956,1.2431658829012031
1590515541.1376524,-0.05135412271077728,-4.178645877289223,8.672036036796355,0.37333333333333335,0.28,-0.6044444444444445,-0.4269057515402144,-0.375,1.7690575154021437
1590515541.1476524,-0.019608677308206174,-4.10941301596231,8.679804338654103,0.37333333333333335,0.28,-0.6044444444444445,-0.8186144170592785,-0.49510846635257716,3.9141322691793827
1590515541.1576524,-0.004861824063005416,-4.087292736094509,8.672430912031503,0.37333333333333335,0.28,-0.6044444444444445,-1.0490339990155404,-0.3107728007875677,5.388817593699459
1590515541.1676524,-0.10764847206858408,-4.09754891454646,8.686707860896018,0.4,0.2877777777777778,-0.5966666666666667,-2.1124699685425883,-0.5801364594856194,7.6440310857992255
1590515541.1776524,-0.07140071902654867,-3.5973299225663715,8.635961006637167,0.4,0.2877777777777778,-0.5966666666666667,-2.882734720685841,-0.8519946073008849,9.864205959623893
1590515541.1876523,-0.2752595554203516,-3.402678342495817,8.778350318332935,0.4,0.2877777777777778,-0.5966666666666667,-4.497422372395211,-0.3434315312574694,14.552856304730449
1590515541.1976523,-0.6124732187479629,-3.0198952652050153,8.741894787162382,0.4,0.2877777777777778,-0.5966666666666667,-4.440460604941222,-1.0269727407053302,18.483218259055647
1590515541.2076523,-0.42245965812709324,-3.1470077421599756,8.757295028489409,0.4,0.2877777777777778,-0.5966666666666667,-3.572748575529555,-3.116284633117307,24.848853899351923
1590515541.2176523,-0.33,-3.32,8.72,0.3855555555555555,0.2877777777777778,-0.6044444444444445,-0.9375,-2.6875,33.6875
1590515541.2276523,-0.312909867107347,-3.3969055980169385,8.788360531570612,0.3855555555555555,0.2877777777777778,-0.6044444444444445,-1.2846433243820148,-3.0079399917372442,36.38453659712181
1590515541.2376523,-0.28311561479869424,-3.5894970076169748,8.769849836779109,0.3855555555555555,0.2877777777777778,-0.6044444444444445,-1.4488081474428727,-3.7386918525571273,43.57127482317737
1590515541.2476523,-0.20274901029295328,-2.741613618368963,9.029003958828186,0.3855555555555555,0.2877777777777778,-0.6044444444444445,-2.2177850356294537,-3.93535233570863,50.19674386381631
1590515541.2576523,-0.2250478175576263,-2.768444907634461,8.948158002288704,0.3855555555555555,0.2877777777777778,-0.6044444444444445,-3.189293158410986,-4.720244298675821,57.57624754781756
1590515541.2676523,-0.2720979855552584,-2.905244963888146,8.753671474721703,0.3922222222222223,0.2677777777777778,-0.6044444444444445,-1.0063401510319143,-5.420893434021276,68.2222628037614
1590515541.2776523,-0.30661968353258295,-2.9915492088314575,8.81408444618202,0.3922222222222223,0.2677777777777778,-0.6044444444444445,-2.139083365912879,-6.176055577275252,74.96478193995762
1590515541.2876523,-0.33741341834516736,-3.0639646428053906,8.682932908274163,0.3922222222222223,0.2677777777777778,-0.6044444444444445,-1.907332270685408,-6.478445152876395,81.96435299231996
1590515541.2976522,-0.34,-3.1152896327070154,8.78775304503824,0.3922222222222223,0.2677777777777778,-0.6044444444444445,-1.9316120408837691,-7.009508367953924,87.88403184307431
1590515541.3076522,-0.36989935595690626,-3.1125251610107734,8.747676127075415,0.3922222222222223,0.2677777777777778,-0.6044444444444445,-2.217806462095996,-7.342806462095996,92.54866144407461
1590515541.3176522,-0.42918287499648156,-3.1673800208292286,8.820168604160216,0.39859778009213653,0.2577590439821982,-0.6044444444444445,-2.158803515635995,-7.796125130182678,97.62621562473612
1590515541.3276522,-0.4636289893617021,-3.1859072473404257,8.82818550531915,0.4,0.25555555555555554,-0.6044444444444445,-2.568043550531915,-8.428804438164894,100.76347864029255
1590515541.3376522,-0.48696293616337033,-3.1969629361633705,8.736444766039556,0.4,0.25555555555555554,-0.6044444444444445,-2.6138898938736133,-8.681944946936806,105.24721116739026
1590515541.3476522,-0.5162143619454185,-3.2393215429181277,8.78519667632261,0.4,0.25555555555555554,-0.6044444444444445,-2.418080118920567,-8.993639464857448,109.03951631346241
1590515541.3576522,-0.5563054024255788,-3.2534236493936053,8.816847298787211,0.4,0.25555555555555554,-0.6044444444444445,-2.210591234840132,-9.3108065738699,112.18349641675854
1590515541.3676522,-0.5517046416988577,-3.22560618893181,8.822196905534096,0.42778184038321615,0.23522737966539736,-0.5997012034034076,-1.8963080212357206,-9.14630802123572,113.96353725546902
1590515541.3776522,-0.5590042861852952,-3.17199142762941,8.896515001648533,0.4455555555555555,0.2222222222222222,-0.5966666666666667,-2.16571876030333,-9.118776788658094,115.03449554896143
1590515541.3876522,-0.6113487961679063,-3.0416280095802346,8.728837346106978,0.4455555555555555,0.2222222222222222,-0.5966666666666667,-1.973546682633724,-8.53662837724274,114.74157002395059
1590515541.3976521,-0.6284066236909583,-3.0284066236909584,8.75043974214575,0.4455555555555555,0.2222222222222222,-0.5966666666666667,-1.7798758057945314,-8.069710213520572,113.74175483476719
1590515541.4076521,-0.5737018722708512,-3.0018509361354258,8.668515542440133,0.4455555555555555,0.2222222222222222,-0.5966666666666667,-2.4097436843259628,-7.560170877116025,111.9351322453293
1590515541.4176521,-0.6579832547013091,-3.1069818592597516,8.845966509402617,0.43955648584992724,0.17422966457719596,-0.5966666666666667,-3.081188949431856,-10.299546481493786,108.66290118944781
1590515541.4276521,-0.7690307809717629,-3.210027982701603,8.84299160518952,0.4388888888888889,0.1688888888888889,-0.5966666666666667,-4.700489697278046,-11.075139913508012,105.39282307300941
1590515541.437652,-0.8481968104385647,-3.227577423382063,8.589945028391929,0.4388888888888889,0.1688888888888889,-0.5966666666666667,-2.8859263622085294,-8.851772985381176,103.97324538882847
1590515541.447652,-0.8623184386235233,-3.107095017976374,8.678994350282487,0.4388888888888889,0.1688888888888889,-0.5966666666666667,-2.6820878274268107,-8.269029275808936,102.08868772470467
1590515541.457652,-0.8252758729823821,-3.0410632274853184,8.787873545029363,0.4388888888888889,0.1688888888888889,-0.5966666666666667,-3.1380386907901676,-8.421012896930057,100.61221296198615
1590515541.467652,-0.8487673355543504,-2.9712326644456497,8.627963895560548,0.4520483286416501,0.13637733185265533,-0.6129224451847834,-0.9801754861702952,-7.367901138916867,98.96061245835593
1590515541.477652,-0.9662873406407301,-3.1024549560144896,8.772694406548432,0.4577777777777778,0.12222222222222222,-0.62,-1.4921393540951216,-7.276197252669709,96.25561579714918
1590515541.487652,-1.038067230331443,-3.1812004831412373,8.953601449423712,0.4577777777777778,0.12222222222222222,-0.62,-3.720438307367904,-8.877100947857596,92.6832981042848
1590515541.497652,-1.106804498067237,-3.262405997422982,8.877387255476162,0.4577777777777778,0.12222222222222222,-0.62,-1.7834829272578192,-7.563557895045098,88.97227509663816
1590515541.507652,-1.133483572855073,-3.2462910678623174,8.833258213572464,0.4577777777777778,0.12222222222222222,-0.62,-1.7584509730978581,-6.7050468437952775,85.40510460312488
1590515541.517652,-1.1498849452073525,-3.215172582188971,8.810230109585294,0.4687610502303917,0.10574731354330127,-0.6227458181131534,-1.7852050084972555,-6.500719092454046,81.55965415193484
1590515541.527652,-1.1714054284496234,-3.182891857325565,8.738675571976694,0.48,0.08888888888888889,-0.6255555555555555,-1.5444258917152196,-6.009796433139122,75.85472324854341
1590515541.537652,-1.18,-3.164644837175922,8.678579348703687,0.48,0.08888888888888889,-0.6255555555555555,-1.4576511617475554,-5.5870906970485334,70.45869067910648
1590515541.547652,-1.1914051289337215,-3.16,8.739835902536052,0.48,0.08888888888888889,-0.6255555555555555,-1.1699358883284792,-5.179230748739078,64.48910234780138
1590515541.557652,-1.2,-3.147468402267479,8.818797396598782,0.48,0.08888888888888889,-0.6255555555555555,-1.0625,-4.585048813772833,58.2563431660718
1590515541.567652,-1.2160516960696368,-3.14,8.838025848034817,0.47554119553621205,0.068378388355464,-0.6371484471614044,-0.9120153493471543,-3.873384497823848,51.4476373799794
1590515541.577652,-1.2351020408163265,-3.1551020408163266,8.855102040816327,0.4744444444444445,0.06333333333333334,-0.64,-0.9693877551020408,-3.7028061224489797,45.78188775510204
1590515541.587652,-1.24,-3.1246380502850735,8.725624591083278,0.4744444444444445,0.06333333333333334,-0.64,-0.8231902514253668,-3.510690251425367,39.89225628563417
1590515541.597652,-1.2200848586066035,-3.0900848586066036,8.729745424180189,0.4744444444444445,0.06333333333333334,-0.64,-0.6255303662912727,-3.022601220970909,33.78904257600036
1590515541.607652,-1.2277856684913941,-3.1022320856142427,8.804464171228485,0.4744444444444445,0.06333333333333334,-0.64,-0.4235494649109829,-2.4512286087685555,28.45692779997041
1590515541.617652,-1.259017903190157,-3.139017903190157,8.84797612907979,0.4797883870756486,0.05598541221542769,-0.637328028684398,-0.4190856848154424,-1.8684889118102115,22.207949605835115
1590515541.627652,-1.2945629281908146,-3.1745629281908148,8.841844392286221,0.4922222222222222,0.03888888888888889,-0.6311111111111111,-0.26639019284445575,-1.0163901928444559,11.686956832022329
1590515541.637652,-1.2784404677304735,-3.144067446217456,8.742202338652367,0.4922222222222222,0.03888888888888889,-0.6311111111111111,-0.0625,-0.2285960010336585,4.449948317074747
1590515541.647652,-1.28470366598778,-3.14470366598778,8.72940733197556,0.4922222222222222,0.03888888888888889,-0.6311111111111111,0.21319373727087576,0.36759164969450103,-2.909129964358452
1590515541.657652,-1.2961896071274384,-3.131431178617685,8.80808567840182,0.4922222222222222,0.03888888888888889,-0.6311111111111111,0.3125,0.8094803563719142,-9.261280122846266
1590515541.667652,-1.2655407679363622,-3.1257432053439396,8.83851358931212,0.5005179632745795,0.031869415690740456,-0.6521695307055564,0.420185100198868,1.3948453673958492,-15.984348707358116
1590515541.677652,-1.2992756940775958,-3.204094617596995,8.8225905382403,0.5066666666666667,0.02666666666666667,-0.6677777777777778,0.5463091359981217,2.1042822239830956,-24.077814095791513
1590515541.6876519,-1.3043133911231113,-3.2247711303743705,8.762482434118075,0.5066666666666667,0.02666666666666667,-0.6677777777777778,0.5625,2.3480413054805553,-29.469847867620356
1590515541.6976519,-1.2992728638646158,-3.2570914554584633,8.728545727729232,0.5066666666666667,0.02666666666666667,-0.6677777777777778,0.7653438970384722,2.7852323949230953,-35.763680756000156
1590515541.7076519,-1.2857813166743477,-3.324218683325652,8.779062419990783,0.5066666666666667,0.02666666666666667,-0.6677777777777778,1.0908200624711968,3.45996018741359,-42.45897554064895
1590515541.7176518,-1.254661267573593,-3.3393225351471862,8.815338732426408,0.5025143192239057,0.041496478962241734,-0.6754892801714768,1.2542341553300878,3.8834683106601755,-49.31180899949952
1590515541.7276518,-1.2276012248262866,-3.3673312919561886,8.82,0.4988888888888889,0.054444444444444434,-0.6822222222222222,1.2191717701095277,4.419977034507125,-57.02557560946885
1590515541.7376518,-1.2050698965913442,-3.3949301034086554,8.745349482956723,0.4988888888888889,0.054444444444444434,-0.6822222222222222,1.140843426847951,4.982409158368442,-62.96406130314056
1590515541.7476518,-1.165206631747159,-3.441752041903409,8.754793368252841,0.4988888888888889,0.054444444444444434,-0.6822222222222222,1.2119834206321023,5.6034088134765625,-68.78667103160511
1590515541.7576518,-1.1612250576357421,-3.4768375864536134,8.753162413546386,0.4988888888888889,0.054444444444444434,-0.6822222222222222,1.3201566102233881,6.093126440893553,-73.80946915494077
1590515541.7676518,-1.1540008053150794,-3.5099989933561506,8.771998389369841,0.4988888888888889,0.0722213274276894,-0.6906662416392636,1.4249974833903765,6.46249245017113,-78.54988423595732
1590515541.7776518,-1.1211664119915594,-3.54,8.80674961798734,0.4988888888888889,0.09888888888888887,-0.7033333333333334,1.5,6.908339700211016,-84.37402677726843
1590515541.7876518,-1.0626696984676225,-3.54,8.80577676717746,0.4988888888888889,0.09888888888888887,-0.7033333333333334,1.63147305981216,7.450446119624321,-90.07019772614929
1590515541.7976518,-0.9914233448923107,-3.5285693379569243,8.614248083224638,0.4988888888888889,0.09888888888888887,-0.7033333333333334,1.9286040944230585,8.008987369961506,-95.14334059746126
1590515541.8076518,-0.9980458977642076,-3.649011129715355,8.661930463902296,0.4988888888888889,0.09888888888888887,-0.7033333333333334,2.2728442332315573,8.460344233231558,-99.75430291539446
1590515541.8176517,-0.9311477818592823,-3.6796586606385984,8.71633907883583,0.4898391259301121,0.11410894477410442,-0.716496624909736,1.8358964396722237,8.509307007629273,-103.61731068098332
1590515541.8276517,-0.8093044875473431,-3.634889245954321,8.579072650063123,0.4744444444444445,0.14,-0.7388888888888889,1.7079148972799265,8.678806094341788,-107.80676862159991
1590515541.8376517,-0.8782805476093175,-3.79,8.784208214139763,0.4744444444444445,0.14,-0.7388888888888889,2.216911013485901,8.86821235185942,-112.11750676849204
1590515541.8476517,-0.8604207094315905,-3.807747574341046,8.83576697961268,0.4744444444444445,0.14,-0.7388888888888889,0.6637540754998625,8.543163471736653,-115.82487871705229
1590515541.8576517,-0.7730431405775613,-3.8839137188448776,8.66717644566829,0.4744444444444445,0.14,-0.7388888888888889,1.685465649932924,9.6875,-119.02379880674998
1590515541.8676517,-0.7391480430642465,-3.937234637957169,8.771270939406895,0.45957324419915274,0.14723463795716896,-0.7593870297675342,1.824458781919235,9.823149461696918,-121.35911325741381
1590515541.8776517,-0.6912342200180343,-3.959588593327322,8.74588593327322,0.43333333333333335,0.16,-0.7955555555555556,1.714893062443643,10.152393062443643,-123.80389497858431
1590515541.8876517,-0.6439922015596881,-4.028695260947811,8.74861727654469,0.43333333333333335,0.16,-0.7955555555555556,1.7791504199160169,10.216650419916016,-125.54619076184763
1590515541.8976517,-0.5946978684125058,-4.049741030067862,8.670086323310713,0.43333333333333335,0.16,-0.7955555555555556,1.844559281037931,10.345098801729884,-126.84941496726552
1590515541.9076517,-0.5526528179805892,-4.038367955048527,8.68,0.43333333333333335,0.16,-0.7955555555555556,1.868620168568023,10.408160224757363,-127.75255938191725
1590515541.9176517,-0.5047027124124304,-4.074412160948446,8.706472965690677,0.4073506077480391,0.15656831926231965,-0.7926141149232581,1.6672719822166338,10.25,-128.13234798814443
1590515541.9276516,-0.4122391263767034,-4.085306763735922,8.724079708792235,0.3744444444444445,0.15222222222222226,-0.7888888888888889,1.5625,10.25,-128.0625
1590515541.9376516,-0.3209353306540007,-4.0619630460880005,8.63990761522,0.3744444444444445,0.15222222222222226,-0.7888888888888889,1.4748845190250013,10.2061922595125,-127.974884519025
1590515541.9476516,-0.29032250123092074,-4.056912499120771,8.619677498769079,0.3744444444444445,0.15222222222222226,-0.7888888888888889,1.4115781282971092,10.196140623900964,-127.79925001758458
1590515541.9576516,-0.11597580908793724,-3.8470088264138607,8.622987904543969,0.3744444444444445,0.15222222222222226,-0.7888888888888889,1.4949738476626349,10.316811049362537,-126.73706685191239
1590515541.9676516,0.06650763542838772,-3.5007497186947436,8.593833145796495,0.37817339120184323,0.15706985300684065,-0.7601759988569183,1.3082402346889568,10.248722070406687,-126.39597532551036
1590515541.9776516,-0.027220573140621967,-3.8911745776347546,8.863954004494133,0.3855555555555555,0.16666666666666666,-0.7033333333333334,0.0625,10.059455363830555,-125.99480712680666
1590515541.9876516,0.008673865594485936,-3.9600553704767374,8.66281838024124,0.3855555555555555,0.16666666666666666,-0.7033333333333334,1.194058012636416,10.22651924181505,-124.67299971280873
1590515541.9976516,0.08931287993504071,-4.008625759870082,8.669716022560186,0.3855555555555555,0.16666666666666666,-0.7033333333333334,0.7868756446551233,10.390403142625145,-123.04457721596769
1590515542.0076516,0.1476023685739865,-4.101052664645735,8.744444374636782,0.3855555555555555,0.16666666666666666,-0.7033333333333334,0.36878700896853944,10.305920845964158,-121.51681208475348
1590515542.0176516,0.2004576443557196,-4.159450826773137,8.62118987532487,0.3856877639249856,0.167175160395244,-0.7034655417027634,1.185211778221402,9.939788221778597,-120.10097367132472
1590515542.0276515,0.2560505339730692,-4.09394946602693,8.731848398080793,0.4,0.2222222222222222,-0.7177777777777777,1.0131316746633647,10.16859208133416,-116.70586741603466
1590515542.0376515,0.2908689492325856,-4.073043683589138,8.65521841794569,0.4,0.2222222222222222,-0.7177777777777777,1.1730076741440378,9.980076741440378,-114.26632231404959
1590515542.0476515,0.36416256751990794,-4.016699459840736,8.61908878287825,0.4,0.2222222222222222,-0.7177777777777777,0.9949197650028772,9.447967906001152,-110.9752136970282
1590515542.0576515,0.37276788775483294,-3.981071551019332,8.724464224490335,0.4,0.2222222222222222,-0.7177777777777777,1.0027922831447635,9.271204209193765,-108.2879364796793
1590515542.0676515,0.3920356402818069,-3.997964359718193,8.74309801077497,0.39933135331767744,0.2222222222222222,-0.711425634295713,1.3119431205967675,8.981194312059676,-104.80915872358061
1590515542.0776515,0.43603032553050136,-3.9732060651061003,8.775115088514596,0.3977777777777778,0.2222222222222222,-0.6966666666666667,1.0553411622181406,8.777196744694987,-100.84496023682051
1590515542.0876515,0.4811528417993142,-3.9855764208996574,8.652117895501714,0.3977777777777778,0.2222222222222222,-0.6966666666666667,1.332942108131429,8.402647369377142,-95.31634744204001
1590515542.0976515,0.5376461853920668,-3.958235876405289,8.640588041198237,0.3977777777777778,0.2222222222222222,-0.6966666666666667,1.415438143722454,8.143386598788565,-90.80519073039666
1590515542.1076515,0.5929303547963206,-3.947240473061761,8.697411300919843,0.3977777777777778,0.2222222222222222,-0.6966666666666667,1.1853646517739815,7.587302890932983,-86.5593791064389
1590515542.1176515,0.6323016785467924,-3.966283053575535,8.737698321453207,0.38662693850438157,0.23461204363710686,-0.6772559464500141,0.8036545757645436,7.0088454242354565,-81.79860312715567
1590515542.1276515,0.6747661200370222,-3.96,8.72383060018511,0.36777777777777776,0.25555555555555554,-0.6444444444444445,0.9702117497686119,6.66355874884306,-75.93821048010062
1590515542.1376514,0.717165280762403,-3.973936980285901,8.680315098570494,0.36777777777777776,0.25555555555555554,-0.6444444444444445,1.0536415023825096,6.3257877464262355,-70.71506382556292
1590515542.1476514,0.77775346761999,-3.961594451808016,8.624854854667985,0.36777777777777776,0.25555555555555554,-0.6444444444444445,1.1209244964250378,5.991848992850076,-66.05119406537607
1590515542.1576514,0.8159472499195883,-3.9238769164790392,8.681894499839176,0.36777777777777776,0.25555555555555554,-0.6444444444444445,0.9628296880025732,5.663269272006004,-61.69574220006433
1590515542.1676514,0.8525482383862826,-3.964942113936461,8.72247105696823,0.3588545860364213,0.2683826436837555,-0.635521252703088,0.8125,5.202702914120027,-56.698361459354594
1590515542.1776514,0.8990209267563528,-3.922255231689088,8.697744768310912,0.3322222222222222,0.30666666666666664,-0.6088888888888889,0.7984048019431988,4.705857623318385,-51.67505138266069
1590515542.1876514,0.9351253683752838,-3.9453761051258516,8.62337021112131,0.3322222222222222,0.30666666666666664,-0.6088888888888889,0.6538993429634282,3.8366980288902846,-43.60130924199237
1590515542.1976514,0.9143014507422402,-3.9232877867746287,8.637095647773279,0.3322222222222222,0.30666666666666664,-0.6088888888888889,0.5854451332658569,3.4477743336707154,-37.61130967442645
1590515542.2076514,0.8738822291094088,-3.8638822291094086,8.763529618150985,0.3322222222222222,0.30666666666666664,-0.6088888888888889,0.6169120226887317,3.15294427226478,-32.172822495760485
1590515542.2176514,0.9040922238665411,-3.885907776133459,8.736368895466164,0.31039702826733634,0.33167470140664,-0.5943387595856316,0.4601944033364725,2.320965205838827,-23.57870728508005
1590515542.2276514,0.914710269539175,-3.903551347695875,8.7223178436866,0.2788888888888889,0.36777777777777776,-0.5733333333333334,0.2830608153801565,1.8564257076610955,-17.310169307313302
1590515542.2376513,0.9235987646695492,-3.919203705991353,8.68,0.2788888888888889,0.36777777777777776,-0.5733333333333334,0.1825231624459543,1.422569487337863,-12.678125386040765
1590515542.2476513,0.9470965506211014,-3.9299189635869274,8.6970965506211,0.2788888888888889,0.36777777777777776,-0.5733333333333334,-0.0710668017273551,0.982359918963587,-7.193577730980434
1590515542.2576513,0.9593718945309119,-3.927487578123648,8.72708540364606,0.2788888888888889,0.36777777777777776,-0.5733333333333334,-0.09500679524246464,0.7642905680303319,-2.6375679524246465
1590515542.2676513,0.9480579408448261,-3.864101396478446,8.72791308873276,0.27665057198754833,0.37270207496072705,-0.5749001551642717,0.17490946742995922,0.4365946742995923,0.9681130193425276
1590515542.2776513,0.9852523493827987,-3.914747650617201,8.748280541976383,0.2677777777777778,0.3922222222222223,-0.5811111111111111,0.09217281635750799,0.035981550927476055,5.769513549409584
1590515542.2876513,1.009676406205387,-3.905080898448653,8.70669886742172,0.2677777777777778,0.3922222222222223,-0.5811111111111111,0.12398876939183401,-0.09021069287141906,8.511531003140764
1590515542.2976513,1.0464320916219398,-3.9369722061493646,8.632864183243878,0.2677777777777778,0.3922222222222223,-0.5811111111111111,0.059124284203595445,-0.4152005726371236,10.59727972425627
1590515542.3076513,1.07,-3.9881294172606583,8.691223496436052,0.2677777777777778,0.3922222222222223,-0.5811111111111111,-0.1016177157582242,-0.5274265736373362,12.303527969077292
1590515542.3176513,1.07,-3.9818087976009284,8.72914721439443,0.2677777777777778,0.3922222222222223,-0.5811111111111111,-0.022609970011603545,-0.4089149550174053,13.962690629756326
1590515542.3276513,1.0666750006794032,-4.071678125934179,8.786675000679404,0.2577777777777778,0.4155555555555556,-0.5666666666666667,-0.2813085985270538,-0.83328124575373,19.103749966029838
1590515542.3376513,0.9948685857321652,-3.9774342928660826,8.689211514392992,0.2577777777777778,0.4155555555555556,-0.5666666666666667,0.21957133917396746,-1.2660356695869837,23.25531914893617
1590515542.3476512,0.98,-3.974827173347215,8.608045288912026,0.2577777777777778,0.4155555555555556,-0.5666666666666667,0.2722735554398751,-1.3426698334200937,26.057434279021344
1590515542.3576512,0.98,-3.9966611140031234,8.644435190005206,0.2577777777777778,0.4155555555555556,-0.5666666666666667,0.09032404997397189,-1.4791319625195212,28.0133914627798
1590515542.3676512,0.8785886713240841,-3.955705664337958,8.672822657351832,0.2561928710172339,0.4212612198935135,-0.5787119580468001,0.1161791957755256,-1.7319812063367115,30.794104021122372
1590515542.3776512,0.8542645222727754,-3.9401483440905727,8.738529044545551,0.25222222222222224,0.4355555555555555,-0.6088888888888889,-0.03584673579515395,-1.9200402073854619,31.82076632102423
1590515542.3876512,0.8521924871102381,-3.892192487110238,8.726577461330715,0.25222222222222224,0.4355555555555555,-0.6088888888888889,-0.016265651853670515,-1.8287656518536706,31.918671740731646
1590515542.3976512,0.8301257409420925,-3.870125740942093,8.660377222826277,0.25222222222222224,0.4355555555555555,-0.6088888888888889,-0.06223803970397391,-1.874738039703974,31.68880980148013
1590515542.4076512,0.8425156799905625,-3.85006271996225,8.697609759933938,0.25222222222222224,0.4355555555555555,-0.6088888888888889,-0.34394599988203145,-2.0157229999410156,31.249608000235938
1590515542.4176512,0.8469106338897964,-3.878455316944898,8.745365950834694,0.2535952738267572,0.4333243466981862,-0.6088888888888889,-0.4085371927168413,-2.0335371927168415,31.178351229132634
1590515542.4276512,0.8572617833766405,-3.8870386146104003,8.72681544584416,0.2611111111111111,0.4211111111111111,-0.6088888888888889,-0.27129826826300035,-1.9175965365260008,32.28106190178601
1590515542.4376512,0.9118831717287746,-3.9275326869150984,8.728073245717761,0.2611111111111111,0.4211111111111111,-0.6088888888888889,-0.3125,-2.003923274434947,33.27381203756884
1590515542.4476511,0.9199132525576351,-4.076825703644336,8.640390363490642,0.2611111111111111,0.4211111111111111,-0.6088888888888889,-0.37527108575739004,-2.18804217151478,34.7926606477771
1590515542.4576511,0.9034135938066498,-4.167560195354987,8.799513105419182,0.2611111111111111,0.4211111111111111,-0.6088888888888889,-0.44512438951566463,-2.2545812983855487,35.30487561048434
1590515542.4676511,0.9529772763642183,-4.166107977276364,8.762289766362619,0.2654027755552,0.4211111111111111,-0.6104494941412848,-0.4441760681709074,-1.9441760681709073,35.96420427268363
1590515542.4776511,0.92,-3.963613041154463,8.810828433992517,0.2855555555555556,0.4211111111111111,-0.6177777777777778,-1.034707375734901,-2.583344468198824,38.59035943345804
1590515542.487651,0.92,-4.132339515978321,8.624716641749206,0.2855555555555556,0.4211111111111111,-0.6177777777777778,-0.6879701224070267,-3.2884434568304988,46.03041925574659
1590515542.497651,0.9253581357037444,-4.23750694992621,8.76766516799945,0.2855555555555556,0.4211111111111111,-0.6177777777777778,-1.235407299996568,-3.4676742629646156,50.011278614819645
1590515542.507651,0.9397532347187424,-4.338272643031197,8.573331331296977,0.2855555555555556,0.4211111111111111,-0.6177777777777778,-0.02082082060610224,-4.052475160448914,51.72069662285067
1590515542.517651,0.812862198752879,-4.235241465835253,8.866207329176264,0.2880670041425056,0.4187318440287375,-0.6151341476862515,-1.891490178454394,-4.034157725221429,54.18286191786978
1590515542.527651,0.7657378798943879,-4.203825253262925,8.709126266314627,0.30464778300012274,0.4030237377425737,-0.5976806962571807,-0.7624700391363781,-4.6722995430968295,55.80276037863042
1590515542.537651,0.6341266632471412,-4.1708924961530345,8.648550825211961,0.30666666666666664,0.4011111111111111,-0.5955555555555555,-1.2776510122801195,-4.623140633014513,58.567838608454274
1590515542.547651,0.5404869655187926,-4.118780674329157,8.594635731797835,0.30666666666666664,0.4011111111111111,-0.5955555555555555,-0.9771376436716975,-4.667681178164151,60.118912931015096
1590515542.557651,0.47084878033082317,-4.121792334427496,8.700943554096673,0.30666666666666664,0.4011111111111111,-0.5955555555555555,-1.2216986065521014,-4.630897213104203,61.24587979500547
1590515542.567651,0.4236065521014353,-4.101545665186329,8.727939113084895,0.30666666666666664,0.4011111111111111,-0.5955555555555555,-1.3060597283902942,-4.799619456780588,62.469116061659264
1590515542.577651,0.3683115947250847,-4.13,8.787272465230238,0.3922222222222223,0.3566666666666667,-0.6088888888888889,-1.0146105065936442,-4.966721013187288,65.02192026374577
1590515542.587651,0.33053055415435617,-4.13,8.681485551632196,0.3922222222222223,0.3566666666666667,-0.6088888888888889,-1.0618368073070548,-5.06117361461411,66.9109722922822
1590515542.597651,0.31617752129705967,-4.14539250709902,8.64314005679216,0.3922222222222223,0.3566666666666667,-0.6088888888888889,-1.576898415315563,-5.023890491893377,70.58020174956489
1590515542.607651,0.2700736466062105,-4.130024548868737,8.520196390949895,0.3922222222222223,0.3566666666666667,-0.6088888888888889,-1.6249232847851973,-5.312039708711184,73.55774365668223
1590515542.617651,0.30212077888656963,-4.268181168329854,8.727575844222686,0.40582442963937265,0.33646536852238396,-0.6012123955940615,-1.8314431847425157,-5.785981328453379,81.42420939010094
1590515542.627651,0.3630494578153928,-4.426950542184607,8.699219783126157,0.5044444444444445,0.19,-0.5455555555555556,-1.1467204443268977,-6.668440888653795,89.47252710923036
1590515542.637651,0.2027244565924769,-4.451847976051022,8.663980997006378,0.5044444444444445,0.19,-0.5455555555555556,-1.8264252245216712,-7.369521996615905,93.933803527268
1590515542.647651,-0.053247463608292904,-4.263456771063079,8.636688134097927,0.5044444444444445,0.19,-0.5455555555555556,-2.7918008381120423,-7.979099580943979,96.66529140935157
1590515542.657651,-0.15065107446276862,-4.11,8.63103508245877,0.5044444444444445,0.19,-0.5455555555555556,-2.639607696151924,-8.091715392303849,98.85705397301349
1590515542.667651,-0.13332693443591256,-4.108667306556409,8.693336532782043,0.5442771707028943,0.14291149832644223,-0.4841035801010698,-2.5875479917306556,-8.20415866804489,100.73735602480804
1590515542.677651,-0.2951968325791855,-4.049868778280543,8.704308823529411,0.8033333333333333,-0.16333333333333333,-0.08444444444444445,-2.355260180995475,-8.103619909502262,104.22799066742081
1590515542.687651,-0.45387914044877126,-3.9607574498397247,8.737666389647394,0.8033333333333333,-0.16333333333333333,-0.08444444444444445,-2.7450744983972455,-8.341670129407575,109.83865902884958
1590515542.697651,-0.5085321821036107,-3.9221330455259027,8.677866954474098,0.8033333333333333,-0.16333333333333333,-0.08444444444444445,-2.3391630690737832,-9.408758094583987,119.11180337519623
1590515542.707651,-0.4397969245216575,-3.9706092264350277,8.696734358492781,0.8033333333333333,-0.16333333333333333,-0.08444444444444445,-2.3137692217396406,-9.81313461086982,127.40038443479281
1590515542.717651,-0.3951631339362705,-4.102898309503279,8.711612288687911,0.8273385204644355,-0.01321134217017264,-0.029089199492873273,-2.622960825796619,-10.128959281689294,133.37260362564422
1590515542.727651,-0.369923391890107,-4.169770175670321,8.720025536036632,0.9522222222222222,0.7677777777777778,0.2588888888888889,-2.9370211993131687,-11.126436402060493,138.57462961739972
1590515542.7376509,-0.34222361643111876,-4.086670849293356,8.729258794522961,0.9522222222222222,0.7677777777777778,0.2588888888888889,-2.763897602694492,-11.645807191916523,142.9604273984062
1590515542.7476509,-0.40480728570933416,-4.208723961041212,8.633531246750545,0.9522222222222222,0.7677777777777778,0.2588888888888889,-3.3609049513015146,-11.451595048698485,146.3989257304773
1590515542.7576509,-0.48476517278430553,-4.172379466916225,8.67714463970053,0.9522222222222222,0.7677777777777778,0.2588888888888889,-3.3154743336452808,-11.49702566635472,147.0803849953208
1590515542.7676508,-0.47986287610812695,-4.15,8.634794314162189,0.9266883318534045,0.7519971760047746,0.1821776302701234,-2.442807273243373,-11.625,145.66182065810733
1590515542.7776508,-0.5714186727623402,-4.14858132723766,8.76952710907922,0.6933333333333334,0.6077777777777778,-0.5188888888888888,-3.053633295235374,-11.60578880634331,141.84187709836417
1590515542.7876508,-0.6982901025072725,-4.057119580274276,8.742412210832525,0.6933333333333334,0.6077777777777778,-0.5188888888888888,-2.7191157881978114,-10.654421059010943,133.6210553314171
1590515542.7976508,-0.8943804543565591,-3.9627057071616565,8.720624393960383,0.6933333333333334,0.6077777777777778,-0.5188888888888888,-2.809898358498407,-10.200508207507966,128.76418782033522
1590515542.8076508,-0.9849706533067598,-3.84499021776892,8.74,0.6933333333333334,0.6077777777777778,-0.5188888888888888,-2.5158389863048765,-9.812744555777002,122.42349518202263
1590515542.8176508,-1.0287540323979327,-3.861868951403101,8.739377016198967,0.6897338713718054,0.5995751577308343,-0.5226614019062594,-2.1894468243782303,-9.427765878108849,119.82263736168441
1590515542.8276508,-0.9998729360922564,-3.936454893487094,8.736454893487094,0.5777777777777777,0.34444444444444444,-0.64,-2.16772553256453,-9.04272553256453,115.32441224135097
1590515542.8376508,-1.0231050970197753,-3.9637898059604497,8.714108253644044,0.5777777777777777,0.34444444444444444,-0.64,-1.922372574505617,-8.73915200538483,112.37012289945223
1590515542.8476508,-1.0484133705932932,-3.957891444539983,8.63471818572657,0.5777777777777777,0.34444444444444444,-0.64,-1.88152407566638,-8.404618981083406,108.94780739466896
1590515542.8576508,-1.1230393262651328,-3.967040378975863,8.762879915783142,0.5777777777777777,0.34444444444444444,-0.64,-2.21400105271073,-8.285500789533048,105.44201631701631
1590515542.8676507,-1.2491931724189789,-3.8960788405143245,8.778649146552372,0.5777777777777777,0.34444444444444444,-0.64,-2.0168856680953455,-8.13766425107151,102.38672785547786
1590515542.8776507,-1.2920678272243158,-3.751033913612158,8.776381302357446,0.5155555555555555,0.23555555555555555,-0.67,-2.2511113792781288,-7.967690199620068,97.53786669677058
1590515542.8876507,-1.3581846274586746,-3.7305415215578557,8.704363074508265,0.5155555555555555,0.23555555555555555,-0.67,-1.2130769608083583,-7.216461470544955,90.80892235247953
1590515542.8976507,-1.4444393503945987,-3.635775740157839,8.707327220473518,0.5155555555555555,0.23555555555555555,-0.67,-1.4375,-6.740303248027006,84.87557308060764
1590515542.9076507,-1.4732046640848628,-3.634144216198013,8.772651119717125,0.5155555555555555,0.23555555555555555,-0.67,-1.4941277992928101,-6.435087451591177,79.89817046219902
1590515542.9176507,-1.4410542635658914,-3.5723322259136214,8.837220376522701,0.5121476559616095,0.22405389442598744,-0.6718459456133875,-1.55171650055371,-5.928114617940199,76.0672895902547
1590515542.9276507,-1.3944125036949453,-3.5312097250960686,8.751601389299438,0.4888888888888889,0.14555555555555555,-0.6844444444444444,-0.7551128805793674,-5.337413168785102,72.03693559710317
1590515542.9376507,-1.475044566335276,-3.5933630442235174,8.741503256770654,0.4888888888888889,0.14555555555555555,-0.6844444444444444,-1.3113858416181008,-4.854538052793966,67.89984358930408
1590515542.9476507,-1.5057906322936558,-3.6133089327392316,8.657445098663272,0.4888888888888889,0.14555555555555555,-0.6844444444444444,-0.6978404148100997,-5.0418191703798,63.88854299278591
1590515542.9576507,-1.572587974605631,-3.647412025394369,8.750351898422524,0.4888888888888889,0.14555555555555555,-0.6844444444444444,-0.8125,-4.707363531646237,58.386845356382885
1590515542.9676507,-1.5873402739918754,-3.6326597260081246,8.809361095967501,0.4888888888888889,0.14555555555555555,-0.6844444444444444,-0.8125,-4.108051369080069,53.82285273376361
1590515542.9776506,-1.551808510638298,-3.554723404255319,8.795829787234043,0.4955555555555556,0.10777777777777778,-0.6911111111111111,-0.38976063829787233,-3.242154255319149,44.43098404255319
1590515542.9876506,-1.5711753316758708,-3.5511753316758705,8.740587665837936,0.4955555555555556,0.10777777777777778,-0.6911111111111111,-0.378672911487096,-2.765438329189677,37.244026534069654
1590515542.9976506,-1.4987141800246608,-3.478714180024661,8.716183477188656,0.4955555555555556,0.10777777777777778,-0.6911111111111111,-0.14056103575832307,-2.445792231812577,29.754093711467323
1590515543.0076506,-1.5613072067866784,-3.543921620360035,8.818235138919896,0.4955555555555556,0.10777777777777778,-0.6911111111111111,-0.22548987274978183,-1.543299575832606,21.655214316156922
1590515543.0176506,-1.5698195766444099,-3.569458729933229,8.741623810200313,0.4955555555555556,0.10777777777777778,-0.6911111111111111,-0.06588293791731781,-1.0112764597243926,14.526104560306862
1590515543.0276506,-1.542638571079466,-3.4970361895452426,8.803843334147913,0.48542169299239485,0.06926910003776687,-0.6850307935732146,0.2225148845888965,-0.3159642769866483,6.280577277675338
1590515543.0376506,-1.5718784750634691,-3.434212668638929,8.825939237531735,0.4844444444444445,0.06555555555555556,-0.6844444444444444,0.4492404691466818,0.2979112901533748,-1.4734164201338622
1590515543.0476506,-1.6090810794300463,-3.420810794300463,8.740918920569953,0.4844444444444445,0.06555555555555556,-0.6844444444444444,0.3979730142488431,1.1314190427465294,-12.376690427465295
1590515543.0576506,-1.6026755142870235,-3.356755142870233,8.747324485712976,0.4844444444444445,0.06555555555555556,-0.6844444444444444,0.558112142824417,1.611836428473251,-17.180864284732507
1590515543.0676506,-1.5330036443434305,-3.301287276147184,8.759570907950938,0.4844444444444445,0.06555555555555556,-0.6844444444444444,1.282999921627023,2.1115908734668287,-26.06659008973706
1590515543.0776505,-23.45,-10.46,-7.16,0.4666666666666667,0.07444444444444444,-0.6611111111111111,1.0,2.5625,-33.25
1590515543.0876505,-3.8910308734277415,-2.4237611047585546,-3.926959275222095,0.4666666666666667,0.07444444444444444,-0.6611111111111111,-38.48575072565749,114.29712925499163,-86.21963233353857
1590515543.0976505,3.7382119159997265,0.15863465353307316,-0.5117983446200152,0.4666666666666667,0.07444444444444444,-0.6611111111111111,8.177282132840816,-7.045048395923118,-200.03853717764554
1590515543.1076505,-0.8167089570159288,-0.3332750340190507,-0.20534179140318579,0.4666666666666667,0.07444444444444444,-0.6611111111111111,18.411018920595534,12.867001770991756,-216.12489994396861
1590515543.1176505,0.10655407027935637,-0.28291523253021694,-0.02068918594412872,0.4666666666666667,0.07444444444444444,-0.6611111111111111,13.532413151364764,17.955440046426,-210.03975726406787
1590515543.1276505,-0.797488003897211,-0.2987112410181464,2.845644866642309,0.4544444444444444,0.12444444444444445,-0.6488888888888888,11.32544909268055,29.862560893922787,-198.58860065765435
1590515543.1376505,-4.640596381609624,-0.016035158071435233,10.028040660262986,0.4544444444444444,0.12444444444444445,-0.6488888888888888,27.320866944884827,-13.963935582392992,-181.99095693835682
1590515543.1476505,-0.32387023716775676,-0.2875141775225119,-0.6029253709709566,0.4544444444444444,0.12444444444444445,-0.6488888888888888,43.90310591922889,-147.8920571902234,-148.8470820575073
1590515543.1576505,0.5880497526860289,-1.2070335006250792,5.309355896581088,0.4544444444444444,0.12444444444444445,-0.6488888888888888,-0.8854644157773564,-48.15080829996559,-113.70016578189264
1590515543.1676505,0.5756651302654606,-0.7837048630795396,5.392503019398092,0.4544444444444444,0.12444444444444445,-0.6488888888888888,3.0321966429222833,6.327553856202705,-91.3125754849523
1590515543.1776505,2.7880320782927823,-2.477001495174664,16.485993203751526,0.42777777777777776,0.18777777777777774,-0.67,-9.69802568981922,91.97806170993611,-67.93864346880522
1590515543.1876504,-0.40734749009100774,-2.7296078474790195,9.606143796638694,0.42777777777777776,0.18777777777777774,-0.67,-15.19645269148159,51.280960065100416,-57.76902914018733
1590515543.1976504,0.19458848054354538,-3.302353304508956,10.344706609017912,0.42777777777777776,0.18777777777777774,-0.67,11.538242163372452,-30.375738302964795,-57.52794452594194
1590515543.2076504,-0.0446312571646924,-2.812223920519679,9.159361864730608,0.42777777777777776,0.18777777777777774,-0.67,4.117071073748567,-21.41569545280856,-52.690962934658
1590515543.2176504,-0.011241402369124957,-2.017545376385174,6.29451232327092,0.42777777777777776,0.18777777777777774,-0.67,0.5693990017195265,15.647043370271298,-43.38354091039358
1590515543.2276504,-0.22555727881565035,-3.2308325696157913,10.419749030666196,0.42995707515763915,0.24008091489445033,-0.6536552696510398,-12.515791328868524,15.682574021854071,-40.25
1590515543.2376504,-0.23855215585810796,-3.029091791831085,8.706942958081111,0.43,0.2411111111111111,-0.6533333333333333,1.5214100882176709,-7.492967894551992,-43.61741136913001
1590515543.2476504,-0.32578998073217724,-2.904210019267823,8.235019267822736,0.43,0.2411111111111111,-0.6533333333333333,3.978745183044316,3.0195688824662827,-40.84664017341041
1590515543.2576504,-0.48570807153214113,-3.34063352790274,9.449490649514814,0.43,0.2411111111111111,-0.6533333333333333,-3.6767855151132096,2.3156834405324016,-39.84817544707588
1590515543.2676504,-0.40190720611916264,-2.9814707461084273,8.354412238325281,0.43,0.2411111111111111,-0.6533333333333333,0.5657436761943098,3.0699958903650026,-38.38436409688674
1590515543.2776504,-0.44939338499067294,-2.912912899985651,8.477501434926102,0.4147087100014349,0.26149949777586456,-0.6465372044450822,-0.2713960934136894,2.8531532501076198,-36.55900909384417
1590515543.2876503,-0.5087350253807107,-3.089307614213198,9.064820304568528,0.41,0.2677777777777778,-0.6444444444444445,0.10664974619289347,3.0836802030456854,-34.588756345177664
1590515543.2976503,-0.5788787839417955,-3.1393593051095974,8.875354962044582,0.41,0.2677777777777778,-0.6444444444444445,2.9559522262848232,1.698511943428794,-31.32794896898606
1590515543.3076503,-0.524386124464077,-3.108220642550901,8.649599658494033,0.41,0.2677777777777778,-0.6444444444444445,0.8151691753744501,2.2337077061563875,-29.0412034373318
1590515543.3176503,-0.5904744525547445,-3.3593065693430657,9.01919708029197,0.41,0.2677777777777778,-0.6444444444444445,0.5853102189781022,2.039689781021898,-25.252052919708028
1590515543.3276503,-5.159222801053965,-17.31411287889454,7.930194299736509,0.4194128098370108,0.28318055751106824,-0.6393101845333476,-0.48207479333024916,2.0481336866665325,-22.275780920007243
1590515543.3376503,-0.22366782006920413,-0.5916608996539793,9.535726643598617,0.4222222222222222,0.2877777777777778,-0.6377777777777778,-15.93285034602076,10.618512110726643,-115.98648356401384
1590515543.3476503,1.3116905431338421,-3.164665060025885,11.196864372740661,0.4222222222222222,0.2877777777777778,-0.6377777777777778,14.992067211139375,15.06831291560673,-207.9211937117865
1590515543.3576503,0.9072387041599641,-1.6291592514915192,4.3560023212722205,0.4222222222222222,0.2877777777777778,-0.6377777777777778,41.405559599682356,8.68803577609904,-195.39097529066808
1590515543.3676503,-0.8179320315204333,-3.2689254953065507,11.137118975382297,0.4222222222222222,0.2877777777777778,-0.6377777777777778,2.1194933416138966,10.18261438374295,-183.9147466962595
1590515543.3776503,-0.6899640287769785,-2.9889208633093527,9.617194244604317,0.3955555555555556,0.3,-0.6311111111111111,-18.538219424460433,24.904676258992804,-163.40062949640287
1590515543.3876503,0.24,-2.7,7.36,0.3955555555555556,0.3,-0.6311111111111111,13.0625,7.75,-151.4375
1590515543.3976502,0.08316429665281119,-2.802923430321593,7.64916582804638,0.3955555555555556,0.3,-0.6311111111111111,9.907406749070226,9.618550371909867,-144.66783389849047
1590515543.4076502,-8.800874278224521,-16.265282865138687,6.623053951610046,0.3955555555555556,0.3,-0.6311111111111111,-0.5956330369478202,11.60376076021113,-130.1568024017854
1590515543.4176502,-5.748260853971271,-13.190705665046718,5.864582608539712,0.3955555555555556,0.3,-0.6311111111111111,-5.001408864300701,11.733775083836953,-86.39204423183833
1590515543.4276502,0.4684740762593111,-1.7261457334611698,11.098819234456819,0.3568346567675427,0.3425170653358573,-0.6500919438503331,-4.60315565307176,-8.68679935835976,59.773075079283146
1590515543.4376502,-0.2674850240597074,0.007608759697535106,11.388132181086124,0.3388888888888889,0.3622222222222222,-0.6588888888888889,15.34301040950604,-14.256831238338407,113.34705514092114
1590515543.4476502,-0.9687015307158228,-0.9417097730317917,8.121474684315238,0.3388888888888889,0.3622222222222222,-0.6588888888888889,-4.817862073165781,-7.4849440699987815,13.31756516707945
1590515543.4576502,-0.6757244938467646,-3.0283207622072252,9.378259229853116,0.3388888888888889,0.3622222222222222,-0.6588888888888889,-6.676843489479952,10.552389341008336,-6.711951667328304
1590515543.4676502,0.42235454774964987,-5.011907231874412,9.446051043125014,0.3388888888888889,0.3622222222222222,-0.6588888888888889,-5.988457058594019,-0.3455165132771789,-9.803341098437034
1590515543.4776502,0.029966533607515826,-2.6229785089310917,8.162342647473892,0.3388888888888889,0.3744444444444445,-0.6444444444444445,3.737659267771461,1.7529283093423653,-23.97870549574614
1590515543.4876502,0.021510624571589854,-3.3755544131285027,8.75425627998871,0.3388888888888889,0.3744444444444445,-0.6444444444444445,0.6195428107737593,2.4928203499858874,-34.39004349622999
1590515543.4976501,-1.825324820020569,-7.163743143640727,8.609035824477202,0.3388888888888889,0.3744444444444445,-0.6444444444444445,-0.7678961690092561,3.409263048508742,-35.650269433493314
1590515543.5076501,0.3801960339576178,-2.2773540276067656,8.4044365238805,0.3388888888888889,0.3744444444444445,-0.6444444444444445,-1.2430679314367183,1.4003062018015684,-17.802032029680515
1590515543.5176501,0.011092877170865212,-4.070920946812441,8.524161105918663,0.3388888888888889,0.3744444444444445,-0.6444444444444445,5.789491273067141,-0.4612300845523507,6.487781750603169
1590515543.52765,-0.04,-4.69,9.05,0.3411111111111111,0.37666666666666665,-0.6444444444444445,-1.8125,-1.5,-1.125
1590515543.53765,-0.0357439446366782,-4.663754325259516,9.030847750865053,0.3411111111111111,0.37666666666666665,-0.6444444444444445,-1.7326989619377162,-1.4024653979238755,-1.0895328719723183
1590515543.54765,0.034603686467074644,-4.246981567664626,8.641264978562791,0.3411111111111111,0.37666666666666665,-0.6444444444444445,-0.5962269595807834,-0.21627304041921652,-0.25990783832313386
1590515543.55765,0.04,-4.494514724711908,8.607710627400767,0.3411111111111111,0.37666666666666665,-0.6444444444444445,0.10164852752880926,-0.08396286811779768,-0.014308578745198475
1590515543.56765,0.01741774135229601,-4.3888608834518505,8.700329034590816,0.3411111111111111,0.37666666666666665,-0.6444444444444445,0.4344934539592624,-0.09778477913703748,-0.03528477913703749
1590515543.57765,0.00992729625823151,-4.349491073807621,8.755109055612653,0.3411111111111111,0.3827333477133637,-0.6516141584087227,0.46988599596513264,-0.15602280080697348,-0.03147719919302653
1590515543.58765,0.02,-4.394464603344006,8.714464603344005,0.3411111111111111,0.3888888888888889,-0.6588888888888889,-0.038611704019921755,-0.12366150836001423,0.0
1590515543.59765,0.03596026978218406,-4.380640179854789,8.615518741016475,0.3411111111111111,0.3888888888888889,-0.6588888888888889,-0.5080022481848672,-0.0625,-0.06650112409243357
1590515543.60765,0.035995450736262424,-4.425011373159344,8.578009098527476,0.3411111111111111,0.3888888888888889,-0.6588888888888889,-0.3186504848557405,-0.0625,-0.08123578355082006
1590515543.61765,0.015916955845399067,-4.299169558453991,8.716747397391408,0.3411111111111111,0.3888888888888889,-0.6588888888888889,0.2966046428144071,-0.0625,-0.0625
1590515543.62765,0.01,-4.348969567975769,8.77,0.3411111111111111,0.38552563061803186,-0.646108507459632,0.575673311094284,0.08884662218856804,-0.0625
1590515543.63765,0.017769396921178043,-4.3112284431035075,8.754461206157643,0.3411111111111111,0.38333333333333336,-0.6377777777777778,0.0908539616690095,-0.05529365378681386,-0.0625
1590515543.64765,0.026797030842412153,-4.347970308424122,8.68202969157588,0.3411111111111111,0.38333333333333336,-0.6377777777777778,-0.27490721382537975,-0.125,-0.020018557234924045
1590515543.65765,0.03,-4.338678714070582,8.625207228442349,0.3411111111111111,0.38333333333333336,-0.6377777777777778,-0.5299548222353172,-0.1766516074117724,-0.10330321482354483
1590515543.66765,0.023311977512503194,-4.370128134924981,8.673504179899973,0.3411111111111111,0.38333333333333336,-0.6377777777777778,-0.1026984539845946,-0.06209957835943489,-0.041399718906289934
1590515543.67765,0.027978677037583395,-4.350106614812083,8.755850739263083,0.3411111111111111,0.393085049712602,-0.6430968958028334,0.37433365742448116,-0.09973346296979248,-0.04986673148489624
1590515543.68765,0.03872207110938411,-4.4010544977656885,8.700223431124927,0.3411111111111111,0.3955555555555556,-0.6444444444444445,0.27396116669904796,0.038538833300952036,-0.0625
1590515543.69765,0.02389418221734358,-4.401947091108672,8.593365093304062,0.3411111111111111,0.3955555555555556,-0.6444444444444445,-0.35396816684961585,0.0625,-0.11283068057080131
1590515543.70765,0.0354058271420919,-4.369188345715816,8.593108740713138,0.3411111111111111,0.3955555555555556,-0.6444444444444445,-0.5962864196380744,-0.0337864196380744,-0.125
1590515543.71765,0.026839514276337382,-4.412641942894651,8.639481457170987,0.3411111111111111,0.3955555555555556,-0.6444444444444445,-0.3371143747948802,-0.0625,-0.042746964227108636
1590515543.72765,0.00943652551937466,-4.376619153116248,8.728662584124065,0.35108772589836834,0.3920343973953471,-0.649139321991389,0.14260857751954187,0.003521715503908368,0.033010857751954184
1590515543.73765,0.007934453092994674,-4.367606718557968,8.742393281442032,0.36,0.3888888888888889,-0.6533333333333333,0.4375,-0.036680663662433416,-0.036680663662433416
1590515543.74765,0.02808163465307722,-4.3438367306938455,8.639591826734614,0.36,0.3888888888888889,-0.6533333333333333,-0.014540866326930635,-0.0625,-0.0625
1590515543.75765,0.012543150936467132,-4.4185558207858975,8.621271575468233,0.36,0.3888888888888889,-0.6533333333333333,-0.3898159199412413,-0.1170526533235402,-0.1170526533235402
1590515543.76765,0.016921117173983306,-4.353867711086184,8.668447820217883,0.36,0.3888888888888889,-0.6533333333333333,-0.35098603532520867,0.004770947012186999,-0.16825698233739567
1590515543.7776499,0.01470555578401941,-4.346472221079903,8.705883332647941,0.36,0.3888888888888889,-0.6498037038560129,-0.014687512851091877,-0.03677082904963605,-0.055138894600485266
1590515543.7876499,0.024697875294026915,-4.355302124705973,8.756744688235067,0.36,0.3888888888888889,-0.6466666666666666,0.38779258088150237,-0.07906913970616589,0.0625
1590515543.7976499,0.03597105397582156,-4.367913161927464,8.686405244338498,0.36,0.3888888888888889,-0.6466666666666666,0.25090456325557636,0.012138174697769455,-0.04945726204665418
1590515543.8076499,0.024994664696708527,-4.357491997045062,8.622497332348354,0.36,0.3888888888888889,-0.6466666666666666,-0.2970250554050727,-0.0312833456455717,-0.07810832717721415
1590515543.8176498,0.013263193492024724,-4.363473613015951,8.633473613015951,0.36,0.3888888888888889,-0.6466666666666666,-0.521710081349691,-0.1888151220245364,-0.14671008134969094
1590515543.8276498,0.024513347507677766,-4.348229978738483,8.70531006378455,0.3462929495760821,0.3743755413812111,-0.6555359345880253,0.07245895346090236,-0.11393736711552091,-0.00608315615402788
1590515543.8376498,0.022397615887872226,-4.355204768224255,8.737602384112128,0.3411111111111111,0.3688888888888889,-0.6588888888888889,0.3125,-0.0625,0.0625
1590515543.8476498,0.02,-4.36,8.657116291251965,0.3411111111111111,0.3688888888888889,-0.6588888888888889,0.21831396733177771,-0.0625,0.15668603266822229
1590515543.8576498,0.02,-4.336547884187082,8.645634743875279,0.3411111111111111,0.3688888888888889,-0.6588888888888889,-0.30108574610244987,-0.013641425389755012,-0.10565144766146994
1590515543.8676498,0.02,-4.358959578002506,8.65,0.3411111111111111,0.3688888888888889,-0.6588888888888889,-0.2565026374843354,-0.060332454171888206,-0.1573337729140559
1590515543.8776498,0.02,-4.379940643548891,8.665089034676663,0.3391551251345066,0.3739185671144434,-0.653579784095248,0.06324195563886284,-0.14071774445485785,-0.0935645110902843
1590515543.8876498,0.02,-4.363571896788034,8.730357845182052,0.3333333333333333,0.3888888888888889,-0.6377777777777778,0.31026346761218043,-0.10267564507478696,-0.08482435492521304
1590515543.8976498,0.00558260064784822,-4.348373900971772,8.689539102267469,0.3333333333333333,0.3888888888888889,-0.6377777777777778,-0.0653806108283202,-0.0625,-0.07994562702452568
1590515543.9076498,0.022052007478842745,-4.376753345798071,8.662649330840386,0.3333333333333333,0.3888888888888889,-0.6377777777777778,-0.3253250467427672,-0.016558317752410942,-0.10844168224758906
1590515543.9176497,0.023863627416243455,-4.39,8.66,0.3333333333333333,0.3888888888888889,-0.6377777777777778,-0.33664767135152157,-0.07670465729695682,-0.048295342703043184
1590515543.9276497,0.015923754201373666,-4.39,8.680381228993133,0.3442033221296702,0.3866243078896521,-0.6350602805786936,-0.15964078255151248,-0.15047653624141458,-0.05095307248282917
1590515543.9376497,0.01,-4.3690209481808155,8.699510474090408,0.36,0.38333333333333336,-0.6311111111111111,0.14991271591326716,-0.10008728408673283,-0.125
1590515543.9476497,0.005430956508630437,-4.33456904349137,8.661723826034521,0.36,0.38333333333333336,-0.6311111111111111,0.22683043453682067,0.00538695635788046,-0.01077391271576092
1590515543.9576497,0.015482576889797843,-4.350321717926532,8.655482576889797,0.36,0.38333333333333336,-0.6311111111111111,-0.13304294816329743,-0.15926610556123655,0.060489262959175644
1590515543.9676497,0.025240549828178693,-4.355240549828179,8.679518900343643,0.36,0.38333333333333336,-0.6311111111111111,-0.31550687285223367,-0.1012671821305842,-0.05949312714776632
1590515543.9776497,0.02,-4.372144580770145,8.683672976922814,0.3561334858972761,0.38333333333333336,-0.6332201188035059,-0.17091221153519354,0.042728052883798384,-0.10522805288379838
1590515543.9876497,0.02,-4.387207640304753,8.68405386844082,0.3477777777777778,0.38333333333333336,-0.6377777777777778,0.14639446292520658,-0.05855778517008263,-0.033221107414958685
1590515543.9976497,0.010430931223710967,-4.354784534388145,8.671292793671133,0.3477777777777778,0.38333333333333336,-0.6377777777777778,0.3125,-0.15490333992590322,-0.05980667985180645
1590515544.0076497,0.009168262491856356,-4.355415868754072,8.672088918721498,0.3477777777777778,0.38333333333333336,-0.6377777777777778,0.054642617416539974,-0.07289671885179556,-0.09634917971294889
1590515544.0176497,0.015845977669624964,-4.37492413398225,8.70169195533925,0.3477777777777778,0.38333333333333336,-0.6377777777777778,-0.3538505582593759,0.08846263956484397,-0.0625
1590515544.0276496,0.018993585859641057,-4.392012828280718,8.69449679292982,0.3447799158245641,0.38033547138011964,-0.6472710072962877,-0.3313702651317302,0.125,-0.09060495581137831
1590515544.0376496,0.01795693115159,-4.38204306884841,8.7,0.3411111111111111,0.37666666666666665,-0.6588888888888889,0.025538360605125043,-0.025538360605125043,-0.04973081969743748
1590515544.0476496,0.031483678181735864,-4.361355095757685,8.657032643636528,0.3411111111111111,0.37666666666666665,-0.6588888888888889,0.21451532575723276,0.009272988635849133,0.044757662878616385
1590515544.0576496,0.018523847783215253,-4.342841282594405,8.690111021839165,0.3411111111111111,0.37666666666666665,-0.6588888888888889,0.026290081075158872,-0.07172595135490467,0.0625
1590515544.0676496,0.015925889676232236,-4.351851779352464,8.71,0.3411111111111111,0.37666666666666665,-0.6588888888888889,-0.21064724190580592,-0.05092637904709704,-0.08564724190580592
1590515544.0776496,0.026184872965694883,-4.378554618897085,8.703815127034305,0.3321774057162185,0.3842259558469604,-0.651329599708595,-0.3125,0.0,-0.148844543964407
1590515544.0876496,0.03,-4.39,8.676920344091172,0.32666666666666666,0.3888888888888889,-0.6466666666666666,-0.20431411292736962,-0.03606196235754346,-0.08893803764245653
1590515544.0976496,0.02418127261000028,-4.360906363050002,8.625087635660002,0.32666666666666666,0.3888888888888889,-0.6466666666666666,0.05683523093749124,0.010234092374996492,-0.026132953812501754
1590515544.1076496,0.02,-4.351018137354799,8.638563480741798,0.32666666666666666,0.3888888888888889,-0.6466666666666666,0.1530683207662523,-0.006363358467495403,0.0
1590515544.1176496,0.023377905990157814,-4.36,8.690267435940948,0.32666666666666666,0.3888888888888889,-0.6466666666666666,0.019440437807568295,-0.08361191243848634,-0.02111191243848634
1590515544.1276495,0.027683517181176096,-4.366949448456472,8.726525275771765,0.32833968203581726,0.386572406070065,-0.6439641033780388,-0.1875,-0.125,-0.0552609911911753
1590515544.1376495,0.02520534172059089,-4.389589316558818,8.7,0.3411111111111111,0.3688888888888889,-0.6233333333333333,-0.15582220474876898,-0.09332220474876898,0.0
1590515544.1476495,0.04,-4.3732450869401145,8.6536421957096,0.3411111111111111,0.3688888888888889,-0.6233333333333333,0.04056358675142965,-0.021109103312142587,-0.12417269006357223
1590515544.1576495,0.034747495754046655,-4.369494991508094,8.682525042459535,0.3411111111111111,0.3688888888888889,-0.6233333333333333,0.22348445461162525,0.0,-0.12184369692558317
1590515544.1676495,0.026246484868811433,-4.36,8.73,0.3411111111111111,0.3688888888888889,-0.6233333333333333,0.14828371301050025,0.0,-0.015581060860142923
1590515544.1776495,0.02378705681332764,-4.356212943186672,8.726212943186672,0.34826444064739664,0.371834377521477,-0.6313282310503583,-0.1960073152498932,-0.0710073152498932,-0.008507315249893205
1590515544.1876495,0.03,-4.380607191046908,8.668988014921819,0.36,0.37666666666666665,-0.6444444444444445,-0.3125,-0.155617509326137,-0.093117509326137
1590515544.1976495,0.009085920203495218,-4.389085920203495,8.599085920203494,0.36,0.37666666666666665,-0.6444444444444445,0.03606799660841298,-0.08142900042394838,-0.0625
1590515544.2076495,0.01302171479740318,-4.373489142601298,8.642086859189613,0.36,0.37666666666666665,-0.6444444444444445,0.14680714125811506,-0.0625,-0.10319285874188494
1590515544.2176495,0.02492111503202076,-4.374921115032021,8.689684460128083,0.36,0.37666666666666665,-0.6444444444444445,0.125,-0.18552787580051905,-0.06348606209974048
1590515544.2276495,0.02108443207935164,-4.38,8.71,0.3570281440264505,0.37963852264021614,-0.641472588470895,0.013555400991895492,-0.2567777004959477,-0.027861149752026127
1590515544.2376494,0.018894077770454758,-4.388894077770455,8.71,0.3533333333333333,0.38333333333333336,-0.6377777777777778,-0.15279399303267113,-0.13191201393465776,-0.0625
1590515544.2476494,0.022224754175120962,-4.392224754175121,8.667236147963166,0.3533333333333333,0.38333333333333336,-0.6377777777777778,-0.09030942718901203,-0.13539292960824098,-0.013904713594506013
1590515544.2576494,0.023173231748026546,-4.366826768251973,8.63951969524408,0.3533333333333333,0.38333333333333336,-0.6377777777777778,0.08994423280838865,-0.1127788359580568,-0.019832698425165926
1590515544.2676494,0.03777672532695216,-4.352223274673047,8.696669824019143,0.3533333333333333,0.38333333333333336,-0.6377777777777778,0.09720906658690198,0.04860453329345099,-0.138895466706549
1590515544.2776494,0.030806786646060787,-4.359193213353939,8.717579640061818,0.3533333333333333,0.38333333333333336,-0.6377777777777778,0.010084833075759844,0.005042416537879922,-0.18245758346212007
1590515544.2876494,0.015139651672187199,-4.354860348327812,8.732709477508282,0.3533333333333333,0.3888888888888889,-0.6311111111111111,-0.1875,-0.125,0.030377177048830004
1590515544.2976494,0.002665467478843874,-4.375330934957688,8.672683455296186,0.3533333333333333,0.3888888888888889,-0.6311111111111111,-0.15418165651445156,-0.10834082825722578,0.10834082825722578
1590515544.3076494,0.01411613390039786,-4.385883866099602,8.602929071203183,0.3533333333333333,0.3888888888888889,-0.6311111111111111,-0.03677416312251337,-0.08822583687748663,0.0625
1590515544.3176494,0.022257349027030224,-4.37548530194594,8.663544094162182,0.3533333333333333,0.3888888888888889,-0.6311111111111111,0.0282168628378778,-0.08267470574318331,0.0483915685810611
1590515544.3276494,0.03,-4.36,8.71336299046278,0.34922301165660313,0.39374654177957,-0.6355950983948168,0.10398130960762977,0.020462619215259555,0.0
1590515544.3376493,0.03,-4.367659303763916,8.716170348118043,0.3411111111111111,0.4033333333333333,-0.6444444444444445,-0.05717662131118573,-0.014629351475525708,0.0
1590515544.3476493,0.03,-4.38,8.643367805143557,0.3411111111111111,0.4033333333333333,-0.6444444444444445,-0.27974651556091207,0.0030069688781758433,0.0
1590515544.3576493,0.025509873842557908,-4.366529621527674,8.601430883102095,0.3411111111111111,0.4033333333333333,-0.6444444444444445,-0.14412026909592163,-0.11862657696802613,-0.028063288484013064
1590515544.3676493,0.01583720642550409,-4.358325587148991,8.673302348595968,0.3411111111111111,0.4033333333333333,-0.6444444444444445,0.11453491968119886,-0.10944762047820171,0.01555237952179829
1590515544.3776493,0.016589522718030242,-4.35682095456394,8.726589522718031,0.3473345492336952,0.3967438106153031,-0.6352923295582914,0.14631548301231098,0.0,0.06322322451846649
1590515544.3876493,0.0253181111963341,-4.35340944401833,8.735318111196335,0.36,0.38333333333333336,-0.6166666666666667,0.003976389954176256,0.0,-0.0625
1590515544.3976493,0.01575296397628819,-4.371505927952576,8.691776675786594,0.36,0.38333333333333336,-0.6166666666666667,-0.08904397514819881,0.0,-0.0625
1590515544.4076493,0.014294031736006949,-4.372882095208021,8.648588063472014,0.36,0.38333333333333336,-0.6166666666666667,-0.15183769835004343,0.0,-0.03566230164995658
1590515544.4176493,0.02,-4.385957565605807,8.674148520379676,0.36,0.38333333333333336,-0.6166666666666667,-0.12433696259073143,-0.012632607481853714,-0.03789782244556114
1590515544.4276493,0.02,-4.372947143123023,8.719684999069422,0.36,0.38333333333333336,-0.6166666666666667,0.07895088870277311,-0.053290177740554626,-0.1598705332216639
1590515544.4376493,0.02747773212818406,-4.354955464256368,8.709910928512736,0.3533333333333333,0.37666666666666665,-0.6588888888888889,0.10867912900575186,0.0,-0.04673582580115037
1590515544.4476492,0.024973438026380575,-4.3648671901319025,8.640212495788955,0.3533333333333333,0.37666666666666665,-0.6588888888888889,-0.24933595065951436,-0.031083987664878594,-0.031083987664878594
1590515544.4576492,0.02180800813894339,-4.39,8.620479979652641,0.3533333333333333,0.37666666666666665,-0.6588888888888889,-0.2726001017367924,-0.1136999491316038,-0.0880999745658019
1590515544.4676492,0.01,-4.385071359615936,8.657392960576095,0.3533333333333333,0.37666666666666665,-0.6588888888888889,-0.09419599759960341,-0.12589199519920682,-0.07879399639940513
