time,acc_x,acc_y,acc_z,mag_x,mag_y,mag_z,gyr_x,gyr_y,gyr_z
1590515549.6479294,-0.33,-4.63,9.1,0.3566666666666667,0.29444444444444445,-0.6133333333333333,-0.5625,-0.75,8.3125
1590515549.6579294,0.007576963491247257,-4.367440139506807,8.781177312258267,0.36187618770819824,0.2746482644866244,-0.5997885786253512,1.0198920163652216,-0.8672142234344609,-0.009709863846721234
1590515549.6679294,0.0432427720470725,-4.3032427720470725,8.65,0.3622222222222222,0.2733333333333333,-0.5988888888888889,0.6908960482347813,0.20606930117681244,0.0
1590515549.6779294,0.05,-4.317099254014414,8.664198508028829,0.3622222222222222,0.2733333333333333,-0.5988888888888889,0.4153148312049564,0.2862593248198255,-0.06655550638513087
1590515549.6879294,0.052692496723460026,-4.33269249672346,8.67923001310616,0.3622222222222222,0.2733333333333333,-0.5988888888888889,0.4423124180865007,-0.009624836173001305,-0.17067189547837483
1590515549.6979294,0.059563892529488856,-4.339563892529489,8.651744429882045,0.3622222222222222,0.2733333333333333,-0.5988888888888889,0.6140973132372215,-0.353194626474443,-0.12772567169069463
1590515549.7079294,0.06,-4.308321135506764,8.626240851630072,0.36750203297109485,0.28477292328922404,-0.6103284788447796,0.3775088711465957,-0.5729929030827234,-0.125
1590515549.7179294,0.058865452776426436,-4.302269094447147,8.594538188894294,0.3688888888888889,0.2877777777777778,-0.6133333333333333,0.3125,-0.840863680589339,-0.11081815970533046
1590515549.7279294,0.05157811522690944,-4.316843769546181,8.623687539092362,0.3688888888888889,0.2877777777777778,-0.6133333333333333,0.3125,-1.0230471193272639,-0.019726440336368056
1590515549.7379293,0.06,-4.321315677374815,8.777894064248887,0.3688888888888889,0.2877777777777778,-0.6133333333333333,0.5789459671851819,-1.171054032814818,-0.19572298359259097
1590515549.7479293,0.06,-4.327476608058285,8.814859648349712,0.3688888888888889,0.2877777777777778,-0.6133333333333333,0.6559576007285653,-1.0940423992714348,-0.23422880036428267
1590515549.7579293,0.08794613301233825,-4.311369244658441,8.83,0.34611796569365033,0.2743222322533186,-0.586422242284415,0.6292788895576287,-0.5967311164610292,-0.25
1590515549.7679293,0.10708343090711686,-4.31,8.812916569092884,0.34444444444444444,0.2733333333333333,-0.5844444444444444,0.4114571136610393,-0.18879994890681884,-0.25
1590515549.7779293,0.08267110572043862,-4.287328894279562,8.71366444713978,0.34444444444444444,0.2733333333333333,-0.5844444444444444,0.11354860268818535,0.2729027946236293,-0.0395972053763707
1590515549.7879293,0.05349753694581281,-4.318251231527094,8.731748768472906,0.34444444444444444,0.2733333333333333,-0.5844444444444444,0.04064039408866995,0.39685960591133007,0.05157019704433498
1590515549.7979293,0.06989561341778092,-4.310052193291109,8.73994780670889,0.34444444444444444,0.2733333333333333,-0.5844444444444444,-0.061847583861130664,0.49934758386113065,0.0003262080694346678
1590515549.8079293,0.05245922683558156,-4.31877038658221,8.669836907342326,0.3600362428128164,0.2791802577214728,-0.5844444444444444,-0.11731491613880764,0.4451850838611924,0.05481491613880764
1590515549.8179293,0.07043393275996873,-4.307608483189992,8.556084831899922,0.3622222222222222,0.28,-0.5844444444444444,-0.125,0.34781811962470677,-0.014946980062548866
1590515549.8279293,0.04246570652546048,-4.304931413050921,8.521917010932828,0.3622222222222222,0.28,-0.5844444444444444,-0.078768002647616,0.0008573368634880035,-0.047089334215872
1590515549.8379292,0.05183278621255642,-4.32,8.668327862125565,0.3622222222222222,0.28,-0.5844444444444444,0.11977456914238818,-0.33641387977020926,-0.022909827656955276
1590515549.8479292,0.06,-4.32,8.754555064737243,0.3635959719048828,0.28050611830413813,-0.585818194127105,0.3872010662604722,-1.0325361766945926,-0.1372010662604722
1590515549.8579292,0.06664972819664382,-4.32,8.822216576065548,0.38333333333333336,0.2877777777777778,-0.6055555555555555,0.6179144016386985,-1.4722927991806507,-0.29864639959032535
1590515549.8679292,0.08932398528099911,-4.319323985281,8.821211808652988,0.38333333333333336,0.2877777777777778,-0.6055555555555555,0.8167250919937555,-1.366549816012489,-0.2626752759812667
1590515549.8779292,0.08357839317679268,-4.306421606823207,8.708945982941982,0.38333333333333336,0.2877777777777778,-0.6055555555555555,0.8414525639675687,-1.1717226492576602,-0.4151350426450458
1590515549.8879292,0.09953546155055827,-4.290929076898884,8.751858153797768,0.38333333333333336,0.2877777777777778,-0.6055555555555555,0.6729831734549457,-0.7892730775279132,-0.30959663469098914
1590515549.8979292,0.09293961314672118,-4.304120773706558,8.778241547413115,0.38333333333333336,0.2877777777777778,-0.6055555555555555,0.46686291083503695,-0.45948065733605914,-0.2683725821670074
1590515549.9079292,0.07185578273763073,-4.319072108631185,8.799072108631185,0.37728526091254355,0.29382585019856755,-0.612611640046477,0.20489796316528797,0.3112074683939441,-0.19329932105509598
1590515549.9179292,0.061985536897117506,-4.295956610691353,8.735884295176941,0.37666666666666665,0.29444444444444445,-0.6133333333333333,-0.06295197196507785,0.6755423663580935,-0.08731921121396885
1590515549.9279292,0.058661050806573196,-4.31598315241972,8.58598315241972,0.37666666666666665,0.29444444444444445,-0.6133333333333333,-0.17913156754108248,0.7165262701643299,0.11663156754108246
1590515549.9379292,0.05075682195085181,-4.292270465852556,8.562270465852556,0.37666666666666665,0.29444444444444445,-0.6133333333333333,-0.12973013719282378,0.5189205487712951,0.06723013719282377
1590515549.9479291,0.07825453190961013,-4.299418177303203,8.635345418425628,0.37666666666666665,0.29444444444444445,-0.6133333333333333,-0.18386360814502112,0.14681835112987335,0.0625
1590515549.9579291,0.07175154658501531,-4.3082484534149845,8.681242267074923,0.38216563560998984,0.282530011733911,-0.6243312712199796,-0.13594716615634567,-0.28742267074923455,-0.04060566768730864
1590515549.9679291,0.0747758840298417,-4.31,8.727264309253755,0.38333333333333336,0.28,-0.6266666666666667,-0.20025120802248236,-0.5724497583955035,0.022700966417985885
1590515549.977929,0.09979616959148035,-4.3101019152042594,8.661019152042599,0.38333333333333336,0.28,-0.6266666666666667,0.0625,-0.6262739400532479,-0.18558908992012826
1590515549.987929,0.07857239735715255,-4.317144794714305,8.768565615857085,0.38333333333333336,0.28,-0.6266666666666667,0.0625,-0.7053874174110171,0.0
1590515549.997929,0.07044564143302785,-4.300891282866056,8.817326151401833,0.38333333333333336,0.28,-0.6266666666666667,0.0625,-0.4514262947821201,0.0
1590515550.007929,0.09,-4.3,8.840907538308269,0.3622222222222222,0.28,-0.6133333333333333,-0.00811826936761706,-0.03814519189714882,0.00811826936761706
1590515550.017929,0.09120551774707271,-4.301205517747072,8.766739304782199,0.3622222222222222,0.28,-0.6133333333333333,-0.054965514080795586,0.17774140143443093,0.0625
1590515550.027929,0.09815941729517513,-4.310920291352412,8.669079708647587,0.3622222222222222,0.28,-0.6133333333333333,0.011503641905155492,0.5567481790474222,0.0625
1590515550.037929,0.08285190266849607,-4.316197463108672,8.656197463108672,0.3622222222222222,0.28,-0.6133333333333333,0.14876585557080055,0.4940585361072999,0.050617072214599726
1590515550.047929,0.10046859686948731,-4.292708537507351,8.63270853750735,0.3622222222222222,0.28,-0.6133333333333333,0.2955716405790608,0.45735708985523477,-0.022785820289530426
1590515550.057929,0.08836835599505563,-4.308842192006593,8.634421096003296,0.3814503502266172,0.27519296799890125,-0.6029180973309527,0.32993407498969923,0.1671044499381953,-0.0625
1590515550.067929,0.06,-4.29,8.658022174017836,0.3888888888888889,0.2733333333333333,-0.5988888888888889,0.05314232345143408,-0.09993070619426367,0.043784646902868166
1590515550.077929,0.062209184772700904,-4.293313777159051,8.599941331477154,0.3888888888888889,0.2733333333333333,-0.5988888888888889,-0.0069037024146903336,-0.333211107244071,-0.04869259517061933
1590515550.087929,0.07611163592369777,-4.314167453885547,8.66250236165664,0.3888888888888889,0.2733333333333333,-0.5988888888888889,-0.05034886226155555,-0.46354658678466665,0.0381977245231111
1590515550.097929,0.07163727959697734,-4.32,8.730176322418137,0.3888888888888889,0.2733333333333333,-0.5988888888888889,-0.010232997481108307,-0.5,0.010232997481108307
1590515550.107929,0.09814852432759733,-4.305925737836201,8.768148524327597,0.3802879508999008,0.28349807822941014,-0.6090536337849657,0.043982069261870815,-0.5,0.0
1590515550.117929,0.08972294148109787,-4.280831175556707,8.836398239254272,0.37666666666666665,0.2877777777777778,-0.6133333333333333,-0.013852925945106164,-0.1128786897980321,-0.0017316157431382705
1590515550.127929,0.08016458569807038,-4.31,8.710987514188423,0.37666666666666665,0.2877777777777778,-0.6133333333333333,-0.5061719636776391,0.31661464245175935,-0.0625
1590515550.137929,0.09,-4.307132877638399,8.7685664388192,0.37666666666666665,0.2877777777777778,-0.6133333333333333,-0.892919514760009,0.5938591508300157,-0.04458048523999099
1590515550.147929,0.09,-4.275627582062645,8.752813791031322,0.37666666666666665,0.2877777777777778,-0.6133333333333333,-1.0898276121084653,0.9384483211898145,0.1523276121084654
1590515550.157929,-0.0687266941778949,-3.949818856792456,8.435631349541755,0.3688888888888889,0.2877777777777778,-0.5911111111111111,-3.101092369777424,1.574986741576758,0.85452195097698
1590515550.167929,-0.11043404763088549,-3.901160277763967,8.797095079467676,0.3688888888888889,0.2877777777777778,-0.5911111111111111,-6.272589038598585,2.530780258207793,2.548883185004723
1590515550.177929,-0.25345204481282446,-3.4436870388924308,8.733474815556972,0.3688888888888889,0.2877777777777778,-0.5911111111111111,-6.756205027780307,1.7593075416704618,8.509757263867384
1590515550.187929,-0.7091222313371616,-2.531385561936013,8.440294708777687,0.3688888888888889,0.2877777777777778,-0.5911111111111111,-6.048354183757178,0.4228837674323216,14.94165427604594
1590515550.197929,-0.36504511894995895,-2.290531583264971,8.94780844954881,0.3688888888888889,0.2877777777777778,-0.5911111111111111,-5.403209598031173,-2.856601210008203,23.919916427399507
1590515550.207929,-0.39312053840199535,-2.4266098305667843,8.771645523350822,0.3631394837686228,0.29352718289804386,-0.5978187504180882,-1.4402508708179238,-2.8921986539950115,35.68554200352628
1590515550.217929,-0.3676676648966958,-2.609912424189043,8.840583083775826,0.3622222222222222,0.29444444444444445,-0.5988888888888889,-1.1505099151923899,-4.665087009588041,50.10859369101845
1590515550.2279289,-0.3308505077096653,-2.776804061677322,8.85170101541933,0.3622222222222222,0.29444444444444445,-0.5988888888888889,-1.551868653629184,-5.402866444151937,60.718903958254984
1590515550.2379289,-0.3387374952989846,-2.839899962391877,8.867474990597968,0.3622222222222222,0.29444444444444445,-0.5988888888888889,-1.4532813087626928,-6.2408588755171115,67.96507380594208
1590515550.2479289,-0.299875854214123,-2.866049658314351,8.934198633257402,0.3622222222222222,0.29444444444444445,-0.5988888888888889,-1.7885862756264237,-6.525465546697038,75.49470814350798
1590515550.2579288,-0.3035381360242508,-2.890307204036376,8.93646186397575,0.36673493423030584,0.2846669017602633,-0.5891113462047077,-1.9173066750757837,-6.90095340060627,81.54700755803307
1590515550.2679288,-0.35176736433860056,-2.950120837206321,8.8464652713228,0.3688888888888889,0.28,-0.5844444444444444,-2.0419184108465016,-6.697035562037245,88.49074689893907
1590515550.2779288,-0.38981369478345396,-2.9699378982611515,8.670993627821579,0.3688888888888889,0.28,-0.5844444444444444,-1.9382762717356086,-6.687111864132196,94.34433726644346
1590515550.2879288,-0.39,-3.069707294813012,8.706257198113823,0.3688888888888889,0.28,-0.5844444444444444,-2.44736684847563,-6.970759360264239,97.9440679393294
1590515550.2979288,-0.4061169039717375,-3.0880584519858685,8.78252606787282,0.3688888888888889,0.28,-0.5844444444444444,-2.5,-7.201461299646719,101.23368884487742
1590515550.3079288,-0.42342932628797886,-3.1678566710700133,8.726142007926024,0.3888888888888889,0.2611111111111111,-0.5844444444444444,-2.1026874174372523,-8.175904062087186,104.87412070673712
1590515550.3179288,-0.4788361955085865,-3.1332273778071333,8.66380928005284,0.3888888888888889,0.2611111111111111,-0.5844444444444444,-2.7519866661162484,-8.99834977708058,105.86971288804492
1590515550.3279288,-0.5,-3.2116943756632477,8.841727626459143,0.3888888888888889,0.2611111111111111,-0.5844444444444444,-3.745016802263884,-10.229443756632472,107.62541563494871
1590515550.3379288,-0.5278240399142686,-3.1921759600857316,8.755659850321493,0.3888888888888889,0.2611111111111111,-0.5844444444444444,-2.8125735655809705,-9.877749376339553,109.09772693334739
1590515550.3479288,-0.54,-3.18,8.797136283185841,0.3888888888888889,0.2611111111111111,-0.5844444444444444,-2.6720555108608206,-9.885537007240547,111.07375905068383
1590515550.3579288,-0.6087960116327379,-3.18,8.761031990029082,0.4358448968286941,0.22289110464847894,-0.5909964455523242,-2.258599916909015,-9.691799958454508,112.66600020772746
1590515550.3679287,-0.6293954470781506,-3.2284886176953767,8.924861300164281,0.43666666666666665,0.2222222222222222,-0.5911111111111111,-2.7954969490729873,-9.323835367284675,112.92994308847689
1590515550.3779287,-0.7201851975514747,-3.329629604897051,8.74240756816917,0.43666666666666665,0.2222222222222222,-0.5911111111111111,-2.1886574846967166,-8.747685030606567,112.27661797440179
1590515550.3879287,-0.7295214245965498,-3.3109571508069005,8.863778519755147,0.43666666666666665,0.2222222222222222,-0.5911111111111111,-2.247008903728436,-8.630982192543128,110.46772398441847
1590515550.3979287,-0.7379078317203553,-3.31,8.838368673118579,0.43666666666666665,0.2222222222222222,-0.5911111111111111,-2.2005760517477793,-8.180184465730013,108.20034627690228
1590515550.4079287,-0.7898318581263285,-3.2900672567494684,8.770201770248406,0.4300224189164895,0.1690682402208052,-0.6132586036117015,-2.374369467973732,-8.311659290631642,104.01219028584119
1590515550.4179287,-0.79,-3.2630124497387487,8.725020749564582,0.43,0.1688888888888889,-0.6133333333333333,-2.5436721891328187,-7.806483432601544,99.95186746081235
1590515550.4279287,-0.8071768934768083,-3.26,8.599761745662343,0.43,0.1688888888888889,-0.6133333333333333,-2.1330776630797943,-7.320577663079795,94.8837098781078
1590515550.4379287,-0.8447830731505984,-3.277391536575299,8.58,0.43,0.1688888888888889,-0.6133333333333333,-2.11684855179781,-7.0869543446065695,88.96188757920804
1590515550.4479287,-0.8949535533039493,-3.28,8.70843872372557,0.43,0.1688888888888889,-0.6133333333333333,-2.125,-6.861814494178798,84.29420118706868
1590515550.4579287,-0.9445553910964363,-3.2881851303654788,8.812740521461915,0.45273647323744104,0.14706187458094552,-0.6187900869103191,-1.8692146760787884,-6.545371740863031,76.70235113287032
1590515550.4679286,-0.970238358899882,-3.32373059816647,8.867222837433058,0.4577777777777778,0.14222222222222222,-0.62,-1.8546632477080875,-6.036204275211038,70.98853249523464
1590515550.4779286,-1.012118476916391,-3.34,8.817733426938121,0.4577777777777778,0.14222222222222222,-0.62,-1.4735190385451142,-5.561574399090697,63.492877260722764
1590515550.4879286,-1.0326518794089776,-3.3146962411820446,8.812651879408978,0.4577777777777778,0.14222222222222222,-0.62,-1.375,-4.986017399010283,58.35239905415365
1590515550.4979286,-1.0336789841116996,-3.3,8.82,0.4577777777777778,0.14222222222222222,-0.62,-1.2959873013962446,-4.292436506981223,52.529922213529126
1590515550.5079286,-1.0363715694682676,-3.2553990137221267,8.82,0.46131753859348196,0.10894847055460263,-0.633451091099676,-1.130533072469983,-3.6642769082332762,46.89331448327616
1590515550.5179286,-1.0858544095007698,-3.3583923466021552,8.764974708599077,0.4633333333333333,0.09,-0.6411111111111111,-0.8332279524961513,-2.2911397624807566,39.94565097866725
1590515550.5279286,-1.0813823133388352,-3.37,8.69105850671068,0.4633333333333333,0.09,-0.6411111111111111,-0.43547620857403463,-1.972057833470877,34.32938800330105
1590515550.5379286,-1.0883404833907684,-3.3950214501723046,8.705021450172305,0.4633333333333333,0.09,-0.6411111111111111,-0.32287197880769863,-1.5726038516538903,28.026557774808353
1590515550.5479286,-1.09,-3.370656903589614,8.71,0.4633333333333333,0.09,-0.6411111111111111,-0.4958943525649119,-1.3166056474350882,21.34397224677019
1590515550.5579286,-1.0802662721893492,-3.3307988165680475,8.739201183431954,0.4752301117685734,0.08459237343852728,-0.6486817882971728,-0.13664940828402367,-1.189164201183432,11.52551775147929
1590515550.5679286,-1.0630401714862832,-3.338479914256858,8.807839314054867,0.4755555555555556,0.08444444444444445,-0.6488888888888888,-0.3899973205268257,-0.33950857431415804,4.263571273986437
1590515550.5779285,-1.06,-3.313454154507756,8.61648185122613,0.4755555555555556,0.08444444444444445,-0.6488888888888888,0.06023460297957306,0.03371537910203248,-4.521322889469103
1590515550.5879285,-1.103342130240526,-3.396684260481052,8.850052781443157,0.4755555555555556,0.08444444444444445,-0.6488888888888888,-0.0917106512026298,0.658454290807232,-12.976517466490728
1590515550.5979285,-1.096385147844406,-3.430422278233391,8.808310887066435,0.4755555555555556,0.08444444444444445,-0.6488888888888888,0.3430105428485441,1.4307426077797005,-19.6985801011963
1590515550.6079285,-1.081867509119333,-3.472529963522668,8.851324908806669,0.4755555555555556,0.08083000405303689,-0.6597322100631116,0.7658122720166753,2.4107648840541946,-28.666008500521105
1590515550.6179285,-1.0981425994588636,-3.486047533152955,8.900237665764772,0.4755555555555556,0.08,-0.6622222222222223,0.8502970822059659,3.053862068677556,-34.73624402912783
1590515550.6279285,-1.0556032141661398,-3.46280160708307,8.777208437186117,0.4755555555555556,0.08,-0.6622222222222223,1.0449899557308135,3.799974889327034,-42.97719113872252
1590515550.6379285,-1.035391070937697,-3.4769553546884855,8.742346425626183,0.4755555555555556,0.08,-0.6622222222222223,1.1923883867212135,4.370636126966674,-49.58188578335462
1590515550.6479285,-1.013724340175953,-3.5,8.748103616813294,0.4755555555555556,0.08,-0.6622222222222223,1.2773704789833822,4.961204789833822,-56.29997556207233
1590515550.6579285,-0.922359943977591,-3.442359943977591,8.713595549330844,0.4599002316976173,0.0970785351177508,-0.6714730954110039,1.4325834500466854,5.552666900093371,-65.21836581854964
1590515550.6679285,-0.9583087027914614,-3.5893103448275863,8.701461412151067,0.4511111111111111,0.10666666666666667,-0.6766666666666666,1.6600985221674878,6.327894088669951,-74.07461001642037
1590515550.6779284,-0.9163869410988286,-3.635318016828906,8.67702297475664,0.4511111111111111,0.10666666666666667,-0.6766666666666666,1.6875,6.868319223312985,-80.62991229788814
1590515550.6879284,-0.8760775727244292,-3.7037931394015224,8.65405171514962,0.4511111111111111,0.10666666666666667,-0.6766666666666666,2.1360455114169534,7.249191950787196,-88.19343003857783
1590515550.6979284,-0.8338784355179705,-3.738060782241015,8.740303911205075,0.4511111111111111,0.10666666666666667,-0.6766666666666666,2.061866851656096,7.538259778012685,-94.05218904157857
1590515550.7079284,-0.7864511680726801,-3.7813984425697598,8.792150389357559,0.4607050796740933,0.13283203547479994,-0.7063207513158843,2.2809204656067488,7.9328003325762495,-102.48128751622323
1590515550.7179284,-0.7437728946783004,-3.80811355266085,8.817170328991274,0.4633333333333333,0.14,-0.7144444444444444,2.091975739674222,8.735863076847023,-110.28313857923227
1590515550.7279284,-0.699510003823117,-3.8423919969415063,8.714726009940104,0.4633333333333333,0.14,-0.7144444444444444,2.416787466547725,9.419849942653244,-116.25181199821589
1590515550.7379284,-0.6104053564965617,-3.8818378574013757,8.737756786102063,0.4633333333333333,0.14,-0.7144444444444444,2.549746652189649,10.209206478465436,-122.67365182772349
1590515550.7479284,-0.5560509347499899,-3.869630560849994,8.763579626100004,0.4633333333333333,0.14,-0.7144444444444444,2.689808994687538,10.756926984062614,-128.11632416156374
1590515550.7579284,-0.4892891823655079,-3.885355408817246,8.749715672946204,0.4633333333333333,0.1625381411708854,-0.7178251656200773,2.8767770440862304,11.286136871237133,-132.9783720139833
1590515550.7679284,-0.4207130714235812,-3.9292869285764187,8.702998299993014,0.4633333333333333,0.18444444444444444,-0.7211111111111111,2.9758913392794764,11.793760625043664,-137.95817080412658
1590515550.7779284,-0.340847444247089,-3.966144069469114,8.62927965265443,0.4633333333333333,0.18444444444444444,-0.7211111111111111,3.052701302545885,12.29290260509177,-144.71583777383066
1590515550.7879283,-0.26577912929938496,-3.9865828265127305,8.637638044187884,0.4633333333333333,0.18444444444444444,-0.7211111111111111,3.055904889530289,12.402952444765145,-149.64539952925816
1590515550.7979283,-0.19711810698171048,-4.027401577515241,8.670960631006096,0.4633333333333333,0.18444444444444444,-0.7211111111111111,3.1027559156821547,12.614763803258361,-154.57490183584198
1590515550.8079283,-0.10910770458706982,-4.0905948636086205,8.70029743180431,0.4234902264582062,0.23481214558847313,-0.7308839486465196,3.1875,12.770213683741021,-159.6254695056106
1590515550.8179283,-0.011937413157735749,-4.101492176644717,8.718507823355283,0.4044444444444445,0.2588888888888889,-0.7355555555555555,3.1875,13.175391167764152,-164.45630323808373
1590515550.8279283,0.030931204547354343,-4.1,8.664323831814762,0.4044444444444445,0.2588888888888889,-0.7355555555555555,3.3808200284209646,13.404656022736772,-167.3050123296832
1590515550.8379283,0.16326820603907638,-4.130204854943753,8.713063351095323,0.4044444444444445,0.2588888888888889,-0.7355555555555555,3.264024570751924,13.971950858496152,-171.33042480757845
1590515550.8479283,0.24034657936328743,-4.145763797051898,8.768818985259491,0.4044444444444445,0.2588888888888889,-0.7355555555555555,3.1154525368512727,14.233071194723092,-173.772544189272
1590515550.8579283,0.3080978613091381,-4.156349643551523,8.777300712896954,0.3832789659393678,0.27934885144379634,-0.7581320659609707,3.221241088788075,14.35218527219702,-176.6042814322748
1590515550.8679283,0.3599100817438692,-4.115134877384196,8.814865122615803,0.3711111111111111,0.2911111111111111,-0.7711111111111111,3.2190309945504088,14.655407016348773,-178.87106607629428
1590515550.8779283,0.41746735086593967,-4.14746735086594,8.703420397690827,0.3711111111111111,0.2911111111111111,-0.7711111111111111,3.3358354714560616,14.79944515715202,-180.79585471456062
1590515550.8879282,0.5187551619602321,-4.143862697825412,8.62965674456353,0.3711111111111111,0.2911111111111111,-0.7711111111111111,2.971567445635309,15.014216277182346,-182.39779766309408
1590515550.8979282,0.5860437190323521,-4.126844651705042,8.61342232585252,0.3711111111111111,0.2911111111111111,-0.7711111111111111,3.2038837073739437,14.939168609734772,-183.09860463421742
1590515550.9079282,0.7054095637932227,-4.086326036308274,8.638061636409772,0.3461674343024254,0.3023357656750197,-0.7511561696641625,3.2697688634633573,14.94515409102443,-183.73342454614658
1590515550.9179282,0.8480312623664424,-4.075118058303654,8.667559029151827,0.32666666666666666,0.3111111111111111,-0.7355555555555555,3.47096359319351,14.669292474607571,-184.48769538979028
1590515550.9279282,0.9054688655220571,-4.0587186806867654,8.62034358826912,0.32666666666666666,0.3111111111111111,-0.7355555555555555,3.20781134477943,14.606836081902571,-184.97968865522057
1590515550.9379282,0.9652699877833583,-4.034910004072214,8.645269987783358,0.32666666666666666,0.3111111111111111,-0.7355555555555555,3.0153437627256685,14.530687525451338,-184.983531288177
1590515550.9479282,1.0870745697896749,-3.9831548757170174,8.726921606118546,0.32666666666666666,0.3111111111111111,-0.7355555555555555,2.790869980879541,14.207217973231357,-184.60289196940727
1590515550.9579282,1.164847771399084,-3.9268696381345545,8.743434819067277,0.30273918309717823,0.3460820486357479,-0.7226715259412156,2.7910323808295168,14.114266190414758,-183.71277333419337
1590515550.9679282,1.17,-3.92,8.74,0.2977777777777777,0.3533333333333333,-0.72,2.8125,14.125,-183.5625
1590515550.9779282,1.2473698342283446,-3.793052066308662,8.745682232080316,0.2977777777777777,0.3533333333333333,-0.72,2.5598631216437076,13.858561463927154,-181.76705580200795
1590515550.9879282,1.3756660231660232,-3.7968822393822395,8.711254826254827,0.2977777777777777,0.3533333333333333,-0.72,2.3319860038610036,13.921814671814673,-179.67537403474904
1590515550.9979281,1.4781844432685767,-3.777118149519994,8.71060518557714,0.2977777777777777,0.3533333333333333,-0.72,2.132564819714264,13.724423614785698,-177.93930096757126
1590515551.0079281,1.5271639180409795,-3.73713934699317,8.7,0.2901493697595646,0.37431145538341937,-0.7136429933181557,2.0,13.553483674829252,-176.15097399217058
1590515551.0179281,1.6360729238029992,-3.673366065311715,8.685841516327928,0.27111111111111114,0.4266666666666667,-0.6977777777777778,2.0,13.345503159016518,-173.32012636066074
1590515551.027928,1.7152405212832724,-3.5680758297338206,8.607113744600731,0.27111111111111114,0.4266666666666667,-0.6977777777777778,2.2620260641636207,13.18148696791819,-170.72262293720235
1590515551.037928,1.801474245115453,-3.523210479573712,8.63826376554174,0.27111111111111114,0.4266666666666667,-0.6977777777777778,2.415130994671403,13.147369005328597,-167.31347135879219
1590515551.047928,1.882554906567235,-3.5260792723667476,8.73471345130073,0.27111111111111114,0.4266666666666667,-0.6977777777777778,2.0330409293704332,13.111509095415652,-164.3502273853913
1590515551.057928,1.9820318863183433,-3.5042743263148775,8.790580538948099,0.26482261309919225,0.4592525200011553,-0.7383671740365267,2.1340709210640325,12.869557447361581,-161.54930248678625
1590515551.067928,2.0994127320451597,-3.45529363397742,8.803823408494356,0.2588888888888889,0.49,-0.7766666666666666,2.128670424717751,12.64889630308972,-158.2095225483065
1590515551.077928,2.1520127811232643,-3.359286469214698,8.675260906968171,0.2588888888888889,0.49,-0.7766666666666666,2.304379685387735,12.625,-154.95294180902053
1590515551.087928,2.2518124446664096,-3.3158750085128603,8.72181244466641,0.2588888888888889,0.49,-0.7766666666666666,2.260937606410751,12.580859401602687,-151.75976708814784
1590515551.097928,2.308243557754807,-3.2795940704086552,8.75391881408173,0.2588888888888889,0.49,-0.7766666666666666,2.453551883924266,12.410470352043276,-148.58357751661669
1590515551.107928,2.3493524362534712,-3.2379856728098964,8.764676218126736,0.24992008892255044,0.4443406547168223,-0.7350840486409156,2.2580945468316083,11.853868183539511,-144.06880364806867
1590515551.117928,2.4278406406766697,-3.192310755179628,8.77,0.2466666666666667,0.42777777777777776,-0.72,2.266334668076395,11.546165331923605,-139.63969107821745
1590515551.127928,2.5010833247502315,-3.1161458440622103,8.70614584406221,0.2466666666666667,0.42777777777777776,-0.72,2.073046915233289,11.300455762694407,-135.64915413533834
1590515551.137928,2.557402768807391,-3.052597231192609,8.697402768807391,0.2466666666666667,0.42777777777777776,-0.72,1.9375,10.802148563646064,-130.9171885091685
1590515551.147928,2.578996106215417,-3.0085136282460403,8.736988318646251,0.2466666666666667,0.42777777777777776,-0.72,1.9656128319231783,10.45632300846093,-127.47587610153117
1590515551.157928,2.605976678522973,-2.9604139928862163,8.776390671409189,0.23104502544420408,0.4315056694331382,-0.7086388063836635,2.0,10.220043727769426,-124.25109319423564
1590515551.167928,2.704326099640511,-2.8920923754493613,8.81,0.14888888888888888,0.4511111111111111,-0.6488888888888888,2.022384530688299,9.861039223805312,-118.4545839528712
1590515551.177928,2.736047121428296,-2.847905757143408,8.779764392858521,0.14888888888888888,0.4511111111111111,-0.6488888888888888,2.081397254463425,9.3488219642926,-113.44314435275518
1590515551.187928,2.7784391891891893,-2.8010405405405403,8.705260135135136,0.14888888888888888,0.4511111111111111,-0.6488888888888888,2.0953758445945945,8.822255067567568,-106.95557432432432
1590515551.197928,2.79464462030812,-2.718578481232479,8.75374382892158,0.14888888888888888,0.4511111111111111,-0.6488888888888888,1.9185433153886229,8.409064973082934,-101.90314973082934
1590515551.207928,2.7961339036312847,-2.6274668296089385,8.832533170391061,0.11113991697703289,0.46023723618870266,-0.6434961786157666,1.6408323149441342,7.8991631023044695,-96.08078190467877
1590515551.217928,2.84,-2.6017089645855447,8.83701823796198,0.04777777777777778,0.4755555555555556,-0.6344444444444445,1.4561360127376242,7.385681028659654,-89.4659003184406
1590515551.227928,2.857126499454744,-2.538582333696837,8.808620501635769,0.04777777777777778,0.4755555555555556,-0.6344444444444445,1.134098964013086,6.81273854961832,-81.9501772082879
1590515551.237928,2.87,-2.4964873729091503,8.764414562151524,0.04777777777777778,0.4755555555555556,-0.6344444444444445,1.0698179731059363,6.310819121023286,-75.50910134470318
1590515551.247928,2.8939105231559115,-2.4604357907376357,8.793474732418277,0.04777777777777778,0.4755555555555556,-0.6344444444444445,1.065223692110221,5.853282922385773,-69.67152014367637
1590515551.257928,2.966096016155682,-2.4602435591457072,8.824878220427147,0.01875436019827428,0.48295368160523294,-0.6162336726298541,0.9039666330089958,5.304888776696653,-62.66323205434184
1590515551.267928,3.0599765067703215,-2.47,8.803341164409892,-0.008888888888888889,0.49,-0.5988888888888889,0.8819118149587801,4.583529110247319,-55.54337971466405
1590515551.2779279,3.1178074742322366,-2.465548131441941,8.754385051535527,-0.008888888888888889,0.49,-0.5988888888888889,0.9096758215121303,4.055230750584912,-49.870406329700906
1590515551.2879279,3.168777672019405,-2.4647962786699007,8.748370229359207,-0.008888888888888889,0.49,-0.5988888888888889,0.875,3.572686066504959,-43.67963976480703
1590515551.2979279,3.2182358734906797,-2.4654410316273303,8.812794841863349,-0.008888888888888889,0.49,-0.5988888888888889,0.7610257906832525,3.170032238354066,-38.00910608105643
1590515551.3079278,3.2492380443902067,-2.469238044390207,8.84,-0.04789396520309495,0.5033438418969652,-0.5988888888888889,0.596131111280604,2.8267866676836246,-32.531857791167724
1590515551.3179278,3.2620105017502916,-2.48,8.840804200700116,-0.09333333333333334,0.5188888888888888,-0.5988888888888889,0.5474212368728122,2.6074081096849473,-29.661384189031505
1590515551.3279278,3.31,-2.4787862109999628,8.85544829124986,-0.09333333333333334,0.5188888888888888,-0.5988888888888889,0.1875,2.185603454687442,-24.403190193745118
1590515551.3379278,3.301542930235037,-2.423085860470074,8.748056813942334,-0.09333333333333334,0.5188888888888888,-0.5988888888888889,0.05535828492245376,1.8871449128604167,-17.22466090177477
1590515551.3479278,3.29,-2.4119297798514046,8.803976593283803,-0.09333333333333334,0.5188888888888888,-0.5988888888888889,-0.125,1.438231459881202,-12.287288526004195
1590515551.3579278,3.297585546188179,-2.4350570307921195,8.81758554618818,-0.09782847181521723,0.5197317273542421,-0.6005745658195953,-0.125,1.0761645665208963,-7.860742301970155
1590515551.3679278,3.3465359674257273,-2.453316995928216,8.849950987784647,-0.1111111111111111,0.5222222222222223,-0.6055555555555555,-0.16646244910269944,0.6246936736540492,-2.549426934097421
1590515551.3779278,3.4,-2.4679734623995784,8.798238838403792,-0.1111111111111111,0.5222222222222223,-0.6055555555555555,-0.25,0.625414650006585,2.294443689911761
1590515551.3879278,3.408112642300779,-2.488112642300779,8.716366087477532,-0.1111111111111111,0.5222222222222223,-0.6055555555555555,-0.26267600359496707,0.4375,5.598412222887957
1590515551.3979278,3.424663931839697,-2.4969958977595454,8.816165982959925,-0.1111111111111111,0.5222222222222223,-0.6055555555555555,-0.3125,0.1739113284947933,10.26903202903124
1590515551.4079278,3.427478151326667,-2.494347689158334,8.8203043067475,-0.10767634219527772,0.5271835551006483,-0.6032657096116666,-0.3125,-0.2070653885520825,14.122005649161483
1590515551.4179277,3.48,-2.5768623612377923,8.823137638762208,-0.10111111111111112,0.5366666666666666,-0.5988888888888889,-0.20711024226379837,-0.6519487886810083,19.15435418566884
1590515551.4279277,3.48,-2.59,8.758162466812614,-0.10111111111111112,0.5366666666666666,-0.5988888888888889,-0.31939074945269924,-1.0301015417578834,22.939313661558526
1590515551.4379277,3.492557384148982,-2.598371589432655,8.730928973581637,-0.10111111111111112,0.5366666666666666,-0.5988888888888889,-0.5784836509311391,-1.2616121697704634,25.6976098960589
1590515551.4479277,3.4829001041631664,-2.61,8.755830785255872,-0.10111111111111112,0.5366666666666666,-0.5988888888888889,-0.7135575921508014,-1.6380287960754008,27.69562304694063
1590515551.4579277,3.391293807331743,-2.61,8.741737508820268,-0.10111111111111112,0.5366666666666666,-0.5988888888888889,-0.8016405698733241,-1.682070284936662,29.41324111252982
1590515551.4679277,3.4704517326732676,-2.663634488448845,8.842279290429044,-0.1111111111111111,0.5333333333333333,-0.5777777777777777,-0.7983833539603961,-2.0227155528052805,33.18493450907591
1590515551.4779277,3.4597804554917673,-2.666300759152945,8.818276659727042,-0.1111111111111111,0.5333333333333333,-0.5777777777777777,-1.2948683574117301,-2.141259489411814,35.7376506214119
1590515551.4879277,3.489929540709812,-2.713901356993737,8.687873173277662,-0.1111111111111111,0.5333333333333333,-0.5777777777777777,-1.0,-2.5749119258872653,37.06117888830898
1590515551.4979277,3.5269986924997028,-2.7706002615000593,8.76,-0.1111111111111111,0.5333333333333333,-0.5777777777777777,-1.0,-2.6212483656246284,37.850016343753715
1590515551.5079277,3.48,-2.7849592381502055,8.767438857225308,-0.1100090581888432,0.5402211640975078,-0.5824615026974164,-0.969004761561215,-2.5779976192193925,38.452997619219396
1590515551.5179276,3.4675777771310496,-2.81242222286895,8.777577777131048,-0.10666666666666667,0.5611111111111111,-0.5966666666666667,-0.9138194464654695,-2.6832291696982042,38.57763889293094
1590515551.5279276,3.449514203805056,-2.849514203805056,8.724628789853185,-0.10666666666666667,0.5611111111111111,-0.5966666666666667,-0.9603574841455998,-2.7728574841455997,38.849106289636
1590515551.5379276,3.465839634530561,-2.8689599086326405,8.678320730938879,-0.10666666666666667,0.5611111111111111,-0.5966666666666667,-0.8880011420919974,-2.7005011420919973,39.10150342627599
1590515551.5479276,3.436714480635343,-2.8835006822236995,8.753357240317671,-0.10666666666666667,0.5611111111111111,-0.5966666666666667,-1.0,-2.7495517440436625,39.773224031767136
1590515551.5579276,3.447029080429657,-2.9329709195703435,8.771883678281373,-0.10237533839839316,0.5611111111111111,-0.6009579949349402,-1.0092841236573225,-2.680704741943935,40.82743319360755
1590515551.5679276,3.43,-2.9652822676964727,8.809435464607054,-0.07777777777777778,0.5611111111111111,-0.6255555555555555,-1.0625,-3.0,43.0625
1590515551.5779276,3.43,-2.98,8.78,-0.07777777777777778,0.5611111111111111,-0.6255555555555555,-1.0625,-3.0,43.0625
1590515551.5879276,2.946068724384653,-2.6355708893880103,8.854626623752518,-0.07777777777777778,0.5611111111111111,-0.6255555555555555,-1.0398065390047933,-2.6983901405515547,45.284818058675064
1590515551.5979276,3.103086612533833,-2.87,8.941075369560691,-0.07777777777777778,0.5611111111111111,-0.6255555555555555,-0.1963161045180096,-1.7525309702269416,47.88259291068083
1590515551.6079276,2.9669650037616413,-2.810214802708382,8.834180610683063,-0.06818262265690081,0.5677539108101798,-0.6185437114287609,-0.8125,-3.3111574830726127,52.101779969906865
1590515551.6179276,3.0099675955930003,-2.8999675955930004,8.761677139395305,-0.048888888888888885,0.5811111111111111,-0.6044444444444445,-1.2974795006903548,-4.119556411845924,54.6356846487644
1590515551.6279275,3.1318453253991536,-3.0645635502661026,9.040648283954239,-0.048888888888888885,0.5811111111111111,-0.6044444444444445,-1.667341962452332,-4.424823471483049,56.95246301806144
1590515551.6379275,3.044279279279279,-3.024279279279279,8.770243993993995,-0.048888888888888885,0.5811111111111111,-0.6044444444444445,-1.3526886261261262,-4.4896067942942945,58.926966028528525
1590515551.6479275,3.11,-3.11972841211882,8.705753083983026,-0.048888888888888885,0.5811111111111111,-0.6044444444444445,-1.276543225106089,-4.648148376591335,61.05401287871312
1590515551.6579275,3.0613158729152135,-3.164057010590399,8.781140211807978,-0.03311162548178212,0.591028248109864,-0.6071491181713771,-1.388568948569979,-5.111431051430021,63.42817791235969
1590515551.6679275,2.99,-3.22193536570475,8.91416419064675,-0.01,0.6055555555555555,-0.6111111111111112,-1.5,-5.11803492205625,66.71498890878749
1590515551.6779275,2.9327828470259782,-3.2364059786864594,8.821014946716149,-0.01,0.6055555555555555,-0.6111111111111112,-1.6362313166048144,-5.318115658302407,70.14618905553097
1590515551.6879275,2.7828385141806544,-3.1221626774709748,8.535406693677436,-0.01,0.6055555555555555,-0.6111111111111112,-1.9932416329032039,-5.4966208164516015,74.29643398249975
1590515551.6979275,2.8343568917247217,-3.3220966534279572,8.894193306855916,-0.01,0.6055555555555555,-0.6111111111111112,-2.239916335698939,-6.242936755322612,83.21361457451657
1590515551.7079275,2.718296113028192,-3.328923758057165,8.90784751611433,-0.01,0.6055555555555555,-0.6111111111111112,-2.4105939514291297,-6.626961390715541,88.58995947001758
1590515551.7179275,2.5478676784950833,-3.3027939290295,8.739338392475418,0.07444444444444444,0.6522222222222223,-0.5966666666666667,-2.397518971782813,-7.856616075245832,99.00595206284737
1590515551.7279274,2.5361760875227923,-3.369119562386038,8.709559781193018,0.07444444444444444,0.6522222222222223,-0.5966666666666667,-2.3814469914040113,-8.333648085438917,105.86502018754884
1590515551.7379274,2.509766719557071,-3.501166402214645,8.75,0.07444444444444444,0.6522222222222223,-0.5966666666666667,-2.8095839944633876,-8.943332011073226,114.06123611626886
1590515551.7479274,2.4836020234233245,-3.6007997470720845,8.74280227635124,0.07444444444444444,0.6522222222222223,-0.5966666666666667,-2.5674984192005277,-9.502479449606861,119.78483085445647
1590515551.7579274,2.4174268527711265,-3.6421830286748818,8.689707411084505,0.13110858040192852,0.6632249670683357,-0.5884146080320816,-2.733308269578929,-10.296417829819541,127.02058269578929
1590515551.7679274,2.385842202185923,-3.7593420706478846,8.756789515222538,0.3033333333333333,0.6966666666666667,-0.5633333333333334,-3.0625,-10.461677588309856,131.81151047521107
1590515551.7779274,2.271910762188369,-3.810063741294022,8.68388526567076,0.3033333333333333,0.6966666666666667,-0.5633333333333334,-3.1628187064701105,-10.675557736322693,135.54180253734648
1590515551.7879274,2.1999527255891027,-3.852877403318956,8.642877403318957,0.3033333333333333,0.6966666666666667,-0.5633333333333334,-3.3125,-11.071639617905792,139.3063150327753
1590515551.7979274,2.1527035278822857,-3.891889416353143,8.681889416353144,0.3033333333333333,0.6966666666666667,-0.5633333333333334,-3.3581029507357143,-11.318404426103571,143.17550032501427
1590515551.8079274,2.0908421519548823,-3.945361827514099,8.73843419301692,0.4187177266614564,0.713393989959797,-0.48788969154186823,-3.475904568785248,-11.591118275140992,147.2191599074837
1590515551.8179274,1.9351921282207345,-3.9677796713329276,8.722971799553662,0.6788888888888889,0.7511111111111111,-0.31777777777777777,-3.511581963887198,-12.039336072225604,151.80300010144046
1590515551.8279274,1.8766395473154451,-3.983197736577225,8.630040679026832,0.6788888888888889,0.7511111111111111,-0.31777777777777777,-3.541242926803828,-12.291242926803829,155.2036721948421
1590515551.8379273,1.8267765394380135,-4.039462756573002,8.617024828951331,0.6788888888888889,0.7511111111111111,-0.31777777777777777,-3.7060948190541763,-12.63171554283747,158.31224584749773
1590515551.8479273,1.7137110481586402,-4.057110481586402,8.648555240793202,0.6788888888888889,0.7511111111111111,-0.31777777777777777,-3.613402974504249,-12.875,160.09082861189802
1590515551.8579273,1.7269131255901793,-4.189131255901794,8.714565627950897,0.6788888888888889,0.7511111111111111,-0.31777777777777777,-3.5721464825306892,-12.875,161.08098441926344
1590515551.8679273,1.6401749575662619,-4.209017495756626,8.69,0.8455555555555555,1.0377777777777777,0.04777777777777778,-3.5502186969578275,-12.830921954563259,161.75723413631022
1590515551.8779273,1.5459835071549843,-4.198253698763037,8.688952219257821,0.8455555555555555,1.0377777777777777,0.04777777777777778,-3.445140067911715,-13.003274314819306,161.22707979626486
1590515551.8879273,1.310193976794962,-4.112257529006297,8.637354517403779,0.8455555555555555,1.0377777777777777,0.04777777777777778,-3.752424709937025,-13.064924709937026,159.73831515364768
1590515551.8979273,1.2798343573063486,-4.1500662570774605,8.660198771232382,0.8455555555555555,1.0377777777777777,0.04777777777777778,-3.375207053367064,-12.687292946632935,159.1256211601012
1590515551.9079273,1.225156629143785,-4.182915655616573,8.707084344383427,0.7958661582529054,1.0349076320852058,-0.02325832811337547,-3.3769578642973124,-12.614909644049552,159.1207832369415
1590515551.9179273,1.202199740927916,-4.244134024192224,8.645865975807776,0.5603454902604709,1.0213035501795058,-0.35995935527945533,-3.089996761598949,-12.567082793599825,158.21207307839668
1590515551.9279273,0.9913969823100937,-4.226186264308013,8.682838189386056,0.5377777777777778,1.02,-0.3922222222222223,-3.788664151925078,-12.38691792403746,154.40729058272632
1590515551.9379272,0.8640956504625074,-4.208031883487503,8.614920291281244,0.5377777777777778,1.02,-0.3922222222222223,-3.6844248179492225,-12.422124089746113,152.65059781539068
1590515551.9479272,0.687124501550731,-4.14813026140895,8.723668586619407,0.5377777777777778,1.02,-0.3922222222222223,-3.5566570669029685,-12.125,152.2108717323881
1590515551.9579272,0.4957748934521503,-4.087577489345215,8.738197404106936,0.5140910069309914,0.948939687459641,-0.4358274140083517,-3.359859308407594,-12.155281383184812,153.73995665439753
1590515551.9679272,0.3839523892116902,-4.03193651894892,8.67,0.44,0.7266666666666667,-0.5722222222222222,-3.237400810857688,-12.525363693521811,158.1274797285578
1590515551.9779272,0.32141071482227096,-3.9836205342387547,8.674294642588864,0.44,0.7266666666666667,-0.5722222222222222,-3.3531528875334273,-12.897237725729395,162.13194747002794
1590515551.9879272,0.2962053423875484,-4.052935308434242,8.686897328806225,0.44,0.7266666666666667,-0.5722222222222222,-4.022670592830744,-12.779087542441633,165.63706957423153
1590515551.9979272,0.02056894276357593,-4.138113788552715,8.665658634341854,0.44,0.7266666666666667,-0.5722222222222222,-3.562873714909494,-13.719310572364241,174.0551957573684
1590515552.0079272,-0.08193606725646414,-4.117612786548707,8.727161640353879,0.44,0.7266666666666667,-0.5722222222222222,-4.246240448376428,-14.74436067256464,182.12746529644656
1590515552.0179272,-0.3,-4.096774627767705,8.6810422504258,0.4,0.5488888888888889,-0.6433333333333333,-4.253257032580628,-16.045598456128783,198.75237452612492
1590515552.0279272,-0.3035897683397683,-4.252307915057915,8.671281853281853,0.4,0.5488888888888889,-0.6433333333333333,-4.233973817567567,-17.07692446911197,214.2211661438224
1590515552.0379272,-0.3319026474059918,-4.410414816480243,8.565293125737732,0.4,0.5488888888888889,-0.6433333333333333,-4.0144841492889665,-18.055793659715587,223.26769855544939
1590515552.0479271,-0.3947703895227924,-4.465424090832443,8.698887077735934,0.4,0.5488888888888889,-0.6433333333333333,-4.751215502220224,-18.35048620088809,227.98277921420944
1590515552.0579271,-0.4883611838510955,-4.48228198413745,8.680643167988546,0.4015721884164453,0.5412423361361776,-0.6443338168710713,-4.883039599856823,-18.862940600214767,231.56431679885458
1590515552.0679271,-0.5910832501271641,-4.387461615267233,8.688544865394396,0.42088744874186,0.44729993364438836,-0.6566253461690623,-4.981810817429966,-18.71478377385505,232.35448653943973
1590515552.077927,-0.7496089330024814,-4.4,8.66862729528536,0.4244444444444445,0.43,-0.6588888888888889,-5.064944168734491,-18.670341191067,232.36517369727048
1590515552.087927,-0.8078920099255583,-4.4,8.660301141439206,0.4244444444444445,0.43,-0.6588888888888889,-4.70067493796526,-18.566264267990075,231.16828908188586
1590515552.097927,-0.973815810043251,-4.352960518316514,8.578947386705112,0.4244444444444445,0.43,-0.6588888888888889,-4.984786177068315,-18.596217062409895,229.18379913498114
1590515552.107927,-1.1049537093328239,-4.301962446370569,8.695514408295843,0.4244444444444445,0.43,-0.6588888888888889,-4.939252184259436,-18.323013105556615,227.86331334352366
1590515552.117927,-1.2106336841146188,-4.2726584210286545,8.737341578971346,0.4488888888888889,0.2888888888888889,-0.6788888888888889,-4.5711940799963555,-18.16692434285454,224.7270098742654
1590515552.127927,-1.2931189955293445,-4.256904784552459,8.699976219918197,0.4488888888888889,0.2888888888888889,-0.6788888888888889,-4.307738038618853,-17.951934509654713,222.66324431656045
1590515552.137927,-1.4908266955835963,-4.164853312302839,8.626506703470032,0.4488888888888889,0.2888888888888889,-0.6788888888888889,-4.571000098580441,-17.917166551656152,221.7736666995268
1590515552.147927,-1.581826596534458,-4.099608586456902,8.740260942362065,0.4488888888888889,0.2888888888888889,-0.6788888888888889,-4.873369110237091,-17.56576177952582,221.89375523227346
1590515552.157927,-1.6745783379930184,-4.07973321328721,8.75351119114186,0.4488888888888889,0.2888888888888889,-0.6788888888888889,-4.7905550553633764,-17.731389889273245,222.84611686332116
1590515552.167927,-1.7907624912179196,-3.9727015745753604,8.75115468859776,0.4606826374252088,0.18667640157411616,-0.6946138869373154,-4.694716803736,-18.310048766375996,225.80024383187998
1590515552.177927,-1.9940184746452245,-3.7794976906693467,8.697990762677387,0.4622222222222222,0.17333333333333334,-0.6966666666666667,-4.8125,-18.56563943331658,229.00371676597985
1590515552.187927,-2.0733844883869272,-3.769576938951634,8.66,0.4622222222222222,0.17333333333333334,-0.6966666666666667,-4.823076526209148,-18.632932394656862,231.53004460433004
1590515552.197927,-2.136335972383775,-3.761708003452028,8.66,0.4622222222222222,0.17333333333333334,-0.6966666666666667,-5.019799913699298,-18.780474935274473,233.25137424486886
1590515552.207927,-2.203491345361297,-3.750997527246085,8.547456726806484,0.46316433128796897,0.16723733349614842,-0.6966666666666667,-4.159289999084165,-18.365493634948255,237.44981454345637
1590515552.217927,-2.2572693470097995,-3.7663626705742286,8.816346735048997,0.47767585554232683,0.07333923537971529,-0.6966666666666667,-4.687466800989101,-19.181766874255885,238.60220029306714
1590515552.227927,-2.431133320395886,-3.609878799640104,8.807854559568124,0.4811111111111111,0.05111111111111112,-0.6966666666666667,-5.143219748425454,-19.486590997300777,237.45977299190233
1590515552.237927,-2.5125286241024645,-3.5358830689977596,8.719059682797312,0.4811111111111111,0.05111111111111112,-0.6966666666666667,-4.819488426865197,-18.931623017483197,235.7948690524496
1590515552.247927,-2.462658823529412,-3.42,8.78835294117647,0.4811111111111111,0.05111111111111112,-0.6966666666666667,-4.095735294117647,-18.29985294117647,232.52338235294118
1590515552.257927,-2.428241447008465,-3.401535193588877,8.855052299571947,0.4821857823837161,0.04007130621980483,-0.6972528509971785,-3.6490316533101606,-17.66002260950726,229.7403165331016
1590515552.267927,-2.4522913514745808,-3.145153261072309,8.750749621769497,0.4933333333333334,-0.07444444444444444,-0.7033333333333334,-3.7081563076412922,-17.604078153820645,223.4415970653458
1590515552.277927,-2.5582335851249276,-2.9676350958744915,8.88706565950029,0.4933333333333334,-0.07444444444444444,-0.7033333333333334,-4.919160371876816,-18.066058977338756,215.81816531086577
1590515552.287927,-2.5440863019824116,-2.8902876732747056,8.878604113876882,0.4933333333333334,-0.07444444444444444,-0.7033333333333334,-4.669152444477567,-16.957911015054403,205.86410977791027
1590515552.297927,-2.500905898458425,-2.78708707815011,8.706181179691686,0.4933333333333334,-0.07444444444444444,-0.7033333333333334,-2.7528309326825786,-14.66646330575561,196.25361213618237
1590515552.307927,-2.424855780691299,-2.684103694874851,8.700058402860547,0.4916376638855781,-0.07825970070189378,-0.7036030989272944,-2.554193980929678,-14.316835518474374,186.48624106078665
1590515552.317927,-2.56,-2.52,8.98,0.4444444444444444,-0.18444444444444444,-0.7111111111111111,-4.0625,-14.4375,172.1875
1590515552.3279269,-2.4496786907147627,-2.3939185036740147,8.94059953239813,0.4444444444444444,-0.18444444444444444,-0.7111111111111111,-3.56999415497662,-13.255485971943887,159.53009978289913
1590515552.3379269,-2.42,-2.310426850497876,8.781280551493628,0.4444444444444444,-0.18444444444444444,-0.7111111111111111,-2.301448657242996,-11.130145591068402,141.8727195181394
1590515552.3479269,-2.412879814845429,-2.2074375929905767,8.757120185154571,0.4444444444444444,-0.18444444444444444,-0.7111111111111111,-2.240504628864275,-10.082482641758968,126.1921701934204
1590515552.3579268,-2.3809139059092326,-1.9470066119707827,8.915125835150759,0.4444444444444444,-0.18444444444444444,-0.7111111111111111,-2.3730960293557657,-8.782367500951985,102.70190310520303
1590515552.3679268,-2.39,-1.9103364754354204,8.976778825145141,0.4211111111111111,-0.2466666666666667,-0.6888888888888889,-1.5365074286784444,-6.802882514514015,80.45791325925464
1590515552.3779268,-2.3918204888971824,-1.8569658518380296,8.955752192573241,0.4211111111111111,-0.2466666666666667,-0.6888888888888889,-0.7462073147975369,-5.085176805374137,64.3667008770293
1590515552.3879268,-2.4387803694719166,-1.7786993842134726,8.846179137898861,0.4211111111111111,-0.2466666666666667,-0.6888888888888889,-0.6483742302668408,-4.057929417801828,49.642821655159544
1590515552.3979268,-16.332876366694702,-13.943989281592899,1.4507037377510905,0.4211111111111111,-0.2466666666666667,-0.6888888888888889,-8.933005065816497,56.60561934007472,83.76734895456413
1590515552.4079268,8.007468460891506,1.5035568290727,-0.7396811860660706,0.4211111111111111,-0.2466666666666667,-0.6888888888888889,11.319851790638996,80.49886312515892,308.08696603555853
1590515552.4179268,-0.18179892064761138,-1.3965416305772091,-0.9874661869544941,0.3888888888888889,-0.2644444444444444,-0.6966666666666667,29.00752187576343,-54.70055605525574,405.1132514935483
1590515552.4279268,0.706855315081252,-0.6181715238118581,0.19985489840437254,0.3888888888888889,-0.2644444444444444,-0.6966666666666667,-10.319365977107282,-60.45396180053433,373.9497169048261
1590515552.4379268,0.15677188674902168,0.5937718100207167,5.573374664313665,0.3888888888888889,-0.2644444444444444,-0.6966666666666667,-45.6712556587125,-86.53839292565027,342.79124338218367
1590515552.4479268,1.5019858819918666,1.7137107342898799,15.073546228803805,0.3888888888888889,-0.2644444444444444,-0.6966666666666667,-62.285292143021564,-86.73953138187677,323.3612685107036
1590515552.4579268,1.4478498178130046,1.3368941812854513,15.93976672551745,0.3888888888888889,-0.2644444444444444,-0.6966666666666667,-48.60935680477818,-48.190574405544496,301.31552158070696
1590515552.4679267,-0.025757387247278385,1.0398755832037325,8.743202177293934,0.365561603594263,-0.3377587696561258,-0.7053310869189563,8.952643856920687,-16.92317262830482,270.4666407465008
1590515552.4779267,-0.2547068060131796,1.1673589373970346,8.089217720345964,0.35,-0.38666666666666666,-0.7111111111111111,6.42428181630972,-14.74573819759061,230.56484085409804
1590515552.4879267,-6.651080729166667,6.1229036458333335,8.438287760416667,0.35,-0.38666666666666666,-0.7111111111111111,-23.218505859375,14.3983154296875,167.25533040364584
1590515552.4979267,-0.46852493102483106,0.25077652045263704,3.9376838338198246,0.35,-0.38666666666666666,-0.7111111111111111,-4.302199958015114,11.365335979047543,-17.349291754968213
1590515552.5079267,0.437117837578472,1.9782062457515295,19.62710624175297,0.35,-0.38666666666666666,-0.7111111111111111,3.0875934663521125,-22.281808548922392,-64.09890689351833
1590515552.5179267,0.727574135919205,0.8822484207137972,5.098401802599284,0.23777777777777775,-0.4577777777777778,-0.7244444444444444,18.78384400273609,-41.01795306401642,-74.57377630467147
1590515552.5279267,0.32253973363376653,1.1185184887136363,6.431640043455519,0.23777777777777775,-0.4577777777777778,-0.7244444444444444,6.390213203637387,-1.6220287792218215,-82.32638791091618
1590515552.5379267,-2.6292077649527807,0.3617136169182339,12.095221163935749,0.23777777777777775,-0.4577777777777778,-0.7244444444444444,-13.087759302607152,44.04268151182501,-89.59079122608766
1590515552.5479267,-1.6389480587618048,0.26014851884736456,5.908213939785294,0.23777777777777775,-0.4577777777777778,-0.7244444444444444,-7.268925558963597,39.969497891274514,-92.23571565501655
1590515552.5579267,-2.276616315524083,0.0927448315173306,10.164910222962753,0.23777777777777775,-0.4577777777777778,-0.7244444444444444,3.7616921162826387,-3.010198572775302,-90.58603906780962
1590515552.5679266,-2.6837483137731013,-0.3400197288547147,10.36623819641171,0.24444444444444444,-0.4455555555555555,-0.7177777777777777,0.0807808073654391,4.021246458923513,-90.1079132520572
1590515552.5779266,-2.2664683663833807,0.02067988668555243,7.4452785646836634,0.24444444444444444,-0.4455555555555555,-0.7177777777777777,1.9373229461756374,18.8735835694051,-88.82601510859301
1590515552.5879266,-12.44636703304068,2.622896923798673,11.659643790630655,0.24444444444444444,-0.4455555555555555,-0.7177777777777777,3.1628367736746865,10.692523331211046,-90.30317589303667
1590515552.5979266,-27.014398498760137,-1.41089471215066,7.400971784732927,0.24444444444444444,-0.4455555555555555,-0.7177777777777777,-0.7022945848133499,31.29191659406206,-79.93759634072784
1590515552.6079266,-3.0732115418974466,-0.9578479542612113,10.620585134893693,0.24444444444444444,-0.4455555555555555,-0.7177777777777777,0.7182195819188855,-30.37699325531534,27.532322002858677
1590515552.6179266,0.7274216773691378,-0.027699941622883806,8.310521502237789,0.27458433331171217,-0.4455555555555555,-0.706253702622646,1.287227573457871,-28.226320782253357,33.870463611597586
1590515552.6279266,-2.5561328970191153,-0.48129034565384543,10.251287842211614,0.2822222222222222,-0.4455555555555555,-0.7033333333333334,-6.086685040144484,17.50804901382258,-6.423403608533162
1590515552.6379266,-5.0686778248663344,-0.496290613879799,8.638759007921607,0.2822222222222222,-0.4455555555555555,-0.7033333333333334,-0.5553361318241157,7.429743799510041,-17.157970557731165
1590515552.6479266,-7.82293216630197,-2.147025676028346,9.127058398410053,0.2822222222222222,-0.4455555555555555,-0.7033333333333334,2.9461448316704475,3.2847838415674624,-25.820808574067012
1590515552.6579266,-3.23398249452954,-0.6566695440949148,8.360830104591171,0.2822222222222222,-0.4455555555555555,-0.7033333333333334,1.2621266034970793,1.0745099170899164,-0.6131607210969001
1590515552.6679265,-2.78,-0.03,9.61,0.2911111111111111,-0.4177777777777778,-0.7244444444444444,0.0,-2.4375,4.1875
1590515552.6779265,-3.0121473392551543,-0.191370711433461,9.448629288566538,0.2911111111111111,-0.4177777777777778,-0.7244444444444444,-0.07077662782169343,-1.641262937005949,2.948909013120365
1590515552.6879265,-3.76971323309768,-0.6404079126423048,9.12889740781307,0.2911111111111111,-0.4177777777777778,-0.7244444444444444,0.0025494540144047617,0.07194065518271431,-0.035970327591357154
1590515552.6979265,-3.9175984161860296,-0.6168927950196832,8.595454316579694,0.2911111111111111,-0.4177777777777778,-0.7244444444444444,-0.09269002334523482,0.4655700700357045,0.05173000778174494
1590515552.7079265,-3.9457917501136,-0.6157917501136,8.6769195038624,0.2911111111111111,-0.4177777777777778,-0.7244444444444444,-0.08880156178999983,-0.01667501136000271,0.0625
1590515552.7179265,-3.7759006644396313,-0.6324356668257406,8.99409933556037,0.2945654630071502,-0.4129416851233231,-0.7244444444444444,-0.1013614588304394,-0.16546978818692415,0.0625
1590515552.7279265,-3.732791482267955,-0.64,9.137674889360774,0.2966666666666667,-0.41,-0.7244444444444444,-0.08575532358252794,-0.3924467641747207,0.023255323582527937
1590515552.7379265,-3.795480445290757,-0.64,8.956156437673942,0.2966666666666667,-0.41,-0.7244444444444444,-0.0625,-0.041073128753478905,0.0
1590515552.7479265,-3.806176566632923,-0.64,8.950882833164615,0.2966666666666667,-0.41,-0.7244444444444444,-0.0625,0.1783106243673056,0.07720708291153708
1590515552.7579265,-3.8041123752621875,-0.6282247505243755,8.922899002097502,0.2966666666666667,-0.41,-0.7244444444444444,-0.136095309222653,0.43398827305663257,0.125
1590515552.7679265,-3.820783231816553,-0.6338554878777022,8.959277439388512,0.3005154132993617,-0.41538824528577306,-0.7152074525259764,-0.23079839961781917,-0.00037919503164940416,0.125
1590515552.7779264,-3.740038359215492,-0.6489961640784508,9.133938625255213,0.3022222222222222,-0.4177777777777778,-0.7111111111111111,0.1435821784322217,-0.47490410196126953,-0.043678076470952176
1590515552.7879264,-3.73,-0.6407134458016367,9.131426891603274,0.3022222222222222,-0.4177777777777778,-0.7111111111111111,0.12945903626022892,-0.15175421756137364,-0.0625
1590515552.7979264,-3.7869542553709747,-0.621015248209675,8.902182978516102,0.3022222222222222,-0.4177777777777778,-0.7111111111111111,-0.17163674672382717,0.3496187947581234,0.05615469868953085
1590515552.8079264,-3.8048114154063395,-0.6348114154063395,8.964057077031697,0.3022222222222222,-0.4177777777777778,-0.7111111111111111,-0.2337856731448107,0.2824286537103786,-0.030071346289621353
1590515552.8179264,-3.801644518768477,-0.6232890375369546,8.948222593842386,0.291081580580192,-0.4177777777777778,-0.728750460377659,-0.041112969211933,0.09333472690894973,0.0419435153940335
1590515552.8279264,-3.7391937060436287,-0.6460598402670163,9.122418881869114,0.2888888888888889,-0.4177777777777778,-0.7322222222222222,0.0,-0.37183067111693885,0.008208666110382644
1590515552.8379264,-3.7860709980249827,-0.6313096673250058,8.878990176212584,0.2888888888888889,-0.4177777777777778,-0.7322222222222222,-0.05840728960935697,-0.028648972734501232,0.0
1590515552.8479264,-3.749987404006339,-0.6380025191987323,9.028052903173378,0.2888888888888889,-0.4177777777777778,-0.7322222222222222,-0.01248425500792328,-0.10003148998415344,-0.05001574499207672
1590515552.8579264,-3.7631925404827595,-0.635361491903448,9.000422378551722,0.2888888888888889,-0.4177777777777778,-0.7322222222222222,-0.02899067560344952,0.10692540482759616,-0.03350932439655048
1590515552.8679264,-3.787989168923141,-0.632010831076859,8.952173297229743,0.2888888888888889,-0.4177777777777778,-0.7322222222222222,-0.0625,0.337296917308894,-0.012567694230368673
1590515552.8779263,-3.793386976634781,-0.6266130233652187,9.017527442371021,0.2888888888888889,-0.4177777777777778,-0.7322222222222222,-0.0625,0.10383139603261722,-0.03461046534420574
1590515552.8879263,-3.7908764272495548,-0.6291235727504452,8.949561786375222,0.2888888888888889,-0.4177777777777778,-0.7322222222222222,-0.0625,-0.2689252418031356,0.0
1590515552.8979263,-3.7751024419747483,-0.6346926740757541,8.990614651848492,0.2888888888888889,-0.4177777777777778,-0.7322222222222222,-0.12628052468435774,-0.24359737657821123,0.06378052468435774
1590515552.9079263,-3.790080171031534,-0.6300801710315339,9.030080171031534,0.2888888888888889,-0.4177777777777778,-0.7322222222222222,-0.15599946552645644,0.12550106894708712,0.125
1590515552.9179263,-3.814323954455879,-0.6328380227720605,8.946894296036785,0.303212843344768,-0.4122073510449359,-0.7067574143006593,-0.125,0.36654943069848916,0.08023764232537771
1590515552.9279263,-3.7958522408606536,-0.6139014939071025,8.958295518278693,0.3088888888888889,-0.41,-0.6966666666666667,-0.125,-0.0152704838627441,-0.038115663080609805
1590515552.9379263,-3.759251255380201,-0.6222994978479196,8.97,0.3088888888888889,-0.41,-0.6966666666666667,-0.08656406922525108,-0.16343593077474894,0.01437186154949785
1590515552.9479263,-3.74,-0.6383085788491194,9.028160051943836,0.3088888888888889,-0.41,-0.6966666666666667,0.04135723561399236,-0.29135723561399235,0.010571382193003818
1590515552.9579263,-3.7691293954349168,-0.64,9.03271765114127,0.3088888888888889,-0.41,-0.6966666666666667,0.016985319632942628,0.0971321233035164,-0.04551468036705737
1590515552.9679263,-3.7970031141234655,-0.6314984429382671,9.012996885876534,0.29849809692454865,-0.4203907919643402,-0.7146143982414361,-0.05313473163583074,0.3031347316358307,0.09690419490749222
1590515552.9779263,-3.8,-0.6368131645755915,8.982747341697635,0.2966666666666667,-0.4222222222222222,-0.7177777777777777,-0.0625,0.3125,-0.002746835792339669
1590515552.9879262,-3.792456876742547,-0.6324568767425472,8.97,0.2966666666666667,-0.4222222222222222,-0.7177777777777777,-0.10964452035907962,-0.017511642513557413,-0.10964452035907962
1590515552.9979262,-3.7746334337417617,-0.63,9.046832831291193,0.2966666666666667,-0.4222222222222222,-0.7177777777777777,-0.02895896088601002,-0.07697948044300501,-0.125
1590515553.0079262,-3.776447769690562,-0.63,9.063552230309439,0.2966666666666667,-0.4222222222222222,-0.7177777777777777,-0.08059712113202945,-0.10279856056601472,0.0361942422640589
1590515553.0179262,-3.790143419689119,-0.63,9.034641450777203,0.29272200345423144,-0.4295480253310305,-0.7143966378814047,-0.125,0.001792746113989635,0.06160362694300518
1590515553.0279262,-3.796488012374323,-0.6335119876256767,9.006488012374323,0.2888888888888889,-0.43666666666666665,-0.7111111111111111,-0.125,0.168899845320959,0.021949922660479505
1590515553.0379262,-3.7830691678373687,-0.6503962482439468,8.97574208743079,0.2888888888888889,-0.43666666666666665,-0.7111111111111111,-0.125,0.20668229898355509,0.0625
1590515553.0479262,-3.77,-0.6343916266899259,9.001216746620148,0.2888888888888889,-0.43666666666666665,-0.7111111111111111,-0.125,-0.36461513301351944,0.01798953336240733
1590515553.0579262,-3.76341840907661,-0.6331631818467798,9.036581590923388,0.2888888888888889,-0.43666666666666665,-0.7111111111111111,-0.0838650567288132,-0.31569034037287924,0.0
1590515553.0679262,-3.7793133661377785,-0.64,9.020686633862221,0.2938960578875723,-0.4273676385262547,-0.7154029702528397,0.017972358907411126,0.1343894356296445,0.0
1590515553.0779262,-3.7979035197630706,-0.632096480236929,9.00209648023693,0.2966666666666667,-0.4222222222222222,-0.7177777777777777,-0.08569099555758058,0.21370600296161293,0.04939699851919353
1590515553.0879261,-3.794045458458889,-0.6359545415411106,8.934500043047784,0.2966666666666667,-0.4222222222222222,-0.7177777777777777,-0.125,0.03863646147223418,0.025284115368058545
1590515553.0979261,-3.783195515066573,-0.6331955150665732,8.924022424667134,0.2966666666666667,-0.4222222222222222,-0.7177777777777777,-0.08247196916608268,-0.31766818500350386,0.08505606166783462
1590515553.1079261,-3.7676701061484597,-0.6423298938515404,9.007814416183471,0.2966666666666667,-0.4222222222222222,-0.7177777777777777,-0.0625,-0.24484540856968193,0.04793816342787277
1590515553.1179261,-3.7732034188034187,-0.65,9.05,0.2915320037986705,-0.4222222222222222,-0.7317147198480531,-0.0625,0.040042735042735034,0.04126068376068376
1590515553.127926,-3.78,-0.6257394705959056,9.033826313730604,0.2888888888888889,-0.4222222222222222,-0.7388888888888889,0.03858553918372669,0.2260855391837267,0.011957230408136656
1590515553.137926,-3.7881014584357517,-0.6362029168715032,8.957086874078236,0.2888888888888889,-0.4222222222222222,-0.7388888888888889,-0.038768230446894675,0.09809765432965797,-0.10126823044689467
1590515553.147926,-3.7825121724504247,-0.6325121724504249,8.962463482648726,0.2888888888888889,-0.4222222222222222,-0.7388888888888889,-0.10929892218484419,-0.17149461092422097,-0.03140215563031161
1590515553.157926,-3.7737678000285206,-0.6424643999429585,9.026089799743314,0.2888888888888889,-0.4222222222222222,-0.7388888888888889,-0.08604875017825495,-0.1720975003565099,0.0
1590515553.167926,-3.77,-0.6331805465891973,9.06,0.2932494879213192,-0.4222222222222222,-0.7307906335429469,-0.0625,-0.125,0.07008105587834446
1590515553.177926,-3.776406959358434,-0.6264069593584342,9.015151284490962,0.2966666666666667,-0.4222222222222222,-0.7244444444444444,-0.022456504009786597,-0.044913008019573195,0.0849565040097866
1590515553.187926,-3.7863489888385455,-0.6426979776770914,8.913812133937451,0.2966666666666667,-0.4222222222222222,-0.7244444444444444,-0.039681180240910593,0.07936236048182119,0.022818819759089407
1590515553.197926,-3.79,-0.6352100058173357,8.929159976730656,0.2966666666666667,-0.4222222222222222,-0.7244444444444444,-0.0625,0.07878126817917394,0.0
1590515553.207926,-3.79,-0.63,9.012346670698747,0.2966666666666667,-0.4222222222222222,-0.7244444444444444,-0.023533330813283182,-0.17130001512030088,0.15586667674686727
1590515553.217926,-3.7695546546174796,-0.63,9.056815115127508,0.2966666666666667,-0.41919328216555257,-0.7244444444444444,-0.042594469546917556,-0.09952765226541224,0.12221659135924734
1590515553.227926,-3.7661934019488905,-0.6361934019488905,9.041419794153327,0.2966666666666667,-0.4177777777777778,-0.7244444444444444,-0.0625,0.03870876218056588,-0.053626286541697654
1590515553.237926,-3.774491242785533,-0.64,8.980596329359136,0.2966666666666667,-0.4177777777777778,-0.7244444444444444,-0.00635946518083598,0.09057026740958202,-0.01271893036167196
1590515553.247926,-3.78,-0.6458164215984121,8.94908210799206,0.2966666666666667,-0.4177777777777778,-0.7244444444444444,-0.08291053996030298,0.05229473001984851,0.05229473001984851
1590515553.257926,-3.7741022292696575,-0.632306687808973,9.017182165842739,0.2966666666666667,-0.4177777777777778,-0.7244444444444444,-0.15063893293536051,-0.11058320119391847,0.03686106706463949
1590515553.267926,-3.77,-0.6261335341674096,9.05613353416741,0.28780711731374176,-0.42527431953794503,-0.7162663988878984,-0.16333458854630967,-0.07249623436107099,0.024165411453690326
1590515553.277926,-3.77,-0.63,9.06,0.2822222222222222,-0.43,-0.7111111111111111,-0.15501831761145426,0.0,0.03248168238854574
1590515553.287926,-3.7812002118243373,-0.6243998940878315,8.970398305405304,0.2822222222222222,-0.43,-0.7111111111111111,-0.08999933804894655,0.1400026478042138,0.1325013239021069
1590515553.297926,-3.79,-0.6338308503114234,8.948407976089982,0.2822222222222222,-0.43,-0.7111111111111111,-0.0625,0.2067785927768018,0.1442785927768018
1590515553.307926,-3.79,-0.6345020020504091,8.991991991798363,0.2822222222222222,-0.43,-0.7111111111111111,-0.13122497436988606,0.05005005126022785,0.02191253844517091
1590515553.317926,-3.7780444434957094,-0.63,9.037896298510011,0.2901925932250827,-0.4269004112766654,-0.7137679014453979,-0.13768518123212226,-0.0625,-0.01268518123212227
1590515553.327926,-3.769582680728133,-0.63,9.056043298179667,0.3022222222222222,-0.4222222222222222,-0.7177777777777777,-0.0625,-0.032554122724583204,0.032554122724583204
1590515553.337926,-3.7866645256916995,-0.6366645256916996,8.963354743083004,0.3022222222222222,-0.4222222222222222,-0.7177777777777777,-0.0625,0.08330657114624505,0.0
1590515553.347926,-3.7965198752922835,-0.6269602494154326,8.936519875292284,0.3022222222222222,-0.4222222222222222,-0.7177777777777777,-0.14399844115354637,0.08425077942322681,0.04074922057677319
1590515553.357926,-3.794651237158732,-0.62,8.988138865571411,0.3022222222222222,-0.4222222222222222,-0.7177777777777777,-0.020351161210376945,0.0625,0.02907023224207539
1590515553.367926,-3.778065835730265,-0.62,9.03,0.29028805795248747,-0.4268632861048968,-0.7177777777777777,0.013117209971236818,0.025205736657078932,-0.03729426334292107
1590515553.3779259,-3.763186011386081,-0.6268139886139189,9.057255954455675,0.2822222222222222,-0.43,-0.7177777777777777,-0.0625,-0.08517485767398629,-0.019912571163006855
1590515553.3879259,-3.7893088055146067,-0.6358617611029214,8.982073583456181,0.2822222222222222,-0.43,-0.7177777777777777,-0.025863993106741687,-0.05172798621348337,0.0
1590515553.3979259,-3.804057395858643,-0.64,8.93782781242407,0.2822222222222222,-0.43,-0.7177777777777777,0.0,0.03714127588348047,-0.03714127588348047
1590515553.4079258,-3.7919566061982604,-0.6359783030991304,8.970108484504348,0.2822222222222222,-0.43,-0.7177777777777777,0.025135605630435435,0.08763560563043543,-0.03736439436956457
1590515553.4179258,-3.779212582404167,-0.630787417595833,9.003937087979166,0.28432200247777684,-0.4290376007162041,-0.716640396806019,0.05265728005208757,0.10531456010417514,0.009842719947912429
1590515553.4279258,-3.77,-0.6346333055323881,9.044633305532388,0.3088888888888889,-0.4177777777777778,-0.7033333333333334,-0.12958368084514874,-0.125,0.125
1590515553.4379258,-3.77,-0.63,8.979855721393035,0.3088888888888889,-0.4177777777777778,-0.7033333333333334,-0.050808457711442795,-0.0566542288557214,0.0908271144278607
1590515553.4479258,-3.77,-0.63,8.945171300534863,0.3088888888888889,-0.4177777777777778,-0.7033333333333334,0.03089312388570327,0.06321375222859346,0.09410687611429673
1590515553.4579258,-3.77,-0.6342115297678715,8.976846119071487,0.3088888888888889,-0.4177777777777778,-0.7033333333333334,-0.07896618314759124,0.09867793895080292,0.04603381685240876
1590515553.4679258,-3.777980877749622,-0.6346794148335854,9.010641170332828,0.307115360500084,-0.4177777777777778,-0.7127921514069595,-0.13761951406486234,-0.004007314580183552,-0.0625
1590515553.4779258,-3.7915682809445026,-0.6228105730184991,9.042810573018498,0.3022222222222222,-0.4177777777777778,-0.7388888888888889,0.01756608136561889,-0.1875,-0.02736783726876222
1590515553.4879258,-3.7740602038819406,-0.6259397961180594,9.001277553416713,0.3022222222222222,-0.4177777777777778,-0.7388888888888889,0.03712372573787116,-0.11137117721361348,0.03712372573787116
1590515553.4979258,-3.786138834080717,-0.6230694170403588,8.945347085201794,0.3022222222222222,-0.4177777777777778,-0.7388888888888889,0.038367713004484306,0.09591928251121076,-0.019183856502242153
1590515553.5079257,-3.7954734799223706,-0.6254734799223705,8.98452652007763,0.3022222222222222,-0.4177777777777778,-0.7388888888888889,0.06841849902963126,0.25591849902963126,-0.03420924951481563
1590515553.5179257,-3.7853659931376287,-0.633902020587114,9.008536027449486,0.29964777396534925,-0.41983733638327614,-0.7321953234210192,-0.02896254288982082,0.10061237133053755,-0.02896254288982082
1590515553.5279257,-3.78,-0.644084856211928,9.03591514378807,0.2966666666666667,-0.4222222222222222,-0.7244444444444444,-0.0625,0.0,-0.0625
1590515553.5379257,-3.78,-0.6489491747017486,8.99972871384213,0.2966666666666667,-0.4222222222222222,-0.7244444444444444,-0.0625,-0.02796617094296454,-0.0625
1590515553.5479257,-3.7764661469523046,-0.6493984408569149,8.96413541219078,0.2966666666666667,-0.4222222222222222,-0.7244444444444444,-0.040413418451905964,0.02584632619237616,-0.040413418451905964
1590515553.5579257,-3.77,-0.63,8.999416302043395,0.2966666666666667,-0.4222222222222222,-0.7244444444444444,0.0,0.12864811222878794,0.0392345918474747
1590515553.5679257,-3.77,-0.63,9.018335964635302,0.2966666666666667,-0.4222222222222222,-0.7244444444444444,0.0,0.01040022102936533,0.11806651931375645
1590515553.5779257,-3.7912992402477173,-0.6330511396284236,9.04,0.2822222222222222,-0.43,-0.7033333333333334,-0.1956202515482347,-0.125,-0.08968987422588265
1590515553.5879257,-3.770856808839612,-0.6454284044198062,8.989712448617867,0.2822222222222222,-0.43,-0.7033333333333334,-0.039282582871365546,-0.039282582871365546,-0.010710110495154052
1590515553.5979257,-3.7669583157003808,-0.6434791578501905,8.943916631400763,0.2822222222222222,-0.43,-0.7033333333333334,0.04075526343630978,0.10598947312738044,0.10325526343630978
1590515553.6079257,-3.78,-0.6420327188940093,8.989918202764978,0.2822222222222222,-0.43,-0.7033333333333334,0.024897753456221198,0.1875,0.0625
1590515553.6179256,-3.78,-0.6262571219177758,9.016257121917775,0.28970797838667056,-0.42251424383555164,-0.7112349648402511,0.015714023972197927,0.11732103595829689,0.0625
1590515553.6279256,-3.78,-0.62,9.02901111725324,0.3022222222222222,-0.41,-0.7244444444444444,0.02661461212456237,-0.02970487070818746,0.0030902585836250773
1590515553.6379256,-3.788345055646014,-0.6283450556460142,9.012447249592936,0.3022222222222222,-0.41,-0.7244444444444444,0.046765103318617496,0.015734896681382504,-0.08857829889379418
1590515553.6479256,-3.7970918675304817,-0.64,8.965816264939038,0.3022222222222222,-0.41,-0.7244444444444444,0.010203311737958229,0.05229668826204177,-0.07047251619653133
1590515553.6579256,-3.7941082167714035,-0.64,9.000541083857017,0.3022222222222222,-0.41,-0.7244444444444444,0.11047093553618488,-0.0736472903574566,-0.01452906446381512
1590515553.6679256,-3.8,-0.6343571314486504,9.021535697172975,0.2984603098546558,-0.4121944488810804,-0.714412678130934,-0.017633964222967577,0.017633964222967577,-0.036830178885162115
1590515553.6779256,-3.7892073857239357,-0.6307926142760639,9.0,0.2888888888888889,-0.4177777777777778,-0.6888888888888889,-0.0625,0.028773080387300157,0.12004616077460031
1590515553.6879256,-3.7692767358339982,-0.6346383679169992,8.973191839584995,0.2888888888888889,-0.4177777777777778,-0.6888888888888889,0.03803060155626496,0.03351020051875499,0.028989799481245013
1590515553.6979256,-3.764873898701407,-0.6202522025971857,8.959747797402814,0.2888888888888889,-0.4177777777777778,-0.6888888888888889,0.125,-0.028885600651384194,0.03046186688379473
1590515553.7079256,-3.7775580763630834,-0.6213371145446248,8.988895190907709,0.2888888888888889,-0.4177777777777778,-0.6888888888888889,0.125,-0.006905056826824879,0.0625
1590515553.7179255,-3.7938241291174863,-0.6438241291174865,9.023824129117486,0.2888888888888889,-0.41947739071888296,-0.70248579241773,0.05329757904712673,0.2114008069842911,0.03859919301570891
1590515553.7279255,-3.7947425014148273,-0.6342275042444822,9.035257498585171,0.2888888888888889,-0.4222222222222222,-0.7244444444444444,0.036078098471986425,0.18428126768534236,-0.06571873231465762
1590515553.7379255,-3.79,-0.6293767326831409,8.997804702925865,0.2888888888888889,-0.4222222222222222,-0.7244444444444444,0.03709313109555436,-0.050813737808891285,-0.09569771036518479
1590515553.7479255,-3.7830772708776057,-0.6434613645611973,8.967306822805986,0.2888888888888889,-0.4222222222222222,-0.7244444444444444,-0.04086647149251707,-0.20673294298503414,0.002400585522448803
