time,acc_x,acc_y,acc_z,mag_x,mag_y,mag_z,gyr_x,gyr_y,gyr_z
1590515570.3598313,0.1,-4.34,8.63,0.4066666666666667,0.2822222222222222,-0.6133333333333333,-0.125,0.0625,-0.125
1590515570.3698313,0.10641624598439652,-4.346416245984396,8.64924873795319,0.4066666666666667,0.2822222222222222,-0.6133333333333333,0.03540614960991281,0.10260153740247821,-0.08489846259752179
1590515570.3798313,0.12002508617733582,-4.346658304607555,8.663341695392445,0.4066666666666667,0.2822222222222222,-0.6133333333333333,0.10411440379721706,0.10411440379721706,-0.0625
1590515570.3898313,0.13648817802503477,-4.338244089012517,8.67702364394993,0.4066666666666667,0.28436833565136765,-0.6133333333333333,0.0625,0.04055111265646731,-0.0625
1590515570.3998313,0.11635164879141988,-4.33364835120858,8.70635164879142,0.4066666666666667,0.29444444444444445,-0.6133333333333333,-0.02870878021450296,-0.10810439010725148,0.00590658516087722
1590515570.4098313,0.11,-4.337333821261469,8.68400292756881,0.4066666666666667,0.29444444444444445,-0.6133333333333333,-0.15417276576835612,-0.20416361711582193,0.14166361711582193
1590515570.4198313,0.11279548245525738,-4.338386447365773,8.656772894731544,0.4066666666666667,0.29444444444444445,-0.6133333333333333,-0.045028234654641355,-0.25,0.17002823465464134
1590515570.4298313,0.12,-4.355715379439946,8.705712827413404,0.4066666666666667,0.29444444444444445,-0.6133333333333333,-0.026778878500336403,-0.20536853583277265,0.10714741433310906
1590515570.4398313,0.11676183686035584,-4.328380918430178,8.738380918430178,0.40756615642767896,0.29354495468343217,-0.6109946599547014,-0.15714222056583596,0.0625,-0.010119259811388014
1590515570.4498312,0.10269669327251996,-4.32,8.732696693272521,0.4122222222222222,0.2888888888888889,-0.5988888888888889,-0.03370866590649943,0.045645667046750285,-0.045645667046750285
1590515570.4598312,0.10972986115768998,-4.32,8.73972986115769,0.4122222222222222,0.2888888888888889,-0.5988888888888889,-0.12162326447112483,0.0016883677644375858,-0.0016883677644375858
1590515570.4698312,0.10498393060787227,-4.340032138784255,8.630032138784255,0.4122222222222222,0.2888888888888889,-0.5988888888888889,0.0,0.14047434944880258,0.0625
1590515570.4798312,0.09048933890866365,-4.369021322182673,8.659021322182673,0.4122222222222222,0.2888888888888889,-0.5988888888888889,0.0,0.004587552268721706,0.0625
1590515570.4898312,0.09463581636873306,-4.33,8.692317908184366,0.40913167797640015,0.2888888888888889,-0.5996615249503444,-0.0697434630761454,-0.014486926152290797,0.0842303892284362
1590515570.4998312,0.13120283264484328,-4.33,8.708797167355158,0.3855555555555555,0.2888888888888889,-0.6055555555555555,-0.10996459193945916,-0.125,0.21992918387891833
1590515570.5098312,0.12859743114224878,-4.33,8.665792293426746,0.3855555555555555,0.2888888888888889,-0.6055555555555555,0.0,-0.19626605536094513,-0.023755351786981706
1590515570.5198312,0.11717450053083679,-4.337174500530836,8.627936251327093,0.3855555555555555,0.2888888888888889,-0.6055555555555555,0.06726094247659492,-0.3125,-0.040079685841135027
1590515570.5298312,0.12195188379482524,-4.347317294598275,8.678778937812075,0.3855555555555555,0.2888888888888889,-0.6055555555555555,0.1875,-0.29573309123921926,0.016766908760780755
1590515570.5398312,0.10003271192402392,-4.340010903974674,8.730065423848048,0.38556282487200527,0.2888743502559894,-0.6055325360534646,0.1875681498417165,-0.250136299683433,0.06229555047485051
1590515570.5498312,0.12664561507789088,-4.339936845233672,8.776582460311563,0.3922222222222223,0.27555555555555555,-0.5844444444444444,0.229035094236818,-0.395964905763182,-0.06210528271045397
1590515570.5598311,0.1302959547550367,-4.323431984918345,8.715680150816544,0.3922222222222223,0.27555555555555555,-0.5844444444444444,0.25184971721897925,-0.351700377041361,0.01960018852068049
1590515570.5698311,0.14748207140509925,-4.332517928594901,8.655035857189802,0.3922222222222223,0.27555555555555555,-0.5844444444444444,0.4064741074362592,-0.21897410743625925,-0.0625
1590515570.5798311,0.13947873711340208,-4.34,8.671563788659794,0.3922222222222223,0.27555555555555555,-0.5844444444444444,0.5,-0.3125,-0.06901578608247423
1590515570.589831,0.13272245489690723,-4.34,8.691832635309277,0.3922222222222223,0.27555555555555555,-0.5844444444444444,0.5,-0.3125,-0.1534693137886598
1590515570.599831,0.09150641764660672,-4.34,8.7,0.39970708545760425,0.3012179437911511,-0.5908600415033434,0.5,-0.3125,-0.067207555145646
1590515570.609831,0.10788152610441767,-4.331059236947791,8.646355421686748,0.4,0.3022222222222222,-0.5911111111111111,0.27648092369477917,-0.3683797690763052,0.04925953815261043
1590515570.619831,0.13210570794746296,-4.33,8.602634247684778,0.4,0.3022222222222222,-0.5911111111111111,0.25,-0.3125,-0.14801797598506988
1590515570.629831,0.13949029895418855,-4.33,8.646941793725132,0.4,0.3022222222222222,-0.5911111111111111,0.25,-0.3125,-0.00955689460896511
1590515570.639831,0.14,-4.330620152147971,8.710930228221958,0.4,0.3011541824118271,-0.5918001690533016,0.308624049075179,-0.4375,-0.0605620245375895
1590515570.649831,0.14,-4.346261187350835,8.734391781026254,0.4,0.2742168440068947,-0.6091790970564837,0.21086757905727924,-0.4375,-0.011683789528639618
1590515570.659831,0.12,-4.321766369852905,8.707635411029665,0.4,0.2677777777777778,-0.6133333333333333,0.0625,-0.2904203768386875,-0.0625
1590515570.669831,0.11770721671809864,-4.332292783281901,8.66604948297331,0.4,0.2677777777777778,-0.6133333333333333,0.07682989551188349,-0.2018298955118835,-0.04817010448811651
1590515570.679831,0.1142691893262344,-4.342134594663117,8.72,0.4,0.2677777777777778,-0.6133333333333333,0.15168243328896494,-0.23665878335551752,0.013341216644482474
1590515570.689831,0.12756164036255307,-4.348780820181276,8.72,0.4,0.2677777777777778,-0.6133333333333333,0.23476025226595676,-0.19511987386702162,0.05488012613297838
1590515570.699831,0.15,-4.332174653592966,8.733476039221102,0.38,0.2677777777777778,-0.5911111111111111,0.28531683008792524,-0.14672524513188787,-0.02718316991207476
1590515570.709831,0.14604509930807905,-4.338022549654039,8.696157847578277,0.38,0.2677777777777778,-0.5911111111111111,0.19985906466225298,-0.012359064662252974,-0.125
1590515570.719831,0.128092525292211,-4.33,8.643814949415578,0.38,0.2677777777777778,-0.5911111111111111,0.20231313230527453,-0.050578283076318634,-0.10115656615263727
1590515570.729831,0.12,-4.33,8.660542395823262,0.38,0.2677777777777778,-0.5911111111111111,0.0011299912984627284,-0.003389973895388185,-0.0011299912984627284
1590515570.739831,0.12054558239576439,-4.329727208802118,8.690818373593647,0.38033341146407823,0.2679899487094639,-0.5915051428413854,0.06420494498676373,-0.1875,-0.0625
1590515570.749831,0.13789460622104568,-4.321052696889478,8.716841909331569,0.3909355926906391,0.2747367913081844,-0.6040349933818663,0.1184206444407677,-0.1875,-0.0625
1590515570.759831,0.13090618036523832,-4.323624721460954,8.691844376712854,0.3922222222222223,0.27555555555555555,-0.6055555555555555,0.11367274543452091,-0.1988272545654791,0.0
1590515570.769831,0.1411493144815767,-4.3565520565552704,8.614597257926306,0.3922222222222223,0.27555555555555555,-0.6055555555555555,0.007183215509854327,-0.29813356898029136,0.0
1590515570.779831,0.1486369965724079,-4.334089010282776,8.644547986289632,0.3922222222222223,0.27555555555555555,-0.6055555555555555,0.05398122857754927,-0.20453754284490144,0.0
1590515570.789831,0.12,-4.330373805349771,8.7313083187242,0.3922222222222223,0.2756801573388125,-0.6054309537722985,0.25,-0.25,-0.1214955748458972
1590515570.799831,0.12,-4.346765790120423,8.793531580240845,0.3922222222222223,0.2822222222222222,-0.5988888888888889,0.25,-0.25,0.0625
1590515570.809831,0.12,-4.328916813639036,8.745918577307465,0.3922222222222223,0.2822222222222222,-0.5988888888888889,0.2296902557319224,-0.26353982951205174,0.04896017048794826
1590515570.819831,0.12297647185217017,-4.32297647185217,8.63,0.3922222222222223,0.2822222222222222,-0.5988888888888889,0.0997058981521272,-0.3470955763859046,-0.0625
1590515570.829831,0.14,-4.338367931737137,8.633264136525726,0.3922222222222223,0.2822222222222222,-0.5988888888888889,0.30229957335710644,-0.16709914671421294,-0.04209914671421294
1590515570.8398309,0.14,-4.331690811258278,8.646618377483444,0.3922222222222223,0.2822222222222222,-0.5988888888888889,0.2605675703642384,-0.08363514072847682,0.04136485927152318
1590515570.8498309,0.1581938678630601,-4.32090306606847,8.69090306606847,0.4,0.2888888888888889,-0.6055555555555555,0.18185583707206285,-0.05685583707206285,-0.016932488783811456
1590515570.8598309,0.14257758251577715,-4.328711208742112,8.698711208742111,0.4,0.2888888888888889,-0.6055555555555555,0.1330549453618035,-0.008054945361803525,-0.1633351639145894
1590515570.8698308,0.11,-4.32,8.636953944368445,0.4,0.2888888888888889,-0.6055555555555555,0.036009461924304605,-0.125,0.0625
1590515570.8798308,0.11137996820349762,-4.321379968203498,8.706899841017487,0.4,0.2888888888888889,-0.6055555555555555,-0.02800079491255962,-0.14224960254372018,0.03662559618441971
1590515570.8898308,0.11922491349480968,-4.3292249134948095,8.746124567474048,0.4,0.2888888888888889,-0.6055555555555555,0.16812283737024222,-0.24031141868512113,-0.11046712802768166
1590515570.8998308,0.12793513173087015,-4.33,8.75,0.39382823087598995,0.2721369441237186,-0.6002654677349755,0.23709457331793848,-0.2995945733179385,-0.07540542668206152
1590515570.9098308,0.14462866776016037,-4.33,8.75731433388008,0.3922222222222223,0.2677777777777778,-0.5988888888888889,0.43285834700200476,-0.26678541324949884,-0.10821458675050119
1590515570.9198308,0.15793881473290683,-4.3061835558012795,8.63297896427349,0.3922222222222223,0.2677777777777778,-0.5988888888888889,0.4503824079193323,-0.1507648158386647,-0.025764815838664676
1590515570.9298308,0.14871149139308615,-4.3193557456965435,8.682577017213827,0.3922222222222223,0.2677777777777778,-0.5988888888888889,0.05444682120678844,0.0,-0.11292023181018265
1590515570.9398308,0.1317432287557902,-4.310871614377895,8.71651354248842,0.3922222222222223,0.2677777777777778,-0.5988888888888889,-0.051604820276311275,0.0,0.0461572304144669
1590515570.9498308,0.11822737330102202,-4.331772626698978,8.75,0.3922222222222223,0.2677777777777778,-0.6133333333333333,-0.30142108313138766,-0.08465783373722474,-0.04034216626277526
1590515570.9598308,0.11130304868459483,-4.339348475657703,8.740227134865538,0.3922222222222223,0.2677777777777778,-0.6133333333333333,-0.24185594572128238,-0.20786013569679404,0.05842797286064119
1590515570.9698308,0.13008886747503948,-4.33,8.600710939800315,0.3922222222222223,0.2677777777777778,-0.6133333333333333,-0.125,-0.5005554217189968,-0.0005554217189967612
1590515570.9798307,0.14181459129247181,-4.329092704353764,8.682721886938708,0.3922222222222223,0.2677777777777778,-0.6133333333333333,-0.1193294022110256,-0.5568294022110256,-0.045488206633076796
1590515570.9898307,0.15729656903456804,-4.321351715482717,8.705944853551852,0.3922222222222223,0.2677777777777778,-0.6133333333333333,-0.07094822176697488,-0.5084482217669749,0.09965533469907537
1590515570.9998307,0.11,-4.3008773468401555,8.729122653159845,0.3855555555555555,0.2888888888888889,-0.6055555555555555,-0.2719336710038838,-0.43201658224902906,-0.03508291124514524
1590515571.0098307,0.11,-4.308384192722782,8.72161580727722,0.3855555555555555,0.2888888888888889,-0.6055555555555555,-0.45960481806955056,-0.38509879548261233,0.19950602258693823
1590515571.0198307,0.06615626666666667,-4.276156266666667,8.673843733333333,0.3855555555555555,0.2888888888888889,-0.6055555555555555,-0.7339844444444444,-0.13300777777777778,0.5736322222222222
1590515571.0298307,0.04378666666666667,-4.253786666666667,8.696213333333333,0.3855555555555555,0.2888888888888889,-0.6055555555555555,-0.6407777777777778,-0.1796111111111111,1.365888888888889
1590515571.0398307,0.0010627479465832243,-4.211062747946583,8.777874504106833,0.3855555555555555,0.2888888888888889,-0.6055555555555555,-0.6858394563334637,-0.06582108733307258,2.6559496703358105
1590515571.0498307,0.026351247107225508,-4.245134996142967,8.771216250964258,0.37481986228964886,0.2830330561983943,-0.599699722865061,-0.5228047055798406,0.04729686294677295,4.169757649781435
1590515571.0598307,0.06522607565496956,-4.263484050436646,8.710418861299223,0.37333333333333335,0.2822222222222222,-0.5988888888888889,-0.41572468477096014,0.13044382880725996,5.695769774494379
1590515571.0698307,0.12278126368014008,-4.30231771973345,8.61185417578676,0.37333333333333335,0.2822222222222222,-0.5988888888888889,-0.17880855099956225,0.19619144900043775,6.443294299333625
1590515571.0798306,0.18110932835063062,-4.35110932835063,8.650554664175315,0.37333333333333335,0.2822222222222222,-0.5988888888888889,-0.006933302191441395,0.375,6.541700093425676
1590515571.0898306,0.19814651583159007,-4.36814651583159,8.659073257915795,0.37333333333333335,0.2822222222222222,-0.5988888888888889,-0.1134157239474379,0.375,6.2222528281576865
1590515571.0998306,0.1768414387031408,-4.383682877406281,8.720524316109422,0.38,0.2677777777777778,-0.5933333333333334,-0.26974100810536983,0.0723705040526849,5.246683447315096
1590515571.1098306,0.15783669073862916,-4.348269352590903,8.669134676295451,0.38,0.2677777777777778,-0.5933333333333334,-0.375,0.125,4.543571043963005
1590515571.1198306,0.11355378183200304,-4.312843025465602,8.651421512732801,0.38,0.2677777777777778,-0.5933333333333334,-0.375,0.125,4.156095591030026
1590515571.1298306,0.09,-4.316941869655817,8.692293597758137,0.38,0.2677777777777778,-0.5933333333333334,-0.23566501401164044,-0.16838668534885393,4.168004957965079
1590515571.1398306,0.09,-4.292831501041891,8.710376374218582,0.38,0.2677777777777778,-0.5933333333333334,-0.12264766113386505,-0.017696881511820084,4.507057016598405
1590515571.1498306,0.009808818854729576,-4.25326960628491,8.77346078743018,0.38,0.2677777777777778,-0.5992734208255756,-0.39662992143862674,0.006811679760228874,5.077318241678398
1590515571.1598306,0.0,-4.25,8.751215286624204,0.38,0.2677777777777778,-0.6,-0.2575955414012739,-0.1799044585987261,5.844617834394905
1590515571.1698306,-0.04690493866440414,-4.2406190122671195,8.683714073602715,0.38,0.2677777777777778,-0.6,-0.3047623466610104,-0.1913688266694948,7.121729946618588
1590515571.1798306,-0.018632185943988508,-4.279316092971994,8.699316092971994,0.38,0.2677777777777778,-0.6,-0.14209767570014367,-0.3338720946251796,8.380890702800574
1590515571.1898305,-0.0021227686918187,-4.271061384345909,8.69106138434591,0.38,0.2677777777777778,-0.6,-0.3484653913522663,-0.5918317391903328,9.206361565409065
1590515571.1998305,0.022645600991325898,-4.28509706732755,8.727742668318877,0.3950970673275506,0.27364885951626966,-0.5899352884482996,-0.28064332920280877,-0.6721783353985956,9.689926683188766
1590515571.2098305,0.01917754214246873,-4.1903167482327355,8.696518488308863,0.4,0.27555555555555555,-0.5866666666666667,-1.258301046764546,-0.7729404567699837,10.687100666122893
1590515571.2198305,-0.11624201332245784,-4.069151882816748,8.903211494018489,0.4,0.27555555555555555,-0.5866666666666667,-3.708325898926047,-1.8420422104404568,12.246207390225667
1590515571.2298305,-0.13035193372088977,-4.158474953876144,8.900821178682076,0.4,0.27555555555555555,-0.5866666666666667,-3.3264307097852193,-2.558100828488878,17.691344379851706
1590515571.2398305,-0.043347912110798706,-4.1166739560554,8.726695824221597,0.4,0.27555555555555555,-0.5866666666666667,-1.3086704675622198,-0.2337251379777152,22.136761949390817
1590515571.2498305,-0.012330709019750613,-3.9267789205424593,8.572047647219442,0.3855555555555555,0.26222222222222225,-0.6,-2.2599762787840176,-0.34684029989988163,25.525953968326203
1590515571.2598305,-0.335081334898541,-2.634311588126782,8.022052658058024,0.3855555555555555,0.26222222222222225,-0.6,-4.747536894180781,-1.2467927217843369,27.01865671641791
1590515571.2698305,-0.19149894736842105,-2.2049894736842104,8.884454736842105,0.3855555555555555,0.26222222222222225,-0.6,-12.339263157894736,-0.1405263157894737,32.74171052631579
1590515571.2798305,-0.20685565217391305,-2.3585565217391307,9.544793043478261,0.3855555555555555,0.26222222222222225,-0.6,-9.411891304347826,-1.580217391304348,39.70021739130435
1590515571.2898304,-0.2667283344041725,-2.4404251861370425,8.709315166861938,0.3855555555555555,0.26222222222222225,-0.6,-0.18506580936543315,-3.17502433009562,46.64025473373899
1590515571.2998304,-0.2822964046988095,-2.602776964758929,8.66225606138512,0.40424268392903445,0.26222222222222225,-0.6,-0.7680210022544793,-3.8268525293675593,56.237229561365346
1590515571.3098304,-0.2474802165764265,-2.6720316534777178,9.07470970428988,0.4066666666666667,0.26222222222222225,-0.6,-3.8983340274885467,-5.560438359017076,60.72097563515202
1590515571.3198304,-0.2520154767323786,-2.7146769844882526,8.959121817990825,0.4066666666666667,0.26222222222222225,-0.6,-1.7475817605658461,-6.270672117371056,66.58607400469204
1590515571.3298304,-0.26654731945397697,-2.8116624723556773,8.83035804163807,0.4066666666666667,0.26222222222222225,-0.6,-1.3593356783344772,-6.1875,70.78261076794021
1590515571.3398304,-0.27,-2.920495605546213,8.925867309705874,0.4066666666666667,0.26222222222222225,-0.6,-2.4741706856617065,-6.092975616334042,74.84942055081385
1590515571.3498304,-0.29118283559018115,-2.968243780786908,8.903512438426185,0.4105894139981817,0.25359217809288914,-0.595292703202182,-1.8490127578886622,-6.018369092520456,77.8940453739772
1590515571.3598304,-0.3207222203115865,-3.0404814802077245,8.798314819272965,0.4122222222222222,0.25,-0.5933333333333334,-2.0579861230525847,-6.056481497403446,81.61365727207071
1590515571.3698304,-0.3423594249750662,-3.054906283316711,8.747828008391513,0.4122222222222222,0.25,-0.5933333333333334,-1.9227535939058362,-5.876171458541115,83.14629260240052
1590515571.3798304,-0.37533096816357014,-3.0768873121090468,8.721556343945478,0.4122222222222222,0.25,-0.5933333333333334,-1.8222271496592288,-6.076364251703856,85.00682125851928
1590515571.3898304,-0.38,-3.1081951573203077,8.783439103970693,0.4122222222222222,0.25,-0.5933333333333334,-2.2089943998168255,-6.389329599877883,85.51432959987788
1590515571.3998303,-0.42018975151587207,-3.14,8.730126501010583,0.4266666666666667,0.22333333333333333,-0.6,-2.0023718939484008,-7.124604684341933,85.6238140530258
1590515571.4098303,-0.4501296023564065,-3.1401296023564065,8.749708394698086,0.4266666666666667,0.22333333333333333,-0.6,-2.3741899852724595,-7.063107511045655,85.43648748159058
1590515571.4198303,-0.4854277298548285,-3.1754277298548286,8.670287607826635,0.4266666666666667,0.22333333333333333,-0.6,-2.1535766884073215,-7.228567483694508,85.16072086050916
1590515571.4298303,-0.499209231933409,-3.1615815361331823,8.742883087400681,0.4266666666666667,0.22333333333333333,-0.6,-1.7796538024971622,-6.904653802497163,84.66453840332954
1590515571.4398303,-0.5258646716763584,-3.1793985037572687,8.814661679190896,0.4266666666666667,0.22333333333333333,-0.6,-1.9116541979772397,-6.7133458020227605,83.73590191112518
1590515571.4498303,-0.5723513808706506,-3.2223513808706508,8.874263535652988,0.43655181082158767,0.19008330299405352,-0.6,-1.9494509673896083,-6.422803869558433,82.54231354345451
1590515571.4598303,-0.5896177913951133,-3.210764417209773,8.899235582790228,0.4388888888888889,0.18222222222222226,-0.6,-1.8773888037805417,-6.5553335886583755,80.99244248695246
1590515571.4698303,-0.6558305884266602,-3.226457647106665,8.743652352486682,0.4388888888888889,0.18222222222222226,-0.6,-1.8235698527916717,-6.048198527916718,79.70317646700012
1590515571.4798303,-0.6791024131036183,-3.2755120655180914,8.791921717932565,0.4388888888888889,0.18222222222222226,-0.6,-1.9831702456928428,-5.823719836204772,77.56012729737873
1590515571.4898303,-0.6949384743176155,-3.227715339888346,8.785061525682384,0.4388888888888889,0.18222222222222226,-0.6,-1.8132690710298067,-5.625769071029807,75.88115256823845
1590515571.4998302,-0.69411171450737,-3.2217765709852597,8.75644685802948,0.4545909835359021,0.1710999051805879,-0.6085053012671321,-1.8236035686578744,-5.488896431342126,74.23414468580295
1590515571.5098302,-0.7488386806596702,-3.2234623688155923,8.720387106446777,0.4655555555555556,0.16333333333333333,-0.6144444444444445,-1.875,-5.274059220389805,72.0073931784108
1590515571.5198302,-0.78,-3.2015334143377885,8.70384447144593,0.4655555555555556,0.16333333333333333,-0.6144444444444445,-1.7211117861482381,-5.110555893074119,70.09583839611179
1590515571.5298302,-0.78,-3.09197537892265,8.6346502526151,0.4655555555555556,0.16333333333333333,-0.6144444444444445,-1.267618568988828,-4.705118568988828,67.6391473350886
1590515571.5398302,-0.8602625473437903,-3.157559142556862,8.831601261179083,0.4655555555555556,0.16333333333333333,-0.6144444444444445,-1.8259520811437864,-5.58267812171568,65.74507723730393
1590515571.5498302,-0.8811262263736953,-3.127883584615867,8.847883584615866,0.4783732285713291,0.14755773577545825,-0.6144444444444445,-1.4524280631915494,-5.161044807698335,64.13373938187631
1590515571.5598302,-0.9139921999645453,-3.1369960999822726,8.789011700053182,0.48,0.14555555555555555,-0.6144444444444445,-1.1094359377769898,-5.168725624889204,62.61906687644035
1590515571.5698302,-0.855307915191096,-3.067221404589983,8.788086510601111,0.48,0.14555555555555555,-0.6144444444444445,-2.376557972680863,-4.833715161201306,60.35337234972175
1590515571.5798302,-0.7786641734887009,-2.9043274120356646,8.782333021686087,0.48,0.14555555555555555,-0.6144444444444445,-2.112476626456571,-4.318732469842428,57.766580963674095
1590515571.5898302,-0.8252388255096316,-2.954892837104919,8.868962034785861,0.48,0.14555555555555555,-0.6144444444444445,-1.7521624275294558,-3.928027398541238,54.78974658687114
1590515571.5998302,-0.9263767761756799,-3.0904709702196,8.93,0.48861311858239553,0.11815017824793338,-0.6246235845872756,-0.6560241594805013,-3.6619112872255,50.50079426037775
1590515571.6098301,-1.0008388370151067,-3.204731395025178,8.845268604974823,0.4922222222222222,0.10666666666666667,-0.6288888888888889,-0.3029571218907361,-3.148385902983375,45.29730161441332
1590515571.6198301,-0.9873654242131361,-3.174730848426272,8.739461696852546,0.4922222222222222,0.10666666666666667,-0.6288888888888889,-0.8312090284489642,-2.8267231688868346,40.648604603521456
1590515571.6298301,-0.98,-3.168110759663325,8.669446201683376,0.4922222222222222,0.10666666666666667,-0.6288888888888889,-0.6451542647295341,-2.5472310084168766,35.37031241623331
1590515571.63983,-1.0000357901586634,-3.1499642098413365,8.713428773756435,0.4922222222222222,0.10666666666666667,-0.6288888888888889,-0.8129473769832916,-2.207811393519493,30.93123672223392
1590515571.64983,-1.0380440237226278,-3.182066035583942,8.747011005930657,0.4922222222222222,0.10666666666666667,-0.6639439185421736,-0.7622248517335767,-1.8434060646669708,25.550540673471716
1590515571.65983,-1.072033383915023,-3.2220333839150226,8.794066767830046,0.4922222222222222,0.10666666666666667,-0.6788888888888889,-0.7334028831562974,-1.6581942336874052,20.373672230652502
1590515571.66983,-1.1016886618419186,-3.240844330920959,8.766622676316164,0.4922222222222222,0.10666666666666667,-0.6788888888888889,-0.5805573293600114,-1.2861146587200227,16.52085994040017
1590515571.67983,-1.1074621182687079,-3.2625378817312924,8.786420467790816,0.4922222222222222,0.10666666666666667,-0.6788888888888889,-0.4375,-0.7649147175382702,11.593157490869531
1590515571.68983,-1.1195325240079725,-3.2895325240079725,8.824883131001993,0.4922222222222222,0.10666666666666667,-0.6788888888888889,-0.3764608624750861,-0.2892847436129734,7.8621693241529265
1590515571.69983,-1.127323444938427,-3.306830861234607,8.852183971357753,0.4922222222222222,0.09363798507560557,-0.6736069909465668,-0.29269288271629224,0.1021142345674155,4.4594587284101195
1590515571.70983,-1.094942701368172,-3.2848281041045158,8.839312416418064,0.4922222222222222,0.06555555555555556,-0.6622222222222223,-0.218391883551075,0.408756815142475,-0.4948925007715257
1590515571.71983,-1.0961320238176717,-3.319056190541373,8.724811785640956,0.4922222222222222,0.06555555555555556,-0.6622222222222223,-0.03419940455820958,0.8932760420231333,-5.662711313394018
1590515571.72983,-1.1222093360394316,-3.3796124480525758,8.719612448052576,0.4922222222222222,0.06555555555555556,-0.6622222222222223,0.2938472504107471,1.3863861505750459,-11.109017106407654
1590515571.73983,-1.12379722421061,-3.3775944484212204,8.73,0.4922222222222222,0.06555555555555556,-0.6622222222222223,0.33623265131631275,1.6938367434184363,-15.476387894694982
1590515571.74983,-1.1152874440479383,-3.3652874440479383,8.73,0.5011237167983388,0.0849293966918093,-0.6768835074064142,0.4303138988015429,2.048127797603086,-19.58401060252893
1590515571.75983,-1.1213008834228304,-3.3939026502684913,8.735650441711416,0.5111111111111111,0.10666666666666667,-0.6933333333333334,0.45655421791096484,2.45376104278538,-24.817090334314916
1590515571.76983,-1.13,-3.42,8.700016326530612,0.5111111111111111,0.10666666666666667,-0.6933333333333334,0.4106997084548105,2.633899416909621,-29.365080174927115
1590515571.77983,-1.13,-3.45965625,8.703046875,0.5111111111111111,0.10666666666666667,-0.6933333333333334,0.3548828125,2.72880859375,-33.87255859375
1590515571.78983,-1.1237844611528822,-3.48,8.769724310776944,0.5111111111111111,0.10666666666666667,-0.6933333333333334,0.4290413533834586,2.905388471177945,-37.65852130325815
1590515571.79983,-1.12,-3.4688670096241414,8.783300514436213,0.5154406073683894,0.11037766345861948,-0.6970443301252861,0.5,3.313115354321018,-41.038482720850666
1590515571.80983,-1.1033175322411992,-3.4878041129313346,8.786682467758801,0.5188888888888888,0.11333333333333333,-0.7,0.5,3.597255141164169,-44.43927762286511
1590515571.81983,-1.081708627543519,-3.5017086275435187,8.762688823945837,0.5188888888888888,0.11333333333333333,-0.7,0.5777316167795102,3.8322843114120273,-47.207116407398665
1590515571.82983,-1.0495390245618974,-3.493410162573017,8.73387113801112,0.5188888888888888,0.11333333333333333,-0.7,0.7514405482440707,4.231567580406784,-49.91648119149835
1590515571.83983,-0.991216524539232,-3.4699464392627712,8.825080341105842,0.5188888888888888,0.11333333333333333,-0.7,0.9454380329778799,4.60185541028172,-52.556235740060515
1590515571.84983,-0.9530113565456133,-3.407420441782104,8.832909022837889,0.5131426709375043,0.11799242896959107,-0.710871223151268,1.2284802820416822,5.084659303631598,-54.305753151129416
1590515571.85983,-0.9389784872967974,-3.387956974593595,8.660107466173464,0.4777777777777778,0.14666666666666667,-0.7777777777777778,0.8528229339044096,5.1071911807651125,-57.61055071546773
1590515571.86983,-0.9627896668241107,-3.4915129164698615,8.77626566871344,0.4777777777777778,0.14666666666666667,-0.7777777777777778,-0.7485239617774225,4.307472386731098,-60.08214947498456
1590515571.87983,-0.9352171775118833,-3.5104343550237664,8.532611047369285,0.4777777777777778,0.14666666666666667,-0.7777777777777778,0.34785281101458776,5.236395672840518,-61.076104327159484
1590515571.8898299,-0.9496570076877587,-3.5235884092253107,8.711873447664104,0.4777777777777778,0.14666666666666667,-0.7777777777777778,0.33657599053814313,5.205640153755175,-61.721141336487285
1590515571.8998299,-0.9756738032720662,-3.611914360735205,8.84375944253686,0.45758885971408697,0.14666666666666667,-0.7873915482842972,-0.06560922035952332,5.5150739749545545,-62.00842254090083
1590515571.9098299,-0.9641793428019161,-3.685820657198084,8.781641314396166,0.4311111111111111,0.14666666666666667,-0.8,0.27707160265568537,5.161379107488024,-61.610088032607784
1590515571.9198298,-0.9368024214742718,-3.7131975785257283,8.708808475159952,0.4311111111111111,0.14666666666666667,-0.8,0.2637159480180523,5.078761350660649,-60.97629161908905
1590515571.9298298,-0.8977892182969407,-3.7466580862772942,8.727737735960707,0.4311111111111111,0.14666666666666667,-0.8,0.2917739215338186,4.96529565358897,-60.13223045742352
1590515571.9398298,-0.8632851641753965,-3.76,8.723140656701585,0.4311111111111111,0.14666666666666667,-0.8,0.26429029853836283,4.902677425365409,-58.991048507308186
1590515571.9498298,-0.8567557440094665,-3.746488511981067,8.730801696085198,0.3988336675103266,0.12865134930808927,-0.7707251092923117,-0.17390420076915492,5.086117000295829,-57.508585198698356
1590515571.9598298,-0.86,-3.782091471816969,8.774030490605655,0.38333333333333336,0.12,-0.7566666666666667,-0.6567264157133795,5.055964150571972,-55.87867735514775
1590515571.9698298,-0.8470262711475861,-3.795675423715862,8.741078813442758,0.38333333333333336,0.12,-0.7566666666666667,-0.6959427964482754,5.0,-54.53711334494827
1590515571.9798298,-0.8248092289971924,-3.793460514001872,8.684809228997192,0.38333333333333336,0.12,-0.7566666666666667,-0.6358141062558491,4.945929468720754,-52.994121643510184
1590515571.9898298,-0.7968298430631926,-3.8068298430631926,8.675850784684037,0.38333333333333336,0.12,-0.7566666666666667,-0.7469404425651396,4.6875,-49.92395291895777
1590515571.9998298,-0.7881223601132158,-3.799061180056608,8.709061180056608,0.38526312988363937,0.11911333672012966,-0.7559886300408835,-0.8779338123231004,4.664029501415197,-47.74591225778359
1590515572.0098298,-0.7449222745455466,-3.7901554509089066,8.715388627272267,0.4244444444444445,0.10111111111111112,-0.7422222222222222,-1.3183294090840043,4.124028431819332,-43.79209706820598
1590515572.0198298,-0.74,-3.7814587853984123,8.678195951328041,0.4244444444444445,0.10111111111111112,-0.7422222222222222,-1.6102449391600517,3.869362347900129,-40.80038866152113
1590515572.0298297,-0.7352890867848442,-3.779421826430312,8.644710913215157,0.4244444444444445,0.10111111111111112,-0.7422222222222222,-1.2975111316474839,3.75,-38.57227169621104
1590515572.0398297,-0.706883783858409,-3.8044476350884944,8.684674324212386,0.4244444444444445,0.10111111111111112,-0.7422222222222222,-1.018059543860618,3.768059543860618,-36.52761824557528
1590515572.0498297,-0.6220507509062663,-3.85552736060763,8.77,0.42824002148186513,0.11318794713926772,-0.735666225521223,-0.9654539962023131,3.8125,-33.895995166580356
1590515572.0598297,-0.5703808204950667,-3.88377150770296,8.759619179504933,0.43666666666666665,0.14,-0.7211111111111111,-0.6980958975246668,3.8384520512376668,-31.364174744677168
1590515572.0698297,-0.6258973824173533,-3.852051308791323,8.70012827197831,0.43666666666666665,0.14,-0.7211111111111111,-0.5745189800813432,3.689103399728856,-27.000006517885076
1590515572.0798297,-0.6784172714078375,-3.783165457184325,8.688944847605224,0.43666666666666665,0.14,-0.7211111111111111,-0.7763039731494921,3.01648675616836,-21.220772859216254
1590515572.0898297,-0.6838495558351443,-3.7827610659956536,8.720460177665943,0.43666666666666665,0.14,-0.7211111111111111,-0.5808075031453734,2.524059723969652,-15.251327252278013
1590515572.0998297,-0.6074412424503882,-3.880879033649698,8.712480414150129,0.4451020228166043,0.0900367366503691,-0.6996982839612693,-0.05700603968938739,2.083006902502157,-9.658071613459878
1590515572.1098297,-0.6878968695090902,-3.8296157707892564,8.71607684584215,0.4511111111111111,0.054444444444444434,-0.6844444444444444,-0.1429474307024779,1.6405459981353319,-4.921005979488651
1590515572.1198297,-0.8001028657711787,-3.729691402686464,8.669382805372928,0.4511111111111111,0.054444444444444434,-0.6844444444444444,-1.0064291106986694,0.8692138003711976,0.21707390921387892
1590515572.1298296,-0.7480344286604629,-3.7788652726139564,8.660699103823257,0.4511111111111111,0.054444444444444434,-0.6844444444444444,-1.2025074681395198,0.27729228901162667,6.442440254883841
1590515572.1398296,-0.6902715834620518,-3.84,8.6935143889747,0.4511111111111111,0.054444444444444434,-0.6844444444444444,-0.8141973966378238,0.10812725882158872,10.623100152962524
1590515572.1498296,-0.6714018565451465,-3.84,8.680934571030097,0.4511111111111111,0.054444444444444434,-0.6844444444444444,-0.6962616034071653,-0.16705625871661445,13.650118845882758
1590515572.1598296,-0.6792039951573849,-3.8246019975786925,8.756194007263922,0.4088888888888889,0.09333333333333334,-0.6344444444444445,-0.9275499394673123,-0.9662624848668281,18.77052436440678
1590515572.1698296,-0.6706264188849824,-3.8978075339025615,8.710939628327473,0.4088888888888889,0.09333333333333334,-0.6344444444444445,-0.9716863385233551,-1.06054244098443,21.3983488196886
1590515572.1798296,-0.6219024053400852,-3.994975639697702,8.664390225188937,0.4088888888888889,0.09333333333333334,-0.6344444444444445,-0.7384144704031917,-1.046951125944681,23.48750095906702
1590515572.1898296,-0.5906048032189112,-4.036610398591726,8.654866402615365,0.4088888888888889,0.09333333333333334,-0.6344444444444445,-0.4853200050295486,-1.0184600150886458,25.859705064126743
1590515572.1998296,-0.7393469874726586,-3.9155100417578046,8.75355100417578,0.4088888888888889,0.1019319944322927,-0.627637171074435,-0.78826555975343,-1.645153111950686,29.122705806323324
1590515572.2098296,-0.8000535168195718,-3.76328873598369,8.743342252803263,0.4088888888888889,0.12,-0.6133333333333333,-0.9582218399592253,-1.7919454001019368,31.50250860091743
1590515572.2198296,-0.8636926129701452,-3.7023586182014974,8.690768467574637,0.4088888888888889,0.12,-0.6133333333333333,-0.875,-2.1480788310634074,34.584310453684495
1590515572.2298295,-0.8979896048246311,-3.666031185526107,8.608711712426599,0.4088888888888889,0.12,-0.6133333333333333,-0.8791883232820187,-2.387564969846056,36.65948113394699
1590515572.2398295,-0.8525891423064568,-3.756964343077417,8.723035656922583,0.4088888888888889,0.12,-0.6133333333333333,-0.959263572116929,-2.5625,40.59877931256023
1590515572.2498295,-0.8264729136800034,-3.8120739389200224,8.719709370520006,0.4110465267822234,0.13510346525334144,-0.6108160891244431,-0.8988607237499457,-2.6636392762500543,42.71342423650028
1590515572.2598295,-0.84,-3.894283299013764,8.694266392110112,0.4155555555555556,0.16666666666666666,-0.6055555555555555,-0.7589587623279506,-3.017917524655901,44.527087623279506
1590515572.2698295,-0.8752847338999228,-3.9252847338999226,8.675122028814252,0.4155555555555556,0.16666666666666666,-0.6055555555555555,-0.6864830932145616,-3.1565042266963594,45.377542266963594
1590515572.2798295,-0.8906236005104375,-3.930935400765656,8.69,0.4155555555555556,0.16666666666666666,-0.6055555555555555,-0.6230512484048829,-3.0966731273926755,45.626948751595116
1590515572.2898295,-0.8728396154644166,-3.9141980773220832,8.712716923715332,0.4155555555555556,0.16666666666666666,-0.6055555555555555,-0.474528840168753,-3.0177475966526037,45.42051922677917
1590515572.2998295,-0.8786412614980289,-3.943206307490145,8.75913009198423,0.4155555555555556,0.16666666666666666,-0.6055555555555555,-0.03940538764783175,-3.054007884362681,45.13043692509856
1590515572.3098295,-0.8458944658944659,-4.053693693693694,8.737258687258688,0.4355555555555555,0.16,-0.5911111111111111,-0.5650740025740025,-2.7114703989703988,44.07022200772201
1590515572.3198295,-0.6678032932440068,-4.2643934135119865,8.712458834449915,0.4355555555555555,0.16,-0.5911111111111111,0.10204995358786018,-2.568647086124788,42.55655596698684
1590515572.3298295,-0.7166713592992335,-4.264447572866156,8.636398665206737,0.4355555555555555,0.16,-0.5911111111111111,0.5208040043797904,-2.0729020021898954,41.394099666301685
1590515572.3398294,-0.8430312555904828,-4.25740908277748,8.73176135347185,0.4355555555555555,0.16,-0.5911111111111111,-0.12224788520023512,-2.3748402719210815,42.2687856193616
1590515572.3498294,-0.9619348910917797,-4.1477800256254636,8.671099871872682,0.43148223076404335,0.16,-0.5911111111111111,-0.23612516015914764,-3.230906290039787,43.96346790916448
1590515572.3598294,-1.0829820994298929,-4.1182107403420645,8.803439381254236,0.4222222222222222,0.16,-0.5911111111111111,-0.07181906071841486,-3.204274309293147,44.93091436431049
1590515572.3698294,-1.2138466608084357,-4.021318101933216,8.633517135325132,0.4222222222222222,0.16,-0.5911111111111111,-0.2541190685413005,-3.6895595342706504,47.50550582161687
1590515572.3798294,-1.263701239734681,-3.9845670799115602,8.68,0.4222222222222222,0.16,-0.5911111111111111,-0.43898674391977255,-3.653544249447252,49.36863722954833
1590515572.3898294,-1.2881927665214923,-3.9954618443476617,8.699116455216815,0.4222222222222222,0.16,-0.5911111111111111,-0.7442269456542322,-3.7899095815186516,51.393071861389885
1590515572.3998294,-1.3069664647154196,-3.994832323577097,8.753033535284581,0.42525575750680283,0.16,-0.592290819277337,-0.5719797977643144,-4.090939393292943,53.797732315043945
1590515572.4098294,-1.2973870676087467,-3.906306466195627,8.74783879717376,0.44222222222222224,0.16,-0.5988888888888889,-0.6019154137226669,-4.226915413722667,56.73588345109333
1590515572.4198294,-1.3116331284126923,-3.904899385238077,8.701834357936539,0.44222222222222224,0.16,-0.5988888888888889,-0.6237423154759631,-4.248742315475964,58.506433999007214
1590515572.4298294,-1.3543355216921784,-3.93,8.653132895661564,0.44222222222222224,0.16,-0.5988888888888889,-0.9160402989423885,-4.4981208968271655,59.77897611374895
1590515572.4398293,-1.4103620669337733,-3.936425288710818,8.658204984680651,0.44222222222222224,0.16,-0.5988888888888889,-0.9285440725901485,-4.381693009073769,60.39281610888522
1590515572.4498293,-1.293804931165902,-4.0080975344170495,8.785115890176558,0.44373035009030964,0.15421884317233156,-0.602156499269745,-1.2053356148401648,-4.3950839037100415,61.52907705918955
1590515572.4598293,-1.1568210042161746,-4.088944806439249,8.700823687236488,0.4488888888888889,0.13444444444444445,-0.6133333333333333,-0.6198519547719433,-4.3169245879647375,63.28973744729782
1590515572.4698293,-0.8467265596274054,-4.4720990317440865,8.630569677656576,0.4488888888888889,0.13444444444444445,-0.6133333333333333,-0.2039603505331536,-4.897020161784533,64.10454099767128
1590515572.4798293,-0.5726652601969058,-4.786192485432991,8.563667369901546,0.4488888888888889,0.13444444444444445,-0.6133333333333333,0.21993984830219007,-4.056236814345992,58.39365770042194
1590515572.4898293,-0.19679615861214378,-5.197598099958695,8.69227942998761,0.4488888888888889,0.13444444444444445,-0.6133333333333333,-0.03221292854192484,-2.9905023750516317,48.98356438455184
1590515572.4998293,-0.16361722719574162,-5.155811759012823,8.6309533026857,0.4578412237546039,0.11057155146920451,-0.6227830201360325,0.44285325429470124,-1.9125030244374546,37.29943443019599
1590515572.5098293,-1.0694433212287762,-4.382954362547846,8.935218765335165,0.4688888888888889,0.0811111111111111,-0.6344444444444445,0.7068566591422122,-0.8098537638629895,21.47258685837668
1590515572.5198293,-1.514267427639625,-4.117977714363365,9.037403995108031,0.4688888888888889,0.0811111111111111,-0.6344444444444445,-1.6829732300584317,-1.0730500067944013,6.276916021198533
1590515572.5298293,-1.4501843184838505,-4.080362088557616,8.398367327285683,0.4688888888888889,0.0811111111111111,-0.6344444444444445,-1.9772057548968625,-0.9556453554438473,-3.5284723425974076
1590515572.5398293,-1.6119414974813007,-3.9680585025186996,8.57684761868417,0.4688888888888889,0.0811111111111111,-0.6344444444444445,0.924583317432453,0.9257568023965806,-8.092508538772707
1590515572.5498292,-1.7479953442222562,-3.832004655777744,8.520825446496717,0.4688888888888889,0.0811111111111111,-0.6344444444444445,-1.5263867157685849,0.8757370058006411,-13.544666367730118
1590515572.5598292,-1.7535585347830678,-3.89,8.893896336957669,0.4622222222222222,0.0011111111111111113,-0.6266666666666667,1.148223899503853,2.272240842394173,-17.09431410324079
1590515572.5698292,-1.732517548990933,-3.897482451009067,8.822587744954665,0.4622222222222222,0.0011111111111111113,-0.6266666666666667,-0.0551445049722141,2.1952942198011116,-17.554998263381105
1590515572.5798292,-1.6702019267403254,-3.956532048839783,8.595926268618808,0.4622222222222222,0.0011111111111111113,-0.6266666666666667,1.0063102106351711,2.229587347375678,-16.237159600137883
1590515572.5898292,-1.647615318097591,-3.98073106856084,8.664038295243978,0.4622222222222222,0.0011111111111111113,-0.6266666666666667,0.3824521309450278,2.1651436071649166,-15.273553119209389
1590515572.5998292,-1.6363498789346247,-4.066349878934624,8.64857445520581,0.4671610169491525,-0.027463344094700026,-0.6139669087974173,0.4077349424939467,1.890861455811138,-13.804536168280872
1590515572.6098292,-1.675427831142568,-4.070146928715874,8.772860844287159,0.4933333333333334,-0.17888888888888888,-0.5466666666666666,0.26696197232052576,1.244652110717897,-12.284842249115268
1590515572.6198292,-1.6936153389619588,-3.9646926272662877,8.674692627266287,0.4933333333333334,-0.17888888888888888,-0.5466666666666666,0.3125,1.2432669480979457,-11.897595868512242
1590515572.6298292,-1.7070798550087873,-3.9270798550087873,8.634719903339192,0.4933333333333334,-0.17888888888888888,-0.5466666666666666,0.28300060413005274,1.606749093804921,-12.05549758347979
1590515572.6398292,-1.7124132348057124,-3.941206617402856,8.667586765194288,0.4933333333333334,-0.17888888888888888,-0.5466666666666666,0.22413909415476585,1.7133609058452342,-12.400860905845233
1590515572.6498291,-1.626095995809187,-3.9768169465998753,8.738408473299938,0.5266200293211393,-0.3002705475340776,-0.36932892424887315,0.3286411780113283,1.673423534033985,-12.086523507841404
1590515572.6598291,-1.4803452422198218,-4.132138096887928,8.788552387551714,0.6222222222222222,-0.6488888888888888,0.14,0.32586310554955467,1.7142262110991093,-11.24095242219822
1590515572.6698291,-1.4326213675457895,-4.154757264908421,8.694815555619053,0.6222222222222222,-0.6488888888888888,0.14,0.42378632454210363,1.6059465811355258,-11.219902777380918
1590515572.6798291,-1.3766248063279785,-4.212208268775993,8.660646252956047,0.6222222222222222,-0.6488888888888888,0.14,0.579555879474843,1.7848966403000897,-12.967458003751121
1590515572.689829,-1.337424954404034,-4.207725136787898,8.737424954404034,0.6222222222222222,-0.6488888888888888,0.14,0.4412522797983049,2.114534384722669,-15.872830168436863
1590515572.699829,-1.2999660917860276,-4.238581116632564,8.742871674948846,0.7318698236383124,-0.4133849101951996,0.10472207606612752,0.6918280473545747,2.5445520315697165,-19.701967626425024
1590515572.709829,-1.2276279480052594,-4.237389111728775,8.757389111728775,1.1333333333333333,0.4488888888888889,-0.024444444444444446,0.3127132466754323,2.469496363364013,-24.206590258475774
1590515572.719829,-1.332340595509545,-4.146638150558394,8.666638150558395,1.1333333333333333,0.4488888888888889,-0.024444444444444446,0.48723432584924187,3.0803201404723466,-27.04255779505018
1590515572.729829,-1.2122524743818417,-4.142252474381841,8.555049487636834,1.1333333333333333,0.4488888888888889,-0.024444444444444446,0.6830135435246389,3.223545754205575,-33.04176940160179
1590515572.739829,-1.219586961843808,-4.149586961843808,8.70173923687616,1.1333333333333333,0.4488888888888889,-0.024444444444444446,1.2789406498093938,3.5444295806665966,-36.433969852761166
1590515572.749829,-1.2413080120851412,-4.133459939574294,8.72691987914859,1.0863902329443775,0.4298500463162783,-0.09725711718397029,0.603375377660662,3.9649258308534563,-43.14451057449853
1590515572.759829,-1.2537383177570094,-4.0862616822429905,8.638753894080997,0.7744444444444445,0.3033333333333333,-0.5811111111111111,0.875,4.5625,-50.75
1590515572.769829,-1.28292159924468,-4.06584319848936,8.63876479773404,0.7744444444444445,0.3033333333333333,-0.5811111111111111,0.9845599716755029,4.7268399575132545,-52.46643955624955
1590515572.779829,-1.2891395409721615,-4.0782790819443235,8.663441836111353,0.7744444444444445,0.3033333333333333,-0.5811111111111111,1.2607557378479797,5.11962213107601,-56.764824592023736
1590515572.789829,-1.2732864099347183,-4.042097093159248,8.713427180130562,0.7744444444444445,0.3033333333333333,-0.5811111111111111,1.3610133540306633,5.118446583877347,-58.5157462734174
1590515572.799829,-1.2464583333333332,-3.992395833333333,8.7440625,0.7435532407407408,0.28956018518518517,-0.5978356481481482,1.279296875,5.356770833333333,-59.625651041666664
1590515572.809829,-1.218519360617335,-4.046173120205778,8.723576317119104,0.6,0.2255555555555556,-0.6755555555555556,1.1489179987138853,5.514664002572229,-60.71526198842497
1590515572.819829,-1.1932119682768565,-4.04,8.755695746214853,0.6,0.2255555555555556,-0.6755555555555556,1.3359881939437634,5.395074801730353,-61.18977559480894
1590515572.829829,-1.1666176875940886,-4.06408816233064,8.679441087293005,0.6,0.2255555555555556,-0.6755555555555556,1.4744489854334966,5.345955781014778,-61.50441156202956
1590515572.839829,-1.121769140112517,-4.121769140112517,8.755061484067511,0.6,0.2255555555555556,-0.6755555555555556,1.0933657245780615,5.427211425140646,-61.67721142514065
1590515572.849829,-1.0789214574499557,-4.077842914899911,8.726764372349868,0.5910121454162969,0.22471668912774329,-0.6743571749443952,1.290445345626664,5.3682591090622225,-61.59803643624889
1590515572.859829,-1.063377707018587,-4.0677260084783144,8.704414861987608,0.5166666666666667,0.21777777777777774,-0.6644444444444444,1.5836106688661693,5.319398221855638,-61.34050889072181
1590515572.869829,-1.0151054034872347,-4.12404369593156,8.736596397675177,0.5166666666666667,0.21777777777777774,-0.6644444444444444,1.281908771795216,5.369681871367464,-61.08909064316268
1590515572.879829,-0.9179872983385505,-4.143898386708404,8.666038104984349,0.5166666666666667,0.21777777777777774,-0.6644444444444444,1.2877381561521792,5.5499206146159406,-60.187103073079705
1590515572.889829,-0.9116751444738743,-4.093401155790994,8.684974566578378,0.5166666666666667,0.21777777777777774,-0.6644444444444444,1.4060910411148568,5.5104696529617145,-59.98984826480857
1590515572.899829,-0.7372696827619801,-4.238054557632588,8.711689399013578,0.5088737339909477,0.22583047487602073,-0.6693799684723998,1.5413825123302685,5.577111748766973,-59.41478224136881
1590515572.909829,-0.6231210661199384,-4.336878933880062,8.715605330599693,0.4833333333333333,0.25222222222222224,-0.6855555555555556,1.2774666837519222,5.6035033316248075,-59.98646335212712
1590515572.919829,-0.6081379323258993,-4.336965526281295,8.646275864651798,0.4833333333333333,0.25222222222222224,-0.6855555555555556,1.6176724622212235,5.550862077036871,-60.62370676741007
1590515572.929829,-0.6002838791828174,-4.281987154279722,8.630567758365636,0.4833333333333333,0.25222222222222224,-0.6855555555555556,1.3231454693556541,5.5017742448926095,-61.409112081718256
1590515572.9398289,-0.6335224791153939,-4.181250303303408,8.636136087905992,0.4833333333333333,0.25222222222222224,-0.6855555555555556,1.3615051648237373,5.595170109882492,-62.89701549447121
1590515572.9498289,-0.6989471038857499,-4.101286873028528,8.708830115428611,0.4833333333333333,0.25222222222222224,-0.6855555555555556,1.4978064664286457,5.686037644285764,-63.30591939928594
1590515572.9598289,-0.724217155579377,-4.101325733369066,8.751325733369066,0.4711111111111111,0.2611111111111111,-0.7,1.4819286111855532,5.606928611185554,-62.281643612525514
1590515572.9698288,-0.6925037786000938,-4.08194402459999,8.714447803200084,0.4711111111111111,0.2611111111111111,-0.7,1.3888993850002607,5.538199692500131,-61.10944584875176
1590515572.9798288,-0.6063875917964331,-4.099074938802378,8.659074938802378,0.4711111111111111,0.2611111111111111,-0.7,1.215859183757431,5.4091408162425685,-59.26789387612367
1590515572.9898288,-0.5527378745913076,-4.123645640267394,8.69,0.4711111111111111,0.2611111111111111,-0.7,1.3125,5.301152929048918,-57.42075272288053
1590515572.9998288,-0.48286053437181115,-4.062502967575335,8.69,0.4711111111111111,0.2611111111111111,-0.7,1.3125,5.191969584955955,-55.455452529207186
1590515573.0098288,-0.42299844126399316,-4.06,8.730715399097148,0.4168239123149142,0.27106376422374723,-0.6882377735941574,1.3633942488714346,4.831240257899958,-53.64459553837122
1590515573.0198288,-0.41944244345195214,-4.14498199106757,8.683345339288287,0.4044444444444445,0.2733333333333333,-0.6855555555555556,1.1979541852758968,4.572954185275897,-51.774618210632475
1590515573.0298288,-0.37378324053323475,-4.02983642538641,8.68,0.4044444444444445,0.2733333333333333,-0.6855555555555556,1.1875,4.504729050666543,-50.70539386133124
1590515573.0398288,-0.3196294917840594,-3.9696294917840595,8.63682527867205,0.4044444444444445,0.2733333333333333,-0.6855555555555556,1.232473668049947,4.544973668049947,-49.950394979250795
1590515573.0498288,-0.22965546272909787,-4.010147658830387,8.740098439220258,0.40438428714317587,0.273568493692838,-0.6853750836517497,1.1890381128165275,4.5615771323100835,-49.000307622563305
1590515573.0598288,-0.15568307378390345,-4.0335246106758555,8.74704922135171,0.3922222222222223,0.3211111111111111,-0.6488888888888888,1.4865096055746982,4.415471183275905,-49.17042315540241
1590515573.0698287,0.09248909575246625,-4.371453411785369,8.480583999297444,0.3922222222222223,0.3211111111111111,-0.6488888888888888,-0.14805443341822544,6.176762243494043,-55.86938504434882
1590515573.0798287,3.2101294157227773,-12.746033643602109,3.151296848715936,0.3922222222222223,0.3211111111111111,-0.6488888888888888,-59.93211842547942,55.0887574296288,-311.5436665919031
1590515573.0898287,-8.174095039757667,-5.7899240607513995,4.999622828053346,0.3922222222222223,0.3211111111111111,-0.6488888888888888,-123.21390782111153,63.744098142538604,-571.2873503828516
1590515573.0998287,0.9114966522252855,0.9326033871602993,-0.0037022449783379284,0.39205767800096286,0.3221258004755445,-0.6488888888888888,-109.66525534987528,-4.707455363003807,-110.2188935932782
1590515573.1098287,-0.47480913287447823,-0.09254388147165325,-0.1432404566437239,0.3855555555555555,0.3622222222222222,-0.6488888888888888,-95.95165782126766,-16.378369716947233,-56.0476977775935
1590515573.1198287,-0.011055919506869016,0.10455123420958065,-0.12005279597534345,0.3855555555555555,0.3622222222222222,-0.6488888888888888,-94.28504471072782,-19.820288097409957,-52.35216435857036
1590515573.1298287,-0.6652279069767442,0.04586046511627909,1.8791255813953485,0.3855555555555555,0.3622222222222222,-0.6488888888888888,14.782383720930241,43.55029069767441,-48.94825581395349
1590515573.1398287,2.0886153535172047,-0.8895384511724014,8.457565807205103,0.3855555555555555,0.3622222222222222,-0.6488888888888888,97.8186301208337,-2.5327393652861403,-46.401599418291255
1590515573.1498287,0.04879378315341898,-0.43806084748911234,5.713274577390658,0.38046392426400266,0.37129169046030075,-0.6457861760705988,179.38656886623048,10.317224039711862,-43.9143700076369
1590515573.1598287,4.749623315238704,2.1244539618980784,7.808303576957213,0.31890200692136755,0.4809488557268697,-0.6082718826899305,215.04318329583685,-10.784565986914075,-39.856333464054984
1590515573.1698287,-0.0011184759328147775,0.007525419907563972,-0.9121010032690791,0.3144444444444445,0.4888888888888889,-0.6055555555555555,55.070740333671516,-19.32562422500282,-13.83834122421373
1590515573.1798286,0.4071492918272359,0.09000750713177517,0.7371668084680447,0.3144444444444445,0.4888888888888889,-0.6055555555555555,-2.769005555277513,7.053904334117411,1.3707803663480305
1590515573.1898286,0.5855989047538016,0.2731859598100336,1.9596517797750723,0.3144444444444445,0.4888888888888889,-0.6055555555555555,-58.796308184954285,21.636522902711818,14.174279310984948
1590515573.1998286,0.17034094952276346,-0.31077053973361385,2.6344459570255094,0.3144444444444445,0.4888888888888889,-0.6055555555555555,-80.8568870566032,21.43376022925916,22.325338783781696
1590515573.2098286,0.6417914142870877,-2.491597923276608,10.34486948370349,0.3022222222222222,0.4455555555555555,-0.6577777777777778,-1.6921269589462549,-7.18261164791847,24.090306821459475
1590515573.2198286,0.8881995796312219,-4.848371070985001,16.26036925575619,0.3022222222222222,0.4455555555555555,-0.6577777777777778,50.17737890513041,1.0943083022833668,31.317620258908953
1590515573.2298286,0.25458359886818427,-2.50237375411048,7.124406434015652,0.3022222222222222,0.4455555555555555,-0.6577777777777778,15.605575594585638,-9.179344362588902,32.458565410793035
1590515573.2398286,0.4255958400627915,-2.867021478921073,10.219830342183513,0.3022222222222222,0.4455555555555555,-0.6577777777777778,-30.570751762237553,-4.805855760667764,37.48364175635085
1590515573.2498286,0.21667537093779718,-2.4238568474438122,9.004293067274457,0.3022222222222222,0.4455555555555555,-0.6577777777777778,-15.059989660533425,5.481894612911503,41.559173635114945
1590515573.2598286,0.26495595908215364,-2.999832251790623,8.207566061376768,0.2966666666666667,0.4477777777777778,-0.6622222222222223,12.069612234211657,-7.864418725338021,43.420854917434966
1590515573.2698286,-0.0801699923325791,-4.356804742580367,8.725254988498868,0.2966666666666667,0.4477777777777778,-0.6622222222222223,-4.549378892151179,-2.864014315635928,46.55836356665981
1590515573.2798285,-1.6573024236037934,-24.562969441517385,8.070054794520548,0.2966666666666667,0.4477777777777778,-0.6622222222222223,-11.87891201264489,-6.583798735511064,91.55372760800843
1590515573.2898285,0.07040042149631187,-4.569831401475238,10.786164383561644,0.2966666666666667,0.4477777777777778,-0.6622222222222223,-4.1444283456269755,-17.432165437302423,188.33522128556376
1590515573.2998285,15.929868759152324,-19.308908628740365,3.4835280302820992,0.2966666666666667,0.4477777777777778,-0.6622222222222223,18.39587592904705,-13.990319260630509,219.08605082474512
1590515573.3098285,2.627094301047789,-6.057094301047789,10.329240991566573,0.3385347985347985,0.4351199704688077,-0.6583275122810007,-13.93184577050856,-24.555024916943523,105.02430999233326
1590515573.3198285,-1.244397215673066,0.9681246210845403,9.589603907039407,0.34444444444444444,0.43333333333333335,-0.6577777777777778,6.786947064106882,13.514269675536095,-49.915841472998764
1590515573.3298285,-1.483056333248494,0.04962055654534653,8.364732756426571,0.34444444444444444,0.43333333333333335,-0.6577777777777778,14.011311455416985,26.85659651522864,-46.165801041401544
1590515573.3398285,-0.7623603992446722,-3.012360399244672,11.09297731941649,0.34444444444444444,0.43333333333333335,-0.6577777777777778,-10.44980390529352,-7.355472235479654,-43.758752931045215
1590515573.3498285,-0.4229241974642568,-2.6729241974642566,9.448017264634476,0.34444444444444444,0.43333333333333335,-0.6577777777777778,-8.219533989749124,-3.7108848125168596,-35.81681615861883
1590515573.3598285,-3.504887129873937,-8.933977854452788,7.044081140202513,0.38333333333333336,0.3944444444444444,-0.6622222222222223,2.106872843515324,2.932269467559705,-5.907500902058951
1590515573.3698285,-0.7942433365446371,-8.322739844251766,9.577736231535003,0.38333333333333336,0.3944444444444444,-0.6622222222222223,-5.78904870142903,-3.2752275509794475,46.8165354548009
1590515573.3798285,-1.114136159280668,-1.5460629415542702,9.922883750802825,0.38333333333333336,0.3944444444444444,-0.6622222222222223,3.4183927424534364,-6.168994861913937,28.769950224791266
1590515573.3898284,-0.518769730314783,-1.9560604762334264,7.126543023360693,0.38333333333333336,0.3944444444444444,-0.6622222222222223,7.807547690989447,6.046935600252549,-5.439296867953459
1590515573.3998284,-0.3656701995012469,-3.52550187032419,8.301988778054863,0.38333333333333336,0.3944444444444444,-0.6622222222222223,-1.9263365024937666,-0.022443890274313816,-11.620090399002494
1590515573.4098284,0.26985998158661956,-3.848142550253184,8.212748197023169,0.3676406577668662,0.3990599372581113,-0.6622222222222223,-2.660464937854841,-0.5835722916986343,-8.212389232008594
1590515573.4198284,-0.03037910073778479,-4.065023896802932,8.852909841770684,0.3644444444444445,0.4,-0.6622222222222223,1.5450820147556958,0.45094775184446195,1.3119663820704375
1590515573.4298284,0.09698835078754056,-4.605153893997209,8.539247087696884,0.3644444444444445,0.4,-0.6622222222222223,-0.9872087696885139,0.10617719242212846,0.0625
1590515573.4398284,0.06878616214762392,-4.372485837717897,8.532196540536905,0.3644444444444445,0.4,-0.6622222222222223,-0.2821540536905982,-0.07008648657735045,0.0625
1590515573.4498284,0.06,-4.455531616934181,8.491117095766455,0.3644444444444445,0.4,-0.6622222222222223,-0.0625,0.11801815145965747,0.013896369708068512
1590515573.4598284,0.06,-4.291508587343339,8.800183240865588,0.3694085256981745,0.4,-0.6589128347197356,0.21672957052231384,0.1875,0.09307652350743795
1590515573.4698284,0.05201826881252719,-4.466972596781209,8.637063940843845,0.3711111111111111,0.4,-0.6577777777777778,-0.6496574597651152,0.1875,-0.16227163984341017
1590515573.4798284,0.06971634875461581,-4.439716348754616,8.697730790036927,0.3711111111111111,0.4,-0.6577777777777778,-0.3125,0.1866135898581744,0.061613589858174375
1590515573.4898283,0.050010840311004785,-4.419983739533492,8.540119243421051,0.3711111111111111,0.4,-0.6577777777777778,-0.3122289922248804,0.12496612402811005,-3.3875971889952154e-05
1590515573.4998283,0.06568929425837321,-4.3964660586124396,8.712582236842104,0.3711111111111111,0.4,-0.6577777777777778,0.07973235645933013,0.07597095544258373,-0.04902904455741627
1590515573.5098283,0.05087959761081422,-4.39,8.72175919522163,0.3647376436480492,0.394688777114115,-0.6620267560864858,-0.23075880226343914,0.1820025149324112,-0.1222512574662056
1590515573.5198283,0.06960054386047167,-4.399600543860472,8.701611421069906,0.3644444444444445,0.3944444444444444,-0.6622222222222223,-0.024966008720521356,0.12250339912794786,0.06499660087205214
1590515573.5298283,0.0597681016694804,-4.390927593322078,8.503014678296754,0.3644444444444445,0.3944444444444444,-0.6622222222222223,-0.6163038126055149,0.06684809369724254,0.12210127086850497
1590515573.5398283,0.050039694187037895,-4.429761834877772,8.630158776748152,0.3644444444444445,0.3944444444444444,-0.6622222222222223,-0.24975191133101318,0.24950382266202636,0.00024808866898681987
1590515573.5498283,0.05590199449313039,-4.3945880330412175,8.653607977972522,0.3644444444444445,0.3944444444444444,-0.6622222222222223,-0.21311253441793507,0.17622506883587014,0.03688746558206494
1590515573.5598283,0.05487120104014302,-4.375128798959857,8.73667438647814,0.3644444444444445,0.3944444444444444,-0.6553838236090795,0.03688495449374288,0.15705499349910612,0.09455499349910612
1590515573.5698283,0.059714600765388856,-4.370285399234612,8.70285399234611,0.3644444444444445,0.3944444444444444,-0.6488888888888888,-0.2964462930531232,0.24821625478368037,0.06428374521631963
1590515573.5798283,0.06807706681878087,-4.386154133637562,8.61922933181219,0.3644444444444445,0.3944444444444444,-0.6488888888888888,-0.4639450028521411,0.3004816676173804,-0.13942667046952142
1590515573.5898283,0.060859310619192405,-4.435703446904038,8.590859310619193,0.3644444444444445,0.3944444444444444,-0.6488888888888888,-0.5571293086300475,0.36962930863004745,-0.016112074109857655
1590515573.5998282,0.06,-4.401068541933419,8.699008082586428,0.3644444444444445,0.3944444444444444,-0.6488888888888888,-0.22184974191741358,0.3263356774167734,-0.04866432258322663
1590515573.6098282,0.06,-4.409239828026668,8.665867239911107,0.37655841023901343,0.3944444444444444,-0.6545895786745684,-0.044834049888881955,0.3125,-0.10258297505555902
1590515573.6198282,0.06,-4.3718537308773024,8.755180299719013,0.38333333333333336,0.3944444444444444,-0.6577777777777778,0.24073134561348736,0.07176865438651264,0.05554850921011553
1590515573.6298282,0.07422479006176695,-4.412674370185301,8.603527309320564,0.38333333333333336,0.3944444444444444,-0.6577777777777778,-0.19452468943021722,0.0625,0.018047531056978275
1590515573.6398282,0.06250345781466113,-4.3600138312586445,8.662475795297372,0.38333333333333336,0.3944444444444444,-0.6577777777777778,-0.21096991701244813,0.007823305670816044,0.054676694329183956
1590515573.6498282,0.06,-4.40043412459491,8.642174406553817,0.38333333333333336,0.3944444444444444,-0.6577777777777778,-0.3057049795193209,0.15760663935909458,0.10190165983977365
1590515573.6598282,0.05277264462503247,-4.386635867750194,8.721182975249546,0.3744998989861508,0.40327787879162696,-0.6457321854861652,-0.013632231251623439,0.25,0.07982902890645294
1590515573.6698282,0.05,-4.396327138492872,8.6985700101833,0.3711111111111111,0.4066666666666667,-0.6411111111111111,0.07015179480651731,0.19515179480651731,0.007651794806517308
1590515573.6798282,0.04023149366023044,-4.351157468301152,8.67046298732046,0.3711111111111111,0.4066666666666667,-0.6411111111111111,0.12355316462355975,0.06539367075288051,-0.12210632924711949
1590515573.6898282,0.04,-4.398739465875371,8.60176474777448,0.3711111111111111,0.4066666666666667,-0.6411111111111111,-0.36239465875370924,0.1843486646884273,-0.06407566765578634
1590515573.6998281,0.047308661839635294,-4.385382676320729,8.658469294717081,0.3711111111111111,0.4066666666666667,-0.6411111111111111,-0.375,0.1875,-0.01682086350227943
1590515573.7098281,0.05,-4.408337768409959,8.66583111579502,0.375046912279161,0.39800790409695685,-0.6411111111111111,-0.2864444737188776,0.05466671057831643,0.0
1590515573.7198281,0.05956566188543635,-4.381737352458255,8.746090956968928,0.37666666666666665,0.3944444444444444,-0.6411111111111111,0.04892693391988595,0.0597853867839772,0.0597853867839772
1590515573.7298281,0.06,-4.38,8.637431811871249,0.37666666666666665,0.3944444444444444,-0.6411111111111111,-0.09985796364723726,0.0625,0.1707386424314915
1590515573.739828,0.06959355498170863,-4.418374219926834,8.658374219926834,0.37666666666666665,0.3944444444444444,-0.6411111111111111,-0.125,0.2423791559070368,-0.05233887454271574
1590515573.749828,0.05558239877333429,-4.405582398773334,8.631164797546669,0.37666666666666665,0.3944444444444444,-0.6411111111111111,-0.39533002299998216,0.38516501149999105,-0.0625
1590515573.759828,0.05565357649791389,-4.405653576497914,8.653921458987483,0.3735257908344923,0.3944444444444444,-0.6530464392733738,-0.32332573444019097,0.2961605875521528,-0.027165146888038193
1590515573.769828,0.06,-4.376594166698689,8.671648541674672,0.3711111111111111,0.3944444444444444,-0.6622222222222223,0.17787630173308228,0.23969661453329746,0.0
1590515573.779828,0.05338887523264389,-4.376611124767356,8.650166625697931,0.3711111111111111,0.3944444444444444,-0.6622222222222223,0.2086804702040243,0.2086804702040243,-0.041319529795975696
1590515573.789828,0.05814079746880955,-4.38,8.656281594937619,0.3711111111111111,0.3944444444444444,-0.6622222222222223,-0.11777990508035813,0.13662001581994032,0.09013995254017906
1590515573.799828,0.06541968194078027,-4.396259045822341,8.66,0.3711111111111111,0.3944444444444444,-0.6622222222222223,-0.3229920485195066,0.15887301212987665,-0.010492048519506553
1590515573.809828,0.06182362015124723,-4.41,8.668176379848752,0.3683856511615269,0.39671566106909795,-0.6535915990485387,-0.41194881297264757,0.13639762594529514,-0.09944881297264757
1590515573.819828,0.04406561085972851,-4.398131221719457,8.703737556561085,0.3644444444444445,0.4,-0.6411111111111111,-0.22664027149321267,0.285039592760181,-0.13667986425339368
1590515573.829828,0.057708587257617724,-4.398854293628809,8.613748476454294,0.3644444444444445,0.4,-0.6411111111111111,-0.125,0.2714819944598338,-0.1321606648199446
1590515573.839828,0.06,-4.4,8.65899600020252,0.3644444444444445,0.4,-0.6411111111111111,-0.125,0.25,0.07984722292542148
1590515573.849828,0.05537544568065639,-4.386126337041969,8.680750891361312,0.3644444444444445,0.4,-0.6411111111111111,-0.26951732247948795,0.25,0.10078960651230723
1590515573.859828,0.0563730550427608,-4.376373055042761,8.701865275213805,0.35948762385563054,0.4,-0.6368624077492706,-0.2383420299137249,0.17033681196548994,-0.03983159401725502
1590515573.869828,0.06826158093874629,-4.413046323754985,8.695215257183762,0.3566666666666667,0.4,-0.6344444444444445,-0.125,0.22826976173432867,0.040769761734328655
1590515573.879828,0.06281549626903812,-4.405630992538076,8.625339466421343,0.3566666666666667,0.4,-0.6344444444444445,0.09951574159255852,0.20509685168148828,-0.07220944495553511
1590515573.889828,0.044090023437720616,-4.39204501171886,8.655684917967978,0.3566666666666667,0.4,-0.6344444444444445,-0.06109338378561546,0.1875,-0.07528132324287691
1590515573.899828,0.06100036310820625,-4.382999878963931,8.698000484144275,0.3566666666666667,0.4,-0.6344444444444445,-0.16875075647542967,0.1875,-0.018749243524570323
1590515573.909828,0.04960882773858244,-4.40718822968189,8.71,0.3664846384962381,0.4,-0.6503042450922136,-0.2724632177559065,0.1875,0.04248160887795325
1590515573.919828,0.05273774713044996,-4.400893379304325,8.690893379304326,0.3711111111111111,0.4,-0.6577777777777778,-0.1930836206520316,0.14769454021734385,0.022694540217343864
1590515573.929828,0.050754699746058424,-4.399245300253941,8.647641449111203,0.3711111111111111,0.4,-0.6577777777777778,-0.03832531011929774,0.18278312658713486,0.028891563293567422
1590515573.939828,0.04888675760159136,-4.4011132423984085,8.623330136402387,0.3711111111111111,0.4,-0.6577777777777778,0.006957764990053995,0.25,0.034728882495026994
1590515573.949828,0.055748258079117964,-4.39,8.661258709604411,0.3711111111111111,0.4,-0.6577777777777778,-0.14222016101653814,0.25,-0.026573387005512716
1590515573.959828,0.052379905340439015,-4.39,8.692379905340438,0.3769286574988509,0.3986778303664228,-0.6588355134846395,-0.3094976335109753,0.23512559162225619,-0.03275118324451235
1590515573.969828,0.06,-4.4032002824772025,8.693399858761397,0.3955555555555556,0.3944444444444444,-0.6622222222222223,-0.3762473517762289,0.06374735177622892,0.021249117258742983
1590515573.979828,0.06,-4.387299245024022,8.644598490048045,0.3955555555555556,0.3944444444444444,-0.6622222222222223,-0.1233270418668497,0.09458647906657515,0.09458647906657515
1590515573.9898279,0.05245344835713949,-4.38,8.675279309857164,0.3955555555555556,0.3944444444444444,-0.6622222222222223,0.07899784330363455,0.2664978433036346,0.07783405223212181
1590515573.9998279,0.05636934698741643,-4.38,8.702738693974833,0.3955555555555556,0.3944444444444444,-0.6622222222222223,0.04538316265729464,0.3125,-0.01711683734270536
1590515574.0098279,0.06,-4.385461298334358,8.71,0.38523976981287805,0.3901967679621654,-0.6597949785180628,-0.10239934376922552,0.14183442705129082,-0.028366885410258162
1590515574.0198278,0.06,-4.4048926530750245,8.687661020387463,0.37666666666666665,0.38666666666666666,-0.6577777777777778,-0.2340395408594516,0.2792372451567096,0.0
1590515574.0298278,0.05262033003583614,-4.41,8.613582970322526,0.37666666666666665,0.38666666666666666,-0.6577777777777778,-0.25,0.28275412544795175,-0.046122937276024116
1590515574.0398278,0.05775968263910638,-4.394480634721787,8.636558095834639,0.37666666666666665,0.38666666666666666,-0.6577777777777778,-0.15300396701117025,0.34699603298882975,-0.014001983505585132
1590515574.0498278,0.06,-4.39,8.662129663297215,0.37666666666666665,0.38666666666666666,-0.6577777777777778,-0.08709480219620391,0.18547401098101954,0.07581039560759217
1590515574.0598278,0.052619714212994946,-4.39,8.706901428935026,0.3619060950926566,0.39650704771600676,-0.6405571109414326,-0.15475357233756318,0.15475357233756318,0.03274642766243682
1590515574.0698278,0.05,-4.39,8.705407573879985,0.3566666666666667,0.4,-0.6344444444444445,-0.3243039948751339,0.09629733674991073,0.0
1590515574.0798278,0.056951551963269405,-4.396951551963269,8.630484480367306,0.3566666666666667,0.4,-0.6344444444444445,-0.24465840068869865,0.14939439954086758,-0.043447199770433785
1590515574.0898278,0.06,-4.388106974091576,8.635679077725273,0.3566666666666667,0.4,-0.6344444444444445,-0.22466570596382598,0.15033429403617402,0.011831411927651955
1590515574.0998278,0.06,-4.383538666538233,8.670615999614698,0.3566666666666667,0.4,-0.6344444444444445,-0.20576666827208656,0.14711666586395672,0.01826666827208657
1590515574.1098278,0.059312023365244194,-4.389312023365244,8.691375953269512,0.3572017596048101,0.39961779075846904,-0.6349030955342817,-0.12929985396722377,0.18320014603277623,-0.05820014603277625
1590515574.1198277,0.04464974075743913,-4.396050777727683,8.715350259242562,0.3644444444444445,0.3944444444444444,-0.6411111111111111,-0.1540608797339946,0.0915608797339946,-0.03343912026600541
1590515574.1298277,0.04,-4.416322407494843,8.637808702567034,0.3644444444444445,0.3944444444444444,-0.6411111111111111,-0.2040300936855446,0.022984953157227705,-0.022984953157227705
1590515574.1398277,0.05499778989244144,-4.400002946810078,8.624994843082364,0.3644444444444445,0.3944444444444444,-0.6411111111111111,-0.15626381317224103,0.03124539560925298,0.06249079121850596
1590515574.1498277,0.066278619232124,-4.383721380767875,8.67860690383938,0.3644444444444445,0.3944444444444444,-0.6411111111111111,-0.0625,0.13227588939767526,0.125
1590515574.1598277,0.06472558346546496,-4.394725583465465,8.71945116693093,0.3576186016609951,0.4002201575689016,-0.6379607221341345,-0.032965103340843974,0.19093020668168795,0.06593020668168795
1590515574.1698277,0.06307061448471327,-4.393070614484714,8.702282457938853,0.35,0.4066666666666667,-0.6344444444444445,-0.17323463788216847,0.125,0.08661731894108424
1590515574.1798277,0.06,-4.4064367042749195,8.629732084325294,0.35,0.4066666666666667,-0.6344444444444445,-0.3527294017182486,0.19348626781216577,0.056513732187834245
1590515574.1898277,0.053866780995439845,-4.4016003429863195,8.6106660950228,0.35,0.4066666666666667,-0.6344444444444445,-0.32250214366449703,0.173334762442998,-0.03833261877850099
1590515574.1998277,0.06771716277525727,-4.39,8.677245767400686,0.35,0.4066666666666667,-0.6344444444444445,-0.17617848843642803,0.125,0.011321511563571987
1590515574.2098277,0.0678512091563596,-4.39,8.71,0.35404959694788013,0.3992424055955531,-0.6432185711648514,-0.049070057227247554,0.16296497138637622,0.0625
1590515574.2198277,0.06,-4.39,8.723709131905299,0.3566666666666667,0.3944444444444444,-0.6488888888888888,-0.04284103720405862,0.05897688838782414,0.14818207440811726
1590515574.2298276,0.06,-4.39,8.641450758660177,0.3566666666666667,0.3944444444444444,-0.6488888888888888,-0.10507175064414544,0.0,0.0597847480675637
1590515574.2398276,0.06,-4.396620181616012,8.646341271312084,0.3566666666666667,0.3944444444444444,-0.6488888888888888,-0.04224772979985175,0.0,0.12412840530022239
1590515574.2498276,0.06,-4.4,8.67,0.3566666666666667,0.3944444444444444,-0.6488888888888888,0.0,0.0,0.11664905300675536
1590515574.2598276,0.06,-4.4,8.67,0.3566666666666667,0.3944444444444444,-0.6488888888888888,0.0,0.0,0.008006444527332263
1590515574.2698276,0.0700299080604069,-4.40504486209061,8.69495513790939,0.3644444444444445,0.3944444444444444,-0.6711111111111111,0.1251869253775431,0.03153038806631467,0.09403038806631467
1590515574.2798276,0.05272862382242251,-4.413182155955606,8.611821559556056,0.3644444444444445,0.3944444444444444,-0.6711111111111111,0.1448884747225352,0.1676115252774648,0.017053898890140695
1590515574.2898276,0.05113536609050301,-4.41,8.61340609827151,0.3644444444444445,0.3944444444444444,-0.6711111111111111,-0.014192076131287645,0.08310594290153428,0.04189405709846572
1590515574.2998276,0.050897362658288106,-4.405448681329144,8.649102637341713,0.3644444444444445,0.3944444444444444,-0.6711111111111111,-0.03966277492145101,0.0,0.011217033228601361
1590515574.3098276,0.048002688284958205,-4.395998655857521,8.688009408997354,0.3644444444444445,0.3993349761741411,-0.6657759855878056,0.11251680178098879,0.0,-0.049974797328516826
1590515574.3198276,0.06,-4.39,8.720261989665964,0.3644444444444445,0.4066666666666667,-0.6577777777777778,0.21793128229386508,0.030431282293865075,-0.028793846881595225
1590515574.3298275,0.04992035334153935,-4.39,8.664641590036927,0.3644444444444445,0.4066666666666667,-0.6577777777777778,0.15550331257693145,0.031001104192310475,-0.030503312576931438
1590515574.3398275,0.045343402050490575,-4.39534340205049,8.62534340205049,0.3644444444444445,0.4066666666666667,-0.6577777777777778,0.02910373718443391,0.0,-0.037688788446698276
1590515574.3498275,0.05486520178179642,-4.4,8.664056412472576,0.3644444444444445,0.4066666666666667,-0.6577777777777778,0.0,-0.030407511136227642,-0.06418497772754472
1590515574.3598275,0.055688814326401624,-4.4,8.7,0.36109130003164575,0.40379254288426775,-0.6577777777777778,0.08083473137996956,0.018334731379969563,0.026944910459989858
1590515574.3698275,0.05,-4.3950945696409045,8.714716291077288,0.3566666666666667,0.4,-0.6577777777777778,0.1875,0.06368212051130354,0.03184106025565177
1590515574.3798275,0.06031967650873579,-4.39,8.668081940947586,0.3566666666666667,0.4,-0.6577777777777778,0.1230020218204013,-0.09674696726939803,0.09674696726939803
1590515574.3898275,0.06349541977943793,-4.39,8.623009160441125,0.3566666666666667,0.4,-0.6577777777777778,0.0625,-0.06553912086446104,0.06553912086446104
1590515574.3998275,0.06,-4.39,8.65094297428252,0.3566666666666667,0.4,-0.6577777777777778,-0.04657799105478942,0.08726239284383153,-0.04363119642191576
1590515574.4098275,0.06,-4.39,8.68444198924445,0.3566666666666667,0.4,-0.6577777777777778,-0.22105202731483947,0.22684162185187157,-0.11342081092593578
1590515574.4198275,0.06180796381330958,-4.39,8.71,0.3711111111111111,0.4,-0.6577777777777778,0.01430033925022274,-0.0625,0.07379977383318484
1590515574.4298275,0.05,-4.407614691976907,8.639541232092371,0.3711111111111111,0.4,-0.6577777777777778,0.08830272504811004,0.010894549903779902,0.03669727495188995
1590515574.4398274,0.05,-4.411236131425921,8.598763868574078,0.3711111111111111,0.4,-0.6577777777777778,0.0625,0.08988708929399594,0.00772582141200813
1590515574.4498274,0.05,-4.4,8.629094730795341,0.3711111111111111,0.4,-0.6577777777777778,0.0625,0.125,-0.09659773356311036
1590515574.4598274,0.05550092710061482,-4.4,8.688251390650922,0.36713821931622265,0.4,-0.6611394554503758,0.0625,0.125,-0.1359288084317361
1590515574.4698274,0.06831973955963175,-4.396639479119264,8.71168026044037,0.3566666666666667,0.4,-0.67,0.05199837224769839,0.125,-0.021003255504603215
1590515574.4798274,0.05671771164403352,-4.383282288355966,8.680612539728402,0.3566666666666667,0.4,-0.67,0.020514302224790525,0.10448569777520947,-0.08397139555041895
1590515574.4898274,0.05164824854045038,-4.39,8.60824124270225,0.3566666666666667,0.4,-0.67,0.041896893244370306,0.0625,-0.02060310675562969
1590515574.4998274,0.05607245455143527,-4.386072454551435,8.661782636345695,0.3566666666666667,0.4,-0.67,-0.13614147716058858,-0.03568863621411812,-0.05135852283941142
1590515574.5098274,0.05900003157462663,-4.38,8.689000031574626,0.3566666666666667,0.4060000210497511,-0.6644999807043949,-0.13749960531716712,-0.10312470398787535,0.09062509867070823
1590515574.5198274,0.06569716641810686,-4.384302833581893,8.691394332836213,0.3566666666666667,0.4133333333333333,-0.6577777777777778,0.02689270988683218,0.02689270988683218,0.09810729011316782
1590515574.5298274,0.0634559252772913,-4.386544074722709,8.65235259778167,0.3566666666666667,0.4133333333333333,-0.6577777777777778,0.0625,0.019300934033858727,0.040900467016929364
1590515574.5398273,0.06555187044894481,-4.38889625910211,8.626688777306331,0.3566666666666667,0.4133333333333333,-0.6577777777777778,0.03469919030590503,-0.00689838061181005,0.0
1590515574.5498273,0.05694124556341445,-4.4,8.666117508873171,0.3566666666666667,0.4133333333333333,-0.6577777777777778,0.038234430457319404,0.0816172152286597,-0.019117215228659702
1590515574.5598273,0.05311805467528626,-4.406236109350573,8.68935416402586,0.35909182030300046,0.4091759270996183,-0.6615887334920165,0.06653647483838256,0.10551215827946085,-0.04301215827946085
1590515574.5698273,0.06,-4.40984645399039,8.706615484663464,0.3644444444444445,0.4,-0.67,-0.041346779146645474,0.0625,0.021153220853354526
1590515574.5798273,0.06,-4.400641689557347,8.646791552213266,0.3644444444444445,0.4,-0.67,0.09976583960012608,0.029244720133291303,0.029244720133291303
1590515574.5898273,0.054792548479181025,-4.404792548479182,8.636452160645733,0.3644444444444445,0.4,-0.67,0.15495342799488138,-0.06509314401023723,0.0
1590515574.5998273,0.05436933608183268,-4.4,8.678738672163664,0.3644444444444445,0.4,-0.67,0.07038329897709152,-0.04307494846563727,0.027308350511454242
1590515574.6098273,0.06,-4.391835439059652,8.69,0.3721554186658845,0.40272152031344943,-0.6554852249949366,-0.05102850587717644,-0.014042758815764653,0.0625
1590515574.6198273,0.06,-4.389727705062918,8.704591557594377,0.38333333333333336,0.4066666666666667,-0.6344444444444445,-0.09460092167838054,-0.125,0.09289907832161946
1590515574.6298273,0.05566651838671412,-4.395666518386714,8.663664739027285,0.38333333333333336,0.4066666666666667,-0.6344444444444445,-0.03541573991696323,-0.07083147983392646,0.07083147983392646
1590515574.6398273,0.05,-4.39388770753251,8.60943853766255,0.38333333333333336,0.4066666666666667,-0.6344444444444445,0.0,0.0,-0.024298172078187616
1590515574.6498272,0.05,-4.4,8.64856254552561,0.38333333333333336,0.4066666666666667,-0.6344444444444445,0.026757954767530692,0.026757954767530692,-0.049121022616234654
1590515574.6598272,0.05,-4.4,8.678369072787676,0.38333333333333336,0.4066666666666667,-0.6344444444444445,0.119903352461492,0.119903352461492,-0.002548323769253999
1590515574.6698272,0.06247505966120261,-4.3824750596612025,8.71009976135519,0.3644444444444445,0.3944444444444444,-0.6266666666666667,0.015469122882516333,0.030938245765032665,0.015469122882516333
1590515574.6798272,0.06723054846938777,-4.391384725765306,8.670306919642856,0.3644444444444445,0.3944444444444444,-0.6266666666666667,0.0625,0.125,0.0625
1590515574.6898272,0.05359881744795355,-4.392802365104093,8.617197634895907,0.3644444444444445,0.3944444444444444,-0.6266666666666667,0.04000739095029033,0.03502956380116132,-0.004977827149129019
1590515574.6998272,0.06,-4.383109593828123,8.64088357839843,0.3644444444444445,0.3944444444444444,-0.6266666666666667,-0.009717480712884061,-0.10556503857423188,-0.10556503857423188
1590515574.7098272,0.06316590471607315,-4.4,8.703165904716073,0.3598714709656722,0.3944444444444444,-0.6365161480055609,-0.04271309552454283,0.01978690447545717,0.01978690447545717
1590515574.7198272,0.055731218449965356,-4.404756260516678,8.705243739483322,0.35,0.3944444444444444,-0.6577777777777778,0.0,-0.08613314114619419,0.0625
1590515574.7298272,0.0438565322430775,-4.402286935513845,8.665291209812302,0.35,0.3944444444444444,-0.6577777777777778,-0.024103326519234344,-0.15358669392306262,0.08660332651923434
1590515574.7398272,0.05552584115927608,-4.39,8.621051682318551,0.35,0.3944444444444444,-0.6577777777777778,-0.027963492754524533,0.017268253622737734,0.10773174637726227
