time,acc_x,acc_y,acc_z,mag_x,mag_y,mag_z,gyr_x,gyr_y,gyr_z
1590515622.5484235,0.03,-4.36,8.71,0.4033333333333333,0.27111111111111114,-0.6266666666666667,0.5625,-0.9375,0.4375
1590515622.5584235,0.03842889009465244,-4.309426659432085,8.667855549526738,0.4033333333333333,0.27111111111111114,-0.6266666666666667,0.8785833785494664,-1.2009028154578887,0.9643056309157774
1590515622.5684235,0.030734958731537792,-4.3277951238053864,8.687795123805387,0.4033333333333333,0.27111111111111114,-0.6266666666666667,0.5900609524326672,-0.9025609524326672,1.7573780951346656
1590515622.5784235,0.0,-4.281677045619117,8.72,0.4355555555555555,0.2577777777777778,-0.6133333333333333,0.32298153511947864,-0.7600923244026068,2.500778421433744
1590515622.5884235,0.011615033915267432,-4.293318581118648,8.716681418881352,0.4355555555555555,0.2577777777777778,-0.6133333333333333,0.33351773601690204,-0.5103705659957745,3.2805584899366176
1590515622.5984235,0.0765602601049287,-4.313280130052464,8.708747013473237,0.4355555555555555,0.2577777777777778,-0.6133333333333333,0.125,-0.5761672085519348,4.1308360427596735
1590515622.6084235,0.13459104892329066,-4.346886573384936,8.782295524461645,0.4355555555555555,0.2577777777777778,-0.6133333333333333,0.14652054182792498,-0.6875,4.665979458172075
1590515622.6184235,0.16788905428202838,-4.396833581423043,8.798944527141014,0.4355555555555555,0.2577777777777778,-0.6133333333333333,0.30260494194700804,-0.6875,4.509895058052992
1590515622.6284235,0.18,-4.4151659460091155,8.72677729733941,0.4033333333333333,0.2577777777777778,-0.6055555555555555,0.17742905418565696,-0.5121452709282849,3.754148650227884
1590515622.6384234,0.18,-4.390657940867126,8.710438627244752,0.4033333333333333,0.2577777777777778,-0.6055555555555555,0.12637071013984652,-0.2568535506992326,3.141448521678158
1590515622.6484234,0.1974390634679883,-4.416158595201982,8.640243746128048,0.4033333333333333,0.2577777777777778,-0.6055555555555555,0.125,-0.03201170665014633,2.4165380466129758
1590515622.6584234,0.2126600309666003,-4.4063300154833005,8.634893312688934,0.4033333333333333,0.2577777777777778,-0.6055555555555555,0.13264580107645801,-0.05867709946177099,1.4464793924647938
1590515622.6684234,0.13844105286441052,-4.369220526432205,8.684372631423727,0.4033333333333333,0.2577777777777778,-0.6055555555555555,0.20995723659957238,-0.020021381700213815,0.9052993438029934
1590515622.6784234,0.08415066238143765,-4.357924668809281,8.725849337618563,0.4033333333333333,0.2577777777777778,-0.6170022993911839,0.051883279767970525,-0.14858754017402212,0.4268832797679705
1590515622.6884234,0.08664045371360235,-4.353359546286398,8.736640453713603,0.4033333333333333,0.2577777777777778,-0.62,0.1660113428400587,-0.312008507130044,0.3334971642899853
1590515622.6984234,0.09,-4.36819397473275,8.68541807580175,0.4033333333333333,0.2577777777777778,-0.62,0.363712342079689,-0.488712342079689,0.14193148688046647
1590515622.7084234,0.10975873364586806,-4.350080422118044,8.700241266354132,0.4033333333333333,0.2577777777777778,-0.62,0.6239947235244503,-0.8734920852866754,-0.12449736176222514
1590515622.7184234,0.08507718561817149,-4.358307604793943,8.724922814381829,0.4033333333333333,0.2577777777777778,-0.62,0.5211549400757145,-0.7192324101135718,-0.07307747003785724
1590515622.7284234,0.08733891397731028,-4.345322172045379,8.75201674193193,0.4074105077651724,0.2675629964141915,-0.6093993464772185,0.40826357528362156,-0.45815893820905385,-0.15423642471637844
1590515622.7384233,0.07142220782376286,-4.330711103911882,8.765022272616829,0.4088888888888889,0.27111111111111114,-0.6055555555555555,0.39722199724629464,-0.4822224022029643,0.05361120110148214
1590515622.7484233,0.08840730541832023,-4.33920365270916,8.705574431035878,0.4088888888888889,0.27111111111111114,-0.6055555555555555,0.6626141471612537,-0.26990868227099696,-0.05254565886450151
1590515622.7584233,0.09047099176793413,-4.340156997255978,8.680941983535869,0.4088888888888889,0.27111111111111114,-0.6055555555555555,0.6884812328498628,-0.3125,0.1220563014504116
1590515622.7684233,0.11513367306938455,-4.348377891023127,8.730267346138769,0.4088888888888889,0.27111111111111114,-0.6055555555555555,0.7398618188945512,-0.3125,-0.03208545668365348
1590515622.7784233,0.11,-4.339898890817174,8.74,0.4033333333333333,0.2577777777777778,-0.62,0.5612361352146684,-0.3118680676073342,0.0625
1590515622.7884233,0.10952827435242612,-4.330471725647574,8.734811017876687,0.4033333333333333,0.2577777777777778,-0.62,0.42865514410798977,-0.24410342940532653,0.05955171470266326
1590515622.7984233,0.10187723458591755,-4.338122765414083,8.650649580445094,0.4033333333333333,0.2577777777777778,-0.62,0.28519814848595404,-0.14846543232396936,0.01173271616198468
1590515622.8084233,0.09025582612443432,-4.34,8.668976695502263,0.4033333333333333,0.2577777777777778,-0.62,0.128197826555429,-0.0640989132777145,0.0
1590515622.8184233,0.10204976772132421,-4.346024883860662,8.694099535442648,0.4033333333333333,0.2577777777777778,-0.62,-0.025622096516552617,0.12577762064569076,-0.11296657238741445
1590515622.8284233,0.10454659208008243,-4.333639776240247,8.726360223759754,0.39909179384006416,0.2650489883376679,-0.6084872499468407,-0.15908379949948476,0.11366480200206094,-0.0852486015015457
1590515622.8384233,0.1,-4.338549934173406,8.721450065826595,0.3955555555555556,0.27111111111111114,-0.5988888888888889,0.1023427214594696,0.17390563287568178,0.0
1590515622.8484232,0.09068734578780402,-4.349312654212196,8.654811420514628,0.3955555555555556,0.27111111111111114,-0.5988888888888889,-0.04961226647867467,0.07109182234755024,0.0
1590515622.8584232,0.08122678418851464,-4.341226784188515,8.711412510680399,0.3955555555555556,0.27111111111111114,-0.5988888888888889,-0.17216519764356703,0.0625,-0.05483259882178351
1590515622.8684232,0.08747730393261881,-4.3325226960673815,8.742431911797857,0.3955555555555556,0.27111111111111114,-0.5988888888888889,-0.04730055126339733,-0.17116574789433778,-0.0625
1590515622.8784232,0.09638257086241062,-4.349147712587232,8.75638257086241,0.40406565003876976,0.2746569838124504,-0.5988888888888889,-0.03989106789006634,-0.130326796329801,-0.10239106789006634
1590515622.8884232,0.10913277164439279,-4.36,8.732601685066822,0.4088888888888889,0.2766666666666667,-0.5988888888888889,-0.0625,-0.005420177222545036,0.04623946833236492
1590515622.8984232,0.11,-4.332518367984993,8.668166327966235,0.4088888888888889,0.2766666666666667,-0.5988888888888889,0.06632015007034547,0.04294005002344849,0.019559949976551513
1590515622.9084232,0.11839974721763859,-4.3451992416529155,8.665199241652916,0.4088888888888889,0.2766666666666667,-0.5988888888888889,0.0725015798897588,0.0625,0.0
1590515622.9184232,0.08466446124763705,-4.364134215500945,8.740671077504725,0.4088888888888889,0.2766666666666667,-0.5988888888888889,0.01833057655954632,0.0625,-0.08833884688090736
1590515622.9284232,0.07920611697495385,-4.351587766050092,8.77,0.41502630020552483,0.2521170214001231,-0.6183240247249026,0.0,-0.11011469328038456,-0.00992353781307695
1590515622.9384232,0.08,-4.331375343366281,8.779312328316859,0.4155555555555556,0.25,-0.62,0.0,-0.18320205198037237,-0.05820205198037236
1590515622.9484231,0.08937859083151037,-4.348757181663021,8.648699728358855,0.4155555555555556,0.25,-0.62,0.11723238539387967,-0.07026761460612033,-0.0038838073030601633
1590515622.9584231,0.12022628194847419,-4.349773718051526,8.69,0.4155555555555556,0.25,-0.62,0.06462139326694563,-0.18679286891101812,-0.002121393266945631
1590515622.9684231,0.13245687958359456,-4.337543120416405,8.69,0.4155555555555556,0.25,-0.62,0.179283246096199,-0.148572251301267,-0.116783246096199
1590515622.978423,0.12217585748078061,-4.335941380839739,8.725648285038439,0.41159463499572907,0.2625429151061174,-0.6114180054537092,0.25,-0.08786636975162626,-0.07609910925487877
1590515622.988423,0.07007158117305025,-4.339856837653899,8.759355769442548,0.4088888888888889,0.27111111111111114,-0.6055555555555555,0.00044738233156399357,0.12410523533687201,0.0
1590515622.998423,0.07930951699226924,-4.321380966015462,8.676214347069577,0.4088888888888889,0.27111111111111114,-0.6055555555555555,0.05818448120168271,0.008631037596634583,0.0
1590515623.008423,0.07212308191929853,-4.335753836161403,8.701507672322807,0.4088888888888889,0.27111111111111114,-0.6055555555555555,0.0625,0.09846147600876837,-0.049230738004384184
1590515623.018423,0.09133428203564412,-4.34,8.752668564071287,0.4088888888888889,0.27111111111111114,-0.6055555555555555,0.0625,0.036107158184816246,-0.018053579092408123
1590515623.028423,0.09386339717954115,-4.34,8.77,0.4088888888888889,0.27111111111111114,-0.601464487008583,0.024146232372132183,0.11506130288360346,-0.07670753525573563
1590515623.038423,0.12660175343316005,-4.34,8.75169912328342,0.4088888888888889,0.27111111111111114,-0.5988888888888889,0.17157071921793776,0.1875,0.04657071921793776
1590515623.048423,0.11703995305393906,-4.352960046946061,8.665759694850603,0.4088888888888889,0.27111111111111114,-0.5988888888888889,0.1875,0.1875,0.021999853293559586
1590515623.058423,0.10198637419761353,-4.3519863741976135,8.676095380616704,0.4088888888888889,0.27111111111111114,-0.5988888888888889,0.1875,0.1875,-0.10017032252983106
1590515623.068423,0.1,-4.338156695339581,8.678156695339581,0.4088888888888889,0.27111111111111114,-0.5988888888888889,0.1875,0.1875,-0.08798967293619206
1590515623.078423,0.10596772446658724,-4.33,8.693870897866349,0.41684585484433856,0.27111111111111114,-0.5988888888888889,-0.18548277916170258,0.3366931116646811,-0.09979827791617027
1590515623.088423,0.14544370860927153,-4.250251655629139,8.550503311258277,0.4222222222222222,0.27111111111111114,-0.5988888888888889,-0.7144039735099338,0.6036423841059603,0.04114238410596027
1590515623.098423,0.0063309301501004445,-4.491420872237324,8.88019335775913,0.4222222222222222,0.27111111111111114,-0.5988888888888889,-1.87241460820234,1.3545694953315213,0.23086219123035104
1590515623.108423,0.003379680665694676,-4.479860958002916,8.879860958002915,0.4222222222222222,0.27111111111111114,-0.5988888888888889,-0.8710894438320116,0.7685159667152662,0.25
1590515623.118423,0.10699767132401862,-4.317736748724773,8.653071634508759,0.4222222222222222,0.27111111111111114,-0.5988888888888889,0.9808022843202484,-0.6133081060102019,0.007505821689953424
1590515623.128423,0.11731254438364175,-4.3070802873971346,8.69245519862985,0.3985069691020232,0.26298016718418576,-0.6076974114763913,0.3535170119888049,-0.31088260787835753,-0.08688620034253729
1590515623.138423,0.06528911865727134,-4.35,8.814710881342728,0.38333333333333336,0.2577777777777778,-0.6133333333333333,-1.6840630643390815,1.4340630643390815,0.0919430083920541
1590515623.148423,0.05071582860300397,-4.294294971618024,8.708589943236047,0.38333333333333336,0.2577777777777778,-0.6133333333333333,-1.9375,1.397369643843874,0.35710428492490076
1590515623.158423,-0.5232899500481187,-3.645048806195866,8.520846890609963,0.38333333333333336,0.2577777777777778,-0.6133333333333333,-2.889250893634572,0.8711318798405205,1.9985750538472113
1590515623.168423,-0.3948443026964338,-3.2447405044940565,8.72406765245965,0.38333333333333336,0.2577777777777778,-0.6133333333333333,-5.303921426500435,-1.1300219870493862,6.479118343481202
1590515623.178423,-0.34904148984673655,-2.771502121839161,9.187539368007576,0.4145260446501986,0.2577777777777778,-0.6337699372995554,-8.244605530810507,0.4846210500473469,15.990403500157823
1590515623.188423,-0.3974435168697824,-2.5227824156510876,9.209488703373957,0.4155555555555556,0.2577777777777778,-0.6344444444444445,-5.287975799551372,-0.7421967139190158,25.916616562218163
1590515623.198423,-0.35698789702730205,-2.4583854764327624,8.719662026111244,0.4155555555555556,0.2577777777777778,-0.6344444444444445,-1.6840317621841647,-3.0706354060666423,37.08299548574274
1590515623.208423,-0.3227737926272584,-2.490839311059112,8.789744140550079,0.4155555555555556,0.2577777777777778,-0.6344444444444445,-1.7631142352986306,-3.6076637960796347,46.68257556868311
1590515623.218423,-0.3051512537382102,-2.5584874626178973,8.801815044858524,0.4155555555555556,0.2577777777777778,-0.6344444444444445,-1.7594533586381413,-4.172374626178974,55.13283226938118
1590515623.2284229,-0.3,-2.6631640211640213,8.781349794238684,0.41161747991377623,0.25318335619570187,-0.6088469527728787,-1.326741622574956,-5.0566945914168135,65.06086860670194
1590515623.2384229,-0.3,-2.7737302020753685,8.80385581649372,0.4088888888888889,0.25,-0.5911111111111111,-1.326802293828509,-5.773313762971054,72.08560895685417
1590515623.2484229,-0.3,-2.850935025982632,8.8,0.4088888888888889,0.25,-0.5911111111111111,-1.7133518466850348,-6.449187824782896,78.38688618212255
1590515623.2584229,-0.3,-2.8719882299223785,8.817982344883568,0.4088888888888889,0.25,-0.5911111111111111,-1.9248896555222972,-7.012058622089189,82.48463104357972
1590515623.2684228,-0.3211174735380878,-2.916955578691654,8.840558736769044,0.4088888888888889,0.25,-0.5911111111111111,-1.9670039475967378,-7.510476314419573,86.7142276158251
1590515623.2784228,-0.35593151479976787,-2.960621009866512,8.855310504933255,0.4200999548590959,0.24704971948152446,-0.6029122331850132,-1.9375,-7.8202626233313985,91.07334590829947
1590515623.2884228,-0.3834038715048914,-3.0102116145146742,8.880105807257337,0.43,0.24444444444444444,-0.6133333333333333,-1.9793870984527857,-7.853725803094429,95.51256461180878
1590515623.2984228,-0.39,-3.03,8.795280218042002,0.43,0.24444444444444444,-0.6133333333333333,-2.0493332197697907,-7.763166780230209,99.10482776871973
1590515623.3084228,-0.4284622495435742,-3.083847149361004,8.77,0.43,0.24444444444444444,-0.6133333333333333,-2.2067334357884034,-7.653844376141064,101.96157934875552
1590515623.3184228,-0.4596069368890343,-3.1457495194077465,8.802678228148391,0.43,0.24444444444444444,-0.6133333333333333,-2.290847785185488,-7.910934496298417,104.29975919260501
1590515623.3284228,-0.5351777509856952,-3.2188833132392713,8.828147218873212,0.4399577119561479,0.19556113120517304,-0.6241962918309493,-2.2615798820424255,-8.317100589787872,106.76602365668481
1590515623.3384228,-0.5725848715765869,-3.237528290525529,8.83,0.44222222222222224,0.18444444444444444,-0.6266666666666667,-2.344103631569112,-8.563207263138224,108.3012953946139
1590515623.3484228,-0.6215833771699105,-3.231683324566018,8.680299842188322,0.44222222222222224,0.18444444444444444,-0.6266666666666667,-2.323020778537612,-9.248750657548658,110.14291820094687
1590515623.3584228,-0.6431238907287797,-3.21687610927122,8.682809726821949,0.44222222222222224,0.18444444444444444,-0.6266666666666667,-2.4355364755823103,-9.416012158527437,111.42179180465848
1590515623.3684227,-0.6726129279051976,-3.2175376426350657,8.733919391857796,0.44222222222222224,0.18444444444444444,-0.6266666666666667,-2.6413307994074846,-9.578830799407484,112.26727186528413
1590515623.3784227,-0.7165173297274215,-3.2365173297274215,8.793910397836452,0.44482915411319085,0.1809685352564863,-0.6266666666666667,-2.8179733648850616,-9.779913351362893,112.92655327022987
1590515623.3884227,-0.7923593843878541,-3.3002246152424086,8.832134769145446,0.4622222222222222,0.15777777777777774,-0.6266666666666667,-2.361657692840967,-9.486657692840966,113.86446538337108
1590515623.3984227,-0.8535090210491146,-3.3435090210491145,8.82298195790177,0.4622222222222222,0.15777777777777774,-0.6266666666666667,-2.587725526227865,-9.24835292766455,114.46272552622787
1590515623.4084227,-0.8941208187718422,-3.367060409385921,8.82137360625728,0.4622222222222222,0.15777777777777774,-0.6266666666666667,-2.643372441337993,-9.151957480445997,114.80271259777001
1590515623.4184227,-0.9440702355203077,-3.3751859528959383,8.83,0.4622222222222222,0.15777777777777774,-0.6266666666666667,-2.5324122055996154,-9.094912205599616,114.78706102799808
1590515623.4284227,-0.9938331294662975,-3.3382224940449365,8.83,0.47899368369850565,0.1268829803214661,-0.6266666666666667,-2.5,-9.012847646945213,113.73125764501384
1590515623.4384227,-1.0244866056056745,-3.338162201868558,8.732053577577302,0.4833333333333333,0.11888888888888888,-0.6266666666666667,-2.1939174299290682,-8.69391742992907,112.22465595803779
1590515623.4484227,-1.104193830480313,-3.3474193830480314,8.695161233903937,0.4833333333333333,0.11888888888888888,-0.6266666666666667,-2.3568557202509783,-8.856855720250978,110.54636567849413
1590515623.4584227,-1.15737669179762,-3.3636883458988103,8.70368834589881,0.4833333333333333,0.11888888888888888,-0.6266666666666667,-2.13806743346353,-8.723619595331092,108.95032189572169
1590515623.4684227,-1.1960036716301667,-3.3647992656739665,8.767208077586368,0.4833333333333333,0.11888888888888888,-0.6266666666666667,-2.1300183581508336,-8.527486231386876,107.29983936618021
1590515623.4784226,-1.2467410305502373,-3.3533147423624405,8.813314742362442,0.49967507422514496,0.09734750316786445,-0.6266666666666667,-2.124651419295763,-8.4375,104.66225131107966
1590515623.4884226,-1.3247724889914028,-3.304659257706018,8.81,0.5077777777777778,0.08666666666666667,-0.6266666666666667,-2.0625,-8.397017194380373,102.62003302579157
1590515623.4984226,-1.3802366098381393,-3.286745536612713,8.776272316936435,0.5077777777777778,0.08666666666666667,-0.6266666666666667,-2.2311384153178278,-8.290680792341087,100.71487148894575
1590515623.5084226,-1.4158618359935815,-3.2835345410016044,8.785861835993583,0.5077777777777778,0.08666666666666667,-0.6266666666666667,-2.1104544063001436,-8.25,98.91272643780086
1590515623.5184226,-1.43,-3.243540280246352,8.810417062786756,0.5077777777777778,0.08666666666666667,-0.6266666666666667,-1.967446678791386,-8.054680072748315,97.20829372132435
1590515623.5284226,-1.4498327448036707,-3.206033451039266,8.835866195842936,0.5157108756992461,0.06639319420069215,-0.6381255858865653,-1.813545344977058,-7.72625441397247,95.33273555283023
1590515623.5384226,-1.499776119402985,-3.211865671641791,8.867910447761194,0.5277777777777778,0.03555555555555556,-0.6555555555555556,-1.6991604477611941,-7.376399253731344,92.75093283582089
1590515623.5484226,-1.550393126232976,-3.209606873767024,8.818820621301072,0.5277777777777778,0.03555555555555556,-0.6555555555555556,-1.6531787013048749,-6.964450181826825,89.34428701304874
1590515623.5584226,-1.5900942507068805,-3.181962299717248,8.768037700282752,0.5277777777777778,0.03555555555555556,-0.6555555555555556,-1.4748821866163997,-6.674646559849199,86.43102026390198
1590515623.5684226,-1.6265015755801,-3.1569968488398,8.79625393895025,0.5277777777777778,0.03555555555555556,-0.6555555555555556,-1.498452271063437,-6.521865152624375,83.33881139192157
1590515623.5784225,-1.6464038906901342,-3.110788327929597,8.810788327929597,0.5114122793474345,0.012074623025063045,-0.6612479028356749,-1.5849756831866606,-6.39747568318666,79.10623552570634
1590515623.5884225,-1.6749465818563576,-3.0875267090718213,8.80623664546409,0.5022222222222222,-0.0011111111111111113,-0.6644444444444444,-1.4065838633977645,-6.2580628975483235,75.98854829247206
1590515623.5984225,-1.7307055961070559,-3.0683698296836983,8.763479318734793,0.5022222222222222,-0.0011111111111111113,-0.6644444444444444,-1.2761557177615572,-6.078467153284672,73.14066301703163
1590515623.6084225,-1.76,-3.053539311274764,8.781685509801889,0.5022222222222222,-0.0011111111111111113,-0.6644444444444444,-1.2903793045327248,-5.717344868270926,69.91853477336376
1590515623.6184225,-1.7709321329907464,-3.05,8.82639819948612,0.5022222222222222,-0.0011111111111111113,-0.6644444444444444,-1.2100112532117535,-5.4600112532117535,67.10435422019589
1590515623.6284225,-1.8187268534693593,-3.0435455244217735,8.904544755782265,0.5058080419879036,-0.014020062267564191,-0.6723332479289436,-1.1653404723639158,-5.132957165816505,63.67047638180421
1590515623.6384225,-1.845175809864887,-3.034824190135113,8.90894514081068,0.5077777777777778,-0.021111111111111112,-0.6766666666666666,-1.1228023766889141,-4.870604753377829,60.88036179391177
1590515623.6484225,-1.862672981878089,-3.034224327292696,8.841981054365734,0.5077777777777778,-0.021111111111111112,-0.6766666666666666,-1.036097954420648,-4.670793863261944,57.649171128500825
1590515623.6584225,-1.8981786377783674,-3.0218213622216323,8.79,0.5077777777777778,-0.021111111111111112,-0.6766666666666666,-0.9242556759234686,-4.3352670277704055,52.913309467512725
1590515623.6684225,-1.8995255817757963,-3.015237209112102,8.816186045560508,0.5077777777777778,-0.021111111111111112,-0.6766666666666666,-0.7440697721974561,-3.8929069874442765,49.47947681076439
1590515623.6784225,-1.8864431053223745,-3.0306706840328763,8.83288621064475,0.5141011460935563,-0.03059616358477893,-0.6818044034232367,-0.5805388165296821,-3.4693858578538874,46.63427863803658
1590515623.6884224,-1.889263970922308,-3.038420036347115,8.817684007269424,0.5255555555555556,-0.04777777777777778,-0.6911111111111111,-0.45657513630168106,-3.100650272603362,43.79072722626079
1590515623.6984224,-1.948742063971032,-2.996407242003621,8.795628968014483,0.5255555555555556,-0.04777777777777778,-0.6911111111111111,-0.44722842486421244,-2.8574094749547374,40.92104103802052
1590515623.7084224,-2.005820483749055,-2.99,8.787461451247164,0.5255555555555556,-0.04777777777777778,-0.6911111111111111,-0.7420670351473923,-2.973878023431595,40.0181890117158
1590515623.7184224,-2.033535951045385,-2.9824800271970084,8.822480027197008,0.5255555555555556,-0.04777777777777778,-0.6911111111111111,-0.8374001359850416,-3.0718999660037394,40.41969870814211
1590515623.7284224,-2.202444444444444,-2.8417777777777777,8.797333333333333,0.5217037037037037,-0.06639506172839506,-0.7206419753086419,-1.1666666666666667,-3.5944444444444446,44.856944444444444
1590515623.7384224,-2.2402252624367835,-2.7997747375632165,8.804045052487357,0.5188888888888888,-0.08,-0.7422222222222222,-2.1579947512643307,-4.607431595172372,50.53293430517217
1590515623.7484224,-2.2967242449596506,-2.7786869450217266,8.711472025046557,0.5188888888888888,-0.08,-0.7422222222222222,-1.3083536881595639,-4.914953375077595,57.945878653747535
1590515623.7584224,-2.1615828756513165,-2.938417124348683,8.813294841102193,0.5188888888888888,-0.08,-0.7422222222222222,-1.1440642163075623,-4.891007135145284,64.46879254095667
1590515623.7684224,-2.0988982161594962,-3.05,8.9002203567681,0.5188888888888888,-0.08,-0.7422222222222222,-1.3485703043022035,-5.181991080797482,68.05587618048268
1590515623.7784224,-2.184128809278522,-2.9866179256256022,8.894875544182646,0.5188888888888888,-0.07024891163470805,-0.7563071276387551,-1.0640556977169253,-4.98041773287694,70.48288732511382
1590515623.7884223,-2.250167687633037,-2.872593633719513,8.947406366280488,0.5188888888888888,-0.06,-0.7711111111111111,-1.8349984969858473,-5.577417415465609,71.02588738768016
1590515623.7984223,-2.299703213146922,-2.8124258032867306,8.95663232769193,0.5188888888888888,-0.06,-0.7711111111111111,-2.740403482953152,-6.530000613195978,71.17637049300957
1590515623.8084223,-2.3609552712874735,-2.775778183875038,8.829799634512465,0.5188888888888888,-0.06,-0.7711111111111111,-1.848613649218988,-5.283609080624809,72.92054997171823
1590515623.8184223,-2.3728912114014253,-2.735490736342043,8.883872684085512,0.5188888888888888,-0.06,-0.7711111111111111,-1.742042755344418,-5.538295724465558,73.90533847980997
1590515623.8284223,-2.306664257989925,-2.7666673548600214,8.893333677430011,0.49925723291215895,-0.07000103229003221,-0.7859274552444921,-1.8124677409364935,-5.354151612437031,74.3125064518127
1590515623.8384223,-2.2671611898227133,-2.7298716712410056,8.824807506861509,0.46,-0.09,-0.8155555555555556,-0.7846830724723686,-4.637304354276389,73.78851717231659
1590515623.8484223,-2.3788846837548023,-2.663543972322572,8.859516600722518,0.46,-0.09,-0.8155555555555556,-1.1219787545157405,-4.551889204273945,71.21236166064568
1590515623.8584223,-2.4944594890396825,-2.6543240876825416,8.965269708246037,0.46,-0.09,-0.8155555555555556,-2.814192516964258,-5.702705290972201,68.53799954657744
1590515623.8684223,-2.5285526264094607,-2.5719298314540526,8.836206144658783,0.46,-0.09,-0.8155555555555556,-2.4857457863513144,-5.176261147998272,66.32497274388088
1590515623.8784223,-2.4456965157929016,-2.629394334093129,8.909394334093129,0.42742074604725205,-0.11374420203335867,-0.80782488512609,-1.748107294041029,-4.27992510582872,64.41211738847281
1590515623.8884223,-2.402911984589277,-2.644936017979177,8.900632023116085,0.3944444444444444,-0.13777777777777778,-0.8,-2.556174895656561,-4.234175056184928,62.146350272898225
1590515623.8984222,-2.464812104823637,-2.545563685529089,8.770751580705452,0.3944444444444444,-0.13777777777777778,-0.8,-2.134394758818149,-3.3836118622499702,61.25078289656818
1590515623.9084222,-2.4620761283306143,-2.522404839586732,8.723442903752039,0.3944444444444444,-0.13777777777777778,-0.8,-1.4590181484502447,-3.0235725938009788,61.467560494834146
1590515623.9184222,-2.5126122392595662,-2.4773877607404335,8.795527006492609,0.3944444444444444,-0.13777777777777778,-0.8,-1.7493697333885896,-3.1972389142146707,60.71797727586683
1590515623.9284222,-2.593638667173445,-2.3881806664132776,8.874090333206638,0.3812644818897194,-0.1655011472894407,-0.788183481847488,-2.332339573039402,-3.156210407956417,58.27854586342329
1590515623.9384222,-2.5897971398935535,-2.3920811440425784,8.899797139893554,0.3622222222222222,-0.20555555555555555,-0.7711111111111111,-2.8125,-3.3150357513305786,55.95938227992314
1590515623.9484222,-2.6248494692705777,-2.3630268575529785,8.903327919011824,0.3622222222222222,-0.20555555555555555,-0.7711111111111111,-2.7064178597061157,-2.785954085294451,53.72899746911948
1590515623.9584222,-2.6439669077003933,-2.3219007231011797,8.847768353902753,0.3622222222222222,-0.20555555555555555,-0.7711111111111111,-2.4741726925098315,-2.1637409612352525,49.389477881077944
1590515623.9684222,-2.6744416198033023,-2.34,8.887778034563336,0.3622222222222222,-0.20555555555555555,-0.7711111111111111,-2.541676296125106,-1.951387283979149,45.91676296125106
1590515623.9784222,-2.771721217485767,-2.3329672695085395,8.88,0.3656083517181105,-0.21571394404322042,-0.7661621526171205,-2.0155756502846565,-1.8681363032851195,42.36998456014001
1590515623.9884222,-2.820635994058322,-2.3084805722773827,8.889116566335705,0.37666666666666665,-0.2488888888888889,-0.75,-1.25,-1.4849821163317958,39.95163591587835
1590515623.9984221,-2.88,-2.289056712545939,8.877988037760323,0.37666666666666665,-0.2488888888888889,-0.75,-1.0220148447070692,-1.6588059378828277,37.093954925416156
1590515624.0084221,-2.8926643926473377,-2.2775986355884026,8.785197271176804,0.37666666666666665,-0.2488888888888889,-0.75,-0.45086460109910936,-1.373356073526625,35.13425478491567
1590515624.0184221,-2.93,-2.3,8.855869649503722,0.37666666666666665,-0.2488888888888889,-0.75,0.03555244843362283,-1.1347377578318858,32.85212590144231
1590515624.028422,-2.918288148721921,-2.292192099147947,8.862672347017815,0.3640872708494707,-0.2792529477579826,-0.7582416731216112,0.1707978311386522,-1.2637006196746707,31.018009295120063
1590515624.038422,-2.9090960336587557,-2.270903966341244,8.851836117805645,0.34444444444444444,-0.32666666666666666,-0.7711111111111111,0.35222468444916466,-1.1875,28.79484600302275
1590515624.048422,-2.894644163618224,-2.2938077818423674,8.873096109078816,0.34444444444444444,-0.32666666666666666,-0.7711111111111111,-0.014123295643498512,-1.2403246591286996,27.0774027269704
1590515624.058422,-2.755372871694466,-2.32430593075417,8.829074574338893,0.34444444444444444,-0.32666666666666666,-0.7711111111111111,0.0827436863367122,-1.083628156831644,26.3365201120226
1590515624.068422,-2.495946436208651,-2.4874456914477854,8.870264574453966,0.34444444444444444,-0.32666666666666666,-0.7711111111111111,0.6674015957054582,-0.6657480053681774,25.789921210199537
1590515624.078422,-2.192849853259988,-2.8152848525963394,8.981606176353473,0.34444444444444444,-0.32666666666666666,-0.7711111111111111,0.976683823204094,-0.2791452209948825,25.055375919890277
1590515624.088422,-2.1489499160965533,-2.5624893507164064,9.07890731896218,0.3422222222222222,-0.3466666666666667,-0.6677777777777778,3.6243666903317413,2.845048889892862,23.84568219956112
1590515624.098422,-2.2626920899957548,-2.3722267817555776,8.645546436488845,0.3422222222222222,-0.3466666666666667,-0.6677777777777778,4.7635385712938065,5.81427173246545,24.955718480260366
1590515624.108422,-2.5310863329173623,-2.244568335413189,8.778913667082637,0.3422222222222222,-0.3466666666666667,-0.6677777777777778,0.7813994052153053,0.3073432410093515,22.93082994343873
1590515624.118422,-2.5747156321091973,-2.166806629834254,8.851942151446213,0.3422222222222222,-0.3466666666666667,-0.6677777777777778,-4.139271205719857,-8.365977413064673,18.56343028924277
1590515624.128422,-2.833928713501472,-2.2408330018298988,9.381814185694964,0.3485053173150874,-0.3353570954995094,-0.6677777777777778,-6.450515653592172,-8.176887331927759,11.95609734266847
1590515624.138422,-2.9385026737967914,-2.04,8.604625668449197,0.3644444444444445,-0.30666666666666664,-0.6677777777777778,-1.664605614973262,-1.0986798128342246,9.046791443850267
1590515624.148422,-3.0152416280969234,-2.0590520351211543,8.730501803702696,0.3644444444444445,-0.30666666666666664,-0.6677777777777778,2.2407071025047642,1.3360832000408385,5.172166400081677
1590515624.158422,-3.0518032786885247,-2.1077049180327867,8.945409836065574,0.3644444444444445,-0.30666666666666664,-0.6677777777777778,-0.6690573770491803,-0.569672131147541,0.9549180327868851
1590515624.168422,-3.178766336810199,-2.128630649906392,9.004384416510653,0.3644444444444445,-0.30666666666666664,-0.6677777777777778,-1.0548052063831685,-0.8904207898725149,-4.8107727110635645
1590515624.178422,-3.324036967271015,-2.0478890981869555,8.879753551526568,0.3681989465330648,-0.30136619312979096,-0.6649066879453035,0.9254620908876854,1.1242298485205242,-8.321072227454675
1590515624.188422,-3.2948422187612314,-2.156104468671379,9.019368875044925,0.38333333333333336,-0.28,-0.6533333333333333,0.3348748053192764,1.2381664070923686,-10.423694141607763
1590515624.198422,-3.22641620751865,-2.2005972987468914,8.803949973182506,0.38333333333333336,-0.28,-0.6533333333333333,0.8904139646009069,1.2723987030084354,-8.244822395046077
1590515624.208422,-3.204099322799097,-2.22948532731377,8.737169300225734,0.38333333333333336,-0.28,-0.6533333333333333,1.8381207674943567,1.5336625282167042,-5.561004514672686
1590515624.218422,-3.203122249596466,-2.2930240421374566,8.865365729334806,0.38333333333333336,-0.28,-0.6533333333333333,1.6399424432928384,1.053356766629853,-3.817992311613287
1590515624.228422,-3.1177675542165404,-2.391913524957251,8.901913524957251,0.38379399674896786,-0.27961020787907853,-0.6531207194491944,0.6835134896723937,0.16956070352577152,-2.4907428141030863
1590515624.238422,-3.0452895694929247,-2.4441119618661564,8.949401531359081,0.3977777777777778,-0.2677777777777778,-0.6466666666666666,0.7023409056787899,-0.264599284990429,-0.5406614776864467
1590515624.248422,-3.0138043763840408,-2.404755470480051,8.878559846864091,0.3977777777777778,-0.2677777777777778,-0.6466666666666666,1.6370575760987875,0.4733349284990429,-2.065725518898022
1590515624.258422,-2.9131113893894502,-2.453311138938945,8.88648911151156,0.3977777777777778,-0.2677777777777778,-0.6466666666666666,1.3133322897895605,1.0834026908157968,-9.567909883632144
1590515624.268422,-2.771834022206013,-2.42775103330902,8.775917011103006,0.3977777777777778,-0.2677777777777778,-0.6466666666666666,2.1187241672744954,1.5077802090931194,-15.874741672744955
1590515624.2784219,-2.767413147634473,-2.414942098422982,8.814478885806839,0.403818120294756,-0.26420848447229067,-0.6450193005256726,2.021957984986325,2.0007237697127227,-25.795140437995848
1590515624.2884219,-2.7987386978530284,-2.4409233723162855,8.94890766276837,0.4222222222222222,-0.2533333333333333,-0.64,0.375,1.8125,-42.5
1590515624.2984219,-2.8727544518595525,-2.5327544518595526,8.89868322210671,0.4222222222222222,-0.2533333333333333,-0.64,0.7193064824440794,2.242883103055099,-45.44382042489688
1590515624.3084219,-2.8797873838827592,-2.5397873838827594,8.79318924175861,0.4222222222222222,-0.2533333333333333,-0.64,1.5984229853449143,3.341778731681143,-52.960266524699016
1590515624.3184218,-2.85,-2.6230868747059746,8.900868747059745,0.4222222222222222,-0.2533333333333333,-0.64,2.432070330876588,5.198359338246824,-70.07890171710835
1590515624.3284218,-2.8455428685897437,-2.643371394230769,8.963314302884616,0.4222222222222222,-0.2523428596866097,-0.64,2.153213892227564,6.396784855769231,-86.9574944911859
1590515624.3384218,-2.8217299129394564,-2.7024051305908157,8.898649564697282,0.4222222222222222,-0.2488888888888889,-0.64,2.7133440220641987,7.898472286834585,-98.41747939788662
1590515624.3484218,-2.7921344421344423,-2.773596673596674,8.81498821898822,0.4222222222222222,-0.2488888888888889,-0.64,2.616008316008316,8.486659736659737,-107.61327962577963
1590515624.3584218,-2.743587484599828,-2.886412515400172,8.799542527720309,0.4222222222222222,-0.2488888888888889,-0.64,2.559640798251935,8.995234663753225,-117.15940921453311
1590515624.3684218,-2.7040763781672874,-2.9555417309962766,8.857038189083642,0.4222222222222222,-0.2488888888888889,-0.64,3.1411245004995005,10.087782955680684,-126.42020905231132
1590515624.3784218,-2.6831774827005797,-3.097991397045072,8.843177482700579,0.4339721131267793,-0.232211624379195,-0.6453064023439935,3.710281466242753,11.443344398728259,-136.23923461754254
1590515624.3884218,-2.67,-3.21,8.83,0.4566666666666666,-0.2,-0.6555555555555556,3.875,11.9375,-142.375
1590515624.3984218,-2.635974755752325,-3.307012622123837,8.769611970796706,0.4566666666666666,-0.2,-0.6555555555555556,3.908280741150678,12.275157776547966,-152.5575325663566
1590515624.4084218,-2.58814133833646,-3.3467279549718576,8.696021263289555,0.4566666666666666,-0.2,-0.6555555555555556,3.7428001876172607,12.701899624765478,-159.9304799874922
1590515624.4184217,-2.556683767484714,-3.439985342155959,8.816661780718654,0.4566666666666666,-0.2,-0.6555555555555556,3.5207722589831643,13.47904451796633,-167.26944389186698
1590515624.4284217,-2.500191429404334,-3.4775478573510834,8.817739286755417,0.4612984916701756,-0.18910158822703765,-0.6555555555555556,3.702825891555728,13.827825891555728,-172.16596419201244
1590515624.4384217,-2.448017134625591,-3.472747858171801,8.785495716343602,0.4755555555555556,-0.15555555555555556,-0.6555555555555556,3.7156517728524854,13.94369645429503,-176.35250922439283
1590515624.4484217,-2.387607073827201,-3.4991434093823948,8.788035369136004,0.4755555555555556,-0.15555555555555556,-0.6555555555555556,3.759602097219964,14.229690520059972,-178.72165998301992
1590515624.4584217,-2.3800305280080924,-3.559755775935259,8.750152640040463,0.4755555555555556,-0.15555555555555556,-0.6555555555555556,4.185782799544789,14.561164399645948,-179.621374799039
1590515624.4684217,-2.2395184200531713,-3.697555639954425,8.80585187998481,0.4755555555555556,-0.15555555555555556,-0.6555555555555556,4.091435624762628,14.867361374857577,-180.65393562476262
1590515624.4784217,-2.1782471579342957,-3.7502837368074915,8.814123578967148,0.48322754968177917,-0.14886296493480736,-0.6555555555555556,4.257408552817012,14.990818092136168,-180.91172763145534
1590515624.4884217,-2.0719008662175167,-3.8181641000962463,8.755507699711261,0.5277777777777778,-0.11,-0.6555555555555556,3.92049145813282,14.95450854186718,-181.09098291626563
1590515624.4984217,-1.9599226650803092,-3.840916121356335,8.687251635930993,0.5277777777777778,-0.11,-0.6555555555555556,3.8635484830458062,14.965645449137417,-180.95419393218322
1590515624.5084217,-1.8321693103268157,-3.85,8.668349206901956,0.5277777777777778,-0.11,-0.6555555555555556,3.8543650862744414,14.729365086274441,-180.3260581895426
1590515624.5184216,-1.7597166456349662,-3.8515584490076864,8.690708385912584,0.5277777777777778,-0.11,-0.6555555555555556,4.125,15.00088548239073,-179.8661451760927
1590515624.5284216,-1.6961852387843706,-3.968762952243126,8.757525904486252,0.5324026692394276,-0.1131643994211288,-0.647766264672777,4.042847322720695,15.117268451519537,-179.0720025325615
1590515624.5384216,-1.500674296910468,-4.010725191751691,8.80927480824831,0.5488888888888889,-0.12444444444444445,-0.62,3.794688298965377,15.290155850517312,-178.14702605672505
1590515624.5484216,-1.39588560551124,-4.040234318346628,8.72859408992023,0.5488888888888889,-0.12444444444444445,-0.62,3.981607482777375,15.079428027556201,-177.32649904822335
1590515624.5584216,-1.2815462235497879,-4.124605035266949,8.651993272923518,0.5488888888888889,-0.12444444444444445,-0.62,4.0461764853535485,14.810567220562765,-176.52792019126986
1590515624.5684216,-1.138470133729569,-4.2244029717682015,8.74889925705795,0.5488888888888889,-0.12444444444444445,-0.62,3.9354011887072806,14.918959881129272,-175.84001857355128
1590515624.5784216,-1.0335857793711256,-4.1576391067294045,8.749153782956158,0.578821918490303,-0.15402112845536553,-0.6014700292943627,4.264755582941221,14.824888901336918,-175.28243334080216
1590515624.5884216,-0.9908473726713263,-4.272881568321684,8.685763136643368,0.7355555555555555,-0.3088888888888889,-0.5044444444444445,3.6302960791957894,14.591101960402105,-174.96768921778843
1590515624.5984216,-0.9327391865822744,-4.354543468902954,8.780934904261594,0.7355555555555555,-0.3088888888888889,-0.5044444444444445,3.5084917016086603,14.644904979034804,-174.3523099580696
1590515624.6084216,-0.8524949380609983,-4.367917510323167,8.60707236579883,0.7355555555555555,-0.3088888888888889,-0.5044444444444445,3.7174610987994834,14.51952334072031,-174.10154668144062
1590515624.6184216,-0.7568257897594788,-4.390418756188712,8.720418756188712,0.7355555555555555,-0.3088888888888889,-0.5044444444444445,3.4273974270929823,14.602543959817293,-172.91766118599674
1590515624.6284215,-0.6831405117066471,-4.33682946305938,8.66682946305938,0.7355555555555555,-0.3088888888888889,-0.5044444444444445,3.7204638738940172,14.476944054045422,-172.45712819816654
1590515624.6384215,-0.6107545446510121,-4.399229545387585,8.79306590848826,1.2711111111111109,-0.20555555555555555,0.07444444444444444,3.3462073892931854,14.423053976017206,-171.20174714946526
1590515624.6484215,-0.4874778854999646,-4.400017691600028,8.689964616799944,1.2711111111111109,-0.20555555555555555,0.07444444444444444,3.6404314981246904,14.218694713749912,-169.56194713749912
1590515624.6584215,-0.43270161878372465,-4.417644013416946,8.620115210733557,1.2711111111111109,-0.20555555555555555,0.07444444444444444,3.3433899664576345,14.047775083855914,-168.20798545282193
1590515624.6684215,-0.36865465378488527,-4.3958834847011605,8.624036038645345,1.2711111111111109,-0.20555555555555555,0.07444444444444444,3.366591586155533,13.784136634462213,-166.5120495169332
1590515624.6784215,-0.31978395939086296,-4.45,8.736285076142131,1.2400502199661587,-0.14972850535815002,0.015934393683023115,3.148218274111675,13.664281725888324,-164.86514467005077
1590515624.6884215,-0.2261041624365482,-4.45,8.702219695431472,0.9552257868020304,0.3621984658770446,-0.5205953525098703,3.3611269035532993,13.4513730964467,-163.05542131979695
1590515624.6984215,-0.13522529259993268,-4.360090117039973,8.72027035111992,0.9366666666666666,0.3955555555555556,-0.5555555555555556,3.4375,13.172015807874958,-159.44369554649816
1590515624.7084215,-0.05290675015174264,-4.331636903811137,8.633273807622274,0.9366666666666666,0.3955555555555556,-0.5555555555555556,3.434089783726799,13.111359134907197,-157.23518113279877
1590515624.7184215,0.08769054441260746,-4.364422636103152,8.696633954154727,0.9366666666666666,0.3955555555555556,-0.5555555555555556,3.3335377865329514,12.86117926217765,-154.16292532234957
1590515624.7284214,0.1477808022922636,-4.379445200573066,8.7191678008596,0.9366666666666666,0.3955555555555556,-0.5555555555555556,3.192701244627507,12.814233748209169,-151.95648616583094
1590515624.7384214,0.22,-4.34,8.71,0.5633333333333334,0.3533333333333333,-0.6766666666666666,3.3125,12.3125,-148.9375
1590515624.7484214,0.2940041422160856,-4.272723507076286,8.71,0.5633333333333334,0.3533333333333333,-0.6766666666666666,3.186356575768036,12.35454780807732,-146.66691836382464
1590515624.7584214,0.3510774169802061,-4.190819360379519,8.632716137739244,0.5633333333333334,0.3533333333333333,-0.6766666666666666,3.256733856126288,11.935887146245706,-143.23520187510223
1590515624.7684214,0.4000724350240588,-4.189891347463912,8.670181087560147,0.5633333333333334,0.3533333333333333,-0.6766666666666666,2.812386820274908,11.811934101374542,-138.7430960367694
1590515624.7784214,0.4290071227773658,-4.146489315833952,8.742517806943415,0.5633333333333334,0.3533333333333333,-0.6766666666666666,2.767176370660366,11.58588185330183,-135.98525861028233
1590515624.7884214,0.5473742681279088,-4.13,8.750477405794925,0.4169138767952759,0.3771942818062019,-0.6972738494386896,2.6889918931091428,10.950927037982286,-130.97197305209428
1590515624.7984214,0.5972755364806867,-4.13,8.734241487839771,0.4133333333333333,0.37777777777777777,-0.6977777777777778,2.5397639484978543,10.74051859799714,-127.42782546494993
1590515624.8084214,0.6719119200168979,-4.091836759839471,8.688088079983102,0.4133333333333333,0.37777777777777777,-0.6977777777777778,2.4347475005280574,10.20817674963036,-121.78121699640921
1590515624.8184214,0.6866774625079208,-3.951564106174752,8.673322537492078,0.4133333333333333,0.37777777777777777,-0.6977777777777778,2.896170703372527,9.88518050763923,-118.64353921706682
1590515624.8284214,0.7208020688737188,-3.81,8.74919793112628,0.41021417660220444,0.3797383905802016,-0.6977332183959045,2.3549482781570292,9.672461208617772,-112.97445045541843
1590515624.8384213,0.7367533134305653,-3.81,8.733246686569435,0.34818155888113483,0.4187303217191597,-0.6968470381427464,1.956167164235867,9.3733753731769,-108.73740112000608
1590515624.8484213,0.838287350920767,-3.882896556353628,8.724609205432861,0.33555555555555555,0.4266666666666667,-0.6966666666666667,1.9045976818598822,8.863505795350294,-101.73125041954756
1590515624.8584213,0.9026217170545633,-3.8319662877909226,8.619176009690971,0.33555555555555555,0.4266666666666667,-0.6966666666666667,2.1004214026134695,8.287921402613469,-96.56882103920204
1590515624.8684213,0.9433322265624999,-3.8544462890625,8.75,0.33555555555555555,0.4266666666666667,-0.6966666666666667,1.75,7.881962890625,-90.65299682617187
1590515624.8784213,0.9679082031249999,-3.813486328125,8.75,0.33555555555555555,0.4266666666666667,-0.6966666666666667,1.75,7.47236328125,-85.78900146484375
1590515624.8884213,1.0260829439523909,-3.797989632005951,8.732010367994048,0.3055555555555556,0.4633333333333333,-0.7088888888888889,1.687176000185973,6.749676000185973,-78.15589040379385
1590515624.8984213,1.094090884539906,-3.7872727436400626,8.72909097456025,0.3055555555555556,0.4633333333333333,-0.7088888888888889,1.4375,6.3977278865023495,-72.21875506364438
1590515624.9084213,1.1167452244207192,-3.772169850386187,8.668679401544749,0.3055555555555556,0.4633333333333333,-0.7088888888888889,1.4375,5.831369389482023,-67.5462974632267
1590515624.9184213,1.1527209784316852,-3.729098776960394,8.668180244607921,0.3055555555555556,0.4633333333333333,-0.7088888888888889,1.3352469424009838,5.596620413601475,-61.91572670644772
1590515624.9284213,1.1718876809691368,-3.749719202422842,8.699719202422843,0.3055555555555556,0.4633333333333333,-0.7088888888888889,1.1267549848572378,5.153860966685923,-57.02330169108765
1590515624.9384212,1.1872482625482625,-3.690269111969112,8.785234362934364,0.2846161304161305,0.45447434577434576,-0.7072781638781639,0.9093967181467182,4.557888513513514,-50.04324083011583
1590515624.9484212,1.1729958186439287,-3.63957202590801,8.76614823317209,0.2766666666666667,0.4511111111111111,-0.7066666666666667,1.163426457325572,3.8616258096253175,-42.17269103058129
1590515624.9584212,1.2331747560875626,-3.6309750348446337,8.688775313601704,0.2766666666666667,0.4511111111111111,-0.7066666666666667,0.6798457100106583,3.59296983889481,-36.85330281011724
1590515624.9684212,1.2404897043832823,-3.6490205912334353,8.721224260958207,0.2766666666666667,0.4511111111111111,-0.7066666666666667,0.867348369011213,2.928318042813456,-30.24492227319062
1590515624.9784212,1.2575918450560652,-3.6148163098878694,8.763979612640163,0.2766666666666667,0.4511111111111111,-0.7066666666666667,0.6001274209989806,2.6076529051987767,-25.70216615698267
1590515624.9884212,1.3484886556184652,-3.6458474191015413,8.784717526966151,0.19111111111111112,0.4455555555555555,-0.6555555555555556,0.4292461358846138,2.0589690870769104,-18.533105860230606
1590515624.9984212,1.4698264247634003,-3.749851221225772,8.750049592924743,0.19111111111111112,0.4455555555555555,-0.6555555555555556,0.37507748894491055,1.6256199115592842,-13.007903872380874
1590515625.0084212,3.954622890918862,-6.594713164965073,5.338144653412144,0.19111111111111112,0.4455555555555555,-0.6555555555555556,0.3187358946802794,1.2874153680816764,-6.135779150994089
1590515625.0184212,8.809524660409764,-6.476295820828201,-2.9705563554984993,0.19111111111111112,0.4455555555555555,-0.6555555555555556,-80.94300153531218,-49.68569579133633,180.5978197699634
1590515625.0284212,7.317875197335322,-0.9753836545634336,-0.8895234460385475,0.19111111111111112,0.4455555555555555,-0.6555555555555556,-107.77450102354146,-5.754800019082971,363.1884476432524
1590515625.0384212,-0.5734344093033366,-4.223582001956308,12.66753896315618,0.15777777777777774,0.5188888888888888,-0.67,-104.20410417345941,-45.50329040321704,391.89596647103576
1590515625.0484211,1.8366116980159752,-1.3380365885081165,5.785096624581294,0.15777777777777774,0.5188888888888888,-0.67,-31.916451945374902,-78.84214764236022,374.0310003864983
1590515625.0584211,0.6219811967662768,-3.1232162191424857,8.172676483326114,0.15777777777777774,0.5188888888888888,-0.67,62.375135339974015,-40.521685975169625,365.0644015266349
1590515625.0684211,-2.91262631730908,-3.9179352533564313,17.800129926375053,0.15777777777777774,0.5188888888888888,-0.67,118.0054677349502,-41.46778006351956,360.2393216760502
1590515625.078421,-3.1950915431560594,-2.042206576631409,9.476092678192494,0.15777777777777774,0.5188888888888888,-0.67,141.30886870589396,-30.73027565758089,352.4619999259759
1590515625.088421,-0.23890795926065644,0.01784798189362513,0.06366465484722772,0.2321207929921623,0.5141579697388826,-0.651752168992833,84.39862316107128,-43.71052197284044,327.6580653526971
1590515625.098421,-1.325515707326772,-0.8526088577393379,5.898884829505915,0.28,0.5111111111111111,-0.64,-40.24981204642609,1.9807852420717764,303.0419664603837
1590515625.108421,0.2322647832357682,-1.9596869432425554,8.522940527700008,0.28,0.5111111111111111,-0.64,-58.269120641384575,-6.167623759226267,289.8198783617545
1590515625.118421,-2.1785592177823023,-3.6677246118605242,15.212754729787054,0.28,0.5111111111111111,-0.64,-7.22815124713668,-34.69051842071774,279.75624496267073
1590515625.128421,-0.9256851902661405,-1.6543173423946307,4.999271015808024,0.28,0.5111111111111111,-0.64,26.80129033789916,-16.16909336020768,276.4578971528672
1590515625.138421,-0.8212579563858236,-1.955891680162706,5.798765771534028,0.34621018668474507,0.40276716926334644,-0.668590762432049,5.385451583744491,-25.11833123046213,264.5307780309593
1590515625.148421,-0.9974830713182592,-2.9568760147309234,8.637999049617868,0.37777777777777777,0.3511111111111111,-0.6822222222222222,-21.978081812061934,-4.663918643329506,250.7766898982299
1590515625.158421,-1.3862341374185436,-2.7057345375557333,8.283765862581456,0.37777777777777777,0.3511111111111111,-0.6822222222222222,-7.046265862581457,-17.231372184749056,247.74518406310736
1590515625.168421,2.490480334912416,-14.280380081524733,5.001641511512615,0.37777777777777777,0.3511111111111111,-0.6822222222222222,-13.367818387132314,-14.264728159083399,230.62840833975983
1590515625.178421,-0.07050967596759694,-2.193904140414041,8.727474122412241,0.37777777777777777,0.3511111111111111,-0.6822222222222222,-28.58605704320432,-17.846443238073807,71.36368558730874
1590515625.188421,-2.0605953150644054,1.5792579698612423,12.322262893519671,0.4533333333333333,0.27111111111111114,-0.6822222222222222,34.25410615705973,0.11271261252300194,-6.525992191774009
1590515625.198421,-0.6004023474411895,0.9465076838911822,4.319014770975281,0.4533333333333333,0.27111111111111114,-0.6822222222222222,39.512539165464766,-0.4087848759138608,-4.092337245735316
1590515625.208421,-1.07771611278619,0.15532470759749512,7.75447334415692,0.4533333333333333,0.27111111111111114,-0.6822222222222222,-16.502288277393063,-2.246567583910407,-5.686001747788343
1590515625.218421,-1.2583791126867898,-1.4220022530731253,8.921834266591564,0.4533333333333333,0.27111111111111114,-0.6822222222222222,-25.448581060932376,11.172871591398563,-6.945431314403101
1590515625.228421,-1.126010762751521,-1.9680828848853533,8.39046823818437,0.4533333333333333,0.27111111111111114,-0.6822222222222222,0.7499396788722521,-3.093225388979878,-4.95013453439401
1590515625.238421,-1.4248479193879455,-3.033892517260683,8.067279343161037,0.44762663017561316,0.23116418900707014,-0.6716240592150277,4.6609092181377125,2.6637082478074277,-3.274421533868259
1590515625.248421,-0.02381065168843466,-2.9670663869526965,9.408493604926575,0.4455555555555555,0.21666666666666667,-0.6677777777777778,-6.653122250795155,1.8210479122961356,-22.013906746971642
1590515625.258421,0.53,-1.29,7.79,0.4455555555555555,0.21666666666666667,-0.6677777777777778,5.125,-2.625,-52.75
1590515625.268421,-0.4622312244833371,-2.0418770769376837,8.320011709972466,0.4455555555555555,0.21666666666666667,-0.6677777777777778,3.122048770452891,3.6149634458967626,-51.440378042219194
1590515625.278421,-1.2251559941585166,-3.1697999734478026,9.362583971323627,0.4455555555555555,0.21666666666666667,-0.6677777777777778,-2.413699827410718,4.159762634420498,-48.068275102889764
1590515625.288421,-1.4973342915116672,-5.037685999323639,7.967811971592831,0.46,0.2411111111111111,-0.6844444444444444,2.9986578457896518,4.1032718971931015,-48.356442340209675
1590515625.298421,-0.6728713645586742,-3.823154590801488,9.386242813662497,0.46,0.2411111111111111,-0.6844444444444444,1.3364342027392628,2.9951228018261755,-56.335115826851535
1590515625.308421,-0.7513565290886041,-3.395930412734188,8.703855472601775,0.46,0.2411111111111111,-0.6844444444444444,0.8999330891674884,5.796379771798845,-59.60887977179885
1590515625.318421,-0.9167020975724723,-4.365519208107472,8.769831015790714,0.46,0.2411111111111111,-0.6844444444444444,0.7597778694320056,5.020611890172048,-60.27338852227198
1590515625.3284209,-0.8013790959950271,-4.184183465056389,8.565631826658377,0.46,0.2411111111111111,-0.6844444444444444,1.714656780037297,4.9375,-63.74239077346594
1590515625.3384209,-0.6351303662216905,-3.927524537125146,9.119136510698459,0.4578537832032843,0.2518421950946896,-0.6908830948345915,1.814637652592371,5.782572863706806,-70.10728535113238
1590515625.3484209,-0.6578216569220775,-3.766980886928574,8.757452217321434,0.4577777777777778,0.25222222222222224,-0.6911111111111111,1.4647292884740315,5.8125,-72.92078033644476
1590515625.3584208,-0.6381094116481121,-4.0906597073106274,8.725535000495524,0.4577777777777778,0.25222222222222224,-0.6911111111111111,1.2128419114003501,6.011816177199299,-76.75326839219055
1590515625.3684208,-0.598298124767588,-4.1012347493492465,8.683915499442211,0.4577777777777778,0.25222222222222224,-0.6911111111111111,1.3856367202025748,6.538028128486179,-80.40955080303863
1590515625.3784208,-0.4924804607157548,-3.9874860433683965,8.702513956631604,0.4577777777777778,0.25222222222222224,-0.6911111111111111,1.6562848915790092,6.851571222894752,-85.4851251689487
1590515625.3884208,-0.4325741692534731,-3.9128708462673654,8.62118670805557,0.44375120858989364,0.26789897602044566,-0.6911111111111111,2.167702979492138,7.339114421657931,-90.93444672026868
1590515625.3984208,-0.3291409075961855,-3.9208590924038145,8.659312726076948,0.4388888888888889,0.2733333333333333,-0.6911111111111111,2.3039090759618546,8.002147731009536,-96.70768764386715
1590515625.4084208,-0.28603933738901677,-3.9639606626109836,8.624831469911213,0.4388888888888889,0.2733333333333333,-0.6911111111111111,1.8728933738901676,8.109901656527459,-100.85621377630713
1590515625.4184208,-0.2602399737015122,-3.979880013149244,8.71880013149244,0.4388888888888889,0.2733333333333333,-0.6911111111111111,1.5037495890861274,8.866000986193294,-106.19225632807364
1590515625.4284208,-0.15580583847367668,-4.002327320327069,8.868848802180462,0.4388888888888889,0.2733333333333333,-0.6911111111111111,1.9651525068139435,9.061061002725577,-109.92470480383015
1590515625.4384208,-0.05,-3.95,8.58,0.4122222222222222,0.3033333333333333,-0.6822222222222222,2.5625,9.25,-116.75
1590515625.4484208,-0.04692206619035887,-3.955001642440667,8.591157510059949,0.4122222222222222,0.3033333333333333,-0.6822222222222222,2.5673092715775643,9.28366490104295,-116.98324967151187
1590515625.4584208,0.0720941813568629,-4.055445060875163,8.834921515535948,0.4122222222222222,0.3033333333333333,-0.6822222222222222,2.775196211160131,10.190772158370098,-125.02682933179331
1590515625.4684207,0.1693270583144001,-4.001716975008114,8.78656604998377,0.4122222222222222,0.3033333333333333,-0.6822222222222222,2.799449583468571,10.485063020664287,-130.81611760251002
1590515625.4784207,0.27334688484602093,-4.068911474743368,8.732197377782295,0.4122222222222222,0.3033333333333333,-0.6822222222222222,2.54863934342921,11.243133194430328,-137.80620489887184
1590515625.4884207,-8.756584659913168,-16.053158465991316,7.340709117221419,0.3953277255185721,0.33418415340086827,-0.6822222222222222,0.9521413712011577,14.393310193560058,-140.71077356186686
1590515625.4984207,-4.014977592335033,-8.700873641374338,10.978453613557924,0.38666666666666666,0.35,-0.6822222222222222,-7.885926956163396,8.603461597898317,-60.48671959511667
1590515625.5084207,3.280741132295578,-1.808988006270278,8.268635120848675,0.38666666666666666,0.35,-0.6822222222222222,10.696866683679051,-10.975290273777842,37.910240694834314
1590515625.5184207,1.7527202605416523,-2.307719403496743,6.5290083990401095,0.38666666666666666,0.35,-0.6822222222222222,19.780532224888585,-7.869247086047308,37.751167723688724
1590515625.5284207,0.3730101461484927,-2.6099783890699975,8.393400974323285,0.38666666666666666,0.35,-0.6822222222222222,-1.6318083586681809,-0.9777045712611261,0.9093004834987752
1590515625.5384207,0.27204508581675346,-3.5035308684143116,8.716673640167365,0.37420283873661037,0.3580648298370952,-0.6822222222222222,-13.983853321663393,4.619756532320041,-18.93097835368457
1590515625.5484207,-2.832969292858396,-7.831297771538867,7.819794700824707,0.36777777777777776,0.3622222222222222,-0.6822222222222222,2.6796192314441143,3.2080277241621333,-35.21064002456571
1590515625.5584207,0.25715432806847227,-5.906030397952881,8.785776714021,0.36777777777777776,0.3622222222222222,-0.6822222222222222,-1.0268036376069887,2.858800075002206,-16.472686237095207
1590515625.5684206,0.40488042492550846,-2.8498769270630913,8.519463661095998,0.36777777777777776,0.3622222222222222,-0.6822222222222222,2.568086863583366,-1.797625987822257,8.461342142764607
1590515625.5784206,0.38,-2.66,8.49,0.36777777777777776,0.3622222222222222,-0.6822222222222222,2.875,-2.125,10.0
1590515625.5884206,0.057570356472795514,-4.143176360225141,8.76636826588046,0.3544711575687185,0.38371753179070245,-0.6904109115816432,-0.0038361029214688536,-0.3401216161886893,0.03922708389171703
1590515625.5984206,0.0478251033978475,-4.430425930580627,8.64739917281722,0.3533333333333333,0.3855555555555555,-0.6911111111111111,0.02851724059136712,0.035313792473093714,-0.08835517446244534
1590515625.6084206,0.04120612997824236,-4.458793870021758,8.700350960174061,0.3533333333333333,0.3855555555555555,-0.6911111111111111,0.3373084381799262,0.11746168763598525,-0.05496168763598524
1590515625.6184206,0.031731265569944114,-4.402118858989609,8.635581390129497,0.3533333333333333,0.3855555555555555,-0.6911111111111111,0.2199612294364522,0.125,-0.010820409812150732
1590515625.6284206,0.043761692889115224,-4.385412769036962,8.716331850223806,0.3533333333333333,0.3855555555555555,-0.6911111111111111,0.07281922592403978,0.09632980648100994,-0.028670193518990056
1590515625.6384206,0.058826062322946175,-4.385282719546742,8.820021529745043,0.35300723953415164,0.3847077116776833,-0.691502423670129,-0.07717422096317281,0.0625,-0.0588314447592068
1590515625.6484206,0.04829410904838474,-4.449264727379038,8.684882327145155,0.3477777777777778,0.3711111111111111,-0.6977777777777778,-0.07922818301417922,-0.015257272328606922,-0.02591909077620231
1590515625.6584206,0.05321352825329496,-4.43357294349341,8.62498939554613,0.3477777777777778,0.3711111111111111,-0.6977777777777778,0.1227536547492804,-0.08258455158309347,-0.02008455158309347
1590515625.6684206,0.04478441153546376,-4.382628526890102,8.647802650038972,0.3477777777777778,0.3711111111111111,-0.6977777777777778,0.0625,-0.029902572096648483,0.0
1590515625.6784205,0.04,-4.366273656381984,8.717254731276398,0.3477777777777778,0.3711111111111111,-0.6977777777777778,-0.005513105716220143,0.022671035238740044,0.0
1590515625.6884205,0.04,-4.397288630597675,8.74308454776093,0.351412374378036,0.3805610622717826,-0.7028662130181395,-0.08411078824709423,-0.060167635258717336,-0.040889211752905774
1590515625.6984205,0.06173566993503225,-4.423471339870065,8.699283436818257,0.3533333333333333,0.3855555555555555,-0.7055555555555556,-0.01721735430201616,0.05613058279193536,-0.0625
1590515625.7084205,0.04747758075550543,-4.411846975944382,8.657477580755506,0.3533333333333333,0.3855555555555555,-0.7055555555555556,0.17595640034761384,-0.01576512027809107,-0.027308719930477232
1590515625.7184205,0.05161217986545497,-4.418816239820607,8.654408119910304,0.3533333333333333,0.3855555555555555,-0.7055555555555556,0.22244925056060427,-0.03494925056060427,0.0
1590515625.7284205,0.04876946387697863,-4.4019236596924465,8.693691608369065,0.3533333333333333,0.3855555555555555,-0.7055555555555556,0.01202287307779104,0.0,-0.0350954253844418
1590515625.7384205,0.04,-4.391507865256255,8.702738202115617,0.3571692884187517,0.37724431953714904,-0.6921297127565912,-0.1969241578515945,-0.07192415785159452,-0.02653792107420274
1590515625.7484205,0.04628400930514818,-4.381147972084555,8.677431981389704,0.36,0.3711111111111111,-0.6822222222222222,-0.21072494184282392,-0.08572494184282392,0.039275058157176086
1590515625.7584205,0.05,-4.3963238414293695,8.61077135678392,0.36,0.3711111111111111,-0.6822222222222222,-0.10523799553322166,0.019762004466778338,0.10363100223338917
1590515625.7684205,0.05,-4.424642998027613,8.675179487179488,0.36,0.3711111111111111,-0.6822222222222222,0.16629684418145957,0.15401873767258384,-0.01227810650887573
1590515625.7784204,0.04424399007297107,-4.4012199503648555,8.698487980145941,0.36,0.3711111111111111,-0.6822222222222222,0.1780498759121384,0.007624689780345945,-0.0625
1590515625.7884204,0.04401180687328695,-4.404070841239721,8.710059034366434,0.3524221425726802,0.3711111111111111,-0.6822222222222222,0.09992620704195657,-0.07485241408391313,-0.08757379295804343
1590515625.7984204,0.04572852591400903,-4.422914103656036,8.718642629570045,0.3411111111111111,0.3711111111111111,-0.6822222222222222,-0.04428685214977446,0.0,-0.09830328696255639
1590515625.8084204,0.0346783468707346,-4.431929918775593,8.658070081224407,0.3411111111111111,0.3711111111111111,-0.6822222222222222,-0.1209793358841825,0.0,-0.09576033205790875
1590515625.8184204,0.041166062107405116,-4.448833937892595,8.63,0.3411111111111111,0.3711111111111111,-0.6822222222222222,-0.03923737060957268,0.02326262939042732,-0.07847474121914536
1590515625.8284204,0.057693927067722826,-4.434612145864554,8.64614251052594,0.3411111111111111,0.3711111111111111,-0.6822222222222222,0.014412955826732321,0.04808704417326768,-0.014412955826732321
1590515625.8384204,0.056497067074725835,-4.430508798775823,8.706497067074727,0.35338334891892653,0.3754424891609283,-0.6786127405140412,-0.01871333843407294,-0.08121333843407294,-0.02189333078296353
1590515625.8484204,0.05363655051906671,-4.4009096515572,8.754544146366532,0.36,0.37777777777777777,-0.6766666666666666,-0.022728440744166925,-0.08522844074416693,0.11931467776749924
1590515625.8584204,0.030783614610569686,-4.39,8.712742651136994,0.36,0.37777777777777777,-0.6766666666666666,-0.09007680651295459,-0.032474397829015136,0.06739759131606053
1590515625.8684204,0.03806917250250107,-4.401227669001,8.6568415035015,0.36,0.37777777777777777,-0.6766666666666666,-0.04715413748749464,-0.10525939688437902,-0.0625
1590515625.8784204,0.05078736122971819,-4.419212638770282,8.688425277540563,0.36,0.37777777777777777,-0.6766666666666666,-0.023868488471391974,-0.10113151152860803,-0.03371050384286934
1590515625.8884203,0.04,-4.414503154574132,8.725496845425868,0.36,0.3728991412548195,-0.6781015597616543,-0.06042981072555205,0.016142547318611988,-0.032285094637223975
1590515625.8984203,0.035864162693393015,-4.386543349226428,8.724505789627322,0.36,0.3588888888888889,-0.6822222222222222,-0.030093898997761992,0.0625,-0.09915101683370633
1590515625.9084203,0.03882067368735529,-4.414410336843678,8.646768989468967,0.36,0.3588888888888889,-0.6822222222222222,-0.13974157890805886,-0.047758421091941144,0.047758421091941144
1590515625.9184203,0.044471543049207876,-4.4310569139015845,8.624471543049207,0.36,0.3588888888888889,-0.6822222222222222,0.06910571188490151,-0.04928857623019697,0.11839428811509849
1590515625.9284203,0.048663925780829585,-4.409676259767097,8.658987666013733,0.36,0.3588888888888889,-0.6822222222222222,0.15207476806509246,0.008350463869815097,0.008350463869815097
1590515625.9384203,0.06,-4.374371176165876,8.716556764248814,0.35587166695445077,0.3615601632124796,-0.6790652616579786,0.13286029792655438,-0.048840074481638594,-0.0625
1590515625.9484203,0.06,-4.38611547454044,8.73417321181066,0.34477982960069564,0.36873723444137996,-0.6705832683874601,-0.013943431755498614,-0.012139142061125346,-0.0625
1590515625.9584203,0.0389063674164621,-4.397031210861179,8.662656680527029,0.3411111111111111,0.3711111111111111,-0.6677777777777778,-0.10644506788237063,0.0,-0.0625
1590515625.9684203,0.04928704198269415,-4.406429013994232,8.662145069971157,0.3411111111111111,0.3711111111111111,-0.6677777777777778,-0.044637325072107686,0.0,-0.18304401239183848
1590515625.9784203,0.055040007863953605,-4.4050400078639536,8.689919984272093,0.3411111111111111,0.3711111111111111,-0.6677777777777778,0.0,0.0,-0.12600019659884004
1590515625.9884202,0.044689484482365587,-4.410621031035269,8.721242062070537,0.3476017411882198,0.37465145478953404,-0.6754485224143608,0.033190721985215096,0.09957216595564529,-0.06638144397043019
1590515625.9984202,0.04,-4.42,8.703637546678737,0.3533333333333333,0.37777777777777777,-0.6822222222222222,0.030033523820301007,0.12256704764060201,-0.157466476179699
1590515626.0084202,0.0556432507759549,-4.42,8.63871349844809,0.3533333333333333,0.37777777777777777,-0.6822222222222222,0.03259010578323937,0.02990989421676063,-0.08972968265028188
1590515626.0184202,0.05776313389273988,-4.40776313389274,8.640592165268151,0.3533333333333333,0.37777777777777777,-0.6822222222222222,0.0625,-0.03824020658518789,0.0
1590515626.0284202,0.04547961108692498,-4.404520388913075,8.682601944565375,0.3533333333333333,0.37777777777777777,-0.6822222222222222,0.1472572921201567,0.022257292120156716,0.028252430706718908
1590515626.0384202,0.035556943813418146,-4.405556943813418,8.727772224746328,0.3533333333333333,0.37481574032005655,-0.6822222222222222,0.1666926965015902,0.09723089883386339,0.006961797667726789
1590515626.0484202,0.0344866056736655,-4.417946422694662,8.727566971631672,0.3533333333333333,0.3711111111111111,-0.6822222222222222,0.0905412854604094,0.0064174290791812055,-0.0344587145395906
1590515626.0584202,0.036700688252776476,-4.426802753011106,8.676904817769435,0.3533333333333333,0.3711111111111111,-0.6822222222222222,0.08375860315970593,-0.10374139684029407,0.0
1590515626.0684202,0.034667720328140285,-4.40466772032814,8.63466772032814,0.3533333333333333,0.3711111111111111,-0.6822222222222222,-0.029173252050876796,-0.1291534958982464,0.0
1590515626.0784202,0.03664148334691258,-4.406641483346913,8.6668681332247,0.3533333333333333,0.3711111111111111,-0.6822222222222222,-0.04150927091820359,-0.04150927091820359,-0.04198145816359282
1590515626.0884202,0.03668696657183499,-4.410030449857753,8.716656516714083,0.35816280919076965,0.3759405869685475,-0.6851942073652599,0.04179354107396871,0.020896770536984355,-0.125
1590515626.0984201,0.045515591116428625,-4.425515591116429,8.723453226650715,0.36777777777777776,0.3855555555555555,-0.6911111111111111,0.15302755552232108,0.0344724444776789,-0.0969724444776789
1590515626.1084201,0.0460479548032652,-4.432095909606531,8.655328632754287,0.36777777777777776,0.3855555555555555,-0.6911111111111111,0.03630112991837009,-0.07559943504081496,-0.024700282479592522
1590515626.1184201,0.05579652807749484,-4.422610415767516,8.640575696542463,0.36777777777777776,0.3855555555555555,-0.6911111111111111,0.009956600968685558,-0.125,-0.07245660096868556
1590515626.12842,0.055073955243457026,-4.4050739552434575,8.679852089513085,0.36777777777777776,0.3855555555555555,-0.6911111111111111,-0.029863339185180693,-0.125,-0.06342444054321286
1590515626.13842,0.05,-4.419146292813587,8.70435971961019,0.36086383870620486,0.3754505676817183,-0.6841971720395382,-0.005335669915085189,-0.0352517524363139,0.0
1590515626.14842,0.05,-4.416684085979097,8.706010451587458,0.3533333333333333,0.3644444444444445,-0.6766666666666666,0.06671021494774207,0.004210214947742062,-0.02914489252612897
1590515626.15842,0.054286208088489454,-4.411431040442447,8.659996543380574,0.3533333333333333,0.3644444444444445,-0.6766666666666666,0.10715520221223644,0.017866401659177328,-0.035711199446940886
1590515626.16842,0.048548562548562546,-4.417097125097126,8.631451437451437,0.3533333333333333,0.3644444444444445,-0.6766666666666666,0.0710712898212898,0.017642773892773897,-0.03578574203574204
1590515626.17842,0.04366317244557079,-4.407326344891142,8.658315862227854,0.3533333333333333,0.3644444444444445,-0.6766666666666666,-0.016710344430365162,-0.016710344430365162,-0.0625
1590515626.18842,0.04970265522405253,-4.419405310448105,8.688513276120263,0.3533333333333333,0.3644444444444445,-0.6766666666666666,0.05878319030065661,0.05878319030065661,-0.0625
1590515626.19842,0.06,-4.395470541905987,8.73,0.3411111111111111,0.3855555555555555,-0.6822222222222222,0.0,0.04540455654378854,-0.051286330368634385
1590515626.20842,0.05678073906426815,-4.411609630467866,8.717122956257073,0.3411111111111111,0.3855555555555555,-0.6822222222222222,0.0,0.010060190424162016,-0.177439809575838
1590515626.21842,0.04,-4.412929069304876,8.657070930695124,0.3411111111111111,0.3855555555555555,-0.6822222222222222,-0.08838663368905339,0.08459665842226335,-0.10290334157773665
1590515626.22842,0.04,-4.402727951497775,8.674091927246662,0.3411111111111111,0.3855555555555555,-0.6822222222222222,-0.21590060627781263,0.11647515156945315,-0.05397515156945316
1590515626.23842,0.04268747550182576,-4.422687475501825,8.710749902007302,0.34618745372567084,0.38346529683191327,-0.6783403131640294,0.01679672188641099,0.012109834340767026,0.0
1590515626.24842,0.04759601864870865,-4.425192037297417,8.74,0.36,0.37777777777777777,-0.6677777777777778,0.0625,-0.125,0.0
1590515626.25842,0.04,-4.413769008729935,8.694771895240777,0.36,0.37777777777777777,-0.6677777777777778,0.03894369543790482,-0.054331086313714444,-0.047112609124190366
1590515626.26842,0.04,-4.422577632408575,8.627732897225725,0.36,0.37777777777777777,-0.6677777777777778,-0.03222040510718789,0.03027959489281211,-0.09277959489281211
1590515626.27842,0.048006791289132204,-4.421993208710868,8.666013582578264,0.36,0.37777777777777777,-0.6677777777777778,-0.07495755444292372,-0.03747877722146186,-0.05004244555707628
1590515626.28842,0.0544197023333714,-4.41,8.698370446499943,0.35255960311116186,0.3799478935370222,-0.6662276950926032,0.06975372083285752,0.01743843020821438,-0.125
1590515626.29842,0.05112766677954622,-4.398872333220454,8.725563833389774,0.3333333333333333,0.3855555555555555,-0.6622222222222223,0.14567812394175414,0.16682187605824586,-0.125
1590515626.30842,0.05444413059341384,-4.395555869406587,8.668885436527551,0.3333333333333333,0.3855555555555555,-0.6622222222222223,0.0625,0.14582744862650943,-0.09027581620883648
1590515626.31842,0.05,-4.408430845716584,8.641077114291459,0.3333333333333333,0.3855555555555555,-0.6622222222222223,-0.016539178592970327,0.0625,-0.08884639286432344
1590515626.32842,0.05,-4.418439418514757,8.674681744455729,0.3333333333333333,0.3855555555555555,-0.6622222222222223,-0.125,0.05274636571723082,-0.13475363428276918
1590515626.33842,0.05,-4.412081432187846,8.693755703436462,0.3333333333333333,0.3855555555555555,-0.6622222222222223,-0.125,0.01300895117403629,-0.17449104882596372
1590515626.34842,0.06,-4.401439486742936,8.720959657828624,0.36,0.37777777777777777,-0.6822222222222222,-0.12200106928555116,0.05350320785665345,-0.05950106928555115
1590515626.35842,0.06,-4.427565143367315,8.738376762244878,0.36,0.37777777777777777,-0.6822222222222222,-0.06757261798476008,-0.10978214604571973,-0.0050726179847600805
1590515626.36842,0.04840198464706984,-4.412267989764714,8.657732010235287,0.36,0.37777777777777777,-0.6822222222222222,-0.0908498720589153,0.14916253198527119,0.0
1590515626.3784199,0.03840251856878935,-4.404201259284395,8.68680503713758,0.36,0.37777777777777777,-0.6822222222222222,0.0625,0.05621064736266637,-0.026257870527466726
1590515626.3884199,0.047811888549737815,-4.414376222900525,8.714376222900524,0.35854125903315853,0.3763190368109363,-0.6810066047498543,0.0625,-0.1113243034358613,-0.035148606871722624
1590515626.3984199,0.040700402610023605,-4.428599194779952,8.729299597389977,0.3533333333333333,0.3711111111111111,-0.6766666666666666,0.05812248368735249,-0.04936745106205748,0.04936745106205748
1590515626.4084198,0.04728191050346288,-4.41,8.698255284027704,0.3533333333333333,0.3711111111111111,-0.6766666666666666,0.016988059353357017,0.09102388129328597,-0.05704776258657193
1590515626.4184198,0.04,-4.410478438556933,8.641435315670801,0.3533333333333333,0.3711111111111111,-0.6766666666666666,0.05950975901916573,0.0029902409808342727,0.12200975901916573
1590515626.4284198,0.042645608683314414,-4.4147087826333715,8.677936826049944,0.3533333333333333,0.3711111111111111,-0.6766666666666666,0.0,0.01289483718785471,0.029429891458569807
1590515626.4384198,0.04963003264417846,-4.400554951033732,8.70036996735582,0.3534566557852738,0.37123443356305164,-0.6770571877644783,0.0,-0.12153155603917301,-0.05787540805223069
1590515626.4484198,0.03,-4.421603180194233,8.73259522970865,0.36,0.37777777777777777,-0.6977777777777778,-0.02624006189302068,-0.016220185679062055,0.1875
1590515626.4584198,0.03430286873105931,-4.41430286873106,8.711274181420466,0.36,0.37777777777777777,-0.6977777777777778,-0.03560707043087931,-0.07121414086175862,0.1068212112926379
1590515626.4684198,0.047478533430457145,-4.416260733284772,8.671217800145685,0.36,0.37777777777777777,-0.6977777777777778,0.0,-0.023370416970178578,0.0
1590515626.4784198,0.05733265241986172,-4.41,8.698002042740415,0.36,0.37777777777777777,-0.6977777777777778,-0.033341844751728474,-0.012487232872407293,0.033341844751728474
1590515626.4884198,0.05206350271866819,-4.408968248640666,8.721031751359334,0.3587389705608139,0.37777777777777777,-0.6977777777777778,-0.125,0.10565466201248573,0.125
1590515626.4984198,0.0690150153325579,-4.400656656444962,8.730656656444962,0.3477777777777778,0.37777777777777777,-0.6977777777777778,-0.12089589721899122,-0.06455205139050439,0.12294794860949561
1590515626.5084198,0.04683937823834197,-4.415440414507772,8.745440414507772,0.3477777777777778,0.37777777777777777,-0.6977777777777778,-0.028497409326424875,-0.11075129533678757,0.07674870466321243
1590515626.5184197,0.03852310690423163,-4.408523106904232,8.625907572383072,0.3477777777777778,0.37777777777777777,-0.6977777777777778,-0.009230581848552338,-0.10653883630289532,0.08096116369710468
1590515626.5284197,0.03692912447885646,-4.4,8.673858248957712,0.3477777777777778,0.37777777777777777,-0.6977777777777778,-0.04084648600357356,-0.021653513996426444,0.14419297200714712
1590515626.5384197,0.0483031533818469,-4.4,8.706787386472612,0.35117147101408397,0.37664654669900904,-0.6926872379233185,0.010605291363456873,-0.05189470863654313,0.0625
1590515626.5484197,0.04041631409713996,-4.4,8.738334743611441,0.36694514958349783,0.3713886538425378,-0.6690267200691977,0.059898036892875275,-0.0026019631071247246,0.0625
1590515626.5584197,0.05769412476141882,-4.41,8.679247122852768,0.36777777777777776,0.3711111111111111,-0.6677777777777778,0.01441172024113234,-0.03367655951773532,0.08176483927660298
1590515626.5684197,0.0495408830896923,-4.41,8.611377350730923,0.36777777777777776,0.3711111111111111,-0.6677777777777778,0.06536948068942311,0.056761038621153774,-0.056761038621153774
1590515626.5784197,0.04,-4.412391554423007,8.656740880961049,0.36777777777777776,0.3711111111111111,-0.6677777777777778,0.08015835456862032,-0.04755278485620677,0.032605569712413546
1590515626.5884197,0.04,-4.418499017109574,8.69949311976702,0.36777777777777776,0.3711111111111111,-0.6677777777777778,-0.034356570804514014,-0.009381143065161995,-0.04373771386967601
1590515626.5984197,0.033708011219812546,-4.402472007479876,8.711236003739938,0.3411111111111111,0.3855555555555555,-0.67,-0.0625,0.0,0.11727497662539052
1590515626.6084197,0.05661798221680095,-4.42,8.709853946650403,0.3411111111111111,0.3855555555555555,-0.67,-0.05545412961833531,0.014091740763329376,0.04840825923667062
1590515626.6184196,0.03337430694821281,-4.416625693051787,8.646871534741065,0.3411111111111111,0.3855555555555555,-0.67,0.021089418426330067,0.08282116314733987,0.0007682552789902014
1590515626.6284196,0.03731056563500534,-4.412689434364995,8.688068303094983,0.3411111111111111,0.3855555555555555,-0.67,0.04569103521878335,0.0672358591248666,0.07457310565635006
1590515626.6384196,0.03,-4.42,8.712697850821746,0.34275979772439946,0.38450639134709924,-0.669700238797584,-0.016861567635903917,0.2247076485461441,-0.0625
1590515626.6484196,0.03,-4.423530480713317,8.715878077146733,0.3533333333333333,0.37777777777777777,-0.6677777777777778,-0.03673798216708665,0.08456550445822833,0.025762017832913348
1590515626.6584196,0.03,-4.422871574221308,8.66148629688523,0.3533333333333333,0.37777777777777777,-0.6677777777777778,0.058171008324759146,0.08044733888317276,0.12067100832475915
1590515626.6684196,0.033510040160642574,-4.406489959839358,8.627550200803212,0.3533333333333333,0.37777777777777777,-0.6677777777777778,-0.018624497991967873,-0.08775100401606425,0.0
1590515626.6784196,0.04287962456887616,-4.4,8.671518498275505,0.3533333333333333,0.37777777777777777,-0.6677777777777778,0.04450234644452402,-0.19600703933357205,-0.01799765355547598
1590515626.6884196,0.04869318181818182,-4.4,8.705227272727273,0.3533333333333333,0.3787941919191919,-0.668939393939394,0.016335227272727276,-0.0625,-0.04616477272727272
1590515626.6984196,0.04349804845717652,-4.403498048457177,8.733003903085647,0.3533333333333333,0.3855555555555555,-0.6766666666666666,0.08127439428529347,0.02495121142941306,0.08436280285735326
1590515626.7084196,0.04752964869098233,-4.412470351309017,8.697766838218842,0.3533333333333333,0.3855555555555555,-0.6766666666666666,0.04631908704408145,0.15662060863727903,0.10956030431863951
1590515626.7184196,0.04082584790461273,-4.419174152095387,8.637432631141515,0.3533333333333333,0.3855555555555555,-0.6766666666666666,0.17201535178851132,0.07282309880765911,0.06766154940382955
