time,acc_x,acc_y,acc_z,mag_x,mag_y,mag_z,gyr_x,gyr_y,gyr_z
1590512714.2604976,-3.61,-0.88,9.21,0.27,-0.3466666666666667,-0.6488888888888888,-0.5,-1.75,-1.375
1590512714.2704976,-3.6454348326680996,-0.87,9.022175314706786,0.27,-0.3466666666666667,-0.6488888888888888,-0.09103229582437826,-0.7663062250537305,-1.0448385208781086
1590512714.2804976,-3.6536386843397155,-0.8768193421698577,8.863180657830142,0.27,-0.3466666666666667,-0.6488888888888888,-0.2528626656848306,-0.30677466863033875,-0.6618955571919489
1590512714.2904975,-3.6394596509876873,-0.88,8.865135087253078,0.27,-0.3466666666666667,-0.6488888888888888,-0.34459429533173885,-0.21959429533173885,-0.4341228186730446
1590512714.3004975,-3.6231482729387214,-0.8831482729387214,8.901482729387213,0.27279846483441905,-0.33827127216340963,-0.6436417673243532,-0.35532329413299135,-0.38773694106906076,-0.253469882398974
1590512714.3104975,-3.63,-0.89,8.997045168759106,0.2788888888888889,-0.32,-0.6322222222222222,-0.2604900600786412,-0.6744975150196603,-0.1119975150196603
1590512714.3204975,-3.631762645914397,-0.89,9.091186770428015,0.2788888888888889,-0.32,-0.6322222222222222,-0.0625,-0.6194917315175097,-0.06800826848249027
1590512714.3304975,-3.6432113120346257,-0.8832113120346257,9.010183031948062,0.2788888888888889,-0.32,-0.6322222222222222,-0.14735859956717895,-0.5412853501082052,-0.125
1590512714.3404975,-3.6316841955656622,-0.8716841955656623,9.035052586696986,0.2788888888888889,-0.32,-0.6322222222222222,-0.29144755542922113,-0.5421048891415577,-0.11447377771461058
1590512714.3504975,-3.635203024574669,-0.88,9.093578827977316,0.2858178533921445,-0.3290609535811804,-0.6402171812644403,-0.1875,-0.8399432892249528,-0.09248109640831757
1590512714.3604975,-3.61728466362857,-0.88,9.15543067274286,0.2933333333333333,-0.3388888888888889,-0.6488888888888888,-0.14776457383928168,-0.9772354261607183,-0.16473542616071832
1590512714.3704975,-3.6220424787022987,-0.88,9.103766367137355,0.2933333333333333,-0.3388888888888889,-0.6488888888888888,0.02553098377873733,-0.8494690162212627,-0.1875
1590512714.3804975,-3.617348307754853,-0.8863258461225735,8.996741538774266,0.2933333333333333,-0.3388888888888889,-0.6488888888888888,0.24360961479825186,-0.7104634617339161,-0.1875
1590512714.3904974,-3.61,-0.8854169793386363,8.937084896693182,0.2933333333333333,-0.3388888888888889,-0.6488888888888888,0.42707551653409376,-0.6875,-0.1875
1590512714.4004974,-3.6065902454850223,-0.8765902454850222,8.91,0.2975008110738618,-0.33472141114836046,-0.6511620585655408,0.6051219314372229,-0.6235671028441657,-0.33667676003028013
1590512714.4104974,-3.6295899882088114,-0.8742271411726873,8.948044270554186,0.3055555555555556,-0.32666666666666666,-0.6555555555555556,0.4497233090363383,-0.3150625736949298,-0.6514196323292958
1590512714.4204974,-3.662208107452059,-0.8761040537260296,8.976624322356178,0.3055555555555556,-0.32666666666666666,-0.6555555555555556,-0.19154563476009384,0.10794764948620439,-0.5901013431507404
1590512714.4304974,-3.65,-0.9006577925932692,8.982920909630577,0.3055555555555556,-0.32666666666666666,-0.6555555555555556,-0.8407889629663454,0.4516444814831727,-0.13092207406730905
1590512714.4404974,-3.641075572055831,-0.9155377860279157,9.01892442794417,0.3055555555555556,-0.32666666666666666,-0.6555555555555556,-0.8538334880234177,0.38844465069789025,0.11827767465105488
1590512714.4504974,-3.6254484052532834,-0.9077242026266417,9.04137898686679,0.30277402543256204,-0.32666666666666666,-0.6570727538044612,-0.6077626641651032,0.15043386491557223,0.15905253283302065
1590512714.4604974,-3.61,-0.8963549625433268,9.089112593641683,0.2933333333333333,-0.32666666666666666,-0.6622222222222223,-0.19334445231262345,-0.11915554768737655,0.0625
1590512714.4704974,-3.618228228228228,-0.88,9.113543543543544,0.2933333333333333,-0.32666666666666666,-0.6622222222222223,-0.39714714714714716,0.1875,0.08821321321321321
1590512714.4804974,-3.6258013295107276,-0.8758013295107274,9.085801329510728,0.2933333333333333,-0.32666666666666666,-0.6622222222222223,-0.14503323776818625,0.1875,0.125
1590512714.4904974,-3.624372038575171,-0.8787440771503429,9.066883884274485,0.2933333333333333,-0.32666666666666666,-0.6622222222222223,0.16395144656892804,0.269475723284464,0.125
1590512714.5004973,-3.6342072774528913,-0.8857927225471085,9.033170890188435,0.2984755613313118,-0.32666666666666666,-0.6528727167713523,0.3224090318388564,0.3224090318388564,0.09870451591942819
1590512714.5104973,-3.6345600067222654,-0.8963199798332038,8.993680020166796,0.3055555555555556,-0.32666666666666666,-0.64,0.3519998739575237,0.2160000420141588,0.028500042014158775
1590512714.5204973,-3.6338848147437126,-0.8983455557688617,8.948921482050299,0.3055555555555556,-0.32666666666666666,-0.64,0.3646597235553849,0.16321990785179497,0.02428009214820503
1590512714.5304973,-3.64,-0.8762579281183932,8.914968287526428,0.3055555555555556,-0.32666666666666666,-0.64,0.1096723044397463,0.05483615221987315,0.0625
1590512714.5404973,-3.6318534524776607,-0.8659267262388302,8.95221982128351,0.3055555555555556,-0.32666666666666666,-0.64,-0.2268318440292445,-0.08795796100731113,0.037042038992688875
1590512714.5504973,-3.62,-0.8613071770334928,8.971307177033493,0.30294120148856996,-0.3282643274853801,-0.6417429027113237,-0.39133971291866027,-0.10866028708133971,-0.008169856459330143
1590512714.5604973,-3.621280429321763,-0.8738412879652889,8.985121717287052,0.2855555555555556,-0.3388888888888889,-0.6533333333333333,-0.548016099566111,-0.016005366522036994,-0.0625
1590512714.5704973,-3.63,-0.9014469329639037,9.012765335180482,0.2855555555555556,-0.3388888888888889,-0.6533333333333333,-0.8930866620487955,-0.11595666897560225,-0.05345666897560225
1590512714.5804973,-3.6262729197383843,-0.9286354013080791,9.03336036444747,0.2855555555555556,-0.3388888888888889,-0.6533333333333333,-0.9301172450947034,0.007382754905296579,0.0
1590512714.5904973,-3.6179006160558047,-0.9432049284464367,9.135801232111609,0.2855555555555556,-0.3388888888888889,-0.6533333333333333,-0.6812885034877867,0.15124229930244265,0.013121149651221325
1590512714.6004972,-3.613966183254972,-0.8839661832549721,9.127932366509944,0.2855555555555556,-0.3375668278038982,-0.6524519592766729,-0.19989432267178775,0.25,0.0625
1590512714.6104972,-3.63,-0.8954033510420923,9.137016755210462,0.2855555555555556,-0.3322222222222222,-0.6488888888888888,-0.23563547200653862,0.3218226399673069,0.03377094401307724
1590512714.6204972,-3.63,-0.8840128218492651,9.023884603356615,0.2855555555555556,-0.3322222222222222,-0.6488888888888888,0.013141092463254456,0.5374198634420932,-0.0625
1590512714.6304972,-3.6327457888362877,-0.8872542111637124,8.972745788836288,0.2855555555555556,-0.3322222222222222,-0.6488888888888888,0.24385527909281074,0.5171611802267974,-0.0625
1590512714.6404972,-3.632102423476202,-0.8839487882618993,8.991846364785697,0.2855555555555556,-0.3322222222222222,-0.6488888888888888,0.08717992663687031,0.5131401467262594,-0.0625
1590512714.6504972,-3.6254345599781526,-0.89,9.012717279989076,0.2876689955470593,-0.3322222222222222,-0.6488888888888888,0.14198299993172664,0.3186190004779136,-0.13043199972690656
1590512714.6604972,-3.6349527331504703,-0.89,8.974574598354232,0.2933333333333333,-0.3322222222222222,-0.6488888888888888,0.1875,0.0,-0.3125
1590512714.6704972,-3.6338522249614247,-0.89,8.906886650231453,0.2933333333333333,-0.3322222222222222,-0.6488888888888888,0.09119437596438643,0.024076406008903393,-0.2643471879821932
1590512714.6804972,-3.64,-0.8872556263429713,8.905676857541373,0.2933333333333333,-0.3322222222222222,-0.6488888888888888,-0.0625,0.0453476646435707,-0.1703476646435707
1590512714.6904972,-3.64,-0.88,9.02631987011696,0.2933333333333333,-0.3322222222222222,-0.6488888888888888,-0.10949976806600178,0.0,-0.05450034790099732
1590512714.7004972,-3.64,-0.8846435292414592,9.082382744643892,0.2962570369298076,-0.3322222222222222,-0.6531884530013511,-0.17782598074696004,0.0,0.052825980746960044
1590512714.7104971,-3.6338405460931806,-0.9038405460931805,9.125362184372722,0.31222222222222223,-0.3322222222222222,-0.6766666666666666,-0.08650341308237788,0.019248293458811055,-0.019248293458811055
1590512714.7204971,-3.619930470022647,-0.8899304700226469,9.069235170249117,0.31222222222222223,-0.3322222222222222,-0.6766666666666666,-0.00043456235845683186,0.0638036870753705,-0.06336912471691367
1590512714.7304971,-3.6141029799801494,-0.88,8.96,0.31222222222222223,-0.3322222222222222,-0.6766666666666666,0.040074499503740105,0.275643624875935,-0.1875
1590512714.740497,-3.6135138425217184,-0.8702707637825774,8.982701551173987,0.31222222222222223,-0.3322222222222222,-0.6766666666666666,0.14696151576073924,0.3327692421196304,-0.20776924211963038
1590512714.750497,-3.6024256962054237,-0.8475743037945765,9.033638544308134,0.3104703305183053,-0.3322222222222222,-0.6738366877603393,0.0625,0.3446787974322071,-0.26516060128389646
1590512714.760497,-3.6187556779570085,-0.8312443220429915,9.061244322042992,0.2977777777777777,-0.3322222222222222,-0.6533333333333333,0.0625,0.14055402553739405,-0.35944597446260595
1590512714.770497,-3.6224613326197486,-0.8493459994648114,9.013924003211132,0.2977777777777777,-0.3322222222222222,-0.6533333333333333,0.0040875033449290915,0.1721166711265721,-0.07476251003478726
1590512714.780497,-3.65,-0.8741517304038986,8.896919550673164,0.2977777777777777,-0.3322222222222222,-0.6533333333333333,-0.125,-0.017298876682910715,0.40764382175600894
1590512714.790497,-3.653810350125626,-0.9076207002512517,8.974293151130633,0.2977777777777777,-0.3322222222222222,-0.6533333333333333,-0.17262937657032337,-0.17262937657032337,1.14288812971097
1590512714.800497,-3.665227427019688,-0.9252274270196877,9.045682281059063,0.29981066606321183,-0.33077015916119784,-0.6521716828845138,-0.2173285811269518,-0.2663357094365241,1.4403428377460965
1590512714.810497,-3.6660784494056515,-0.9446405168647828,9.094640516864782,0.3055555555555556,-0.32666666666666666,-0.6488888888888888,-0.06699353919021452,-0.2834967695951073,1.6540032304048928
1590512714.820497,-3.6364460986373115,-0.9454820328791038,9.045784394549246,0.3055555555555556,-0.32666666666666666,-0.6488888888888888,0.1694237670336065,-0.10881352747199458,1.4051270549439892
1590512714.830497,-3.615523189848797,-0.9265695695463912,8.993430430453609,0.3055555555555556,-0.32666666666666666,-0.6488888888888888,0.4029800634450182,0.006539873109963651,0.6148189848797092
1590512714.840497,-3.61743017524644,-0.9025698247535597,9.019906900328587,0.3055555555555556,-0.32666666666666666,-0.6488888888888888,0.4994181270536692,-0.03154093647316539,0.03154093647316539
1590512714.850497,-3.6346575848849945,-0.8853424151150054,9.04287677984666,0.3055555555555556,-0.32666666666666666,-0.6488888888888888,0.642979874041621,0.04023993702081052,-0.04023993702081052
1590512714.860497,-3.631385640556608,-0.88,9.074457437773567,0.2977777777777777,-0.3322222222222222,-0.6533333333333333,0.6961602534788005,0.045179493042398905,-0.02598076043640165
1590512714.870497,-3.633530279422458,-0.88,9.001181676534745,0.2977777777777777,-0.3322222222222222,-0.6533333333333333,0.648910615975901,-0.08271787680481978,-0.12684636958554066
1590512714.880497,-3.624671747360032,-0.88,8.927007621040048,0.2977777777777777,-0.3322222222222222,-0.6533333333333333,0.4229007894999004,-0.1833968420003985,0.014599210500099621
1590512714.890497,-3.6376081882614932,-0.88,8.954783623477013,0.2977777777777777,-0.3322222222222222,-0.6533333333333333,0.33015352990299995,-0.33015352990299995,0.017653529902999933
1590512714.900497,-3.6286832864447502,-0.88,8.9726334271105,0.299679697357583,-0.3322222222222222,-0.6533333333333333,0.14635270139844345,-0.1957294597203113,-0.10854108055937738
1590512714.910497,-3.6200702301989858,-0.88,8.98985953960203,0.3121207786014653,-0.3322222222222222,-0.6533333333333333,-0.12280530628170111,-0.24956106125634023,-0.0008778774873195588
1590512714.920497,-3.6371460165433174,-0.8828539834566826,9.007146016543317,0.31222222222222223,-0.3322222222222222,-0.6533333333333333,-0.14283739660426642,-0.28581301697866784,0.0
1590512714.930497,-3.630340210052513,-0.89,9.001020630157539,0.31222222222222223,-0.3322222222222222,-0.6533333333333333,-0.18112106151537885,-0.07313156414103526,-0.002126312828207052
1590512714.940497,-3.6369707742394195,-0.89,9.039087677281742,0.31222222222222223,-0.3322222222222222,-0.6533333333333333,0.056797983010889494,-0.29926935598548066,-0.043567338996370164
1590512714.950497,-3.63,-0.8915208150816055,9.066083260326423,0.3081667153379409,-0.33036344823359326,-0.6546851689614271,0.22552037704013758,-0.14401018852006878,0.0
1590512714.960497,-3.6336981335079757,-0.8963018664920241,9.1,0.2855555555555556,-0.32,-0.6622222222222223,0.4375,-0.22688666557515086,0.046226668849698276
1590512714.970497,-3.6437447573397246,-0.8862552426602757,9.058807669263032,0.2855555555555556,-0.32,-0.6622222222222223,0.5077142001198323,-0.1875,0.03138106650689036
1590512714.980497,-3.6380640373197624,-0.88,8.99,0.2855555555555556,-0.32,-0.6622222222222223,0.5504002332485157,-0.21236658891716143,-0.07526682216567712
1590512714.9904969,-3.6275447778374645,-0.8774850740541785,8.984970148108358,0.2855555555555556,-0.32,-0.6622222222222223,0.39034513851584685,-0.2342817128386156,-0.015718287161384393
1590512715.0004969,-3.6468570332284553,-0.8710476555905149,8.97209531118103,0.2855555555555556,-0.32,-0.6622222222222223,0.26964354232215487,-0.1940478474407183,-0.055952152559281716
1590512715.0104969,-3.622474876419143,-0.8924748764191428,9.002474876419143,0.2855555555555556,-0.32666666666666666,-0.6533333333333333,0.23453202238035742,-0.3595320223803574,-0.09343595523928513
1590512715.0204968,-3.635610087676091,-0.894389912323909,8.998779824647817,0.2855555555555556,-0.32666666666666666,-0.6533333333333333,0.20503152398778446,-0.29496847601221554,-0.11737390404886218
1590512715.0304968,-3.65,-0.88,8.978150540865386,0.2855555555555556,-0.32666666666666666,-0.6533333333333333,0.1888709435096154,-0.25,0.042123647836538464
1590512715.0404968,-3.6420199388240624,-0.88,9.030640081567917,0.2855555555555556,-0.32666666666666666,-0.6533333333333333,-0.125,-0.18349949020052114,-0.045874872550130286
1590512715.0504968,-3.62,-0.8806390820873766,9.060639082087377,0.2855555555555556,-0.3274477669956825,-0.6539014062998904,-0.13298852609220774,-0.003994263046103869,0.0
1590512715.0604968,-3.62,-0.8893732039481904,9.06937320394819,0.2855555555555556,-0.33812280482556606,-0.6616650701761693,-0.24216504935238015,-0.05858252467619008,0.0
1590512715.0704968,-3.624907918172543,-0.8824539590862716,9.037730204568643,0.2855555555555556,-0.3388888888888889,-0.6622222222222223,-0.17216275571080253,0.14033724428919747,-0.04716275571080254
1590512715.0804968,-3.63941378892943,-0.889706894464715,9.001465527676425,0.2855555555555556,-0.3388888888888889,-0.6622222222222223,-0.12683190959553164,0.18566809040446836,-0.0018319095955316583
1590512715.0904968,-3.6224345774345776,-0.88,9.012434577434577,0.2855555555555556,-0.3388888888888889,-0.6622222222222223,0.015216108966108966,0.1875,0.10978389103389104
1590512715.1004968,-3.6293551793551795,-0.88,9.019355179355179,0.2855555555555556,-0.3388888888888889,-0.6622222222222223,0.05846987096987097,0.1875,0.06653012903012903
1590512715.1104968,-3.6226189488530305,-0.8826189488530303,9.04214315344091,0.3055555555555556,-0.32666666666666666,-0.6533333333333333,0.1875,0.07589470900568299,0.059526278674243996
1590512715.1204967,-3.631864695182773,-0.888135304817227,9.005082438537816,0.3055555555555556,-0.32666666666666666,-0.6533333333333333,0.16419131021533767,-0.050845655107668836,-0.09003696532300651
1590512715.1304967,-3.636747746098577,-0.8767477460985768,8.962765777309963,0.3055555555555556,-0.32666666666666666,-0.6533333333333333,0.02184682623220905,0.0,0.02184682623220905
1590512715.1404967,-3.634531940830771,-0.8722659704153854,9.01,0.3055555555555556,-0.32666666666666666,-0.6533333333333333,-0.11914926038463639,0.02832463019231819,-0.07666231509615909
1590512715.1504967,-3.649794763559615,-0.8798973817798075,9.01,0.3055555555555556,-0.32666666666666666,-0.6533333333333333,-0.3099345444951875,0.12371727224759374,-0.12435863612379687
1590512715.1604967,-3.623139208173691,-0.8868607918263091,9.010582375478927,0.2855555555555556,-0.3322222222222222,-0.6488888888888888,-0.3125,0.0,0.01962005108556833
1590512715.1704967,-3.6280473729716687,-0.88,8.99,0.2855555555555556,-0.3322222222222222,-0.6488888888888888,-0.2636843242917178,0.012203918927070557,0.05029608107292945
1590512715.1804967,-3.620623539340431,-0.8812470786808622,8.993117696702155,0.2855555555555556,-0.3322222222222222,-0.6488888888888888,-0.0663971208776941,0.0663971208776941,0.0038971208776941053
1590512715.1904967,-3.6250595981382676,-0.8975297990691339,9.049880803723465,0.2855555555555556,-0.3322222222222222,-0.6488888888888888,-0.094122488364173,0.20219377908956748,0.0625
1590512715.2004967,-3.611362394935744,-0.889545868354752,9.080454131645249,0.28646381884605165,-0.3331809445844125,-0.6491916433190542,0.002838322782800161,0.4431766455656003,0.07101496834840049
1590512715.2104967,-3.6380024559100628,-0.880665848029979,9.089334151970021,0.3042238594955975,-0.35192765415893307,-0.6551116568689028,0.058338449812631,0.554176899625262,0.237515349437893
1590512715.2204967,-3.64,-0.88,9.010055419206713,0.3055555555555556,-0.3533333333333333,-0.6555555555555556,-0.050034637004196025,0.5625,0.050034637004196025
1590512715.2304966,-3.64,-0.88,8.943642625286992,0.3055555555555556,-0.3533333333333333,-0.6555555555555556,-0.008526640804370204,0.5625,0.008526640804370204
1590512715.2404966,-3.6312087426543145,-0.8812087426543146,8.946043713271573,0.3055555555555556,-0.3533333333333333,-0.6555555555555556,-0.1098907168210672,0.25,0.0625
1590512715.2504966,-3.6373861879022638,-0.8873861879022638,8.976930939511318,0.3055555555555556,-0.3533333333333333,-0.6555555555555556,-0.03267265122170346,0.25,0.0625
1590512715.2604966,-3.648891992209033,-0.8811080077909669,9.025567968836132,0.2877715711374894,-0.32369335930322296,-0.6496275607495334,0.0,0.25,0.0625
1590512715.2704966,-3.6241953730914553,-0.88,9.038601542302848,0.2855555555555556,-0.32,-0.6488888888888888,-0.3763174757496078,0.3575192787856022,0.11625963939280111
1590512715.2804966,-3.6412924803936644,-0.8974150392126711,8.97163232354298,0.2855555555555556,-0.32,-0.6488888888888888,-0.1875,0.2338439950791942,0.0
1590512715.2904966,-3.649354720898047,-0.8812905582039059,9.044192488082425,0.2855555555555556,-0.32,-0.6488888888888888,-0.1875,0.1330659887744118,0.0
1590512715.3004966,-3.630361859683945,-0.88,9.079457210474082,0.2855555555555556,-0.32,-0.6488888888888888,-0.06476162302465836,-0.12047675395068327,-0.06136918848767082
1590512715.3104966,-3.639097769246045,-0.8981955384920898,9.11639107698418,0.2926315983024793,-0.3371846752425292,-0.6488888888888888,-0.0056389422122195,-0.238722115575561,0.051222115575561
1590512715.3204966,-3.6273575129533677,-0.89,9.023575129533679,0.2933333333333333,-0.3388888888888889,-0.6488888888888888,0.12856217616580312,-0.016515544041450777,0.0625
1590512715.3304965,-3.622212737210588,-0.8888936313947061,8.951106368605293,0.2933333333333333,-0.3388888888888889,-0.6488888888888888,0.33324441134926,-0.06941480378308665,0.055585196216913345
1590512715.3404965,-3.63589694958116,-0.88205152520942,8.97436067646594,0.2933333333333333,-0.3388888888888889,-0.6488888888888888,0.5128220325588747,-0.15064406511774933,0.0
1590512715.3504965,-3.6226385332701123,-0.8886807333649439,9.020765133554606,0.2933333333333333,-0.3388888888888889,-0.6488888888888888,0.5542545835308993,-0.23350916706179864,0.0
1590512715.3604965,-3.62,-0.89,9.048469150281285,0.28444077949419616,-0.3388888888888889,-0.6488888888888888,0.6394547928386872,-0.2115226035806564,0.0
1590512715.3704965,-3.636716227528202,-0.89,9.051641886235899,0.2788888888888889,-0.3388888888888889,-0.6488888888888888,0.47854715589747676,-0.1352617889743692,0.0
1590512715.3804965,-3.6327163489312535,-0.8827163489312536,8.984447140381283,0.2788888888888889,-0.3388888888888889,-0.6488888888888888,0.39197718082033506,-0.17052281917966494,-0.09104563835932986
1590512715.3904965,-3.629343416811307,-0.8893434168113067,8.990656583188693,0.2788888888888889,-0.3388888888888889,-0.6488888888888888,0.0,-0.308396355070667,-0.006155467393999504
1590512715.4004965,-3.615476816265807,-0.8754768162658071,9.004523183734193,0.2788888888888889,-0.3388888888888889,-0.6488888888888888,0.0,-0.2217301016612943,-0.13615484750805854
1590512715.4104965,-3.6198410051576375,-0.8798410051576375,9.059205025788188,0.29310367411658755,-0.32030032359112903,-0.6620102290990724,-0.36903769341140885,-0.3105125644704696,-0.3105125644704696
1590512715.4204965,-3.610081071121484,-0.88,9.078783933177743,0.2933333333333333,-0.32,-0.6622222222222223,-0.18851338901854808,0.0005066945092740449,-0.7525334725463703
1590512715.4304965,-3.62,-0.88,8.946022797135404,0.2933333333333333,-0.32,-0.6622222222222223,-0.3024857517903727,0.052485751790372695,-1.0725142482096273
1590512715.4404964,-3.62,-0.88,9.015715235199309,0.2933333333333333,-0.32,-0.6622222222222223,-0.258927978000432,0.008927978000432019,-1.116072021999568
1590512715.4504964,-3.645454961832061,-0.8884849872773537,9.055454961832062,0.2933333333333333,-0.32,-0.6622222222222223,-0.25,0.10606234096692112,-1.125
1590512715.4604964,-3.65,-0.89,9.091758035694589,0.2968620039660653,-0.33499685018911124,-0.6454610367167449,-0.10113420768161663,0.125,-1.125
1590512715.4704964,-3.659018160604677,-0.8890181606046771,9.048217927256125,0.2977777777777777,-0.3388888888888889,-0.6411111111111111,-0.07477299244153604,0.1875,-0.6629540151169279
1590512715.4804964,-3.65,-0.8816474957445711,8.94,0.2977777777777777,-0.3388888888888889,-0.6411111111111111,-0.1772031515964306,0.1772031515964306,-0.3963126063857224
1590512715.4904964,-3.643245578387547,-0.8933772108062265,8.960263264837359,0.2977777777777777,-0.3388888888888889,-0.6411111111111111,-0.11444621623054226,0.13555378376945776,-0.1875
1590512715.5004964,-3.6136023110765585,-0.9081988444617206,9.049193066770323,0.2977777777777777,-0.3388888888888889,-0.6411111111111111,-0.06812861105712317,0.18187138894287683,-0.1875
1590512715.5104964,-3.616023677636581,-0.88,9.095301763151225,0.3055555555555556,-0.32,-0.6555555555555556,0.25,0.07078400492378986,-0.22063601969515947
1590512715.5204964,-3.593245899858803,-0.88,9.125672133521597,0.3055555555555556,-0.32,-0.6555555555555556,0.25,0.11823770862749357,-0.41045083450997427
1590512715.5304964,-3.2973832710779085,-0.8866015208110992,9.026601520811099,0.3055555555555556,-0.32,-0.6555555555555556,0.3400063367129136,0.4300126734258271,-1.5725887139807897
1590512715.5404963,-3.008665301490824,-0.9144763855013108,9.054476385501312,0.3055555555555556,-0.32,-0.6555555555555556,0.4822638550131083,0.7257186737794936,-3.2060831300786496
1590512715.5504963,-2.8171922158890816,-0.9418296834444169,9.081829683444417,0.3055555555555556,-0.32,-0.6555555555555556,0.755796834444169,1.3411678774993805,-4.847281006665014
1590512715.5604963,-2.6795692433053073,-0.933923108263269,9.011338568095114,0.3130888798350556,-0.32,-0.6590324744537864,1.556826178747361,2.2715378347346196,-8.023651338938478
1590512715.5704963,-2.594638663704815,-0.8932530363788478,8.946746963621152,0.32,-0.32,-0.6622222222222223,1.287651818942388,2.383660170787295,-14.22890942792026
1590512715.5804963,-2.5060571806817893,-0.8530285903408946,8.866814328267012,0.32,-0.32,-0.6622222222222223,0.6628573792611828,2.1391965172229437,-20.319372310904043
1590512715.5904963,-2.299108952116586,-0.8113671061762665,8.867726578764746,0.32,-0.32,-0.6622222222222223,0.673291117279667,2.511328938237335,-25.28936502428869
1590512715.6004963,-2.0249296839558446,-0.8614486617269016,8.854637834568274,0.32,-0.32,-0.6622222222222223,1.1195609027672766,3.7291556404052626,-30.60956165885377
1590512715.6104963,-2.0443521758732475,-0.88,8.871088043968312,0.31375169067605574,-0.32859142532042335,-0.6622222222222223,1.95293479894373,4.150366849867966,-34.88783974537882
1590512715.6204963,-2.2319328621037853,-0.9104832155259464,9.129033568948108,0.3111111111111111,-0.3322222222222222,-0.6622222222222223,0.49244975740708813,2.8810401940743295,-41.09513305667069
1590512715.6304963,-2.313271471527908,-0.9310904905093028,9.08563803796279,0.3111111111111111,-0.3322222222222222,-0.6622222222222223,0.23520895978199585,3.182932308306709,-45.141966970494266
1590512715.6404963,-2.3712556452209967,-0.9515695565262456,9.011883467831495,0.3111111111111111,-0.3322222222222222,-0.6622222222222223,1.0566141630265788,4.1875,-48.789521174205966
1590512715.6504962,-2.4023084326645443,-0.9903855408306804,9.058462648996816,0.3111111111111111,-0.3322222222222222,-0.6622222222222223,0.9110542218849486,4.1875,-51.31256015399423
1590512715.6604962,-2.391424355190556,-1.0697626074682407,9.089762607468241,0.3111111111111111,-0.3388888888888889,-0.6488888888888888,1.0148370332349546,4.508902219940973,-55.38223405620428
1590512715.6704962,-2.4375569650418876,-1.0620738391596856,9.082073839159685,0.3111111111111111,-0.3388888888888889,-0.6488888888888888,1.4953850525196606,4.797231031511796,-57.64080974684241
1590512715.6804962,-2.5214777661674215,-1.1329555323348426,8.920738883083711,0.3111111111111111,-0.3388888888888889,-0.6488888888888888,2.2407639614536166,5.210590096365959,-61.578192848020436
1590512715.6904962,-2.5397413717341903,-1.1710345130632382,8.92948274346838,0.3111111111111111,-0.3388888888888889,-0.6488888888888888,2.125,5.49838357333869,-64.20420490640419
1590512715.7004962,-2.5344755244755244,-1.1920979020979021,8.91895104895105,0.3111111111111111,-0.3388888888888889,-0.6488888888888888,2.125,5.465472027972028,-65.81687062937063
1590512715.7104962,-2.5483887660142717,-1.2178808997204023,8.925761799440805,0.31432184803423796,-0.33392684091678376,-0.6523915109868454,2.075744376747486,5.519592705420857,-67.97558997204023
1590512715.7204962,-2.624972567039298,-1.2816209450654963,8.9783241890131,0.3233333333333333,-0.32,-0.6622222222222223,1.7814214560043893,5.80202618133187,-72.6327305225979
1590512715.7304962,-2.6527849969255994,-1.3203799959007994,8.896455011272801,0.3233333333333333,-0.32,-0.6622222222222223,1.4177187948350072,5.8125,-75.16615597458495
1590512715.7404962,-2.672759873284055,-1.3427598732840549,8.914659556494192,0.3233333333333333,-0.32,-0.6622222222222223,1.1530015839493135,5.892249208025343,-77.44735876451954
1590512715.7504961,-2.6919547875545273,-1.4037965439953728,8.945977393777262,0.3233333333333333,-0.32,-0.6622222222222223,1.174576133323693,6.161652266647386,-79.71991359988432
1590512715.7604961,-2.730441701224805,-1.4643533609798438,8.998706721959687,0.347010212063737,-0.29497015677071614,-0.6541044352289409,1.5163648857170413,6.350552126531006,-81.8807201755232
1590512715.7704961,-2.7432256740407883,-1.52506891634981,9.008156757690978,0.3622222222222222,-0.2788888888888889,-0.6488888888888888,1.9576604627549257,6.800979735568614,-84.75662158658832
1590512715.7804961,-2.806654856550294,-1.6247433460076044,8.97191151054269,0.3622222222222222,-0.2788888888888889,-0.6488888888888888,2.354092853439336,6.574446940891808,-86.11581835464915
1590512715.790496,-2.7808339246825065,-1.649444050211662,9.008888100423324,0.3622222222222222,-0.2788888888888889,-0.6488888888888888,2.375,7.352414539848778,-87.40275313822889
1590512715.800496,-2.773599705135042,-1.6756011794598324,8.997199410270083,0.3622222222222222,-0.2788888888888889,-0.6488888888888888,2.4550036858119766,7.375,-88.19753501521377
1590512715.810496,-2.763509449437818,-1.7029811011243634,8.970528348313456,0.3795303570547069,-0.26735013233389915,-0.638071304618586,2.3377362359454565,7.375,-89.15235723317727
1590512715.820496,-2.7735127986348123,-1.7843203924914677,8.878923208191127,0.3888888888888889,-0.2611111111111111,-0.6322222222222222,2.334454991467577,7.417227495733789,-90.32427741040955
1590512715.830496,-2.78,-1.8488965343324448,8.78220693133511,0.3888888888888889,-0.2611111111111111,-0.6322222222222222,2.1943966604222207,7.497701113192593,-91.47241335831112
1590512715.840496,-2.8232305091907883,-1.8759383055144727,8.81458440735263,0.3888888888888889,-0.2611111111111111,-0.6322222222222222,2.133461863511515,7.445961863511515,-92.09441950137334
1590512715.850496,-2.8063971731073236,-1.9224850884068174,8.862485088406817,0.3888888888888889,-0.2611111111111111,-0.6322222222222222,2.065992932768309,7.378492932768309,-92.5120388697743
1590512715.860496,-2.7784151405323665,-1.9742262919136884,8.911584859467633,0.3905911453541245,-0.26005453813268903,-0.6331026997042406,2.009905371672707,7.299292837769724,-92.92452685836354
1590512715.870496,-2.751619945153006,-2.052699908588343,8.941079963435337,0.4211111111111111,-0.2411111111111111,-0.6488888888888888,2.1773753427937144,7.0996237430897144,-93.84287397161886
1590512715.880496,-2.779006224698559,-2.098343707830932,8.959337483132373,0.4211111111111111,-0.2411111111111111,-0.6488888888888888,2.006211095634005,7.727225982675314,-94.35636671309798
1590512715.890496,-2.807673611903512,-2.173796298409366,9.006122686505854,0.4211111111111111,-0.2411111111111111,-0.6488888888888888,2.2306134325292684,7.5770399256030485,-94.77857350692622
1590512715.900496,-2.7816027553689175,-2.2154965557888535,8.995801377684458,0.4211111111111111,-0.2411111111111111,-0.6488888888888888,2.028146526319667,7.606870694736067,-94.90124138947213
1590512715.910496,-2.7891852424426014,-2.260488854534439,8.97967409697704,0.44222222222222224,-0.21444444444444444,-0.6677777777777778,2.1885184469467482,7.6895368938934965,-95.0020368938935
1590512715.920496,-2.745373221634947,-2.286776067019032,8.962149288653979,0.44222222222222224,-0.21444444444444444,-0.6677777777777778,2.2432834729563162,7.7990669459126325,-95.11156694591263
1590512715.930496,-2.731430534208933,-2.341416794746402,8.797180149969726,0.44222222222222224,-0.21444444444444444,-0.6677777777777778,2.5177958059708443,7.973177483582506,-95.23211832238833
1590512715.940496,-2.722503245801399,-2.379987016794405,8.814980525191608,0.44222222222222224,-0.21444444444444444,-0.6677777777777778,2.5156452862587426,7.906290572517485,-95.15629057251749
1590512715.950496,-2.7093953110081688,-2.4218140669754944,8.840604688991831,0.44222222222222224,-0.21444444444444444,-0.6677777777777778,2.466860346900527,7.808720693801054,-95.125
1590512715.960496,-2.6529990828492815,-2.4852506878630387,8.8793755732192,0.46506989028159923,-0.19029119535310302,-0.6690833588097422,2.4007805334760013,7.896877866095995,-95.088280533476
1590512715.970496,-2.594006217011245,-2.4905046627584335,8.9,0.4811111111111111,-0.17333333333333334,-0.67,2.2937694281601404,7.715692998560491,-95.10311528591993
1590512715.980496,-2.5277251792083666,-2.488712470131939,8.769312948020916,0.4811111111111111,-0.17333333333333334,-0.67,2.0866411850261453,7.399141185026146,-95.01609412335077
1590512715.990496,-2.5411948988078734,-2.553584696423621,8.848909527770077,0.4811111111111111,-0.17333333333333334,-0.67,1.8417198040846503,7.2866879216338605,-94.91168792163386
1590512716.000496,-2.5568935146000844,-2.662722175201016,8.903787029200169,0.4811111111111111,-0.17333333333333334,-0.67,1.836168932501058,7.25,-94.70266213499788
1590512716.010496,-2.491209606560578,-2.719654398125549,8.949308796251097,0.5193279963552345,-0.11764587197761073,-0.6765514660418497,2.0592599824270232,7.679939958996388,-94.625
1590512716.020496,-2.407399937946013,-2.6924666459820044,8.959177784672667,0.52,-0.11666666666666667,-0.6766666666666666,2.4066669252249455,7.458055383183369,-94.96916692522494
1590512716.030496,-2.3929481527934042,-2.7816740136857443,8.84717044469447,0.52,-0.11666666666666667,-0.6766666666666666,2.5697221351236696,7.701944270247339,-95.08814809008244
1590512716.0404959,-2.327101493170185,-2.8357246267074534,8.862898506829815,0.52,-0.11666666666666667,-0.6766666666666666,2.575860541539207,7.959918375382379,-95.41983675076476
1590512716.0504959,-2.302731231637947,-2.8545375367241053,8.865462463275895,0.52,-0.11666666666666667,-0.6766666666666666,2.78964901131415,8.04542980226283,-96.09058742941679
1590512716.0604959,-2.242925477517897,-2.8790248408273675,8.850487579586316,0.52,-0.09130021223017627,-0.6904068294864323,2.6371894896579025,8.300310510342097,-96.7881210206842
1590512716.0704958,-2.1610593055013654,-2.9589406944986347,8.85,0.52,-0.09,-0.6911111111111111,2.2960804395890233,7.873940586118698,-97.79925868123293
1590512716.0804958,-2.10574614483701,-3.0142538551629903,8.690686121413234,0.52,-0.09,-0.6911111111111111,2.25,8.144403913722428,-99.20979833593597
1590512716.0904958,-2.085771009286506,-3.0555724767837353,8.719801467497229,0.52,-0.09,-0.6911111111111111,2.205534404020331,8.1875,-100.21984632361371
1590512716.1004958,-2.0150287160303666,-3.0522805589173725,8.781345362526132,0.52,-0.09,-0.6911111111111111,2.1875,8.039837990978105,-101.52230305864231
1590512716.1104958,-1.9039885455702468,-3.1142628862334725,8.90901718164463,0.542003818143251,-0.048742840981404224,-0.6911111111111111,2.239071448773245,7.989071448773244,-103.32207187301138
1590512716.1204958,-1.9019876873228028,-3.13,8.864067719724584,0.5466666666666666,-0.04,-0.6911111111111111,2.4747691373025518,8.224769137302552,-104.61142264074525
1590512716.1304958,-1.9170133626660149,-3.1790935386621038,8.812986637333985,0.5466666666666666,-0.04,-0.6911111111111111,2.5811664833374075,8.725668133300742,-106.40833791656482
1590512716.1404958,-1.8603066416018488,-3.235816015038891,8.81,0.5466666666666666,-0.04,-0.6911111111111111,2.4505749530034664,8.800383302002311,-107.8077087249711
1590512716.1504958,-1.8308421144808664,-3.270842114480866,8.875052686885198,0.5466666666666666,-0.04,-0.6911111111111111,2.6460528620216586,8.953289646516243,-109.3861850170758
1590512716.1604958,-1.78496915982993,-3.2721384514042757,8.898553805617103,0.5623897638581152,0.0010547537776713217,-0.7024666813049352,2.7275959638301694,9.174134678723277,-111.36673228935864
1590512716.1704957,-1.6940410826017365,-3.27,8.830920842023573,0.5666666666666667,0.012222222222222223,-0.7055555555555556,2.951246240966193,9.292998496386478,-112.68973571567153
1590512716.1804957,-1.63800515622413,-3.3791865938172614,8.727611343693088,0.5666666666666667,0.012222222222222223,-0.7055555555555556,2.685038671680976,9.364993554719836,-113.50492265663804
1590512716.1904957,-1.5361457853244391,-3.3658711946634323,8.66733899332929,0.5666666666666667,0.012222222222222223,-0.7055555555555556,2.625,9.481652516676775,-114.21158884172226
1590512716.2004957,-1.4899365511464768,-3.4050951732802845,8.795285519840855,0.5666666666666667,0.012222222222222223,-0.7055555555555556,2.67197413883363,9.030258611663701,-114.7822413883363
1590512716.2104957,-1.410645300746462,-3.4806853618468456,8.831330662593308,0.5724462249377948,0.06327498695052086,-0.7180779318096665,2.6333166412081734,9.200100152750958,-115.47933358791826
1590512716.2204957,-1.4226850613832502,-3.5051233742555,8.82243831287225,0.5733333333333334,0.07111111111111111,-0.72,2.7667816336453144,9.297260544548438,-115.70428163364531
1590512716.2304957,-1.3912784193899217,-3.5177443161220157,8.765789787145891,0.5733333333333334,0.07111111111111111,-0.72,2.5220881454244135,9.264098024237402,-115.7984019757626
1590512716.2404957,-1.3728207565512325,-3.54871697379507,8.757179243448768,0.5733333333333334,0.07111111111111111,-0.72,2.4375,9.205129728445202,-115.94711081466438
1590512716.2504957,-1.3360437687349387,-3.5656593718775103,8.805274975020081,0.5733333333333334,0.07111111111111111,-0.72,2.4375,9.258242148468877,-115.8231446288278
1590512716.2604957,-1.2823602332646575,-3.583819883367671,8.819270174948494,0.5733333333333334,0.11487407510873657,-0.7445686815425265,2.5670614065719173,9.182938593428082,-115.29881578028424
1590512716.2704957,-1.2101864187967983,-3.530186418796798,8.852723986573714,0.5733333333333334,0.13444444444444445,-0.7555555555555555,2.625,9.178404983217144,-114.53754518461142
1590512716.2804956,-1.1847250620556187,-3.63456203458286,8.75307543438933,0.5733333333333334,0.13444444444444445,-0.7555555555555555,2.5772658189238085,9.235234181076192,-113.67375310278094
1590512716.2904956,-1.154587098268957,-3.6750825803462086,8.72,0.5733333333333334,0.13444444444444445,-0.7555555555555555,2.6260322543276073,9.440596762982821,-112.80217745672392
1590512716.3004956,-1.1177288691173026,-3.6881807539217983,8.756813392648093,0.5733333333333334,0.13444444444444445,-0.7555555555555555,2.6875,9.548305431983142,-111.49724888784827
1590512716.3104956,-1.0654477909360056,-3.7276417672511957,8.81,0.5610481034439131,0.17513926845314912,-0.7686086123130647,2.5147389546800274,9.221548693350034,-109.54981425074016
1590512716.3204956,-0.9801627314930365,-3.7089612139969055,8.77120151749613,0.5555555555555556,0.19333333333333333,-0.7744444444444445,2.3405037937403286,9.076501896870164,-107.91254742175411
1590512716.3304956,-0.9380582039634603,-3.7,8.699660060899516,0.5555555555555556,0.19333333333333333,-0.7744444444444445,2.346784056307093,8.719659436929067,-106.39684208555883
1590512716.3404956,-0.902543118689349,-3.682543118689349,8.719827525242604,0.5555555555555556,0.19333333333333333,-0.7744444444444445,2.1204204808863394,8.401131497269477,-104.09186539897065
1590512716.3504956,-0.7974336579787863,-3.5527493001064627,8.807026536808486,0.5555555555555556,0.19333333333333333,-0.7744444444444445,1.8217920724734828,8.143584144946965,-101.58222763297977
1590512716.3604956,-0.7873151260504202,-3.7008039215686273,8.908858543417367,0.5292693744164333,0.204724011826953,-0.7805778867102396,1.897859768907563,8.098573179271709,-98.20995710784314
1590512716.3704956,-0.8056506822366661,-3.737397271053336,8.862191813160008,0.5222222222222223,0.20777777777777776,-0.7822222222222223,1.4430653042917172,7.913099416125021,-95.86729532900017
1590512716.3804955,-0.7936609692032434,-3.725446343598919,8.71741215881838,0.5222222222222223,0.20777777777777776,-0.7822222222222223,1.4709757699189159,7.818079294986486,-92.8945572728311
1590512716.3904955,-0.7213760907291081,-3.766639943294307,8.698623909270893,0.5222222222222223,0.20777777777777776,-0.7822222222222223,1.3087007797032726,7.691800283528463,-88.70620432380906
1590512716.4004955,-0.6877547877591313,-3.761632181638697,8.787348667324778,0.5222222222222223,0.20777777777777776,-0.7822222222222223,1.3545977295162883,7.663266288252714,-85.6211204343534
1590512716.4104955,-0.6707006608434615,-3.7453503304217306,8.811401321686922,0.5072399535811323,0.21036092754348293,-0.7755060328313889,1.209395651358169,7.425956086222352,-82.51075303842065
1590512716.4204955,-0.66,-3.765004608294931,8.758744239631335,0.49,0.21333333333333332,-0.7677777777777778,1.0312788018433179,6.968721198156682,-79.14819988479263
1590512716.4304955,-0.6383911326582477,-3.7983911326582476,8.69480197052039,0.49,0.21333333333333332,-0.7677777777777778,1.2099322633616139,6.489944579114048,-75.30708742229346
1590512716.4404955,-0.57,-3.7490549967828235,8.668079007077788,0.49,0.21333333333333332,-0.7677777777777778,0.5922250160858816,5.895768778150293,-70.41005028954586
1590512716.4504955,-0.5596023757183076,-3.765443326005631,8.63951097227043,0.49,0.21333333333333332,-0.7677777777777778,0.4245029696478846,5.637997030352115,-66.72820490570403
1590512716.4604955,-0.5001550071384866,-3.721906995716908,8.782062002855394,0.49793799714460535,0.21686133206426902,-0.7620447798400073,0.17655007138486642,5.365018866000408,-61.55125688354069
1590512716.4704955,-0.4735138261745718,-3.7610829570474307,8.791082957047431,0.51,0.2222222222222222,-0.7533333333333333,-0.08107717281785275,4.8530385864089265,-57.205932567078406
1590512716.4804955,-0.48,-3.7909706828416505,8.739706828416507,0.51,0.2222222222222222,-0.7533333333333333,-0.22573292895873542,4.445683990442055,-52.26270333609043
1590512716.4904954,-0.46441926345609064,-3.7644192634560905,8.649475920679887,0.51,0.2222222222222222,-0.7533333333333333,-0.6217245042492918,4.073034702549575,-48.295856940509914
1590512716.5004954,-0.43038334379577314,-3.701533375183093,8.728083281021133,0.51,0.2222222222222222,-0.7533333333333333,-1.203176658296715,4.037239746808956,-43.49130440468717
1590512716.5104954,-0.41388295783197054,-3.6783511265040882,8.78,0.5324291546161078,0.25008874765435624,-0.7533333333333333,-2.007315135501839,3.7220739457992646,-36.29386626557646
1590512716.5204954,-0.38565203761755484,-3.6960869905956115,8.767826018808776,0.5466666666666666,0.2677777777777778,-0.7533333333333333,-2.25,3.625,-33.1875
1590512716.5304954,-0.3755773868453786,-3.744619094763029,8.732113065773108,0.5466666666666666,0.2677777777777778,-0.7533333333333333,-2.0408479932983017,3.3809893255146855,-30.921686594064937
1590512716.5404954,-0.3624268412125845,-3.821004037170636,8.71,0.5466666666666666,0.2677777777777778,-0.7533333333333333,-1.3990602828408303,2.7115602828408303,-24.731710303146127
1590512716.5504954,-0.34024019675902967,-3.8353602951385444,8.749039212963881,0.5466666666666666,0.2677777777777778,-0.7533333333333333,-0.8185049189757423,2.1615043041037745,-20.008532588214294
1590512716.5604954,-0.32648536750125295,-3.823514632498747,8.737280512518794,0.5579915936070737,0.2509856447282086,-0.7939468644299656,-0.4966006406484932,1.915533546882831,-17.236143797258723
1590512716.5704954,-0.3110394291599235,-3.8210394291599235,8.66688171252023,0.5788888888888889,0.22,-0.8688888888888889,-0.5056749914177824,1.5763143053307833,-14.335275060075524
1590512716.5804954,-0.282847071438145,-3.792847071438145,8.712117678595362,0.5788888888888889,0.22,-0.8688888888888889,-0.6783825894652191,0.8526470982442031,-11.20397232274494
1590512716.5904953,-0.30518984510428904,-3.8302712072918412,8.68,0.5788888888888889,0.22,-0.8688888888888889,-0.4060804954425991,0.9067585136722026,-8.086461304031761
1590512716.6004953,-0.35518162393162395,-3.869878917378917,8.690121082621083,0.5788888888888889,0.22,-0.8688888888888889,-0.4698851495726496,0.8734864672364673,-5.453236289173789
1590512716.6104953,-0.37,-3.8779091086405306,8.73581821728106,0.5410807706477689,0.16826257503846737,-0.7700571412059612,-0.41325742799557896,0.75,-2.9935594239646317
1590512716.6204953,-0.3759584551779772,-3.9019169103559546,8.771916910355953,0.5155555555555555,0.13333333333333333,-0.7033333333333334,-0.4242210345870727,0.75,-0.9585686195422003
1590512716.6304953,-0.3720440965474655,-3.9060220482737327,8.748176386189861,0.5155555555555555,0.13333333333333333,-0.7033333333333334,-0.40055120684331924,0.6008268102649789,0.6457281469642759
1590512716.6404953,-0.36698636128673107,-3.93143862579029,8.724452264503558,0.5155555555555555,0.13333333333333333,-0.7033333333333334,-0.25,0.35316762097896537,2.511136128673108
1590512716.6504953,-0.36597975627135365,-3.9759797562713537,8.751306341695138,0.5155555555555555,0.13333333333333333,-0.7033333333333334,-0.1623734766959604,0.0788292711892277,4.893227120749822
1590512716.6604953,-0.35,-3.964369618696187,8.778065805658057,0.505359778597786,0.1595510455104551,-0.6877969113024464,0.019430350553505532,-0.132879766297663,7.053543972939729
1590512716.6704953,-0.3177396702441496,-3.859393155122799,8.74321901073245,0.4922222222222222,0.19333333333333333,-0.6677777777777778,0.24021546341375127,-0.29293092682750255,9.085312109749697
1590512716.6804953,-0.3082313512078577,-3.7824296522431644,8.763090655694187,0.4922222222222222,0.19333333333333333,-0.6677777777777778,-0.5072297252455534,-0.9405984536766658,10.440598453676666
1590512716.6904953,-0.3320395772430852,-3.901907653099468,8.666646428303727,0.4922222222222222,0.19333333333333333,-0.6677777777777778,-0.2783805561801962,-1.125824525897609,12.384449254178847
1590512716.7004952,-0.3400270834945446,-3.924993229126364,8.635223438829994,0.4922222222222222,0.19333333333333333,-0.6677777777777778,-0.09489258492610086,-1.0314615898011297,14.032223313085197
1590512716.7104952,-0.3888311688311688,-3.944025974025974,8.742337662337663,0.47940836940836945,0.2130880230880231,-0.6506926406926408,-0.4569805194805195,-1.2175324675324675,15.59090909090909
1590512716.7204952,-0.42596281605139563,-3.958074367897209,8.769442240770934,0.4655555555555556,0.2344444444444445,-0.6322222222222222,-0.3847112038546711,-1.3245352006424451,17.3198872070669
1590512716.7304952,-0.43592276783628464,-3.819699107601738,8.610857590057469,0.4655555555555556,0.2344444444444445,-0.6322222222222222,-1.4278459795355791,-0.8937751133018736,18.652363278512357
1590512716.7404952,-0.3451755291688178,-3.53402942694889,8.750795043882292,0.4655555555555556,0.2344444444444445,-0.6322222222222222,-3.913009808982963,-2.0243772586473927,19.029459215281364
1590512716.7504952,-0.2955258904519605,-3.4586812331637233,8.14084944627357,0.4655555555555556,0.2344444444444445,-0.6322222222222222,2.915504340017959,-1.0790856031128404,20.146288536366356
1590512716.7604952,-0.3393647912885662,-3.647459165154265,8.257931034482759,0.4693045832973238,0.25318958315328555,-0.6353464120070291,2.5213086595799847,-1.136326808400311,20.52749870365569
1590512716.7704952,-0.38128210535194634,-3.6966663152123487,9.122052633798658,0.4722222222222222,0.2677777777777778,-0.6377777777777778,-2.21313815317785,-2.3125,20.23878289612416
1590512716.7804952,-0.3980630733075582,-3.6924099764991283,8.961035554544765,0.4722222222222222,0.2677777777777778,-0.6377777777777778,-0.3893563793495567,-1.9597405427943295,20.75295656129179
1590512716.7904952,-0.41381270292948086,-3.7547491882820765,8.605885958191967,0.4722222222222222,0.2677777777777778,-0.6377777777777778,0.5050185144649959,-1.5089881799277662,21.36015878661851
1590512716.8004951,-0.423656655250139,-3.744626621000556,8.78642047949416,0.4722222222222222,0.2677777777777778,-0.6377777777777778,-0.5811689499721905,-1.6478540953133691,21.71174914376043
1590512716.8104951,-0.4297956734287638,-3.769182693715055,8.52858171599192,0.4722222222222222,0.2677777777777778,-0.6377777777777778,0.646634685752759,-1.6862229589297737,22.172175507157284
1590512716.8204951,-0.44817632532969054,-3.800901767106254,8.836413072032785,0.48,0.2877777777777778,-0.6466666666666666,0.0053842886915708155,-1.909068022207044,22.67597615544931
1590512716.830495,-0.4701448603132693,-3.8314486031326935,8.642028044385771,0.48,0.2877777777777778,-0.6466666666666666,1.176635476504799,-2.0009053769579332,23.322459146537266
1590512716.840495,-0.49878048780487805,-3.9412682926829268,8.761219512195122,0.48,0.2877777777777778,-0.6466666666666666,0.6018292682926829,-2.0625,24.234756097560975
1590512716.850495,-0.5337884643506237,-3.941057678246882,8.76030771480499,0.48,0.2877777777777778,-0.6466666666666666,0.9460337065741921,-2.0625,24.861779021913975
1590512716.860495,-0.5196745328172473,-3.8388608648603655,8.736320181462522,0.4831052797084761,0.2877777777777778,-0.6427144924922424,1.1895341698922046,-2.173654898655679,25.456430526074833
1590512716.870495,-0.4619742294742295,-3.6319742294742294,8.571329966329966,0.4922222222222222,0.2877777777777778,-0.6311111111111111,1.0195868945868947,-2.2408823815073813,26.321617618492617
1590512716.880495,-0.4825465384193395,-3.699596057491863,8.842732692096698,0.4922222222222222,0.2877777777777778,-0.6311111111111111,-0.9326484383571664,-1.5991832918845774,27.57103966280218
1590512716.890495,-0.5153297345204044,-3.8371063126938725,8.946245014704106,0.4922222222222222,0.2877777777777778,-0.6311111111111111,-0.0752024332272489,-2.5111036135841758,28.099932522257582
1590512716.900495,-0.5314648166501487,-3.7590426164519326,8.704648166501485,0.4922222222222222,0.2877777777777778,-0.6311111111111111,0.8057234886025768,-2.7758795837462835,28.722534687809713
1590512716.910495,-0.5395031000089855,-3.649006200017971,8.636807440021565,0.4922222222222222,0.2847439622208245,-0.6393457533371272,-0.6551240003594213,-1.9410717494833318,29.400698625213405
1590512716.920495,-0.510736027829908,-3.6211040417448617,8.937178559985353,0.4922222222222222,0.28,-0.6522222222222223,-1.2576669565615417,-1.1443662173296105,30.31019991303154
1590512716.930495,-0.5064468088892052,-3.6040864366670817,9.05005053111044,0.4922222222222222,0.28,-0.6522222222222223,-0.42655418749888796,-2.2131981388893833,30.566148604167036
1590512716.940495,-0.6119944836479564,-3.7360110327040874,8.82401654905613,0.4922222222222222,0.28,-0.6522222222222223,-0.11236209119891105,-2.3625344772002723,30.724896568399185
1590512716.950495,-0.6228278658950194,-3.745450793055175,8.760409877469728,0.4922222222222222,0.28,-0.6522222222222223,-0.259477514468386,-2.3478483236877428,31.01639329475097
1590512716.960495,-0.6288812076953052,-3.7999308692577465,8.675663092265728,0.4922222222222222,0.28,-0.6522222222222223,-0.14597735571302803,-2.4235150961913146,31.319060384765258
1590512716.970495,-0.5975645835239577,-3.6929520846677035,8.68306249428127,0.5244444444444445,0.29444444444444445,-0.6488888888888888,-0.1538281178515875,-2.3549348827279104,31.827721352975264
1590512716.980495,-0.600585438152288,-3.6611708763045763,8.825316494781696,0.5244444444444445,0.29444444444444445,-0.6488888888888888,-0.2610760307951996,-2.5883110500421993,31.7867880153976
1590512716.990495,-0.6280532024991375,-3.693960098125647,8.665973398750431,0.5244444444444445,0.29444444444444445,-0.6488888888888888,-0.038165031239219604,-2.1254156445245123,31.499168710950975
1590512717.000495,-0.6598445730075123,-3.669922286503756,8.65139884293239,0.5244444444444445,0.29444444444444445,-0.6488888888888888,-0.43701429064847597,-2.373542871945428,30.995628615836285
1590512717.010495,-0.64,-3.66,8.804596157116137,0.532030314194487,0.29197462638629107,-0.6495945511912183,-0.3253831193674545,-2.157729871620473,30.33826623873491
1590512717.020495,-0.6430859901700665,-3.66,8.693659257970511,0.5722222222222222,0.2788888888888889,-0.6533333333333333,-0.1396497542516637,-2.0,29.72249195337306
1590512717.030495,-0.6800316867715572,-3.656656104409481,8.813058714646505,0.5722222222222222,0.2788888888888889,-0.6533333333333333,-0.6035065255925584,-2.0417986948814884,28.749405873033304
1590512717.040495,-0.699769878743196,-3.650076707085601,8.641994384225635,0.5722222222222222,0.2788888888888889,-0.6533333333333333,-0.19229419285008398,-2.1240411614299832,28.379314773565074
1590512717.050495,-0.8021804012601559,-3.671278394959377,8.796015586138285,0.5722222222222222,0.2788888888888889,-0.6533333333333333,-0.7363724921240259,-1.875,27.890979936992206
1590512717.060495,-0.81,-3.6417171840625766,8.737474945001223,0.5947364132648904,0.2754545207637361,-0.6558137103126104,-0.7089648007822048,-1.9071972011733072,27.532197201173307
1590512717.070495,-0.8139120990514808,-3.6460879009485194,8.823054811382232,0.7033333333333334,0.2588888888888889,-0.6677777777777778,-0.5924444283542104,-2.0869506190717546,27.760851857215265
1590512717.0804949,-0.8247506359141444,-3.630498728171711,8.747624682042927,0.7033333333333334,0.2588888888888889,-0.6677777777777778,-0.3390744233902083,-2.154691474463403,28.008611635085312
1590512717.0904949,-0.8471997924724083,-3.596400103763796,8.711200830110368,0.7033333333333334,0.2588888888888889,-0.6677777777777778,-0.5350025940948967,-2.227500648523724,28.70749221771531
1590512717.1004949,-0.8691403404062648,-3.580859659593735,8.714842042437589,0.7033333333333334,0.2588888888888889,-0.6677777777777778,-0.5082966309246949,-2.244627127539155,29.435050886003005
1590512717.1104949,-0.8948429801127932,-3.5575785099436033,8.820628079548827,0.8101479502654926,0.2529696909732529,-0.6922617327924541,-0.7822313742950431,-2.344731374295043,30.181611754229742
1590512717.1204948,-0.9142039603453135,-3.520572277582806,8.785223762071881,1.1444444444444444,0.2344444444444445,-0.7688888888888888,-0.7137747521582088,-2.276274752158209,31.091571778056714
1590512717.1304948,-0.9123094991639462,-3.483845250418027,8.773856994983676,1.1444444444444444,0.2344444444444445,-0.7688888888888888,-0.7259671848873318,-2.2644343697746634,31.82686096623935
1590512717.1404948,-0.9117719085925821,-3.484114045703709,8.70196198476543,1.1444444444444444,0.2344444444444445,-0.7688888888888888,-0.7120248095678793,-2.1997624047839395,32.384886452623334
1590512717.1504948,-0.95656047554638,-3.46171976222681,8.709426745924397,1.1444444444444444,0.2344444444444445,-0.7688888888888888,-0.8053343240549584,-2.246417162027479,32.898088782302274
1590512717.1604948,-1.0054433434710095,-3.492151084077308,8.87544334347101,1.1700967330520946,0.17571420473745603,-0.7930222919868755,-0.9280069655646032,-2.3939860688707935,33.28243034435397
1590512717.1704948,-0.9807540468949278,-3.5579892082801923,8.850754046894927,1.309088328591517,-0.142503395576485,-0.9237841220009375,-0.8765709310310997,-2.4968581379378003,33.796790689689004
1590512717.1804948,-0.9873635597505478,-3.526817798752739,8.743089836507668,1.3133333333333332,-0.15222222222222226,-0.9277777777777778,-0.6676112422046182,-2.424433254677229,34.71421077026799
1590512717.1904948,-0.9802941176470588,-3.4914705882352943,8.644117647058824,1.3133333333333332,-0.15222222222222226,-0.9277777777777778,-0.4466911764705882,-2.556985294117647,35.28860294117647
1590512717.2004948,-0.9372625463708266,-3.4745250927416533,8.807262546370827,1.3133333333333332,-0.15222222222222226,-0.9277777777777778,-0.5848454889059984,-2.6934363407293342,36.642809022188004
1590512717.2104948,-0.9284984037701429,-3.461001064153238,8.801334752204317,1.3034524593763723,-0.1476432806324111,-0.9245150501672241,-0.3125,-2.869786124201885,37.188542775159625
1590512717.2204947,-0.8264579602671329,-3.5132289801335665,8.866457960267134,0.7211111111111111,0.12222222222222222,-0.7322222222222222,-0.33365943708260476,-2.625978311247814,36.93260844376093
1590512717.2304947,-0.7802931126534971,-3.4634014949279233,8.761172450613989,0.7211111111111111,0.12222222222222222,-0.7322222222222222,-0.25183195408435666,-2.6796182594767752,35.872614121729846
1590512717.2404947,-0.752940034888792,-3.425711513301352,8.648482991713912,0.7211111111111111,0.12222222222222222,-0.7322222222222222,-0.20376826210204974,-2.4590356519843,33.8487843436546
1590512717.2504947,-0.7908616918041416,-3.5418276616391715,8.811723383608284,0.7211111111111111,0.12222222222222222,-0.7322222222222222,-0.5900796065724765,-2.3064626885310613,31.4060099672692
1590512717.2604947,-0.7563685257981216,-3.5487262948403755,8.742737051596244,0.7211111111111111,0.12222222222222222,-0.7322222222222222,0.013550798532870556,-2.0477639434859127,29.16395417687791
1590512717.2704947,-0.7379794608472401,-3.57949486521181,8.93292811296534,0.5966666666666667,0.21444444444444444,-0.7177777777777777,-0.4589577984595635,-1.5031570924261874,24.253746790757383
1590512717.2804947,-0.6875290151989181,-3.5600232121591344,8.76508124255697,0.5966666666666667,0.21444444444444444,-0.7177777777777777,0.2813225379972953,-1.3754352279837716,18.159659285872877
1590512717.2904947,-0.6485798304275138,-3.5385210174349173,8.672781526152377,0.5966666666666667,0.21444444444444444,-0.7177777777777777,0.1608718205158825,-0.759243641031765,12.809137658227849
1590512717.3004947,-0.6373880360816585,-3.600447855673366,8.757835891755024,0.5966666666666667,0.21444444444444444,-0.7177777777777777,0.1305981959170755,-0.24160270612438678,5.296625257160943
1590512717.3104947,-0.6234857015554115,-3.6253469296824368,8.781861228127024,0.5928408088500036,0.21434104288183192,-0.7183981871534528,0.505816337896954,0.36484704107258586,-0.6311239266040182
1590512717.3204947,-0.564023412184057,-3.5828738658457553,8.798850453661698,0.5579185119176209,0.21339719701879453,-0.7240612623316771,0.5589076676928062,0.842669009235256,-7.53299680006481
1590512717.3304946,-0.4800030880877017,-3.643992588589516,8.735991970971977,0.5555555555555556,0.21333333333333332,-0.7244444444444444,0.8000038601096271,1.8499498185748475,-18.386917123446306
1590512717.3404946,-0.44762217246969815,-3.721706786072725,8.820182351578785,0.5555555555555556,0.21333333333333332,-0.7244444444444444,0.7595277155871227,2.376139697367405,-24.498814946344474
1590512717.3504946,-0.40697686048097464,-3.7447095058417057,8.823778924398782,0.5555555555555556,0.21333333333333332,-0.7244444444444444,1.625,3.272525798972587,-36.89858702323044
1590512717.3604946,-0.37092038722727927,-3.6790796127727208,8.874601936136395,0.5555555555555556,0.21231068085857854,-0.7244444444444444,1.6192475798295045,4.341262100852478,-47.651346445600346
1590512717.3704946,-0.38742272146543,-3.66773183560371,8.946804493188871,0.5555555555555556,0.19111111111111112,-0.7244444444444444,1.6932958900927508,5.227443835139126,-61.52637031475551
1590512717.3804946,-0.38046342232325076,-3.6886097330302476,8.884170800909258,0.5555555555555556,0.19111111111111112,-0.7244444444444444,2.215243325756193,6.01036498863429,-69.52956432826163
1590512717.3904946,-0.36166437169635324,-3.7525034424554704,8.752083907075912,0.5555555555555556,0.19111111111111112,-0.7244444444444444,2.4114511615511036,6.981817449917825,-83.1724559143606
1590512717.4004946,-0.33,-3.8032386305219505,8.783749957160971,0.5555555555555556,0.19111111111111112,-0.7244444444444444,2.3462357346036535,7.759942938414613,-92.21306633195105
1590512717.4104946,-0.33,-3.82480019877309,8.941868124335995,0.5555555555555556,0.19111111111111112,-0.7244444444444444,2.5708354038863566,8.658341615545426,-99.04089627814524
1590512717.4204946,-0.24569783322874755,-4.002611568417556,8.710439629397216,0.4633333333333333,0.2311111111111111,-0.6877777777777778,1.9069317300948656,10.512875585987967,-110.3848879701746
1590512717.4304945,-1.025860919266492,-8.372036199095023,2.2605382233865208,0.4633333333333333,0.2311111111111111,-0.6877777777777778,-40.345618004286735,67.35709395094071,-328.7876428911645
1590512717.4404945,-3.3915738179234034,-10.096265323215146,-2.1584721199969543,0.4633333333333333,0.2311111111111111,-0.6877777777777778,-84.32870358620339,93.45051521534987,-783.0959794802162
1590512717.4504945,1.0347357069681338,-8.13052589011305,-0.3552632146515933,0.4633333333333333,0.2311111111111111,-0.6877777777777778,-83.45067084239473,16.612085272920073,-973.86177860853
1590512717.4604945,0.29884581754590495,-8.467357913144856,-0.6212510929758088,0.46383116357394993,0.23471080669710806,-0.6870501797337997,-87.43071899591956,81.78775320606238,-951.7679475735937
1590512717.4704945,-7.576276876127064,-13.496189485365516,-5.111131918435289,0.4777777777777778,0.33555555555555555,-0.6666666666666666,-93.25956703426273,138.16103134970177,-613.8972508322929
1590512717.4804945,0.42009461807950127,-0.032620617362279655,-0.34459794212573447,0.4777777777777778,0.33555555555555555,-0.6666666666666666,-53.58497179388155,111.64877348211084,-276.03275944111886
1590512717.4904945,0.1829062646547681,-0.1888178257151527,0.17605941905050893,0.4777777777777778,0.33555555555555555,-0.6666666666666666,2.7472621444925664,36.76812105183305,-239.7675279647458
1590512717.5004945,0.11663071463363718,-1.7590738292394406,16.30516735091504,0.4777777777777778,0.33555555555555555,-0.6666666666666666,52.55282774337206,29.01947498434347,-204.75725419247095
1590512717.5104945,0.7538490841303289,-1.5106986545631382,13.142519857351273,0.4777777777777778,0.33555555555555555,-0.6666666666666666,125.25246190630573,31.710776665585996,-185.96498622142974
1590512717.5204945,3.2467062766605728,4.623318098720292,18.38511578305911,0.32606845419459685,0.5362292639989166,-0.6409804319859164,210.42559795856187,16.922931901279707,-159.57861060329068
1590512717.5304945,1.724136365720574,2.7247051675913614,3.163224815443165,0.2677777777777778,0.6133333333333333,-0.6311111111111111,173.54684992434318,-21.67256780457609,-128.2965174927782
1590512717.5404944,-0.5385443037974684,-0.009917349218168281,1.2174192107222637,0.2677777777777778,0.6133333333333333,-0.6311111111111111,24.596965748324646,7.777140729709606,-82.56162043931496
1590512717.5504944,0.1251107594936709,2.0122786671630677,7.97889314966493,0.2677777777777778,0.6133333333333333,-0.6311111111111111,-5.950686429635148,16.463214352196573,-61.04162904877141
1590512717.5604944,3.3655179514363187,-0.5629757997104936,20.6335046586067,0.2630854632895449,0.612263156344789,-0.6347332486107996,-89.0620922444902,17.701315266366286,-28.865458521070767
1590512717.5704944,1.236258027686599,-1.2898315969744543,9.362964178678466,0.20892758035615183,0.5999113584827871,-0.6765393336821909,-65.97373162551735,13.53258348794063,-12.885320037105753
1590512717.5804944,2.6681500465983223,-1.9908108108108107,13.667362534948744,0.20444444444444448,0.5988888888888889,-0.68,29.07618825722274,-1.3659133271202237,4.55888863000932
1590512717.5904944,0.522046037735849,-0.3435499371069182,2.1524322012578616,0.20444444444444448,0.5988888888888889,-0.68,54.000998427672954,-2.5090047169811323,22.349308176100628
1590512717.6004944,1.4951612968387031,-1.3668031511968488,7.109098474901526,0.20444444444444448,0.5988888888888889,-0.68,3.296952328047672,-10.738265074234926,46.59164352085648
1590512717.6104944,2.586041732934665,-2.863599465614861,15.386301927603537,0.2031407143513512,0.5998666864587089,-0.6793481349534534,-35.58635647941981,-4.869127329982824,70.67226366181055
1590512717.6204944,1.3344381625441697,-2.6251872791519437,10.473780918727915,0.19111111111111112,0.6088888888888889,-0.6733333333333333,-11.442977031802121,3.595715547703181,92.17234982332155
1590512717.6304944,1.339955546633016,-2.7244702879430998,8.147497418836757,0.19111111111111112,0.6088888888888889,-0.6733333333333333,14.506399133876334,-21.865035634392566,101.2712623322244
1590512717.6404943,1.263227083745793,-3.1216491783805185,6.561762027321323,0.19111111111111112,0.6088888888888889,-0.6733333333333333,-0.7721614531775884,-9.687586616511581,122.88970005939419
1590512717.6504943,-0.7157411511429114,-1.6282669537136707,9.880918128284684,0.19111111111111112,0.6088888888888889,-0.6733333333333333,-23.66376321788134,-19.0272866143228,145.30934195529665
1590512717.6604943,-0.6995729609390811,-1.9408864602307225,10.272819941982053,0.1924648631631024,0.608534334780034,-0.6729143148410504,-11.177625143358295,-1.7692901234567902,174.2375109626931
1590512717.6704943,-1.0108277676583688,-2.6199878567091686,7.113112055589286,0.23648069441633496,0.597006378975616,-0.6592903670721926,21.657398974566554,-12.5570987654321,181.95993135667544
1590512717.6804943,-0.26,-2.61,7.07,0.23777777777777775,0.5966666666666667,-0.6588888888888889,-4.375,-11.6875,185.375
1590512717.6904943,0.24522455586916825,-2.666136061763241,7.9182782666445295,0.23777777777777775,0.5966666666666667,-0.6588888888888889,-13.692026917649011,-17.30110617632409,186.7004347916321
1590512717.7004943,0.23745699049385577,-3.081150011592859,8.50623000231857,0.23777777777777775,0.5966666666666667,-0.6588888888888889,-3.1136245073034985,-15.113181080454439,190.45391258984466
1590512717.7104943,0.36934145113586303,-3.259828204644138,9.028568372034485,0.23777777777777775,0.5966666666666667,-0.6588888888888889,-0.6799839531810457,-16.678015464728464,193.36927348813794
1590512717.7204943,0.45982711198428294,-2.926969496432634,8.368355909419915,0.2855555555555556,0.5722222222222222,-0.6522222222222223,-8.920465825664358,-15.648538155309689,196.26163142384448
1590512717.7304943,0.32954271667948887,-3.076520743812508,8.05580470230612,0.2855555555555556,0.5722222222222222,-0.6522222222222223,-3.1399104948117014,-16.092320989623403,197.81423920589947
1590512717.7404943,0.39250483177903295,-3.383461054922785,9.149771452160696,0.2855555555555556,0.5722222222222222,-0.6522222222222223,-3.2382887996547387,-16.28907759930948,198.6504547970653
1590512717.7504942,0.05747960336387599,-7.675507510146019,8.519537676247856,0.2855555555555556,0.5722222222222222,-0.6522222222222223,-7.053518942722062,-16.890072591104975,206.2394617380026
1590512717.7604942,0.11991801516872908,-3.1590275432185955,9.701340927933185,0.28577390883068415,0.5720209277967131,-0.652259751691385,-10.039662465072006,-18.324974283784197,233.4594413056161
1590512717.7704942,4.163214149471129,-8.252374891624761,7.74114756372464,0.3566666666666667,0.5066666666666667,-0.6644444444444444,-4.237333102132824,-22.785785503728107,252.5052453615398
1590512717.7804942,7.806953181897,-17.823553667418068,11.508526443558175,0.3566666666666667,0.5066666666666667,-0.6644444444444444,-11.373897823825212,-24.604018553840817,215.45874696549333
1590512717.7904942,-2.3615702721870337,0.2431928786285491,1.9804372600327702,0.3566666666666667,0.5066666666666667,-0.6644444444444444,-11.314485461348463,1.5120915971729723,-83.2389049546355
1590512717.8004942,-5.857181766288837,-3.8474777786838454,3.394105846856397,0.3566666666666667,0.5066666666666667,-0.6644444444444444,29.96890035064829,27.92034473619832,-101.5332962978064
1590512717.8104942,-0.9301539888682745,-0.37244341372912804,7.679222634508348,0.3577247990105133,0.5060210265924552,-0.664354772211915,35.109218460111315,4.644121057513915,-51.697762059369204
1590512717.8204942,-0.4027322201607917,-2.1103413729128015,9.78026345083488,0.41440582697725553,0.4714359925788497,-0.659551295265581,-12.607320655534942,2.320439084724799,8.01546072974645
1590512717.8304942,-0.6023080847342338,-5.196058692061024,8.963199397531824,0.4222222222222222,0.4666666666666667,-0.6588888888888889,-21.932541176756388,-8.760561412885046,27.998776236517344
1590512717.8404942,-0.5476428423517419,-4.778933879163414,8.73556905971742,0.4222222222222222,0.4666666666666667,-0.6588888888888889,1.3357512066136765,-1.8884390082670957,47.36158886729639
1590512717.8504941,1.0691726532757768,-4.217725194730722,7.907118144602494,0.4222222222222222,0.4666666666666667,-0.6588888888888889,4.175199907612418,-5.437749884515522,66.152058212141
1590512717.8604941,5.424858910722785,-12.504301013123005,8.31325831236826,0.4222222222222222,0.4666666666666667,-0.6588888888888889,-4.127456313320188,-8.463629139185421,60.45675528659822
1590512717.8704941,-2.2270530510700053,-3.502800902996936,6.9561528184100805,0.4222222222222222,0.4666666666666667,-0.6588888888888889,2.9947968256893414,5.724971781345742,-26.06039223929419
1590512717.880494,0.05528260183138611,-3.7371297758130724,8.754145879381118,0.4222222222222222,0.4666666666666667,-0.6588888888888889,7.845614935269971,4.971917429744237,-7.713727502368172
1590512717.890494,2.302893030794165,-5.43235170178282,9.28540599675851,0.4222222222222222,0.4666666666666667,-0.6588888888888889,-8.468643638573743,-6.484506685575365,18.64366389789303
1590512717.900494,-0.2764040123651505,-3.8039928080247303,8.607600151410006,0.4222222222222222,0.4666666666666667,-0.6588888888888889,-2.812582802346855,-2.3125354867200807,6.317602201753832
1590512717.910494,0.19017743276961463,-4.64,8.591508178541725,0.4222222222222222,0.4666469519144873,-0.6588888888888889,6.790875381203216,1.806031096941133,-5.544387071435172
1590512717.920494,0.2400414822689299,-4.625615474388454,9.064591936956194,0.4222222222222222,0.46,-0.6588888888888889,-0.5345781865662156,-0.3265905388072981,0.5140905388072982
1590512717.930494,0.19642304981338757,-4.562611071952671,8.909504177114266,0.4222222222222222,0.46,-0.6588888888888889,-0.6860310770368487,-0.11455649214841179,0.3020564921484118
1590512717.940494,0.16,-4.51,8.78,0.4222222222222222,0.46,-0.6588888888888889,-0.8125,0.0625,0.125
1590512717.950494,0.15740059661655612,-4.51693174235585,8.789531145739295,0.4222222222222222,0.46,-0.6588888888888889,-0.7041915256898379,0.04083830513796758,0.125
1590512717.960494,0.13270597009067003,-4.582784079758214,8.880078109667544,0.4222222222222222,0.46,-0.6588888888888889,0.3247512462220825,-0.16495024924441654,0.125
1590512717.970494,0.14516598647743192,-4.582417006761284,8.905165986477432,0.4222222222222222,0.46,-0.6647867725190013,0.5322874154839495,-0.045318876774075645,0.03021258451605044
1590512717.980494,0.15,-4.619582290156806,8.91,0.4222222222222222,0.46,-0.6666666666666666,-0.3652099255501384,0.18554198511002767,0.12369465674001845
1590512717.990494,0.17952824830443354,-4.640235875847783,8.534245765260097,0.4222222222222222,0.46,-0.6666666666666666,-0.3139742240486452,0.05955155190270957,0.05955155190270957
1590512718.000494,0.16551501787444456,-4.647242491062778,8.660364839129999,0.4222222222222222,0.46,-0.6666666666666666,-0.35776556914236074,-0.02803113828472152,-0.02803113828472152
1590512718.010494,0.16,-4.605757066241484,8.783738222930861,0.4222222222222222,0.46,-0.6666666666666666,0.17803667198144657,0.07575916799536164,0.07575916799536164
1590512718.020494,0.14666369258846193,-4.576663692588462,8.923358612998074,0.41777678641837623,0.4496273164576926,-0.6651848547320512,0.375,0.08332403933894353,0.08332403933894353
1590512718.030494,0.14953683974430862,-4.646294717954469,8.789263205113826,0.4155555555555556,0.4444444444444444,-0.6644444444444444,0.2557895031961422,-0.0567104968038578,0.0028947515980711006
1590512718.040494,0.1591215489422732,-4.59527070634636,8.752635353173181,0.4155555555555556,0.4444444444444444,-0.6644444444444444,-0.3771064897812836,0.10852904266762281,0.0570096808892076
1590512718.050494,0.14994768226822683,-4.6396860936093605,8.641203307830784,0.4155555555555556,0.4444444444444444,-0.6644444444444444,-0.1852110992349235,-0.06217301417641764,0.0006539716471647165
1590512718.060494,0.14208258325832585,-4.592495499549955,8.822100585058505,0.4155555555555556,0.4444444444444444,-0.6644444444444444,0.15888698244824484,-0.01301614536453645,0.0989677092709271
1590512718.070494,0.1490953869749882,-4.643667708824918,8.806332291175083,0.4286933367416496,0.4505080357611032,-0.6593914516805621,0.47738467437470505,-0.1705385057810288,0.125
1590512718.080494,0.18699745425995098,-4.640750636435012,8.790750636435012,0.43,0.4511111111111111,-0.6588888888888889,0.3265744331564797,-0.014074433156479743,-0.04842556684352026
1590512718.090494,0.15019576915939878,-4.6394126925218035,8.622544999072183,0.43,0.4511111111111111,-0.6588888888888889,-0.19361778623121173,-0.12132932826127296,0.0012235572462423454
1590512718.100494,0.15992461495639265,-4.610226155130823,8.749019994433105,0.43,0.4511111111111111,-0.6588888888888889,-0.4976442173872704,0.06108653043236223,0.06202884347745407
1590512718.110494,0.14388429592054058,-4.666404964278108,8.70971073980135,0.43,0.4511111111111111,-0.6588888888888889,-0.19783054851013576,0.0625,-0.038223150496621436
1590512718.120494,0.13331629874753906,-4.60647928622293,8.833674025049218,0.4426247690324262,0.45556691194608506,-0.6588888888888889,0.20918506262304698,0.10427313282788087,0.021046265655761745
1590512718.1304939,0.13,-4.629534830692053,8.800775282179911,0.4488888888888889,0.4577777777777778,-0.6588888888888889,0.4990308972751112,-0.12306179455022231,0.00048455136244442143
1590512718.1404939,0.1479855216098591,-4.5940289567802814,8.746043435170423,0.4488888888888889,0.4577777777777778,-0.6588888888888889,-0.005842795277287038,-0.125,0.0
1590512718.1504939,0.15,-4.617462847878952,8.721691434747367,0.4488888888888889,0.4577777777777778,-0.6588888888888889,-0.40578559848689544,-0.18221426641448257,0.0
1590512718.1604939,0.15769584424410818,-4.604608311511783,8.781566753952866,0.4488888888888889,0.4577777777777778,-0.6588888888888889,-0.4375,0.0048961061027045505,-0.04809902652567614
1590512718.1704938,0.16,-4.633369171695008,8.8,0.4331312244773572,0.4577777777777778,-0.663523496068751,-0.020385353812397145,0.010360669226549643,-0.0625
1590512718.1804938,0.14478727010763626,-4.60196817526909,8.87606364946182,0.43,0.4577777777777778,-0.6644444444444444,0.252659123654547,0.047539780913636746,0.03257956182727349
1590512718.1904938,0.1486568176040225,-4.615970452812068,8.709550012711505,0.43,0.4577777777777778,-0.6644444444444444,0.09607955989943787,-0.04571022005028107,-0.04571022005028107
1590512718.2004938,0.15,-4.6340989138058495,8.750494569029248,0.43,0.4577777777777778,-0.6644444444444444,-0.15779552821640477,-0.0625,-0.0625
1590512718.2104938,0.16260416666666666,-4.64,8.748489583333333,0.43,0.4577777777777778,-0.6644444444444444,-0.2893880208333333,0.0556640625,0.0556640625
1590512718.2204938,0.160965418359335,-4.6309654183593345,8.811311234765986,0.43,0.4577777777777778,-0.6594252324218527,0.08276294677909396,0.06853386474584372,0.125
1590512718.2304938,0.16,-4.599874924908735,8.813974984981748,0.43,0.4577777777777778,-0.6588888888888889,0.31328171932040483,0.0625,0.012030968407757123
1590512718.2404938,0.16633494288069722,-4.605339771522789,8.778325285596514,0.43,0.4577777777777778,-0.6588888888888889,0.3187198209869273,0.0625,0.01668678600871512
1590512718.2504938,0.17,-4.59297053094044,8.71945579641066,0.43,0.4577777777777778,-0.6588888888888889,-0.1301019086500601,-0.021967090811124468,-0.021967090811124468
1590512718.2604938,0.14523800555581715,-4.629523988888366,8.730952493055229,0.43,0.4577777777777778,-0.6588888888888889,-0.27380938368096425,-0.02380938368096426,-0.02380938368096426
1590512718.2704937,0.13563045046226477,-4.620586846764146,8.766891351386795,0.41873909907547047,0.4540241441362679,-0.6588888888888889,-0.14442905383253557,0.0,0.035190315389154805
1590512718.2804937,0.14,-4.615827744440523,8.848873985174725,0.41,0.4511111111111111,-0.6588888888888889,0.09892340275326508,-0.053807800917755035,-0.04511560183551007
1590512718.2904937,0.14688303307340683,-4.606233933853186,8.770520570045711,0.41,0.4511111111111111,-0.6588888888888889,0.21103791341758538,0.023537913417585377,0.023537913417585377
1590512718.3004937,0.16689951823812801,-4.616899518238128,8.755349277357192,0.41,0.4511111111111111,-0.6588888888888889,0.09156701651754989,0.11531099449415004,-0.04312198898830008
1590512718.3104937,0.17,-4.627093620327036,8.76,0.41,0.4511111111111111,-0.6588888888888889,-0.2921810163518199,-0.05234050817590996,-0.01816487295602251
1590512718.3204937,0.15366148744088926,-4.63,8.800846281397778,0.41453847571086416,0.4629111479593578,-0.6706889257371356,-0.18221074126389486,0.13028925873610514,0.05105785174722103
1590512718.3304937,0.13583006793344493,-4.622915033966723,8.795830067933444,0.4155555555555556,0.4655555555555556,-0.6733333333333333,0.09640518853992322,0.14321896229201536,0.0625
1590512718.3404937,0.16400451071294325,-4.602997744643528,8.755995489287058,0.4155555555555556,0.4655555555555556,-0.6733333333333333,0.2406320479889738,-0.03439614396692145,0.11563204798897381
1590512718.3504937,0.16107829719801195,-4.626765108405964,8.758921702801988,0.4155555555555556,0.4655555555555556,-0.6733333333333333,-0.028803212562126312,0.16054257004970107,0.125
1590512718.3604937,0.16665044837077156,-4.610048654887685,8.773300896741542,0.4155555555555556,0.4655555555555556,-0.6733333333333333,-0.14563060463464442,0.10436939536535558,0.04186939536535558
1590512718.3704937,0.1552259633849699,-4.636935091537575,8.80954807323006,0.42048023442723226,0.45981009687193275,-0.6840034708886329,-0.09516227115606196,0.0625,0.04616886442196902
1590512718.3804936,0.13915532297418776,-4.62288830743547,8.792888307435469,0.4222222222222222,0.4577777777777778,-0.6877777777777778,0.005279231411326579,-0.005279231411326579,0.02861038429433671
1590512718.3904936,0.13515551800936948,-4.620622072037477,8.759688963981262,0.4222222222222222,0.4577777777777778,-0.6877777777777778,0.22360993779279625,-0.030278012441440745,0.032221987558559255
1590512718.4004936,0.15014003180969504,-4.614649920475762,8.755070015904847,0.4222222222222222,0.4577777777777778,-0.6877777777777778,0.311624801189406,0.06337519881059402,-0.0008751988105940162
1590512718.4104936,0.16,-4.612072072072072,8.782072072072072,0.4222222222222222,0.4577777777777778,-0.6877777777777778,0.11204954954954954,0.04222972972972973,-0.007319819819819821
1590512718.4204936,0.16,-4.64,8.81,0.4222222222222222,0.46750056818550767,-0.660229871622543,-0.199226740108702,-0.0625,0.108075580036234
1590512718.4304936,0.16,-4.64,8.793573708684177,0.4222222222222222,0.4711111111111111,-0.65,0.1093251225336182,0.04016432072389091,-0.028996481085836384
1590512718.4404936,0.16,-4.61583112174984,8.75374668262476,0.4222222222222222,0.4711111111111111,-0.65,0.2252638722658757,0.0247361277341243,-0.0625
1590512718.4504936,0.1530135885447107,-4.6,8.778904880187026,0.4222222222222222,0.4711111111111111,-0.65,0.16266985680888368,0.0,0.06849521478667445
1590512718.4604936,0.15637883377508519,-4.61275766755017,8.768105831124574,0.4222222222222222,0.4711111111111111,-0.65,-0.15407397765997727,0.07973542218856493,0.125
1590512718.4704936,0.15242396068534997,-4.6048479213707,8.7803041572586,0.4222222222222222,0.46690220038075003,-0.6727281179439502,-0.17044926285031212,-0.06440098286625051,0.07764975428343737
1590512718.4804935,0.1417056527880863,-4.624883041635741,8.765116958364258,0.4222222222222222,0.4655555555555556,-0.68,0.0823586802978428,-0.07316032992553931,-0.0411793401489214
1590512718.4904935,0.1562720815029442,-4.613727918497056,8.711183755491167,0.4222222222222222,0.4655555555555556,-0.68,0.22670050939340125,0.19175127348350313,0.09005076409010188
1590512718.5004935,0.15182113703676947,-4.61,8.749073177779383,0.4222222222222222,0.4655555555555556,-0.68,0.25,-0.005589467600953579,0.022764212959618585
1590512718.5104935,0.15,-4.61,8.788156325755095,0.4222222222222222,0.4655555555555556,-0.68,0.07402296403066239,-0.09769540719386752,0.07039081438773505
1590512718.5204935,0.15,-4.630718380083438,8.804820404979141,0.42625079612733513,0.4546208549559633,-0.6765469366527603,-0.15961740664111523,-0.02788259335888478,0.06025506223925653
1590512718.5304935,0.15,-4.635654647974756,8.79043643198317,0.43,0.4444444444444444,-0.6733333333333333,-0.16034154984222235,-0.05704460021037021,0.029886150052592552
1590512718.5404935,0.14558491136561214,-4.624415088634388,8.740264202290508,0.43,0.4444444444444444,-0.6733333333333333,0.07547151982462108,-0.10471708810522735,0.03490569603507578
1590512718.5504935,0.15369327441657288,-4.620871150388951,8.740208672860767,0.43,0.4444444444444444,-0.6733333333333333,0.2785276550345268,0.028527655034526787,0.0
1590512718.5604935,0.15976741704897046,-4.606589139016323,8.8,0.43,0.4444444444444444,-0.6733333333333333,0.20591059426010883,-0.001453643443934713,0.042635762295956475
1590512718.5704935,0.15197422588151066,-4.617961338822266,8.811974225881512,0.41802577411848935,0.4524272616987849,-0.6593634031382376,-0.14967782351888312,-0.125,0.08758054412027921
1590512718.5804935,0.1459934366745818,-4.622996718337291,8.805993436674582,0.41,0.4577777777777778,-0.65,-0.16245897921613617,-0.08122948960806808,0.0625
1590512718.5904934,0.1346596995200668,-4.625340300479933,8.735916394240801,0.41,0.4577777777777778,-0.65,0.04188438999791333,-0.162630633998748,-0.004253755999165332
1590512718.6004934,0.14656205576817932,-4.63,8.735206852560598,0.41,0.4577777777777778,-0.65,0.2220042828503736,-0.2154957171496264,0.006508565700747218
1590512718.6104934,0.1654153655106923,-4.619169268978616,8.790830731021385,0.41,0.4577777777777778,-0.65,0.14846189667451926,-0.11980793111634616,0.0625
1590512718.6204934,0.17,-4.61,8.812682081795586,0.42268208179558636,0.453550417179249,-0.6647957620948508,-0.09602602244482938,0.09602602244482938,-0.016763011222414692
1590512718.6304934,0.15191999850394586,-4.622053334330703,8.801919998503946,0.43,0.4511111111111111,-0.6733333333333333,-0.11216666043310769,0.11216666043310769,0.05050000935033848
1590512718.6404934,0.14635431378569236,-4.636354313785692,8.73916548971446,0.43,0.4511111111111111,-0.6733333333333333,-0.022785538839422782,0.0625,0.16471446116057722
1590512718.6504934,0.15,-4.6255884396942175,8.724411560305784,0.43,0.4511111111111111,-0.6733333333333333,0.09007225191114093,0.017463874044429534,0.0523916221332886
1590512718.6604934,0.15571927704017072,-4.608561445919658,8.781473493361537,0.43,0.4511111111111111,-0.6733333333333333,0.125,0.14298192600426826,0.0
1590512718.6704934,0.16,-4.604015205165591,8.82803041033118,0.432676803443727,0.4537879145548381,-0.6791330741280752,-0.000475161424703191,0.1747149031451781,-0.050190064569881274
1590512718.6804934,0.16,-4.620131145026459,8.82986885497354,0.43666666666666665,0.4577777777777778,-0.6877777777777778,-0.15584017179231535,0.030840171792315366,-0.09334017179231537
1590512718.6904933,0.16,-4.635726581580398,8.751281021035217,0.43666666666666665,0.4577777777777778,-0.6877777777777778,-0.053417730245016934,0.03579113487749153,-0.026708865122508467
1590512718.7004933,0.1711915093557392,-4.6176169812885215,8.739170282745087,0.43666666666666665,0.4577777777777778,-0.6877777777777778,0.10492040021005501,-0.007446933473369999,0.06994693347337
1590512718.7104933,0.16989882512865326,-4.605050587435674,8.78515176230702,0.43666666666666665,0.4577777777777778,-0.6877777777777778,0.1875,-0.12563234294591707,0.09343382852704146
1590512718.7204933,0.156559049849448,-4.613440950150553,8.806881900301105,0.43437269989963195,0.4531898442437084,-0.6797488940931564,0.1014762462361994,-0.12298218467714955,0.0625
1590512718.7304933,0.15,-4.62,8.799970832228494,0.43,0.4444444444444444,-0.6644444444444444,-0.08753645971438312,0.0,0.03746354028561688
1590512718.7404933,0.15,-4.643243748331405,8.732810002669751,0.43,0.4444444444444444,-0.6644444444444444,-0.2121640562427694,0.029054685414256473,0.029054685414256473
1590512718.7504933,0.15969115907143733,-4.650617681857125,8.719073477214312,0.43,0.4444444444444444,-0.6644444444444444,-0.2519302558035168,-0.08892436049120803,0.0019302558035167866
1590512718.7604933,0.14949989508288453,-4.624874973770721,8.785875183604952,0.43,0.4444444444444444,-0.6644444444444444,-0.059374344268028234,-0.1539057582010212,-0.03046858606700706
1590512718.7704933,0.14433931484502446,-4.605660685154976,8.829559543230017,0.43,0.4508174732644553,-0.6644444444444444,0.0625,-0.032626427406199025,-0.029873572593800975
1590512718.7804933,0.16533409583433664,-4.60600228750301,8.834665904165663,0.43,0.4577777777777778,-0.6644444444444444,-0.0041761979292078005,0.0,-0.09583809896460391
1590512718.7904932,0.1535817399197681,-4.625472753360078,8.753381452958918,0.43,0.4577777777777778,-0.6644444444444444,-0.09670470850048316,0.03420470850048315,-0.0565905829990337
1590512718.8004932,0.1537586699571373,-4.636879334978568,8.731276009871412,0.43,0.4577777777777778,-0.6644444444444444,-0.125,0.0625,-0.08599168723210807
1590512718.8104932,0.14896264336025372,-4.623443965040381,8.788630748239113,0.43,0.4577777777777778,-0.6644444444444444,-0.021524781502378576,0.02800826050079286,-0.125
1590512718.8204932,0.14,-4.61,8.82,0.4269750799880447,0.4577777777777778,-0.6622837872930477,0.11111478590642501,-0.02430739295321251,-0.027770428187149962
1590512718.8304932,0.14504682179341657,-4.615046821793417,8.830093643586833,0.4222222222222222,0.4577777777777778,-0.6588888888888889,0.06132945516458571,-0.0625,0.09345736379114643
1590512718.8404932,0.16304260674995338,-4.626521303374977,8.735659146000373,0.4222222222222222,0.4577777777777778,-0.6588888888888889,-0.14401629218720866,0.019016292187208655,0.0625
1590512718.8504932,0.1568924196482717,-4.623446209824136,8.72587653123105,0.4222222222222222,0.4577777777777778,-0.6588888888888889,-0.146538811400849,0.103461188599151,-0.019422377198302004
1590512718.8604932,0.1447842112191361,-4.614784211219137,8.770863155123456,0.4222222222222222,0.4577777777777778,-0.6588888888888889,-0.027203960358801738,0.09240132011960059,-0.02990132011960058
1590512718.8704932,0.1452324180353859,-4.604767581964614,8.81616209017693,0.426291880694189,0.44789432148871555,-0.6513309517266649,0.12790522544232355,0.0625,-0.032702612721161775
1590512718.8804932,0.15626283080790448,-4.606262830807904,8.833737169192096,0.43,0.4388888888888889,-0.6444444444444445,-0.008213462747014871,0.023357307450597026,-0.023357307450597026
1590512718.8904932,0.15557993409257773,-4.618840131814845,8.77253914320351,0.43,0.4388888888888889,-0.6444444444444445,-0.125,0.0,-0.02762541192138918
1590512718.9004931,0.14633075856605268,-4.63,8.707338482867895,0.43,0.4388888888888889,-0.6444444444444445,-0.125,0.0,-0.0625
1590512718.9104931,0.150200184664951,-4.635100092332475,8.76590083099228,0.43,0.4388888888888889,-0.6444444444444445,-0.09312442292202817,0.0,-0.12625115415594365
1590512718.9204931,0.14514720871312503,-4.630098139142083,8.814950930428958,0.4333006202859722,0.4482406463658102,-0.6444444444444445,0.061273260723958195,0.0618866303619791,-0.1875
1590512718.930493,0.1427718660783805,-4.611485422614413,8.824257288692793,0.43666666666666665,0.4577777777777778,-0.6444444444444445,0.13428389134008134,0.09839194567004067,-0.13428389134008134
1590512718.940493,0.16347038299896915,-4.606940765997938,8.798766553009278,0.43666666666666665,0.4577777777777778,-0.6444444444444445,-0.0025696812306716388,0.0625,-0.04081010625644279
1590512718.950493,0.1587556830721695,-4.625622158463916,8.745622158463915,0.43666666666666665,0.4577777777777778,-0.6444444444444445,-0.19527698079894062,-0.007776980798940639,0.0
1590512718.960493,0.15446506836864535,-4.62106986326271,8.76786027347458,0.43666666666666665,0.4577777777777778,-0.6444444444444445,-0.13837329078386623,-0.0625,-0.05581335460806689
1590512718.970493,0.15384384130075793,-4.61,8.796156158699242,0.43837671074978946,0.4601718394941497,-0.6444444444444445,0.0,-0.024024008129737054,-0.10576200406486852
1590512718.980493,0.14345706702553176,-4.6065429329744685,8.80654293297447,0.44222222222222224,0.4655555555555556,-0.6444444444444445,0.021606668909573475,0.10571333781914695,-0.08410666890957347
1590512718.990493,0.16199420901528722,-4.611994209015287,8.758020268446495,0.44222222222222224,0.4655555555555556,-0.6444444444444445,-0.16239141903663534,0.11253619365445489,-0.050036193654454886
1590512719.000493,0.15853320806209875,-4.61426660403105,8.741466791937901,0.44222222222222224,0.4655555555555556,-0.6444444444444445,-0.24083255038811713,0.0625,-0.07166744961188287
1590512719.010493,0.15,-4.623344095223277,8.772240158705461,0.44222222222222224,0.4655555555555556,-0.6444444444444445,-0.10409940485451999,0.034699801618173334,-0.09719980161817333
1590512719.020493,0.15,-4.62726924295217,8.81273075704783,0.43090599373526206,0.45659687467004545,-0.6538746348502447,0.05304482103262591,-0.026522410516312954,-0.0625
1590512719.030493,0.15,-4.614939733998337,8.815180798004988,0.4155555555555556,0.4444444444444444,-0.6666666666666666,0.09412666251039069,-0.0007533250207813827,-0.03162666251039069
1590512719.040493,0.14631822367319605,-4.623681776326804,8.770545789385569,0.4155555555555556,0.4444444444444444,-0.6666666666666666,0.0394888979574753,0.0394888979574753,-0.04602220408504939
1590512719.050493,0.1436557065978163,-4.63,8.741934239586898,0.4155555555555556,0.4444444444444444,-0.6666666666666666,-0.045696332472703514,0.022848166236351757,-0.125
1590512719.060493,0.15,-4.63,8.783188328598484,0.4155555555555556,0.4444444444444444,-0.6666666666666666,-0.06521883877840909,0.022645892518939392,-0.125
1590512719.070493,0.15,-4.63,8.789394383285984,0.4155555555555556,0.4444444444444444,-0.6666666666666666,0.05114468661221591,-0.05492979107481061,-0.125
1590512719.080493,0.1412799279927993,-4.607440144014402,8.8237599759976,0.43666666666666665,0.4655555555555556,-0.6588888888888889,0.0704995499549955,0.1329995499549955,0.078000300030003
1590512719.090493,0.14722845235458737,-4.591285912742355,8.787428174515291,0.43666666666666665,0.4655555555555556,-0.6588888888888889,0.16089260907205702,0.17017782721617106,0.0
1590512719.100493,0.14066099944387067,-4.62,8.747768332406451,0.43666666666666665,0.4655555555555556,-0.6588888888888889,0.036158337967744494,0.0625,0.022210415508063876
1590512719.110493,0.16,-4.62,8.78,0.43666666666666665,0.4655555555555556,-0.6588888888888889,-0.14888169463560774,0.014736610728784488,0.0625
1590512719.120493,0.16,-4.62,8.785447749131173,0.43485075028960907,0.46343698644898845,-0.6588888888888889,-0.15345156793017053,-0.0625,0.028451567930170528
1590512719.130493,0.15770193313446712,-4.62,8.797701933134467,0.43,0.4577777777777778,-0.6588888888888889,-0.03377416418083912,-0.0625,-0.04813708209041956
1590512719.140493,0.15750650720470902,-4.62,8.759973971181164,0.43,0.4577777777777778,-0.6588888888888889,0.0625,-0.0625,-0.07037350504414693
1590512719.150493,0.16367069181373936,-4.61578046120916,8.71632930818626,0.43,0.4577777777777778,-0.6588888888888889,0.03612788255724728,-0.03612788255724728,-0.14794182383587093
1590512719.160493,0.14411307939421752,-4.612339238182653,8.760565396971087,0.43,0.4577777777777778,-0.6588888888888889,-0.03679325378614043,0.011086507572280857,0.0
1590512719.170493,0.1530603768906521,-4.626939623109348,8.796120753781304,0.43,0.4577777777777778,-0.6633094332864975,-0.01912735556657575,-0.0625,0.0
1590512719.1804929,0.1647715847527942,-4.615228415247206,8.814771584752794,0.43,0.4577777777777778,-0.6733333333333333,-0.0625,-0.12214480940992728,0.05964480940992728
1590512719.1904929,0.16622927922961003,-4.613770720770391,8.7822927922961,0.43,0.4577777777777778,-0.6733333333333333,0.008201014444812,-0.16393299518506266,0.07786599037012534
1590512719.2004929,0.1544334532374101,-4.617216726618706,8.733916366906476,0.43,0.4577777777777778,-0.6733333333333333,0.07281362410071943,-0.07281362410071943,0.0
1590512719.2104928,0.14576555383836864,-4.61,8.775765553838369,0.43,0.4577777777777778,-0.6733333333333333,-0.0625,0.026465288510195986,0.0
1590512719.2204928,0.1572383987308013,-4.61,8.7872383987308,0.43,0.4577777777777778,-0.6733333333333333,-0.0625,-0.04523999206750824,0.0
1590512719.2304928,0.16061662003560917,-4.61,8.798270775044513,0.4222222222222222,0.4444444444444444,-0.68,-0.04783846880563933,-0.13966153119436067,0.04783846880563933
1590512719.2404928,0.1384885446524771,-4.618488544652477,8.734534366042569,0.4222222222222222,0.4444444444444444,-0.68,0.026526702038990872,-0.08139319184403651,0.0
1590512719.2504928,0.15739381227058205,-4.63,8.714787624541163,0.4222222222222222,0.4444444444444444,-0.68,0.07790377556371264,0.03169244887257472,-0.030807551127425278
1590512719.2604928,0.17984935557663337,-4.629849355576633,8.760301288846733,0.4222222222222222,0.4444444444444444,-0.68,0.1235877085309379,-0.0610877085309379,-0.1240584723539586
1590512719.2704928,0.15726097524252006,-4.61273902475748,8.804108537136221,0.42328739851679775,0.44627046094943107,-0.6758914628637801,-0.0625,0.09076219053150072,-0.02567835710137446
1590512719.2804928,0.14070381118204683,-4.629296188817953,8.829296188817953,0.43,0.4577777777777778,-0.65,-0.06689881988779262,-0.12060118011220738,-0.17430354033662218
1590512719.2904928,0.1470019911985677,-4.62,8.790019911985677,0.43,0.4577777777777778,-0.65,-0.05004977996419188,-0.08123755500895202,-0.03747511001790406
1590512719.3004928,0.1401585161580259,-4.619920741920987,8.72023777423704,0.43,0.4577777777777778,-0.65,0.12475231850308453,-0.125,-0.12475231850308453
