time,acc_x,acc_y,acc_z,mag_x,mag_y,mag_z,gyr_x,gyr_y,gyr_z
1590512744.6550019,0.21,-4.44,8.89,0.4355555555555555,0.3555555555555556,-0.5877777777777777,1.375,-1.3125,-0.5625
1590512744.6650019,0.21702136184918985,-4.41404272369838,8.76,0.4355555555555555,0.3555555555555556,-0.5877777777777777,1.5133010693446194,-1.5571845809020561,-0.7752670231148732
1590512744.6750019,0.2177218376337319,-4.410295783511643,8.780591567023285,0.4355555555555555,0.3555555555555556,-0.5877777777777777,1.1695641913152925,-1.1695641913152925,-0.6714128382630585
1590512744.6850019,0.24057863831137913,-4.438842723377242,8.843471829868275,0.4355555555555555,0.35439827893279735,-0.5872634326121073,0.9375,-0.9302670211077607,-0.625
1590512744.6950018,0.25,-4.414673761946134,8.881358166811468,0.4355555555555555,0.33555555555555555,-0.5788888888888889,1.0207224695916595,-0.8790779756733276,-0.6083555060816681
1590512744.7050018,0.24346496611345322,-4.404356689257698,8.80821655371151,0.4355555555555555,0.33555555555555555,-0.5788888888888889,1.181926730348471,-1.0352706921393884,-0.5352706921393885
1590512744.7150018,0.22,-4.42,8.742442854890834,0.4355555555555555,0.33555555555555555,-0.5788888888888889,0.8597321569322929,-0.9375,-0.40639286277291714
1590512744.7250018,0.22,-4.42,8.78370734229576,0.4355555555555555,0.33555555555555555,-0.5788888888888889,0.5979672957600828,-0.9490854446742503,-0.3125
1590512744.7350018,0.22,-4.42,8.82437079886246,0.4355555555555555,0.33555555555555555,-0.5788888888888889,0.3014629249612203,-1.0761587464451914,-0.3125
1590512744.7450018,0.22,-4.409955414643813,8.849732487862875,0.4488888888888889,0.35,-0.5877777777777777,0.31417195085702965,-1.1894506093332011,-0.31305731695234323
1590512744.7550018,0.23411059819656055,-4.4,8.77588940180344,0.4488888888888889,0.35,-0.5877777777777777,0.7051382477457007,-1.6955529909828027,-0.45513824774570066
1590512744.7650018,0.27,-4.405502755297319,8.753756888243297,0.4488888888888889,0.35,-0.5877777777777777,0.7156077793917595,-1.8578038896958797,-0.48280388969587973
1590512744.7750018,0.2740172084130019,-4.415982791586998,8.7920086042065,0.4488888888888889,0.35,-0.5877777777777777,0.5873386711281071,-1.6744084608030594,-0.41239244741873804
1590512744.7850018,0.28982534468855103,-4.4000291092185755,8.8002328737486,0.4488112643060227,0.3499579533509474,-0.5877777777777777,0.43713613476781465,-1.1211794150620538,-0.3117722695356293
1590512744.7950017,0.24032826544460398,-4.408278622425899,8.866228979407195,0.426812562419824,0.3380419898292565,-0.5877777777777777,0.3340172196762583,-0.038430806600711964,-0.10553443935251655
1590512744.8050017,0.23,-4.401728092873628,8.851359535631861,0.4222222222222222,0.33555555555555555,-0.5877777777777777,0.42129912930974195,0.5516994195398279,-0.05709970976991398
1590512744.8150017,0.23,-4.416394503112106,8.778027484439471,0.4222222222222222,0.33555555555555555,-0.5877777777777777,0.2838015333240087,0.46003435554933914,-0.011267177774669554
1590512744.8250017,0.24,-4.4356528470952545,8.781086788226185,0.4222222222222222,0.33555555555555555,-0.5877777777777777,0.347830294345341,0.3206605886906821,-0.05570757358633526
1590512744.8350017,0.24,-4.408018316285352,8.787995420928661,0.4222222222222222,0.33555555555555555,-0.5877777777777777,0.17511447678344944,-0.02477104643310113,-0.012528619195862359
1590512744.8450017,0.26,-4.409118014091808,8.811763971816385,0.42777777777777776,0.35,-0.5877777777777777,0.11397517614759921,-0.1819875880737996,-0.06801241192620039
1590512744.8550017,0.26,-4.401065524987041,8.827868950025918,0.42777777777777776,0.35,-0.5877777777777777,0.013319062338011403,-0.1316595311690057,-0.1183404688309943
1590512744.8650017,0.24313780505036234,-4.417712601683454,8.760586584848912,0.42777777777777776,0.35,-0.5877777777777777,-0.014296239478411821,-0.3892962394784118,-0.028592478956823642
1590512744.8750017,0.220845312747606,-4.409154687252395,8.832535938242819,0.42777777777777776,0.35,-0.5877777777777777,-0.08363281869015009,-0.4586328186901501,-0.125
1590512744.8850017,0.23062951258815897,-4.4,8.860314756294079,0.4276029131699558,0.3497551895490493,-0.5877777777777777,-0.31643445367599354,-0.7012705878659774,-0.12303277316200323
1590512744.8950016,0.24818512860222255,-4.4,8.869092564301111,0.4227263531660493,0.3429280055435801,-0.5877777777777777,-0.4261570537638909,-1.085299688173618,-0.06817147311805455
1590512744.9050016,0.255765004014452,-4.408078331995183,8.78654832396628,0.4222222222222222,0.3422222222222222,-0.5877777777777777,-0.5240208500602168,-1.4470625501806504,-0.19951042503010838
1590512744.9150016,0.26794905613716924,-4.404016981287611,8.74205094386283,0.4222222222222222,0.3422222222222222,-0.5877777777777777,-0.6501061330475641,-1.6370224012859615,-0.23744693347621795
1590512744.9250016,0.22140435727914096,-4.41929782136043,8.79,0.4222222222222222,0.3422222222222222,-0.5877777777777777,-0.7456113835026845,-1.213831698983893,-0.17872276700536896
1590512744.9350016,0.2400228794455099,-4.40997712055449,8.790022879445509,0.4222222222222222,0.34220696925854893,-0.5877777777777777,-0.6877144948016554,-1.5626429965344368,-0.06264299653443693
1590512744.9450016,0.2628408511427379,-4.404204255713689,8.827045106856428,0.4222222222222222,0.3288888888888889,-0.5877777777777777,-0.9637765982105605,-1.7230106392842242,-0.1875
1590512744.9550016,0.2723024384149262,-4.433092684755222,8.840068300605958,0.4222222222222222,0.3288888888888889,-0.5877777777777777,-1.1731097599067113,-1.7549390396268454,-0.1443292797201341
1590512744.9650016,0.2777505593093942,-4.412249440690606,8.746748322071818,0.4222222222222222,0.3288888888888889,-0.5877777777777777,-1.125,-1.5554704978418568,-0.014059004316286637
1590512744.9750016,0.2604125830885763,-4.429587416911423,8.801237749265729,0.4222222222222222,0.3288888888888889,-0.5877777777777777,-1.1224213556963982,-1.5025786443036018,-0.12242135569639821
1590512744.9850016,0.2668962745401144,-4.423103725459885,8.820688823620344,0.4222222222222222,0.3288888888888889,-0.5877777777777777,-1.081898284124285,-1.543101715875715,-0.08189828412428504
1590512744.9950016,0.26118382323293415,-4.428816176767065,8.865264707068263,0.4163447710441784,0.3347663400669328,-0.5877777777777777,-1.0073988952058386,-1.5625,-0.007398895205838474
1590512745.0050015,0.2775237410810534,-4.4458729018017555,8.88596786612597,0.4155555555555556,0.33555555555555555,-0.5877777777777777,-0.6043645090087778,-1.1513878907653612,-0.10952338175658334
1590512745.0150015,0.25,-4.4032111581311,8.7364223162622,0.4155555555555556,0.33555555555555555,-0.5877777777777777,-0.348240348907505,-0.7366201744537525,0.08925965109249503
1590512745.0250015,0.25,-4.424945159340185,8.77989031868037,0.4155555555555556,0.33555555555555555,-0.5877777777777777,-0.16712367216512652,-0.6460618360825633,0.2703763278348735
1590512745.0350015,0.25,-4.439649259547935,8.818947778643803,0.4155555555555556,0.33555555555555555,-0.5877777777777777,-0.004384255650818403,-0.5043842556508185,0.3125
1590512745.0450015,0.18855786618444847,-4.404890209248257,8.890219581503487,0.43311045093142736,0.33555555555555555,-0.5799756020551681,-0.05485904804959958,-0.44514095195040043,0.5867952402479979
1590512745.0550015,0.18321614185264445,-4.401608070926322,8.852311219810455,0.4355555555555555,0.33555555555555555,-0.5788888888888889,-0.09484867013145827,-0.625,0.9777017731580556
1590512745.0650015,0.21804610244988865,-4.412005122494432,8.762005122494433,0.4355555555555555,0.33555555555555555,-0.5788888888888889,0.07503201559020045,-0.6124679844097995,1.2250960467706014
1590512745.0750015,0.30038786993685834,-4.423895451226322,8.77908938619475,0.4355555555555555,0.33555555555555555,-0.5788888888888889,0.1412310467763412,-0.5138068596709764,1.3993465701645118
1590512745.0850015,0.3682093672553879,-4.449104683627694,8.840447658186154,0.4349586779740181,0.33585399434632424,-0.5799334246565793,0.23880854534617435,-0.1902978636634564,1.5541064090096308
1590512745.0950015,0.324880851632444,-4.43,8.847440425816222,0.4222222222222222,0.3422222222222222,-0.6022222222222222,-0.01599733864861253,-0.25,1.2470212908110998
1590512745.1050014,0.30214813110983324,-4.428037032777458,8.820370327774583,0.4222222222222222,0.3422222222222222,-0.6022222222222222,-0.050231454859114434,-0.23773145485911443,0.875
1590512745.1150014,0.2673716709521218,-4.42,8.747884987143635,0.4222222222222222,0.3422222222222222,-0.6022222222222222,-0.00821352827461947,-0.1875,0.8914270565492389
1590512745.1250014,0.2516275970796344,-4.42,8.795117208761097,0.4222222222222222,0.3422222222222222,-0.6022222222222222,-0.05741375912614253,-0.1875,0.9898275182522851
1590512745.1350014,0.26972153757407313,-4.406852308283952,8.826295383432097,0.4222222222222222,0.3422222222222222,-0.6022222222222222,-0.1857596098379569,-0.1875,0.9178269267746954
1590512745.1450014,0.2884179790520684,-4.416835958104137,8.84,0.4334461942916467,0.33661023618750996,-0.5947395741759393,-0.14477526184914474,0.022949476301710514,0.9802247381508553
1590512745.1550014,-0.14676069429953525,-4.155079578867495,8.682479749596888,0.4355555555555555,0.33555555555555555,-0.5933333333333334,-0.125,-0.11650028454898984,1.0447500711372475
1590512745.1650014,-0.15885881720616538,-4.307337240147719,8.992772508972381,0.4355555555555555,0.33555555555555555,-0.5933333333333334,-1.0387253584617786,-1.1589704301541341,2.704645049153042
1590512745.1750014,-0.11522652010333409,-4.20552854690778,8.716434627321116,0.4355555555555555,0.33555555555555555,-0.5933333333333334,-0.12971916881946,-0.06816300258335217,5.749815784454809
1590512745.1850014,0.08439508103497298,-4.30587005970998,8.882035115154963,0.4355555555555555,0.33555555555555555,-0.5933333333333334,-0.2977502132499289,-0.9006255331248223,9.117438512937163
1590512745.1950014,0.0741547029464475,-4.365458539687434,8.89,0.42499202418652055,0.34083732124007304,-0.5818895076835454,-0.1639503401229453,-0.6404006802458906,10.524446938893492
1590512745.2050014,0.10452275638288788,-4.368630689095722,8.860414823670054,0.4222222222222222,0.3422222222222222,-0.5788888888888889,-0.42894180684826233,-1.0128372897276066,11.939186448638033
1590512745.2150013,0.047218683289215274,-4.354304670822303,8.760132695756127,0.4222222222222222,0.3422222222222222,-0.5788888888888889,-0.33940419263939886,-1.1471437110409017,12.610718555204508
1590512745.2250013,-0.10938242280285035,-4.275662707838479,8.80433729216152,0.4222222222222222,0.3422222222222222,-0.5788888888888889,-0.4286520190023753,-1.4778800475059382,13.741716152019002
1590512745.2350013,-0.1575255159900204,-4.2474846904059875,8.832515309594012,0.4222222222222222,0.3422222222222222,-0.5788888888888889,-0.5313137899750511,-1.406186210024949,15.407334429575867
1590512745.2450013,-0.2762254640445924,-4.181346419176218,8.872163395205945,0.4222222222222222,0.3422222222222222,-0.5933333333333334,-0.4780636601114811,-1.393627320222962,18.71979111094759
1590512745.2550013,-0.39196434813002445,-4.119619014330654,8.887595246417337,0.4222222222222222,0.3422222222222222,-0.5933333333333334,-0.7674108703250612,-1.9723217406501223,21.17924239776302
1590512745.2650013,-0.06506122685856885,-3.560709186930532,8.707489795523573,0.4222222222222222,0.3422222222222222,-0.5933333333333334,-1.6215880293269882,-1.822991023929739,25.646906979668426
1590512745.2750013,-0.25979397597353604,-3.828466716963612,8.675034337337744,0.4222222222222222,0.3422222222222222,-0.5933333333333334,-3.1936492852030254,2.0818062890526763,33.20294333855648
1590512745.2850013,-0.42097787633982786,-3.907422250382808,8.707422250382809,0.4222222222222222,0.3422222222222222,-0.5933333333333334,-5.074723454247849,6.546669570727071,46.82959270552828
1590512745.2950013,-0.5235844586590855,-3.7072336729053146,8.936162441759457,0.4534170417752507,0.3318239490378794,-0.5933333333333334,-6.406047638790176,7.104951433309642,56.168591565979625
1590512745.3050013,-0.4161806329711857,-3.626727066603684,9.05818233349079,0.4622222222222222,0.3288888888888889,-0.5933333333333334,-6.531816249409542,4.8965706188001885,63.03526688710439
1590512745.3150012,-0.29095587157308317,-3.6463051605336463,8.976562454185602,0.4622222222222222,0.3288888888888889,-0.5933333333333334,-5.331226634657675,-1.9234853760445683,70.37971201070225
1590512745.3250012,-0.2734831928006958,-3.4775293984194806,8.675844519227132,0.4622222222222222,0.3288888888888889,-0.5933333333333334,-3.5934085151434942,-4.445220629939124,76.53999508450865
1590512745.3350012,-0.1193905149357743,-3.211671751987042,8.832359588654084,0.4622222222222222,0.3288888888888889,-0.5933333333333334,-6.363381455531699,-3.3103505104154896,85.36768043470072
1590512745.3450012,-0.1,-3.150283386347786,9.200971780435115,0.4570737723043426,0.31565001767148426,-0.5837719263429856,-8.798330682610693,-2.090713186140264,91.6485343771794
1590512745.3550012,-0.06572338277549118,-3.0443084569387278,9.181478605265202,0.4544444444444444,0.3088888888888889,-0.5788888888888889,-5.7421517045895785,-6.489763726023142,100.971480158422
1590512745.3650012,-0.18934953699355733,-3.1162330246623715,8.963161779898195,0.4544444444444444,0.3088888888888889,-0.5788888888888889,-2.816848316084074,-8.345499774601326,108.26049864760796
1590512745.3750012,-0.29146314897736897,-3.1504877163257894,8.948211706805438,0.4544444444444444,0.3088888888888889,-0.5788888888888889,-3.855694562104159,-9.38820898382347,119.06857376255597
1590512745.3850012,-0.36760317076122473,-3.175867723587075,8.855151680180725,0.4544444444444444,0.3088888888888889,-0.5788888888888889,-2.8510692746782844,-10.075584180483279,125.88945071402638
1590512745.3950012,-0.4587106646379418,-3.218755619337437,8.844932567950757,0.4811111111111111,0.28444444444444444,-0.5877777777777777,-3.241941653987136,-10.601105928833253,135.58967598035827
1590512745.4050012,-0.5094750674320493,-3.2115035617954217,8.931957258454942,0.4811111111111111,0.28444444444444444,-0.5877777777777777,-3.559219171450308,-11.190335604122,140.8474176983194
1590512745.4150012,-0.5521771044184097,-3.2040820707845183,8.60680345130753,0.4811111111111111,0.28444444444444444,-0.5877777777777777,-2.219816393710769,-12.138606902615061,148.71557765441943
1590512745.4250011,-0.6207828824960642,-3.3327179046801203,8.8211965078002,0.4811111111111111,0.28444444444444444,-0.5877777777777777,-3.238183412050952,-12.5673930156004,153.53942142550451
1590512745.4350011,-0.6474352325385964,-3.3761528488078945,8.954611395231579,0.4811111111111111,0.28444444444444444,-0.5877777777777777,-4.1922765252467045,-13.006395711781796,158.98218894811401
1590512745.4450011,-0.7172940840006536,-3.3276601568883803,8.940091518221932,0.4919113961976358,0.2537051715058742,-0.5985780628643024,-3.5180559527700606,-13.202696008334696,163.519524227815
1590512745.455001,-0.7574791057558844,-3.2837813413661734,8.80764625970881,0.4955555555555556,0.2433333333333333,-0.6022222222222222,-3.4138666164614158,-13.960088671332802,168.362943356664
1590512745.465001,-0.8866779608411143,-3.4456557949460724,8.858211209683676,0.4955555555555556,0.2433333333333333,-0.6022222222222222,-4.290140121045961,-14.001597134211003,172.8945891420738
1590512745.475001,-0.9032561903220586,-3.4566280951610295,8.866628095161028,0.4955555555555556,0.2433333333333333,-0.6022222222222222,-4.519627973782166,-14.082851189512866,175.7340892539246
1590512745.485001,-0.9650465688100738,-3.4678637955442966,8.925046568810073,0.4955555555555556,0.2433333333333333,-0.6022222222222222,-4.035215334177781,-14.125,179.68073355189628
1590512745.495001,-0.9861029833136693,-3.4394850834316535,8.93389701668633,0.5064053036687455,0.19518757608105322,-0.5934068018802554,-3.9894309371312997,-14.392005519973033,182.01517676554863
1590512745.505001,-1.0125990554710638,-3.4275330184903545,8.922466981509645,0.5133333333333333,0.16444444444444445,-0.5877777777777777,-4.0625,-14.844988193388298,184.33369687024734
1590512745.515001,-1.0451027853785169,-3.3986215182768538,8.84469164386445,0.5133333333333333,0.16444444444444445,-0.5877777777777777,-3.984053795692135,-14.859053795692136,185.37756963446293
1590512745.525001,-1.0822425088604877,-3.424485017720975,8.814828339240325,0.5133333333333333,0.16444444444444445,-0.5877777777777777,-3.9375,-14.8125,185.84267712025203
1590512745.535001,-1.09,-3.4327502035873128,8.870748574888811,0.5133333333333333,0.16444444444444445,-0.5877777777777777,-4.1187449103171785,-14.63125508968282,184.83284176567622
1590512745.545001,-1.1307715008431702,-3.3284569983136594,8.879742833052278,0.5277777777777778,0.08,-0.5877777777777777,-4.131429173693086,-14.612141652613827,181.45481134064082
1590512745.555001,-1.1490637901959644,-3.291872419608071,8.87364540326801,0.5277777777777778,0.08,-0.5877777777777777,-4.283864918299703,-14.307270163400593,178.90151261847996
1590512745.565001,-1.248152689555359,-3.276780976119643,8.829314143282142,0.5277777777777778,0.08,-0.5877777777777777,-3.7392834887834687,-14.46404880598215,174.02689304092627
1590512745.575001,-1.3253323338330836,-3.230534732633683,8.838265867066466,0.5277777777777778,0.08,-0.5877777777777777,-3.4375,-13.874187906046977,168.4626124437781
1590512745.585001,-1.4167820717790396,-3.1639307569325763,8.919103864601135,0.5277777777777778,0.08,-0.5877777777777777,-3.1495672308286013,-13.130600846242903,161.72568774463863
1590512745.595001,-1.4622976119204416,-3.1351349253863723,8.969730149227257,0.5170418905568244,0.02549472641669808,-0.6183337644835682,-3.2018600745027608,-12.489013060156545,154.8918171688951
1590512745.605001,-1.4879796305068689,-3.0490916627190905,8.953030554239696,0.5133333333333333,0.006666666666666667,-0.6288888888888889,-2.9690682733301754,-11.919195582662246,146.60107028659402
1590512745.615001,-1.514052811186483,-2.9037007366099297,8.885859170169377,0.5133333333333333,0.006666666666666667,-0.6288888888888889,-2.7370599067793084,-11.02312960381206,139.81168718007407
1590512745.625001,-1.4244467668890852,-2.696266848889246,8.852626684888925,0.5133333333333333,0.006666666666666667,-0.6288888888888889,-1.927417463890452,-10.215292293056784,131.47175717501406
1590512745.635001,-1.4748961476319324,-2.67,8.75626112008721,0.5133333333333333,0.006666666666666667,-0.6288888888888889,-1.8125,-9.494065231356213,124.3084193903175
1590512745.645001,-1.71,-2.79,9.12,0.5022222222222222,-0.07222222222222223,-0.6233333333333333,-4.25,-9.0625,111.8125
1590512745.655001,-1.71,-2.79,9.12,0.5022222222222222,-0.07222222222222223,-0.6233333333333333,-4.25,-9.0625,111.8125
1590512745.665001,-1.8528726807421625,-2.6843634037108126,8.810799744081894,0.5022222222222222,-0.07222222222222223,-0.6233333333333333,-2.318178182981446,-8.198176583493282,98.583613243762
1590512745.675001,-1.8740808344198174,-2.6327803129074314,8.820941981747067,0.5022222222222222,-0.07222222222222223,-0.6233333333333333,-1.6053821707953064,-6.883128259452412,87.44813396349413
1590512745.685001,-1.9514851587547832,-2.6589957596442235,8.988472437687454,0.5022222222222222,-0.07222222222222223,-0.6233333333333333,-1.943776502223601,-6.528376771124211,76.0304969490123
1590512745.695001,-1.9829375704622323,-2.634687852311161,9.01409420800451,0.5049687225980208,-0.08870122447701366,-0.6284339768883878,-1.4335981538895153,-5.345317784667419,66.25550486189402
1590512745.7050009,-1.9747882233502538,-2.560423553299492,8.977882233502537,0.51,-0.11888888888888888,-0.6377777777777778,-0.8045583756345178,-4.075736040609137,54.47765989847716
1590512745.7150009,-2.012366160210007,-2.530580303873996,8.958794447537985,0.51,-0.11888888888888888,-0.6377777777777778,-0.8381691989499642,-3.2645075968498927,42.15902175642351
1590512745.7250009,-2.0798846240856648,-2.4327019078500864,8.85140864188221,0.51,-0.11888888888888888,-0.6377777777777778,-0.3213040117638187,-2.2205527486614884,32.303394351858834
1590512745.7350008,-2.1333374397315263,-2.426674879463053,8.996699517852212,0.51,-0.11888888888888888,-0.6377777777777778,-0.3542179966440815,-1.983374397315265,23.719981255708248
1590512745.7450008,-2.154660768364807,-2.4506342260064375,9.153938067830472,0.5079236321418693,-0.12393149654434912,-0.643413633392704,-0.3871682205203824,-1.4824854524409772,13.282080935166245
1590512745.7550008,-2.141360097670805,-2.3774805371894274,9.014281025543452,0.5027511490942019,-0.13649324108868416,-0.6574532302363725,0.3609945060172193,0.4294859598217826,1.0620897350520835
1590512745.7650008,-2.2071508504424977,-2.4371508504424977,8.865698299115005,0.5022222222222222,-0.13777777777777778,-0.6588888888888889,0.07026878664259123,0.9397696114492076,-7.322277859515371
1590512745.7750008,-2.2615924329501915,-2.4416815134099616,8.864955459770114,0.5022222222222222,-0.13777777777777778,-0.6588888888888889,0.7278675766283524,1.5199054118773945,-14.978355483716474
1590512745.7850008,-2.2762505145966454,-2.4525010291932916,8.938755660563103,0.5022222222222222,-0.13777777777777778,-0.6588888888888889,0.875,1.8203285811451788,-20.70349165011008
1590512745.7950008,-2.2430161358511835,-2.46,9.024380636978579,0.5022222222222222,-0.14353082331203806,-0.6646419344231491,0.8287701698139797,2.261108811302142,-28.27536199971815
1590512745.8050008,-2.2821687929342493,-2.4926054955839057,9.020436702649656,0.5022222222222222,-0.14555555555555555,-0.6666666666666666,0.5679587831207066,2.375,-33.99417320902846
1590512745.8150008,-2.3327447755417956,-2.532744775541796,8.881112938596491,0.5022222222222222,-0.14555555555555555,-0.6666666666666666,0.9113494904540764,3.18054413377193,-39.868410974587206
1590512745.8250008,-2.3883390639253386,-2.5963955745795615,8.904452085233785,0.5022222222222222,-0.14555555555555555,-0.6666666666666666,0.8610872336444226,3.6389127663555776,-44.99004894393376
1590512745.8350008,-2.364918294972533,-2.615846950837911,9.060326820109868,0.5022222222222222,-0.14555555555555555,-0.6666666666666666,0.8855868854738892,3.943304099158612,-48.60517131979695
1590512745.8450007,-2.129169738330718,-2.4882310864566985,9.054584869165359,0.5197914106946624,-0.13164661468154043,-0.6988768455328069,1.5963445677165067,3.754399930659465,-53.094200485383745
1590512745.8550007,-2.046987083954297,-2.4415896671634374,8.794898161947343,0.5288888888888889,-0.12444444444444445,-0.7155555555555555,2.713378663686041,3.2926291604570292,-56.59646671634376
1590512745.8650007,-2.0080338443161456,-2.5050662950428033,9.025596655385227,0.5288888888888889,-0.12444444444444445,-0.7155555555555555,1.4737656778817438,5.667895182162054,-60.514774537129206
1590512745.8750007,-1.9816154356093647,-2.507576846585953,8.82122954537525,0.5288888888888889,-0.12444444444444445,-0.7155555555555555,0.7768047172115419,7.248436464184781,-64.45541415163463
1590512745.8850007,-2.0793767388206557,-2.6122945647010924,8.68163160751849,0.5288888888888889,-0.12444444444444445,-0.7155555555555555,2.3304883117323745,7.205736411752731,-68.71958124109385
1590512745.8950007,-2.1766736361908383,-2.7833472723816763,9.126045998859531,0.5282961414179813,-0.1007345456081438,-0.7274105049737059,0.9911091047329403,5.599503421402775,-73.71744202623076
1590512745.9050007,-2.1437539903826726,-2.8370307512021657,8.907370186285206,0.5277777777777778,-0.08,-0.7377777777777778,1.2342253606497757,5.914898775609164,-78.15807219056856
1590512745.9150007,-2.1258568091013745,-2.898568091013747,8.814424900115121,0.5277777777777778,-0.08,-0.7377777777777778,1.941974715582041,6.713394943116408,-81.09719835613191
1590512745.9250007,-2.1372300624922405,-2.9906104374456812,8.932300624922403,0.5277777777777778,-0.08,-0.7377777777777778,1.134681641352481,6.5519363282704965,-85.65258866862558
1590512745.9350007,-2.065150567523743,-2.9827820245540884,8.86473708593931,0.5277777777777778,-0.08,-0.7377777777777778,1.6405055594162614,7.478145992587445,-89.02396050498031
1590512745.9450006,-1.987180683606926,-3.0485020800539693,8.912775185518326,0.5277777777777778,-0.03559478299977513,-0.7639451377957674,1.7323792725432876,7.759086181695525,-92.96172454744772
1590512745.9550006,-1.93116993959551,-3.103298036242694,8.926701963757306,0.5277777777777778,-0.017777777777777778,-0.7744444444444445,1.6735375755056126,7.978725453033675,-97.27994240786481
1590512745.9650006,-1.8876274113177758,-3.142372588682224,8.863347969806108,0.5277777777777778,-0.017777777777777778,-0.7744444444444445,1.9404108490798757,8.517739528343776,-101.37417669840643
1590512745.9750006,-1.7743390982087708,-3.304427471848719,8.866255523352496,0.5277777777777778,-0.017777777777777778,-0.7744444444444445,2.0,8.82819404190621,-105.98568679621799
1590512745.9850006,-1.7335769274039312,-3.367371787660115,8.880948715064045,0.5277777777777778,-0.017777777777777778,-0.7744444444444445,2.0342147345751433,9.251362080326578,-109.68060823516176
1590512745.9950006,-1.7083943756840954,-3.419014060789762,8.913211248631809,0.4852238219527939,-0.007461667274751388,-0.7950766654504973,2.0625,9.671302727961606,-115.2640818388482
1590512746.0050006,-1.7,-3.447316978282262,8.85683021717738,0.4544444444444444,0.0,-0.81,2.1996933427924112,10.39023559969792,-121.78653139803647
1590512746.0150006,-1.6402739346983952,-3.485835639180963,8.812082180409519,0.4544444444444444,0.0,-0.81,2.138013627559491,10.774315163254013,-126.74674875484229
1590512746.0250006,-1.5750285135330728,-3.51,8.8,0.4544444444444444,0.0,-0.81,1.9064282095817051,11.070089738022869,-132.30098965117963
1590512746.0350006,-1.5051750899110354,-3.497816686646897,8.787816686646897,0.4544444444444444,0.0,-0.81,2.002864271142238,11.530155688056029,-137.14353692136203
1590512746.0450006,-1.4534377141776758,-3.550728381348522,8.829686857466971,0.4366553226352815,-0.003680507960516469,-0.7768754283553518,1.848961902961265,11.853514286389526,-141.3118190626994
1590512746.0550005,-1.4130425351039193,-3.6269574648960807,8.849781901327939,0.4222222222222222,-0.006666666666666667,-0.75,1.8356051945006302,12.527194544601764,-145.20930986720606
1590512746.0650005,-1.3689460603210855,-3.6296486867736952,8.741662524350104,0.4222222222222222,-0.006666666666666667,-0.75,2.0021957076644052,12.974239269161012,-147.80489269161012
1590512746.0750005,-1.320644452581472,-3.653872207982424,8.746777737092641,0.4222222222222222,-0.006666666666666667,-0.75,1.7903126144269499,12.85281261442695,-150.73392301354815
1590512746.0850005,-1.221201366291408,-3.712513895345312,8.788086787800392,0.4222222222222222,-0.006666666666666667,-0.75,1.1482203852295005,13.1957033065869,-153.55158457465086
1590512746.0950005,-1.1534462511291779,-3.7955374887082205,8.792429990966577,0.45717554953327316,0.011538191307839004,-0.7405334738532571,1.6122967479674797,14.138070234869016,-155.6684451219512
1590512746.1050005,-1.1349511384970874,-3.860097723005825,8.9403908920233,0.4755555555555556,0.021111111111111112,-0.7355555555555555,1.5297230780339865,13.810667693640784,-157.51974768930825
1590512746.1150005,-1.094256520266456,-3.862851304053291,8.772687817545444,0.4755555555555556,0.021111111111111112,-0.7355555555555555,2.0898695946708816,14.429228294004742,-158.5183315456701
1590512746.1250005,-0.9819508349458898,-3.888014047158317,8.767038629685374,0.4755555555555556,0.021111111111111112,-0.7355555555555555,2.4187719486848707,14.531140256575647,-159.10017558947897
1590512746.1350005,-0.9176046923501743,-3.9223953076498255,8.772005865437718,0.4755555555555556,0.021111111111111112,-0.7355555555555555,2.6124633410142635,14.402507331797148,-159.49494867741996
1590512746.1450005,-0.8765296775198629,-3.9752054837202055,8.867351612400686,0.5133688528846654,0.04066971317789202,-0.7355555555555555,2.6766552422495717,14.338327621124785,-159.83418951550087
1590512746.1550004,-0.8218799510872455,-4.038120048912754,8.904255941304696,0.54,0.054444444444444434,-0.7355555555555555,3.0062004891275453,14.217199877718114,-159.55629951087246
1590512746.1650004,-0.7360264064059985,-3.9424020456814524,8.762227429246725,0.54,0.054444444444444434,-0.7355555555555555,2.9148477454715866,13.72516504003749,-158.9751650400375
1590512746.1750004,-0.6742699423115178,-3.973622687487567,8.70643251442212,0.54,0.054444444444444434,-0.7355555555555555,3.3351417967972945,13.419593569723492,-157.46349711557588
1590512746.1850004,-0.63216630020374,-4.025566739959252,8.787934359429528,0.54,0.054444444444444434,-0.7355555555555555,3.0335338793294735,13.30541575050935,-155.84540475662155
1590512746.1950004,-0.5646939470151088,-4.003571469092147,8.910408070646522,0.5223809793947646,0.051927441500839375,-0.7133220295537108,2.7984690259629748,12.943240266248132,-154.2047207987444
1590512746.2050004,-0.47178773204196933,-3.9527150928167876,8.988145278450363,0.4933333333333334,0.04777777777777778,-0.6766666666666666,2.91431598062954,12.619622679580306,-151.503702582728
1590512746.2150004,-0.4215232115140398,-3.93076160575702,8.691324961196557,0.4933333333333334,0.04777777777777778,-0.6766666666666666,3.1592495502328206,13.110719892055878,-147.56095116939466
1590512746.2250004,-0.36638941954445264,-3.949409257898604,8.520240999265246,0.4933333333333334,0.04777777777777778,-0.6766666666666666,3.5273512123438646,12.603526818515798,-143.58943791329904
1590512746.2350004,-0.30417028486709735,-3.9979148575664514,8.783106004447738,0.4933333333333334,0.04777777777777778,-0.6766666666666666,2.825532140209679,11.798137509266123,-139.1957534681775
1590512746.2450004,-0.2717630593174989,-3.989407648293747,8.906705223727,0.49150290207055536,0.058760365354445954,-0.670809286625777,2.7757404396328162,11.959538241468735,-135.78667208660931
1590512746.2550004,-0.19079250878734622,-3.8247550527240772,8.821433710456942,0.4711111111111111,0.1811111111111111,-0.6055555555555555,3.3660393096441124,10.576413870276802,-127.2523410039543
1590512746.2650003,-0.14333533383345837,-3.8611117779444863,8.509268817204301,0.4711111111111111,0.1811111111111111,-0.6055555555555555,2.7986402850712677,10.925906476619154,-120.08579957489373
1590512746.2750003,-0.09778323126801153,-3.9477341498559078,8.606552143371758,0.4711111111111111,0.1811111111111111,-0.6055555555555555,3.5723542754863113,10.830048574837896,-113.78293717354107
1590512746.2850003,-0.0806105896464406,-4.0193894103535595,8.924925270833729,0.4711111111111111,0.1811111111111111,-0.6055555555555555,2.7025112807722333,9.535533242579442,-108.70488643070655
1590512746.2950003,-0.04475962400430295,-4.037211535998771,9.042307712009835,0.461495729779417,0.20995725510619345,-0.6035523511114526,1.2632209999231616,8.127103450042261,-101.02253765079527
1590512746.3050003,0.011203642602613171,-3.977176323083014,8.92319453609608,0.4444444444444444,0.2611111111111111,-0.6,2.0625,7.6875,-92.75
1590512746.3150003,0.03765435399613344,-3.9553087079922666,8.72168689070791,0.4444444444444444,0.2611111111111111,-0.6,1.731480862572498,7.356480862572498,-88.96166987166303
1590512746.3250003,0.06563661422936172,-3.9695755905137586,8.77763937075234,0.4444444444444444,0.2611111111111111,-0.6,1.5,6.636355805332446,-79.56921011358776
1590512746.3350003,0.1025761342448726,-3.9870913610938468,8.873241143567432,0.4444444444444444,0.2611111111111111,-0.6,1.6975411746426352,6.018178993163455,-70.38366221255438
1590512746.3450003,0.15189384288747346,-3.963076008492569,8.836923991507431,0.43811955649917433,0.29857390894078795,-0.5907559330030667,1.7732961783439491,5.648296178343949,-63.849065817409766
1590512746.3550003,0.18450321133652767,-3.9260256906922217,8.846955041288613,0.43,0.3466666666666667,-0.5788888888888889,1.590645070853298,4.987178866347232,-57.05718727699052
1590512746.3650002,0.19,-3.9901641770959495,8.795925370551934,0.43,0.3466666666666667,-0.5788888888888889,1.6610074590999095,4.4375,-51.31408601995501
1590512746.3750002,0.19512740183792815,-4.03145433027012,8.853163464216095,0.43,0.3466666666666667,-0.5788888888888889,1.6645433027011975,4.266586605402395,-45.242698760790866
1590512746.3850002,0.22357276615875896,-3.986427233841241,8.841436596952555,0.43,0.3466666666666667,-0.5788888888888889,1.093691480554296,3.3035212690465396,-37.36071263132995
1590512746.3950002,0.23,-3.98,8.863727779714187,0.4242143216761551,0.36330049184772084,-0.5864825916889354,0.9752222028581388,2.8590972464273268,-30.906430812129663
1590512746.4050002,0.24518604416658266,-3.9989825552082285,8.80342442270848,0.4122222222222222,0.3977777777777778,-0.6022222222222222,1.2887718059897146,2.2239462539074317,-23.92231143490975
1590512746.4150002,0.273967822075003,-4.033967822075003,8.765951733112503,0.4122222222222222,0.3977777777777778,-0.6022222222222222,1.2871983319531528,1.7882038921093104,-18.547756713592808
1590512746.4250002,0.29992447025872954,-4.015264354094446,8.77015105948254,0.4122222222222222,0.3977777777777778,-0.6022222222222222,1.251416182648821,1.1893882435317615,-10.491172891939668
1590512746.4350002,0.3184813401187447,-3.9969626802374894,8.800888040712469,0.4122222222222222,0.3977777777777778,-0.6022222222222222,1.0890041878710772,0.7254664970313826,-5.008606340118744
1590512746.4450002,0.3343186864555335,-4.011362627088933,8.831131821900199,0.40694382766545906,0.4006569020814668,-0.6022222222222222,1.125,0.2485574675704102,0.5343432277667408
1590512746.4550002,0.35709628391215137,-4.017096283912151,8.819891329128353,0.4,0.4044444444444445,-0.6022222222222222,0.6975929021962155,-0.17808629075157686,6.153146135724599
1590512746.4650002,0.3485936629078592,-4.035351584273036,8.785780988723578,0.4,0.4044444444444445,-0.6022222222222222,0.30810519658706,-0.5131844102388201,10.624765521159372
1590512746.4750001,0.33,-4.0602190564107685,8.750219056410769,0.4,0.4044444444444445,-0.6022222222222222,0.21840772435817468,-0.8138691025673013,14.77259019236047
1590512746.4850001,0.33,-4.058359289403663,8.778656284238535,0.4,0.4044444444444445,-0.6022222222222222,0.10634733526373454,-1.1268562177179526,18.516705959461575
1590512746.4950001,0.3218187273014369,-4.025909363650719,8.822725090794252,0.39772742425039914,0.41489829289260843,-0.6022222222222222,-0.10226590873203852,-1.5795318174640771,22.462953971261644
1590512746.505,0.2957277139522025,-3.9581534271262107,8.8652425713174,0.3944444444444444,0.43,-0.6022222222222222,-0.10133035366877599,-1.9939357170649792,26.840471473039667
1590512746.515,0.28600790368532303,-3.9320553257972612,8.829960481573384,0.3944444444444444,0.43,-0.6022222222222222,-0.10647229114971049,-2.2188734950831726,30.082756640014704
1590512746.525,0.29271529394098655,-4.025629176364592,8.774569412118026,0.3944444444444444,0.43,-0.6022222222222222,-0.4635764697049328,-2.5012411780163677,33.37830589758991
1590512746.535,0.25275930506817007,-3.99724069493183,8.8324069493183,0.3944444444444444,0.43,-0.6022222222222222,-0.30173697002818844,-2.9267369700281884,38.20071334062015
1590512746.545,0.25879149168728066,-3.9912085083127193,8.772085083127193,0.3944444444444444,0.43,-0.6022222222222222,-0.4148404691365127,-3.0398404691365126,40.68899032100328
1590512746.555,0.18668065227734765,-3.951659673861326,8.791617717029283,0.4155555555555556,0.4088888888888889,-0.6022222222222222,-0.5938811151001341,-3.4058566546995976,46.51733693066309
1590512746.565,0.1647780396399181,-3.9639164702700613,8.829112158559672,0.4155555555555556,0.4088888888888889,-0.6022222222222222,-0.5190931306262798,-3.9402745045010237,51.2994484796971
1590512746.575,0.11716134997688396,-4.006048312528895,8.731725612575127,0.4155555555555556,0.4088888888888889,-0.6022222222222222,-1.0825603906611188,-4.495362343966713,57.100193596856215
1590512746.585,0.09,-4.0433166988958895,8.8197448693157,0.4155555555555556,0.4088888888888889,-0.6022222222222222,-1.1234054332231302,-4.757972833884349,60.87437620859585
1590512746.595,0.0879192921042396,-4.149192921042396,8.824564955270324,0.42919575176109603,0.4098136479536713,-0.605227689182765,-1.1665353947880202,-5.11451769739401,66.53530970439517
1590512746.605,0.07952818532818533,-4.07,8.874338223938224,0.4811111111111111,0.4133333333333333,-0.6166666666666667,-1.553653474903475,-5.33019305019305,70.17398166023166
1590512746.615,0.051113602800415686,-4.101477328665974,8.737965869933818,0.4811111111111111,0.4133333333333333,-0.6166666666666667,-1.5323866433298692,-5.805539982497402,74.59247319914675
1590512746.625,0.008560150624298078,-4.158481204994384,8.695759397502806,0.4811111111111111,0.4133333333333333,-0.6166666666666667,-1.8030075312149039,-6.035502824205589,76.93146140252362
1590512746.635,-0.00323112589456708,-4.093231125894567,8.75261788126197,0.4811111111111111,0.4133333333333333,-0.6166666666666667,-1.536556294728354,-5.9961672210462655,79.73083610523133
1590512746.645,-0.02463354906419451,-4.079513031310127,8.820486968689872,0.5129797290731347,0.4061791537908382,-0.6228452762715488,-1.875,-6.323167745320973,81.36583872660486
1590512746.655,-0.07506858341859296,-4.037534291709297,8.828561395598868,0.59,0.3888888888888889,-0.6377777777777778,-1.7101873688591396,-6.405821353633794,82.55608060069017
1590512746.665,-0.10472533963378619,-4.045274660366213,8.76354400472534,0.59,0.3888888888888889,-0.6377777777777778,-1.4891834022445363,-6.286916715888955,83.12156674542233
1590512746.675,-0.13775782634376849,-4.012242173656231,8.788318369757825,0.59,0.3888888888888889,-0.6377777777777778,-1.8504762256349676,-6.544983018310691,83.5344728292971
1590512746.685,-0.15325950291274074,-4.025110745630889,8.710965277671036,0.59,0.3888888888888889,-0.6377777777777778,-1.623615679613889,-6.542128106795371,83.86342973301157
1590512746.695,-0.16615333773959023,-4.005769993390615,8.833456708526107,0.59,0.3888888888888889,-0.6377777777777778,-1.8653750826173165,-6.461541639127561,84.06489590218109
1590512746.705,-0.25220453371221907,-3.963386398863343,8.826454404546629,1.022222222222222,0.2822222222222222,-0.5811111111111111,-1.8676133428054766,-6.340056671402738,83.88977331438905
1590512746.715,-0.2637466851875237,-3.9212665740623818,8.841319611062003,1.022222222222222,0.2822222222222222,-0.5811111111111111,-1.9219993054678621,-6.414083217577977,83.40633287031191
1590512746.725,-0.27211554094958057,-3.885768918100839,8.703653377151259,1.022222222222222,0.2822222222222222,-0.5811111111111111,-1.713944261869757,-6.348555738130243,83.07811229784657
1590512746.735,-0.2793702326385886,-3.8712595347228227,8.681889302084233,1.022222222222222,0.2822222222222222,-0.5811111111111111,-1.8046279079823575,-6.257872092017642,82.48866859811467
1590512746.745,-0.37156123004734176,-3.9031224600946834,8.912193849763291,1.0857122441474527,0.2855181523221659,-0.5788560010427286,-2.181696185428799,-6.421938497632913,80.9728308684905
1590512746.7549999,-0.381283033468756,-3.916150899593732,8.86679241632811,1.4288888888888889,0.3033333333333333,-0.5666666666666667,-1.8084905204101374,-6.0,79.70023457148385
1590512746.7649999,-0.39443498973563385,-3.796002381959789,8.769914907620704,1.4288888888888889,0.3033333333333333,-0.5666666666666667,-1.6282654004669894,-5.8434840863147,77.57556160186796
1590512746.7749999,-0.381289392443546,-3.6448280131007786,8.651604531991914,1.4288888888888889,0.3033333333333333,-0.5666666666666667,-1.3407054597025685,-5.473764162474731,76.42532183881028
1590512746.7849998,-0.47461336229067835,-3.7515465508372863,8.884626507401268,1.4288888888888889,0.3033333333333333,-0.5666666666666667,-1.82699891409956,-6.06741512830771,73.28866377093216
1590512746.7949998,-0.49437307276440673,-3.6881258259581116,8.811245044251333,1.3887676816217924,0.3018756424118644,-0.5720115333787194,-1.2617135877618038,-5.265618117015738,71.6133414761123
1590512746.8049998,-0.56,-3.622727272727273,8.920363636363637,0.7866666666666666,0.28,-0.6522222222222223,-1.2977272727272728,-5.523295454545455,68.7471590909091
1590512746.8149998,-0.56,-3.56,8.800935076445823,0.7866666666666666,0.28,-0.6522222222222223,-1.0327110569465987,-5.502922113893198,66.82390455351208
1590512746.8249998,-0.5579076582803428,-3.547445949682057,8.758831075476914,0.7866666666666666,0.28,-0.6522222222222223,-0.9636542714957147,-5.220960049764999,64.53941457008571
1590512746.8349998,-0.5519015108323831,-3.501901510832383,8.845212086659066,0.7866666666666666,0.28,-0.6522222222222223,-1.086268885404789,-4.851231114595211,61.95639342217788
1590512746.8449998,-0.5578797035347777,-3.5078797035347775,8.893037628278222,0.7866666666666666,0.28,-0.6522222222222223,-1.1609962941847207,-4.776503705815279,60.05084449828962
1590512746.8549998,-0.5911339066339066,-3.4905669533169537,8.904330466830467,0.5755555555555556,0.2611111111111111,-0.6666666666666666,-1.1143696253071254,-4.277065417690418,55.77676213144963
1590512746.8649998,-0.6056260590125621,-3.504373940987438,8.825308793456033,0.5755555555555556,0.2611111111111111,-0.6666666666666666,-0.964837131171487,-3.7285056967572303,51.09203184341221
1590512746.8749998,-0.5886187866187866,-3.516201663201663,8.875165753165755,0.5755555555555556,0.2611111111111111,-0.6666666666666666,-1.0344441031941032,-3.853418540918541,47.44371574371574
1590512746.8849998,-0.5569098469098469,-3.429002079002079,8.764184464184465,0.5755555555555556,0.2611111111111111,-0.6666666666666666,-0.39035626535626533,-3.357966357966358,43.28191740691741
1590512746.8949997,-0.52,-3.3839566660160063,8.94366933437439,0.5718626672739497,0.2609352592881775,-0.6683372589845359,-1.0031500097599062,-2.4901083349599844,36.00541674799922
1590512746.9049997,-0.52,-3.424892641030646,8.878171774350966,0.5336557572602858,0.25911588262086016,-0.6856213373240506,-0.38911038454030844,-2.3877683974233848,30.888419871169237
1590512746.9149997,-0.48161166427291946,-3.362893314183356,8.835825035906208,0.5288888888888889,0.2588888888888889,-0.6877777777777778,-0.10485419658850678,-1.681552277825294,22.65205371407362
1590512746.9249997,-0.48838026691626185,-3.417042135330095,8.734295996256073,0.5288888888888889,0.2588888888888889,-0.6877777777777778,-0.020246663546726495,-1.1316033130537222,18.040943163296593
1590512746.9349997,-0.5061429223634573,-3.4551786529543214,8.88325011413605,0.5288888888888889,0.2588888888888889,-0.6877777777777778,-0.11517979431482327,-0.6151797943148233,8.788851310762428
1590512746.9449997,-0.47132201943877394,-3.41,8.82661009719387,0.5288888888888889,0.2540414842800511,-0.6886591240702938,0.5625,0.1699140794003839,1.1004349349501843
1590512746.9549997,-0.4740308633763469,-3.4129845683118267,8.87,0.5288888888888889,0.2222222222222222,-0.6944444444444444,0.6371142077956632,1.0055748636424104,-8.012654649461222
1590512746.9649997,-0.465050247561155,-3.4301004951223097,8.857374381097111,0.5288888888888889,0.2222222222222222,-0.6944444444444444,0.7809359527427815,1.4545382126574833,-15.6766630717192
1590512746.9749997,-0.45258979494100743,-3.4550163263529106,8.822491836823545,0.5288888888888889,0.2222222222222222,-0.6944444444444444,0.8120918411772389,2.093035722060168,-23.759043438982978
1590512746.9849997,-0.3776421363524489,-3.447642136352449,8.842227418163919,0.5288888888888889,0.2222222222222222,-0.6944444444444444,1.1875,2.816868693083928,-31.05434715727295
1590512746.9949996,-0.4193420284880727,-3.4904386476746185,8.909122704650764,0.5283040253227314,0.22185668249337376,-0.6941276433461091,1.1998369658486356,3.208061609747726,-38.11570061781362
1590512747.0049996,-0.3737686792361732,-3.4970149433889386,8.87,0.5022222222222222,0.20555555555555555,-0.68,1.75,4.348180660502619,-48.700089624121865
1590512747.0149996,-0.32383187090500776,-3.489401754913991,8.886168129094992,0.5022222222222222,0.20555555555555555,-0.68,1.7904203227374806,4.893340645474961,-56.8956616234112
1590512747.0249996,1.0598002194269385,-6.9142346847651375,6.564339040134718,0.5022222222222222,0.20555555555555555,-0.68,-3.235421503839972,10.294598206312351,-67.91627490878473
1590512747.0349996,4.584026122343934,-12.310525020508614,-0.5044694301018191,0.5022222222222222,0.20555555555555555,-0.68,-34.38459179816307,48.67874965818977,-219.59751946307645
1590512747.0449996,6.520303205777799,-7.837522559474979,-6.374020170824686,0.5022222222222222,0.20555555555555555,-0.68,-90.00195837153565,123.228790675417,-600.6966544821374
1590512747.0549996,-0.28188998258351106,-8.152252402105635,-3.183417937026673,0.49737117560213,0.25730005283653945,-0.6702979067598155,-95.81223581730299,18.991623206982254,-864.644961693509
1590512747.0649996,-2.073170572491677,-10.491925713166655,7.8611769697760945,0.4955555555555556,0.2766666666666667,-0.6666666666666666,-95.56746931914616,79.71093902996279,-918.2044234284223
1590512747.0749996,-8.395491877517198,-11.883424353959109,-0.12190295415566688,0.4955555555555556,0.2766666666666667,-0.6666666666666666,-48.12698485344844,168.6949612664521,-773.1159067696992
1590512747.0849996,-11.027981823427583,-9.598079919215234,15.000118291979225,0.4955555555555556,0.2766666666666667,-0.6666666666666666,-26.85390219272937,176.29001370455856,-504.05996645989615
1590512747.0949996,-3.289892286978265,-2.935658780534718,3.9610713598769003,0.4955555555555556,0.2766666666666667,-0.6666666666666666,50.291690709751876,58.21859973071744,-317.7928567993845
1590512747.1049995,0.9515673728023856,-1.231710256569547,10.230772193576442,0.3244444444444444,0.5255555555555556,-0.6166666666666667,80.78333307448592,3.381981114493384,-229.35443716220414
1590512747.1149995,-2.8526681990433,-1.7354674784121267,12.845098465552587,0.3244444444444444,0.5255555555555556,-0.6166666666666667,135.99034758029447,46.700759458284146,-209.64927859228428
1590512747.1249995,1.9999993144110793,4.190661936103113,10.736958727546963,0.3244444444444444,0.5255555555555556,-0.6166666666666667,178.39706525092555,-10.993788992869876,-172.38328062868504
1590512747.1349995,-0.6023875634169751,0.21519247908953876,0.8737686822980937,0.3244444444444444,0.5255555555555556,-0.6166666666666667,48.592236348210605,-27.932667669340464,-147.08728939565336
1590512747.1449995,2.7844301361074195,-0.1541267586270107,11.530588423995233,0.31100387496244697,0.5311284746090666,-0.6173223042023739,-18.09139418450117,-5.988047637596811,-114.42756117959763
1590512747.1549995,2.56718736190897,1.3061031500536582,15.898196767880815,0.18777777777777774,0.5822222222222222,-0.6233333333333333,-7.847267375796982,73.2848995486396,-94.56771984091914
1590512747.1649995,2.3031466710343134,-1.143677176316436,16.476765866841372,0.18777777777777774,0.5822222222222222,-0.6233333333333333,-22.361620669887806,27.019365735811974,-74.99991401195643
1590512747.1749995,0.812420113012857,-0.20939693718778152,6.350816804520514,0.18777777777777774,0.5822222222222222,-0.6233333333333333,7.049315166653017,-22.27078658586521,-63.5790250593727
1590512747.1849995,1.392913323136877,-0.384924050367701,6.419052777137589,0.18777777777777774,0.5822222222222222,-0.6233333333333333,21.643598493578327,-8.874161935091873,-42.85578605250477
1590512747.1949995,1.7168623697085725,-0.956215698787492,8.901697511167836,0.18358103476801624,0.5831345576591269,-0.6227859320711905,-9.264478302488833,4.750518506700702,-25.458599234205487
1590512747.2049994,1.5104079937231736,-1.8522818110490606,10.832837033276412,0.13666666666666666,0.5933333333333334,-0.6166666666666667,-10.649815964369779,21.413131144136244,-6.763906516822818
1590512747.2149994,5.998550943923275,-5.771804278498103,8.998713657208036,0.13666666666666666,0.5933333333333334,-0.6166666666666667,-9.668977979003236,-0.6898656276915194,2.9998428734374634
1590512747.2249994,16.105053102746695,-14.745478535096643,8.99149053916582,0.13666666666666666,0.5933333333333334,-0.6166666666666667,-1.2350902848423195,-12.692708545269582,8.62195574771109
1590512747.2349994,-3.222830058708415,2.0418810176125244,13.554645479452056,0.13666666666666666,0.5933333333333334,-0.6166666666666667,2.9303551859099803,2.259026418786693,5.2386986301369864
1590512747.2449994,-1.8964134637964776,0.30178003913894313,8.314643287671233,0.13666666666666666,0.5933333333333334,-0.6166666666666667,10.194455968688846,13.545058708414874,12.42071917808219
1590512747.2549994,0.33054651700508697,-1.9251309538823727,8.743316937823181,0.12942905321767725,0.6036727811176039,-0.6363116174567808,-2.252514503720519,1.7761382267625159,22.210033316517425
1590512747.2649994,1.6006673248387993,-2.0830638941165582,10.123231728010365,0.1288888888888889,0.6044444444444445,-0.6377777777777778,-16.273784823990376,-17.761231990250824,28.271150849967604
1590512747.2749994,7.166647585131118,-7.334037142773052,7.139452276540013,0.1288888888888889,0.6044444444444445,-0.6377777777777778,3.488957603673073,0.6393001147835302,38.46877759219472
1590512747.2849994,4.382956706007005,-5.420635429849604,8.102325396591812,0.1288888888888889,0.6044444444444445,-0.6377777777777778,3.180344424169291,-9.004861744709656,39.12458059864026
1590512747.2949994,-0.3080728304563726,-2.4576139112719866,9.11463211888608,0.12936969601429285,0.604481429607937,-0.6379996887587335,-2.1436362024119178,5.425455190352329,40.92692284955527
1590512747.3049994,0.8820808701820763,-3.319712425195991,9.679192207650472,0.14038963768687107,0.6053291174289046,-0.6430858156845388,-4.003251359659494,-2.0130054386379754,43.54945704567365
1590512747.3149993,2.216148629341055,-3.863164421922923,8.216599165603032,0.14333333333333334,0.6055555555555555,-0.6444444444444445,0.418742737126855,-4.800746051854533,50.268757262873144
1590512747.3249993,1.9285011334844646,-3.975027336978264,9.207384984664621,0.14333333333333334,0.6055555555555555,-0.6444444444444445,-2.9271569542605684,-4.70086844912655,53.61465695426057
1590512747.3349993,1.81,-3.696323104188042,8.670357242794514,0.14333333333333334,0.6055555555555555,-0.6444444444444445,-1.0839590523272082,-4.832081895345583,58.66675216864098
1590512747.3449993,1.81,-3.8762856076858503,9.014633336442497,0.14333333333333334,0.6055555555555555,-0.6444444444444445,-1.230667614961291,-4.5386647700774185,61.94324340080217
1590512747.3549993,1.7548344507478082,-3.83,8.99320887055183,0.15555555555555556,0.5877777777777777,-0.6311111111111111,-0.8537777204744714,-5.219784682826199,67.80440948942754
1590512747.3649993,1.6667619408463377,-3.8159684103341305,9.161207227260887,0.15555555555555556,0.5877777777777777,-0.6311111111111111,-1.6992055222714249,-5.830951478841555,71.3287654810675
1590512747.3749993,1.647955751717973,-3.7246628303257165,8.541027431700094,0.15555555555555556,0.5877777777777777,-0.6311111111111111,-2.347306413766132,-6.5049723448237335,74.9205088273088
1590512747.3849993,1.7260662606849544,-3.9668054081233586,8.845658416671323,0.15555555555555556,0.5877777777777777,-0.6311111111111111,-2.6890398904966757,-6.5537914129280965,78.43548173082296
1590512747.3949993,1.6208422109890834,-3.9419098348509047,8.769493850130901,0.15555555555555556,0.5877777777777777,-0.6311111111111111,-2.076191074045412,-6.5625,81.65134482077289
1590512747.4049993,1.429201608040201,-3.858500502512563,8.827497487437185,0.19405494137353435,0.584277833612507,-0.6395109771077611,-1.405002512562814,-6.759371859296483,86.81432412060302
1590512747.4149992,1.3371229162482428,-3.8728770837517574,8.961096354689698,0.21666666666666667,0.5822222222222222,-0.6444444444444445,-1.6207226601727256,-7.542815763707572,93.05398768578027
1590512747.4249992,1.3735867386276022,-3.905775173477255,8.733586738627602,0.21666666666666667,0.5822222222222222,-0.6444444444444445,-3.027355435620663,-8.436549730146492,100.12233616037008
1590512747.4349992,1.2765713184271394,-3.8216951426368544,8.636571318427139,0.21666666666666667,0.5822222222222222,-0.6444444444444445,-3.189047802621434,-8.800357555898227,103.80083750963763
1590512747.4449992,1.2309045978211688,-3.9173356305036373,8.791003445755456,0.21666666666666667,0.5822222222222222,-0.6444444444444445,-2.852076154676134,-8.994346263617695,110.13312493473948
1590512747.4549992,0.8766638734466972,-3.8628196533682146,8.97486878678875,0.2088888888888889,0.5688888888888889,-0.6233333333333333,-2.0961578748364946,-9.339754332897318,117.91040278572596
1590512747.4649992,0.7706697958575474,-3.8289953062136792,8.855981224854716,0.2088888888888889,0.5688888888888889,-0.6233333333333333,-2.279303568767695,-9.783489792877365,123.72186987781255
1590512747.4749992,0.7862945164655044,-3.8055582253017435,8.762232901206973,0.2088888888888889,0.5688888888888889,-0.6233333333333333,-2.9628850953658175,-10.56472582327522,128.89755857919832
1590512747.4849992,0.6696136395859918,-3.9507727208280166,8.645409045796116,0.2088888888888889,0.5688888888888889,-0.6233333333333333,-3.8052557422373456,-11.509659010350205,136.89062278463066
1590512747.4949992,0.6621801006663831,-3.965639798667234,8.749478590670636,0.2088888888888889,0.5688888888888889,-0.6233333333333333,-3.665876887494683,-11.695497483340423,142.00118079186163
1590512747.5049992,0.5415383321771668,-3.9099299993693637,8.88167833343844,0.27,0.5555555555555556,-0.6166666666666667,-3.4055937440877844,-12.55244791995123,151.94581257488807
1590512747.5149992,0.44440924515317626,-3.861118150969365,8.881613867729765,0.27,0.5555555555555556,-0.6166666666666667,-2.9724422177926484,-12.802017334662205,158.23839906504355
1590512747.5249991,0.35,-3.8826368523949166,8.7368357771261,0.27,0.5555555555555556,-0.6166666666666667,-3.6053488514174,-12.707401637341153,164.66505376344085
1590512747.5349991,0.3447813961118858,-3.9410895332622427,8.691741858748257,0.27,0.5555555555555556,-0.6166666666666667,-4.415770342875892,-14.216039240013124,170.29901156590927
1590512747.5449991,0.27597161840702156,-4.087310310885079,8.8465638585842,0.27,0.5555555555555556,-0.6166666666666667,-4.953346731195144,-14.5923427118366,175.8898060044295
1590512747.554999,0.1821637341561041,-3.9562679286190794,8.780148849232821,0.3054894003409681,0.5245023302572086,-0.6388475418797718,-4.401116369246164,-14.974348784606404,182.31392933830887
1590512747.564999,0.056515605846298916,-3.9443492692126356,8.833047807637907,0.3144444444444445,0.5166666666666667,-0.6444444444444445,-3.9075884016973124,-15.404911598302688,188.1497135785007
1590512747.574999,-0.11073745494871085,-4.1866592736346,8.779262545051289,0.3144444444444445,0.5166666666666667,-0.6444444444444445,-4.159706820072082,-15.992271971167176,196.18424244524536
1590512747.584999,3.4374255275134464,-8.030548200248242,7.658366570128258,0.3144444444444445,0.5166666666666667,-0.6444444444444445,-6.108720779892429,-17.093407374844848,200.92511636326023
1590512747.594999,-1.3781237070748862,0.21228382292097692,6.8948200248241625,0.3144444444444445,0.5166666666666667,-0.6444444444444445,-18.41873965659909,-22.24517738932561,110.14550579230452
1590512747.604999,-3.0752002193071517,-0.9991355643097917,12.350425415262153,0.3944444444444444,0.4711111111111111,-0.6311111111111111,5.727394103074361,15.330069954920196,-83.5503327681436
1590512747.614999,-4.599749827397149,-3.562763676237664,2.615452219469601,0.3944444444444444,0.4711111111111111,-0.6311111111111111,46.289782418876655,16.181773646590585,-66.67595337692401
1590512747.624999,-1.018206824194873,-1.499040461636712,7.994702353799835,0.3944444444444444,0.4711111111111111,-0.6311111111111111,2.258966449229085,0.03393280722561798,-12.51931564182101
1590512747.634999,-0.20203709562603814,-4.675446492130032,9.516105552479633,0.3944444444444444,0.4711111111111111,-0.6311111111111111,-25.437428320018984,-0.9738232124495768,20.330510213161432
1590512747.644999,-0.48402357035513727,-4.045123783912046,8.977013762556355,0.3944444444444444,0.4711111111111111,-0.6311111111111111,-8.124288143636797,-6.001890868464764,31.47519625484458
1590512747.654999,-0.10259670338772467,-3.5876107015654766,8.69807736271018,0.3944444444444444,0.4477777777777778,-0.6233333333333333,4.6217592976062285,-3.316962436842541,53.99107512631492
1590512747.664999,-1.0058668102377204,-3.1846132692785556,9.420693448190177,0.3944444444444444,0.4477777777777778,-0.6233333333333333,-3.195001242441812,-5.705417046301665,49.21416590739667
1590512747.674999,-1.864357632168044,-2.9676634743238015,7.6548247016646185,0.3944444444444444,0.4477777777777778,-0.6233333333333333,2.873612466968509,3.4118721912712706,-17.18279143453453
1590512747.684999,-0.26889569622809817,-3.758334876205544,8.318423913958224,0.3944444444444444,0.4477777777777778,-0.6233333333333333,5.609194326157575,2.26469270193392,-8.578945264504402
1590512747.694999,0.8429702127659575,-5.22336170212766,9.235974468085107,0.3944444444444444,0.4477777777777778,-0.6233333333333333,-3.4945212765957443,-1.4313297872340423,6.75159574468085
1590512747.704999,0.4341636592357344,-4.7828658926398715,8.880922851663195,0.42019045916882625,0.4396861731501149,-0.6328961388023895,-2.0997994473201214,-0.8255114351116701,3.2650053618197195
1590512747.714999,0.16757950075364877,-4.5836616300871285,8.973979633101724,0.43333333333333335,0.4355555555555555,-0.6377777777777778,0.6837179699275762,-0.16858984963788098,-0.9924359398551523
1590512747.724999,0.1,-4.6,8.51,0.43333333333333335,0.4355555555555555,-0.6377777777777778,0.5,0.0,-0.0625
1590512747.734999,0.11442586986091002,-4.58557413013909,8.564097011978413,0.43333333333333335,0.4355555555555555,-0.6377777777777778,0.6127021082883595,-0.022540421657671887,-0.0625
1590512747.744999,0.11925697848721793,-4.497770935461654,8.768900862942106,0.43333333333333335,0.4355555555555555,-0.6377777777777778,0.16428057772556015,0.0023219422274439877,0.03473291334116599
1590512747.754999,0.14360439815486378,-4.544650555571673,8.808953842583191,0.4042637345634242,0.4413694753095374,-0.6503746039114051,-0.4375,-0.04651099538715947,-0.038516493080739234
1590512747.764999,0.14234125040809664,-4.60595249755142,8.715753754489063,0.4,0.44222222222222224,-0.6522222222222223,-0.389632815050604,-0.25396873979758405,-0.0625
1590512747.774999,0.14,-4.5344177293410475,8.630092410538733,0.4,0.44222222222222224,-0.6522222222222223,0.4273337874276726,-0.09854432335262064,-0.009011080838155161
1590512747.784999,0.1250441848654139,-4.467654647028949,8.784513966480446,0.4,0.44222222222222224,-0.6522222222222223,0.23534154393092938,0.03097384459116302,0.04673692229558151
1590512747.794999,0.12,-4.4782206771318664,8.811779322868134,0.4,0.44222222222222224,-0.6522222222222223,0.21318961603708217,-0.02568961603708217,0.018405191981458915
1590512747.8049989,0.12834098397589344,-4.506681967951787,8.77497704807232,0.41760874394910835,0.4366615662382932,-0.6281260462918634,-0.32344264834267367,-0.0625,-0.10426229969866795
1590512747.8149989,0.11711899530164174,-4.548643014095075,8.69915447415903,0.4211111111111111,0.4355555555555555,-0.6233333333333333,-0.39724686031763046,-0.10275313968236954,0.03601255872947817
1590512747.8249989,0.11,-4.498991373054906,8.677752156736274,0.4211111111111111,0.4355555555555555,-0.6233333333333333,-0.26404902039829076,-0.06952451019914538,0.06952451019914538
1590512747.8349988,0.11,-4.5257767777600115,8.751553555520022,0.4211111111111111,0.4355555555555555,-0.6233333333333333,0.5885182287502569,-0.006598784749982864,0.006598784749982864
1590512747.8449988,0.12434953957360094,-4.501300920852798,8.831747697868003,0.4211111111111111,0.4355555555555555,-0.6233333333333333,0.3736038218274795,0.08968462233500586,-0.04484231116750293
1590512747.8549988,0.13858200258275852,-4.515746007748275,8.791343979337931,0.41443622021341,0.4355555555555555,-0.6538471202942524,-0.07182509685344424,0.017724967715518597,-0.1697750322844814
1590512747.8649988,0.1314488980244376,-4.545653305926687,8.754346694073313,0.4133333333333333,0.4355555555555555,-0.6588888888888889,-0.3922219367363252,-0.053444387347265046,-0.08061122530546991
1590512747.8749988,0.13,-4.524976100098411,8.708293500164018,0.4133333333333333,0.4355555555555555,-0.6588888888888889,-0.12470125123014197,-0.11463312479497634,0.04176624958995266
1590512747.8849988,0.10402860548271753,-4.468057210965435,8.81254270957489,0.4133333333333333,0.4355555555555555,-0.6588888888888889,0.20803535955502583,-0.016785856177989666,-0.0998212157330155
1590512747.8949988,0.12789197442504058,-4.4878919744250405,8.81605401278748,0.4133333333333333,0.4355555555555555,-0.6588888888888889,0.3807436301173776,-0.17432484015650349,-0.03783757992174826
1590512747.9049988,0.13154987527132536,-4.508450124728674,8.818450124728676,0.40769991684755025,0.44118897204133867,-0.6588888888888889,0.014993763566268192,-0.25,-0.10562655910843295
1590512747.9149988,0.13,-4.570001614726304,8.699996770547392,0.4066666666666667,0.44222222222222224,-0.6588888888888889,-0.25000504601969964,-0.10937121548522524,0.015628784514774757
1590512747.9249988,0.1138771614029346,-4.525508645611739,8.668061419298533,0.4066666666666667,0.44222222222222224,-0.6588888888888889,-0.5140354824633175,-0.16326774123165877,0.012116129384170622
1590512747.9349988,0.10162700701855591,-4.51,8.720237957888665,0.4066666666666667,0.44222222222222224,-0.6588888888888889,-0.03918793865974424,-0.08283758773194884,0.0
1590512747.9449987,0.110267232949487,-4.525400849424231,8.765935315323205,0.4066666666666667,0.44222222222222224,-0.6588888888888889,0.2870957207700279,-0.03041489703285316,-0.03208510296714684
1590512747.9549987,0.11672717585721352,-4.533454351714427,8.8,0.404484783904809,0.44222222222222224,-0.6567070061270313,0.4795448491075846,0.020455150892415418,-0.0625
1590512747.9649987,0.12508422950208242,-4.5149719234993055,8.784915770497918,0.4,0.44222222222222224,-0.6522222222222223,0.12324521870661614,-0.06320191251735355,-0.031074521870661613
1590512747.9749987,0.12524195206183447,-4.532137071907249,8.674072688401925,0.4,0.44222222222222224,-0.6522222222222223,-0.1875,-0.0030244007729309796,-0.18447559922706902
1590512747.9849987,0.12,-4.54,8.657796160709818,0.4,0.44222222222222224,-0.6522222222222223,-0.1504246651878784,0.0625,-0.17584933037575676
1590512747.9949987,0.11496659115023945,-4.519866364600958,8.725367497347365,0.4,0.44222222222222224,-0.6522222222222223,0.09521163717702388,0.09395880531100342,0.0008352212440136675
1590512748.0049987,0.10275594257472347,-4.5,8.859684631678043,0.409658743233702,0.44222222222222224,-0.636929212102194,0.2219492821840433,0.07972464109202165,-0.01082607672393504
1590512748.0149987,0.1081828229797282,-4.516365645959456,8.832720239141903,0.4133333333333333,0.44222222222222224,-0.6311111111111111,0.08521471275339747,-0.03978528724660253,-0.011357356376698734
1590512748.0249987,0.11,-4.526029112890618,8.729563306640728,0.4133333333333333,0.44222222222222224,-0.6311111111111111,-0.2012736889645469,-0.10018195556636383,-0.03768195556636384
1590512748.0349987,0.11,-4.5519799585349,8.706633264224834,0.4133333333333333,0.44222222222222224,-0.6311111111111111,-0.19183367887583505,-0.033416839437917525,-0.016708419718958763
1590512748.0449986,0.12361592806679512,-4.519152215799615,8.767655748233782,0.4133333333333333,0.44222222222222224,-0.6311111111111111,0.13029865125240847,0.08509955041746949,-0.04254977520873474
1590512748.0549986,0.13,-4.492913661080901,8.811259016757296,0.4133333333333333,0.4319863993390794,-0.6460711599403198,0.338579236488736,-0.007868854733103975,-0.106789618244368
1590512748.0649986,0.11742460603151748,-4.508863090952723,8.794849212063035,0.4133333333333333,0.42777777777777776,-0.6522222222222223,0.2178075753939685,0.01609621230301575,-0.08570189384849212
1590512748.0749986,0.11,-4.540053177802556,8.699787288789777,0.4133333333333333,0.42777777777777776,-0.6522222222222223,-0.08388726877662464,-0.021054907510649853,-0.14605490751064987
1590512748.0849986,0.10373430789560621,-4.531202923686818,8.678797076313181,0.4133333333333333,0.42777777777777776,-0.6522222222222223,-0.3441423026098447,-0.14082115130492234,-0.10917884869507764
1590512748.0949986,0.10488762778881809,-4.515112372211181,8.733988650099363,0.4133333333333333,0.42777777777777776,-0.6522222222222223,-0.22366628423920837,-0.21804767368011307,-0.0014046526397738235
1590512748.1049986,0.12175709342560553,-4.504121453287197,8.821149826989618,0.4133333333333333,0.4238587466359093,-0.6398119569396385,0.14696366782006923,-0.25,0.0625
1590512748.1149986,0.12501692440432735,-4.5,8.85,0.4133333333333333,0.4211111111111111,-0.6311111111111111,0.25,-0.06313466516227517,0.0625
1590512748.1249986,0.12,-4.50471315270341,8.78401586215226,0.4133333333333333,0.4211111111111111,-0.6311111111111111,0.10271397801843876,0.125,0.0625
1590512748.1349986,0.12,-4.5283559243744325,8.719177962187217,0.4133333333333333,0.4211111111111111,-0.6311111111111111,-0.11986226367010178,-0.01840565917525447,0.0625
1590512748.1449986,0.11444703751436831,-4.536117593785921,8.74943536869971,0.4133333333333333,0.4211111111111111,-0.6311111111111111,-0.15279398446480197,-0.15279398446480197,0.010440976697202967
1590512748.1549985,0.1,-4.495820521917376,8.812538434247871,0.41658403850870734,0.4271481350082343,-0.6338974298328602,0.06810869008199305,-0.11474347603279722,-0.020513047934405546
1590512748.1649985,0.11346739484248979,-4.498978263228326,8.80306521031502,0.4211111111111111,0.4355555555555555,-0.6377777777777778,0.19388585482295922,-0.1594429274114796,0.06888585482295924
1590512748.1749985,0.12503079470814804,-4.514969205291852,8.72030794708148,0.4211111111111111,0.4355555555555555,-0.6377777777777778,0.0007698677037009521,-0.15605753307407477,0.031057533074074762
1590512748.1849985,0.12580972054410103,-4.52,8.687429161632302,0.4211111111111111,0.4355555555555555,-0.6377777777777778,-0.30655376700315706,-0.04225698639747438,-0.04643226020189423
1590512748.1949985,0.1241189335947811,-4.525881066405219,8.723524265620876,0.4211111111111111,0.4355555555555555,-0.6377777777777778,-0.2537166748369094,0.0625,-0.014730004902145627
1590512748.2049985,0.12,-4.503187018445016,8.79362596310997,0.4158974758087529,0.4355555555555555,-0.6415018029937479,0.16826698575764654,0.02060471632033621,-0.021290567359327578
1590512748.2149985,0.13215437984569597,-4.502154379845696,8.82,0.4133333333333333,0.4355555555555555,-0.6433333333333333,0.23653512596440013,-0.037982437017799936,-0.0625
1590512748.2249985,0.12679530201342282,-4.51,8.734169463087248,0.4133333333333333,0.4355555555555555,-0.6433333333333333,0.02244127516778524,-0.0625,-0.10376468120805368
1590512748.2349985,0.1257703258462512,-4.515770325846251,8.707310977538754,0.4133333333333333,0.4355555555555555,-0.6433333333333333,-0.13462907307813982,-0.09856453653906991,-0.05287092692186017
1590512748.2449985,0.12633005443606152,-4.527339891127877,8.734679782255755,0.4133333333333333,0.4355555555555555,-0.6433333333333333,-0.1186885206761532,-0.1020628402253844,-0.022937159774615606
1590512748.2549984,0.11693523676880223,-4.5308057103064066,8.769194289693592,0.41571703806870935,0.43112867533271426,-0.6436738625812441,0.03830954038997215,-0.0625,-0.0625
1590512748.2649984,0.12310154065790258,-4.490347689013146,8.822753851644755,0.4211111111111111,0.4211111111111111,-0.6444444444444445,0.20688462911189104,0.060326943667836544,-0.021557685444054488
1590512748.2749984,0.11706892510919356,-4.492931074890807,8.749482475764355,0.4211111111111111,0.4211111111111111,-0.6444444444444445,0.08836156386491956,-0.03663843613508044,0.0
1590512748.2849984,0.11,-4.526089059244206,8.732611324055256,0.4211111111111111,0.4211111111111111,-0.6444444444444445,-0.2038207753453554,-0.0027075347927867643,-0.04076415506907108
1590512748.2949984,0.10446087888531619,-4.534460878885317,8.755539121114683,0.4211111111111111,0.4211111111111111,-0.6444444444444445,-0.1740219721329046,0.02788049303322615,-0.02788049303322615
1590512748.3049984,0.11098921382015343,-4.526336928726615,8.770989213820153,0.4158200081606669,0.42355315862670073,-0.6420023969288549,0.0061825863759589345,0.0,-0.022894195458652976
1590512748.3149984,0.1263547837377262,-4.516354783737726,8.786354783737725,0.4066666666666667,0.42777777777777776,-0.6377777777777778,0.14778260163921123,-0.06834780491763369,-0.0625
1590512748.3249984,0.12460851877180984,-4.51,8.752348887369141,0.4066666666666667,0.42777777777777776,-0.6377777777777778,0.12989351535237695,-0.12989351535237695,-0.0625
1590512748.3349984,0.12587906223547166,-4.51,8.736483751058113,0.4066666666666667,0.42777777777777776,-0.6377777777777778,-0.06627930514151117,-0.0625,-0.0625
1590512748.3449984,0.12491576436738093,-4.51491576436738,8.779663057469524,0.4066666666666667,0.42777777777777776,-0.6377777777777778,-0.09638236351934582,-0.0010529454077383288,-0.031776472703869164
1590512748.3549984,0.13,-4.52,8.8,0.4066666666666667,0.4319376189294283,-0.6377777777777778,0.09592729496862036,-0.03778188490586107,-0.03342729496862036
1590512748.3649983,0.11640184931829976,-4.5064018493183,8.8271963013634,0.4066666666666667,0.4355555555555555,-0.6377777777777778,0.25248266264093977,-0.040011558239373496,-0.0625
1590512748.3749983,0.11679739345008505,-4.506797393450085,8.765228672049064,0.4066666666666667,0.4355555555555555,-0.6377777777777778,0.27001629093696844,-0.042483709063031554,-0.020016290936968446
1590512748.3849983,0.11352217083786724,-4.51,8.75591131664853,0.4066666666666667,0.4355555555555555,-0.6377777777777778,0.007081406420021752,-0.022013567736670292,-0.12145929678998912
1590512748.3949983,0.1302356457267659,-4.525176734295075,8.764941088568309,0.4066666666666667,0.4355555555555555,-0.6377777777777778,-0.09338180355192827,-0.031618196448071734,-0.1875
1590512748.4049983,0.1296977029192722,-4.529848851459636,8.765075574270181,0.41399805172359616,0.43160788667874733,-0.6377777777777778,-0.03077766081136285,-0.1259446783772743,-0.09233298243408855
1590512748.4149983,0.11614650352104439,-4.513853496478955,8.77,0.4211111111111111,0.42777777777777776,-0.6377777777777778,0.11524694101958216,-0.11066870598694523,-0.11524694101958216
1590512748.4249983,0.126118517450938,-4.497762965098124,8.733288895294372,0.4211111111111111,0.42777777777777776,-0.6377777777777778,0.2257407340683625,-0.10074073406836251,-0.03453706372654994
1590512748.4349983,0.11157232704402516,-4.520712788259958,8.740712788259959,0.4211111111111111,0.42777777777777776,-0.6377777777777778,0.21160901467505241,-0.04821802935010483,-0.01428197064989517
1590512748.4449983,0.11019579118246788,-4.534902104408766,8.7752936867737,0.4211111111111111,0.42777777777777776,-0.6377777777777778,0.028190762773939393,-0.09558554233563638,0.0012236948904242456
1590512748.4549983,0.12497841268001507,-4.53995682536003,8.799956825360029,0.4238768959333417,0.4316498765289006,-0.6405435626000083,-0.09388492074990583,-0.12526984149981166,0.03138492074990583
1590512748.4649982,0.12419066276435045,-4.532571988293051,8.786762651057401,0.4266666666666667,0.4355555555555555,-0.6433333333333333,-0.026191642277190334,-0.0625,0.0
1590512748.4749982,0.12426821951649902,-4.511463560967002,8.744390682901006,0.4266666666666667,0.4355555555555555,-0.6433333333333333,0.10670548791247574,-0.08917637197811894,-0.026676371978118934
1590512748.4849982,0.1337658719102018,-4.5,8.725063487640808,0.4266666666666667,0.4355555555555555,-0.6433333333333333,0.13231650280619353,-0.0779266011224774,-0.1331100983162839
1590512748.4949982,0.13015932450901466,-4.504920337745492,8.759840675490985,0.4266666666666667,0.4355555555555555,-0.6433333333333333,-0.0932521109093292,-0.030752110909329188,-0.1884957781813416
1590512748.5049982,0.12470683573267233,-4.51,8.79353417866336,0.41725299520132203,0.4355555555555555,-0.647517187317931,-0.125,-0.09191772332920202,-0.18383544665840404
1590512748.5149982,0.13,-4.516058507834587,8.789707460827064,0.4066666666666667,0.4355555555555555,-0.6522222222222223,-0.049268652067660165,-0.125,-0.17426865206766018
1590512748.5249982,0.13,-4.52,8.745679053570576,0.4066666666666667,0.4355555555555555,-0.6522222222222223,0.07600295759194772,0.027005915183895446,-0.08699852120402614
1590512748.5349982,0.12127255931710489,-4.515636279658552,8.743091161024342,0.4066666666666667,0.4355555555555555,-0.6522222222222223,0.043180243597858256,0.09772674786595276,-0.03522674786595276
1590512748.5449982,0.11253273264817683,-4.51,8.775196395889061,0.4066666666666667,0.4355555555555555,-0.6522222222222223,-0.015011262846684498,0.015011262846684498,0.0
1590512748.5549982,0.12,-4.516714263947237,8.82,0.4115158572952265,0.4355555555555555,-0.6451349436112502,0.06205377549465618,-0.125,0.0
1590512748.5649981,0.12419758983025939,-4.5258024101697405,8.786419281357926,0.4211111111111111,0.4355555555555555,-0.6311111111111111,-0.03626506356087883,-0.15123493643912117,0.0
1590512748.5749981,0.13,-4.501698355301528,8.70949725883588,0.4211111111111111,0.4355555555555555,-0.6311111111111111,0.07625685291029978,-0.07311472063455032,0.0
1590512748.5849981,0.11882133995037221,-4.506767990074442,8.734714640198511,0.4211111111111111,0.4355555555555555,-0.6311111111111111,0.09006668734491316,-0.03493331265508685,0.03493331265508685
1590512748.5949981,0.11396305821837736,-4.516036941781622,8.781889174655133,0.4211111111111111,0.4355555555555555,-0.6311111111111111,-0.011807341594575638,-0.03773088613514146,-0.011807341594575638
1590512748.604998,0.1134119775077661,-4.513294011246117,8.803294011246118,0.41635309486671995,0.4355555555555555,-0.6380651348529135,-0.1455875702882309,-0.0617627108646927,-0.1044124297117691
1590512748.614998,0.1178249659815226,-4.508116689345651,8.804058344672827,0.4066666666666667,0.4355555555555555,-0.6522222222222223,-0.038958616820645026,-0.0018232710258063167,-0.025364654205161256
1590512748.624998,0.12238381679389314,-4.507616183206107,8.758110992366413,0.4066666666666667,0.4355555555555555,-0.6522222222222223,0.014898854961832061,0.10119942748091604,0.0
1590512748.634998,0.10948955916473319,-4.518979118329466,8.694083526682133,0.4066666666666667,0.4355555555555555,-0.6522222222222223,-0.0529292343387471,0.0529292343387471,0.0
1590512748.644998,0.10505010770815773,-4.502525053854079,8.775050107708157,0.4066666666666667,0.4355555555555555,-0.6522222222222223,0.15656317317598578,-0.03031048047204271,0.015781586587992884
1590512748.654998,0.11814460990915052,-4.509072304954575,8.78814460990915,0.4066666666666667,0.4355555555555555,-0.6522222222222223,0.2384038119321907,0.21521143579657204,0.05670190596609535
1590512748.664998,0.10829757462686568,-4.5265951492537315,8.811702425373134,0.4211111111111111,0.44222222222222224,-0.6433333333333333,-0.13429920708955223,-0.10371968283582089,0.010640158582089552
1590512748.674998,0.10074871383223265,-4.511123070748349,8.81588207392272,0.4211111111111111,0.44222222222222224,-0.6433333333333333,0.122660269274273,0.0023397307257270045,0.064839730725727
1590512748.684998,0.12,-4.527908548784989,8.725114314018764,0.4211111111111111,0.44222222222222224,-0.6433333333333333,0.08139289252345526,0.0625,0.08721421495308948
1590512748.694998,0.12,-4.501623588389079,8.763247176778158,0.4211111111111111,0.44222222222222224,-0.6433333333333333,0.125,0.052352572568255935,0.03044228229523219
1590512748.704998,0.12219368387044666,-4.512193683870446,8.784387367740893,0.4194049125452081,0.43905356774268817,-0.6435770759856052,0.0701579032388337,0.0,0.14636842742912526
1590512748.714998,0.12762565994069575,-4.521187170029652,8.798812829970348,0.4133333333333333,0.42777777777777776,-0.6444444444444445,-0.11758018731467419,0.0,0.0
1590512748.724998,0.1143472452438089,-4.521305509512382,8.75087479280572,0.4133333333333333,0.42777777777777776,-0.6444444444444445,-0.008159434452388613,0.0,0.0
1590512748.734998,0.11555167272388407,-4.514448327276115,8.708896654552232,0.4133333333333333,0.42777777777777776,-0.6444444444444445,0.09030204547572454,0.08340613642717361,0.027802045475724537
1590512748.744998,0.11,-4.512564297296742,8.74974281081303,0.4133333333333333,0.42777777777777776,-0.6444444444444445,0.125,0.1410268581046409,0.039263429052320456
1590512748.754998,0.11672619400771285,-4.5,8.813452388015426,0.4088492039948581,0.42553571310854016,-0.6422023797752069,0.08296128745179471,0.041480643725897354,-0.021019356274102643
1590512748.764998,0.1252843373493976,-4.504715662650602,8.835284337349398,0.4,0.4211111111111111,-0.6377777777777778,0.0,0.0,-0.0625
1590512748.774998,0.11674219856424281,-4.5165156028715145,8.787648581335157,0.4,0.4211111111111111,-0.6377777777777778,-0.04072251794696489,0.04072251794696489,-0.021777482053035112
