time,acc_x,acc_y,acc_z,mag_x,mag_y,mag_z,gyr_x,gyr_y,gyr_z
1590512800.3947322,-0.28,-4.46,8.75,0.4566666666666666,0.26666666666666666,-0.5966666666666667,0.25,-0.1875,0.0
1590512800.4047322,-0.2988039806859656,-4.452535987123977,8.853732006438012,0.4488888888888889,0.26666666666666666,-0.59,0.2733250402375717,-0.46919983904971324,-0.08582504023757169
1590512800.4147322,-0.2918816243401638,-4.4459408121700825,8.800591878299182,0.4488888888888889,0.26666666666666666,-0.59,0.20110977181096473,-0.12684961968494118,-0.08786992393698824
1590512800.4247322,-0.3,-4.4389927306935775,8.776510903959633,0.4488888888888889,0.26666666666666666,-0.59,0.15939771658257076,0.03439771658257077,-0.0625
1590512800.4347322,-0.29547386376778073,-4.439052272464439,8.826209089857754,0.4488888888888889,0.26666666666666666,-0.59,0.21578835145137043,0.09078835145137042,-0.034211648548629583
1590512800.4447322,-0.2761840525178128,-4.436184052517813,8.879210631654791,0.45247080119908556,0.26410815787366904,-0.5864180876898033,0.2212167760787767,0.09621677607877671,0.0
1590512800.4547322,-0.277452068617558,-4.425817356205853,8.895817356205853,0.4566666666666666,0.2611111111111111,-0.5822222222222222,0.11478304742684158,-0.010216952573158425,0.0
1590512800.4647322,-0.3059698701032513,-4.437984935051626,8.732316363915862,0.4566666666666666,0.2611111111111111,-0.5822222222222222,-0.03731168814532039,-0.012594155927339805,0.09981168814532039
1590512800.4747322,-0.293954610730513,-4.4319773053652565,8.706045389269487,0.4566666666666666,0.2611111111111111,-0.5822222222222222,0.03778368293429385,-0.050141841467146925,0.02471631706570615
1590512800.4847322,-0.28436509936333554,-4.435634900636664,8.715634900636665,0.4566666666666666,0.2611111111111111,-0.5822222222222222,0.027281871020846976,-0.0625,-0.035218128979153024
1590512800.4947321,-0.2918699791728652,-4.434065010413567,8.737804968759297,0.46392054282786205,0.2683649872723065,-0.590135541670799,0.07418736983040762,-0.09959368491520382,-0.0625
1590512800.5047321,-0.2857440989220621,-4.444255901077938,8.785639752694845,0.4688888888888889,0.2733333333333333,-0.5955555555555555,0.21409938173711185,-0.125,0.026599381737111863
1590512800.5147321,-0.29522398862608246,-4.457611994313042,8.761940028434793,0.4688888888888889,0.2733333333333333,-0.5955555555555555,0.15485007108698462,-0.22014992891301538,-0.03264992891301538
1590512800.524732,-0.2936086846065154,-4.4536086846065155,8.762782630786969,0.4688888888888889,0.2733333333333333,-0.5955555555555555,0.0850542787907213,-0.25,-0.1024457212092787
1590512800.534732,-0.27974960158927675,-4.444874800794639,8.816126792848253,0.4688888888888889,0.2733333333333333,-0.5955555555555555,0.09453249503351016,-0.3140649900670203,-0.028902514899469517
1590512800.544732,-0.274100221599699,-4.44,8.8641002215997,0.46615540782242293,0.2651328901339354,-0.586443952000669,0.17625276999623699,-0.375,0.011247230003763015
1590512800.554732,-0.2860730250055322,-4.443036512502767,8.876073025005532,0.4622222222222222,0.2533333333333333,-0.5733333333333334,0.21204359371542375,-0.43193460942686435,-0.10045640628457624
1590512800.564732,-0.2916977094396449,-4.441697709439645,8.844337401918047,0.4622222222222222,0.2533333333333333,-0.5733333333333334,0.15094465800110962,-0.4068320519933423,-0.21344465800110962
1590512800.574732,-0.27534265350877196,-4.443972039473684,8.77534265350877,0.4622222222222222,0.2533333333333333,-0.5733333333333334,0.21660841557017543,-0.10017475328947369,-0.19178316885964913
1590512800.584732,-0.2732286040091226,-4.46,8.779685812027367,0.4622222222222222,0.2533333333333333,-0.5733333333333334,0.2903575501140319,0.0,-0.14517877505701596
1590512800.594732,-0.2907549997224946,-4.452830000185004,8.8,0.4550522224072258,0.2605033331483297,-0.5761216665947209,0.41981249884372746,0.044812498843727455,-0.16509375057813627
1590512800.604732,-0.30225407652136843,-4.44,8.78192617854986,0.44222222222222224,0.2733333333333333,-0.5811111111111111,0.5161373405804824,0.012038615936622962,-0.14113734058048244
1590512800.614732,-0.2842229573934837,-4.44,8.725777042606516,0.44222222222222224,0.2733333333333333,-0.5811111111111111,0.5361065162907268,-0.2597130325814536,-0.1611065162907268
1590512800.624732,-0.28037848532590776,-4.449621514674092,8.748864544022277,0.44222222222222224,0.2733333333333333,-0.5811111111111111,0.37973106657384675,-0.1875,-0.03479829993038508
1590512800.634732,-0.26442123865370715,-4.437684954614828,8.785578761346292,0.44222222222222224,0.2733333333333333,-0.5811111111111111,0.1453982247570086,-0.1875,0.09736725841433047
1590512800.644732,-0.2664261988454965,-4.439278596536489,8.822130994227482,0.4343679791888376,0.26547909029994876,-0.5868232878626635,0.2231549711374117,-0.26782748556870584,-0.0356549711374117
1590512800.654732,-0.28534329891781707,-4.455114432972605,8.85022886594521,0.43,0.2611111111111111,-0.59,0.28053479392121444,-0.24856958784242886,-0.06106958784242886
1590512800.664732,-0.29471750095367266,-4.444152502861018,8.801892510490399,0.43,0.2611111111111111,-0.59,0.3820624761581825,-0.0884531428813631,-0.06603123807909125
1590512800.674732,-0.29,-4.43,8.771091792730509,0.43,0.2611111111111111,-0.59,0.32423506057909507,0.13182370456567868,-0.08105876514477377
1590512800.684732,-0.28437485416504626,-4.435625145834954,8.808125729174769,0.43,0.2611111111111111,-0.59,0.25,0.08202851559461773,-0.027342838531539244
1590512800.694732,-0.28,-4.443940579210831,8.83,0.4348162634799037,0.26592737459101484,-0.5921892106726835,0.22537137993231057,0.024628620067689438,-0.024628620067689438
1590512800.704732,-0.284772168951581,-4.440455662096838,8.82522783104842,0.44222222222222224,0.2733333333333333,-0.5955555555555555,0.21732605594738094,0.0028478881052381305,0.026978167842142797
1590512800.714732,-0.29,-4.4367745128072205,8.759029384735019,0.44222222222222224,0.2733333333333333,-0.5955555555555555,0.038296474774371425,-0.0625,0.125
1590512800.724732,-0.29741387001128283,-4.454827740022566,8.767069350056413,0.44222222222222224,0.2733333333333333,-0.5955555555555555,0.12284675028207079,-0.1088366875705177,0.0786633124294823
1590512800.734732,-0.28806264997488795,-4.436125299949776,8.797906025037667,0.44222222222222224,0.2733333333333333,-0.5955555555555555,0.15019578117152477,0.024216875313900932,-0.012108437656950466
1590512800.744732,-0.2914612840301925,-4.425730642015096,8.815730642015097,0.4536835062524147,0.26951290532326916,-0.5923718655471687,0.05336697481129675,0.01755046221694513,-0.09831651259435162
1590512800.754732,-0.28378121978730264,-4.435406260070899,8.82,0.4622222222222222,0.26666666666666666,-0.59,0.0,-0.0625,-0.09121087455688043
1590512800.764732,-0.27584626665037276,-4.4341537333496275,8.784922400097763,0.4622222222222222,0.26666666666666666,-0.59,0.03653916656482952,-0.0625,-0.0625
1590512800.7747319,-0.2738718464232441,-4.423871846423244,8.778384460730267,0.4622222222222222,0.26666666666666666,-0.59,0.0625,-0.0625,0.014101919709449379
1590512800.7847319,-0.28616533261586063,-4.424041333153965,8.80616533261586,0.4622222222222222,0.26666666666666666,-0.59,0.011983335575435523,-0.0625,0.03724166778771776
1590512800.7947319,-0.29999115690722444,-4.43,8.832502210773194,0.4572178006758344,0.26333038563574146,-0.5936143044501689,-0.07813881733246184,-0.09377763466492368,0.015638817332461842
1590512800.8047318,-0.2615753514649849,-4.43,8.827363027197478,0.44222222222222224,0.2533333333333333,-0.6044444444444445,-0.07234594665615557,-0.10851891998423335,0.0625
1590512800.8147318,-0.2587533490937746,-4.434376674546887,8.770609929078015,0.44222222222222224,0.2533333333333333,-0.6044444444444445,-0.08206264775413712,0.0,0.0625
1590512800.8247318,-0.27528526406264925,-4.44,8.751711584375895,0.44222222222222224,0.2533333333333333,-0.6044444444444445,-0.05536839843376945,0.0,0.0625
1590512800.8347318,-0.28,-4.432166749875187,8.799583125312031,0.44222222222222224,0.2533333333333333,-0.6044444444444445,0.08697890664003995,-0.024478906640039943,0.0625
1590512800.8447318,-0.2830157401872883,-4.42,8.83,0.44825370259679886,0.2573543202497177,-0.5977427995838037,0.08730324765889619,-0.024803247658896195,0.043651623829448094
1590512800.8547318,-0.29244048462519484,-4.422440484625195,8.817797576874026,0.4622222222222222,0.26666666666666666,-0.5822222222222222,0.0,0.031993942185064475,0.0
1590512800.8647318,-0.29548038957620426,-4.43,8.752882337457226,0.4622222222222222,0.26666666666666666,-0.5822222222222222,0.0,-0.006004869702553303,0.0
1590512800.8747318,-0.28525170791801996,-4.43,8.767482920819802,0.4622222222222222,0.26666666666666666,-0.5822222222222222,0.08903047653712622,0.03282317448762459,-0.029676825512375406
1590512800.8847318,-0.2753899073448125,-4.425389907344813,8.82,0.4622222222222222,0.26666666666666666,-0.5822222222222222,0.15868692090507813,-0.05762615818984372,-0.03368692090507814
1590512800.8947318,-0.2652055458599961,-4.4295889082800075,8.84397227070002,0.44943701118221185,0.26986296942666926,-0.5859512421088918,0.15496533837502424,-0.21489601512507273,0.05993067675004848
1590512800.9047318,-0.2719613879950925,-4.445980693997546,8.864019306002453,0.4355555555555555,0.2733333333333333,-0.59,0.03798265006134402,-0.349879337484664,-0.061896687423319996
1590512800.9147317,-0.28,-4.44418967473525,8.784465771558246,0.4355555555555555,0.2733333333333333,-0.59,0.010129065809379723,-0.1571128025718608,-0.11487093419062028
1590512800.9247317,-0.27452677966101696,-4.445473220338983,8.74641966101695,0.4355555555555555,0.2733333333333333,-0.59,0.1651228813559322,-0.1026228813559322,0.07433050847457626
1590512800.9347317,-0.279127147766323,-4.440872852233677,8.79194501718213,0.4355555555555555,0.2733333333333333,-0.59,0.3070446735395189,-0.2730670103092784,0.1875
1590512800.9447317,-0.29,-4.43,8.834947680774636,0.44215246325507135,0.26728616794211046,-0.59,0.2513079806340778,-0.28223098547555836,0.09473098547555833
1590512800.9547317,-0.29,-4.43,8.843998572381794,0.4488888888888889,0.2611111111111111,-0.59,0.125,-0.16250892261378272,-0.02499107738621728
1590512800.9647317,-0.2888250098874627,-4.43,8.835900118649553,0.4488888888888889,0.2611111111111111,-0.59,0.13234368820335815,-0.125,-0.04781262359328372
1590512800.9747317,-0.2768439574792294,-4.426843957479229,8.742624170083083,0.4488888888888889,0.2611111111111111,-0.59,0.24667579726444872,-0.18417579726444872,0.04277473424518376
1590512800.9847317,-0.27,-4.421318052471935,8.772636104943869,0.4488888888888889,0.2611111111111111,-0.59,0.36676217205040806,-0.30426217205040806,-0.016475655899183837
1590512800.9947317,-0.2763311826036481,-4.423668817396352,8.79949677390547,0.4467784946876729,0.2628697729454578,-0.59,0.3125,-0.28956989127280036,-0.10521505436359983
1590512801.0047317,-0.29,-4.4138037530632115,8.823803753063212,0.44222222222222224,0.26666666666666666,-0.59,0.33627345664507036,-0.35122654335492964,-0.0625
1590512801.0147316,-0.29,-4.42,8.784745158493111,0.44222222222222224,0.26666666666666666,-0.59,0.3042893101454861,-0.3125,-0.0625
1590512801.0247316,-0.279587860050946,-4.425206069974527,8.75,0.44222222222222224,0.26666666666666666,-0.59,0.25,-0.4101138120223814,-0.1275758746815876
1590512801.0347316,-0.2831531809079506,-4.421231212728033,8.789459542723852,0.44222222222222224,0.26666666666666666,-0.59,0.25,-0.6096098408995885,-0.24230492044979424
1590512801.0447316,-0.29553452963567156,-4.414465470364329,8.835534529635671,0.45413014319376477,0.2641858497975953,-0.59,0.22209081022294724,-1.1686378466557912,-0.42413675910821097
1590512801.0547316,-0.3024382514500826,-4.428292167633389,8.834146083816695,0.4688888888888889,0.2611111111111111,-0.59,0.23932604770867744,-2.1021083816694195,-0.6402390715630162
1590512801.0647316,-0.31658484270734033,-4.433169685414681,8.805848427073403,0.4688888888888889,0.2611111111111111,-0.59,0.2271210676835081,-3.0290157292659674,-0.792689466158246
1590512801.0747316,-0.3021612864988739,-4.423919356750563,8.790951637757319,0.4688888888888889,0.2611111111111111,-0.59,0.11149195938203801,-4.201915573511399,-0.9484879390730571
1590512801.0847316,-0.2771103311319447,-4.417110331131944,8.854532397358334,0.4688888888888889,0.2611111111111111,-0.59,0.4452933773611047,-5.2577933773611045,-1.0302758278298618
1590512801.0947316,-0.23535266364778681,-4.389294672704426,8.81697100452832,0.4688888888888889,0.26395114999301916,-0.5915491121174044,1.260114630503331,-5.680495625785343,-0.8067936650940042
1590512801.1047316,-0.20471709041522698,-4.416179272603807,8.838089636301904,0.4688888888888889,0.2733333333333333,-0.5966666666666667,1.4044818150951686,-4.278746579719987,-0.18396363019033732
1590512801.1147316,-0.13940156366963322,-4.405385926973302,8.828803127339267,0.4688888888888889,0.2733333333333333,-0.5966666666666667,0.9588575022872827,-2.662890917408301,0.6698827247775098
1590512801.1247315,-0.13628741444063278,-4.474281463898419,8.81,0.4688888888888889,0.2733333333333333,-0.5966666666666667,0.3321481701269774,-0.05707378834929355,1.2178146389841806
1590512801.1347315,-0.1499258620969971,-4.4401853447575075,8.81,0.4688888888888889,0.2733333333333333,-0.5966666666666667,0.3747683190531159,0.4969881476905068,0.8768534475750727
1590512801.1447315,-0.19884164052515393,-4.434105572983231,8.867052786491614,0.46102965286652986,0.2733333333333333,-0.6071456480298121,0.20592008442740406,1.0407807598466365,0.3822397467177878
1590512801.1547315,-0.22,-4.417796975380073,8.85118790152029,0.44222222222222224,0.2733333333333333,-0.6322222222222222,0.2775378077490922,1.6440335581181915,0.2913067116236383
1590512801.1647315,-0.23516209082500508,-4.41,8.764405666974982,0.44222222222222224,0.2733333333333333,-0.6322222222222222,0.46976306765628173,2.690876892187606,0.5006753784375212
1590512801.1747315,-0.25,-4.41,8.72879674186052,0.44222222222222224,0.2733333333333333,-0.6322222222222222,0.4743902725288139,3.4992884556700545,0.6506097274711862
1590512801.1847315,-0.26313099799925393,-4.413282749499814,8.779544745498322,0.44222222222222224,0.2733333333333333,-0.6322222222222222,0.375,4.103534368747669,0.8936202906168402
1590512801.1947315,-0.2908990761856905,-4.415504619071547,8.831908314328786,0.4428216063460159,0.2733333333333333,-0.6297247883730819,0.4199538092845271,4.052638572146419,1.148165416876039
1590512801.2047315,-0.2862108077047993,-4.383789192295201,8.768385589726934,0.4488888888888889,0.2733333333333333,-0.6044444444444445,0.5589976765683163,1.7394930297049491,0.46272516051665125
1590512801.2147315,-0.28430328349801676,-4.409535522332011,8.775696716501983,0.4488888888888889,0.2733333333333333,-0.6044444444444445,-0.0210895510127444,0.3866119416997207,0.09520149271246509
1590512801.2247314,-0.2848772478899977,-4.409918165259999,8.780163669480004,0.4488888888888889,0.2733333333333333,-0.6044444444444445,-0.25,0.125,0.09400573356250481
1590512801.2347314,-0.2664187519797276,-4.407162496040545,8.810743744060817,0.4488888888888889,0.2733333333333333,-0.6044444444444445,-0.1828515996198923,0.05785159961989231,0.125
1590512801.2447314,-0.26,-4.419475420775561,8.83314747534663,0.4495883278548067,0.27269218094790865,-0.6036867188980335,-0.07233586045821902,-0.05922137984726032,0.13155724030547936
1590512801.2547314,-0.25571648931998225,-4.418567021360036,8.864298935919894,0.4622222222222222,0.2611111111111111,-0.59,-0.3035438835002222,0.026771941750111113,0.14291223299955555
1590512801.2647314,-0.2541277934252997,-4.4258722065747005,8.792849859172303,0.4622222222222222,0.2611111111111111,-0.59,-0.34920129109187725,0.01090258218375445,0.07739612672436832
1590512801.2747314,-0.26,-4.42,8.747259902333152,0.4622222222222222,0.2611111111111111,-0.59,-0.2444384156266956,-0.0625,0.1875
1590512801.2847314,-0.2635152219027855,-4.423515221902785,8.777576109513927,0.4622222222222222,0.2611111111111111,-0.59,-0.1909104106772271,-0.1284104106772271,0.09961945243036384
1590512801.2947314,-0.2667916810809711,-4.43,8.816416637838058,0.4590139033031933,0.26200231081084135,-0.5930300789790829,-0.3125,-0.26002599662196535,-0.05247400337803464
1590512801.3047314,-0.2504953179796811,-4.429752341010159,8.849504682020319,0.44222222222222224,0.26666666666666666,-0.6088888888888889,-0.30630852525398605,-0.30630852525398605,0.003095737373006978
1590512801.3147314,-0.2644464643466647,-4.42,8.799455553906656,0.44222222222222224,0.26666666666666666,-0.6088888888888889,-0.010435603249981454,-0.010435603249981454,0.0902904021666543
1590512801.3247313,-0.25120909639766553,-4.417581807204669,8.72846367478366,0.44222222222222224,0.26666666666666666,-0.6088888888888889,0.11744314751459047,0.125,0.0
1590512801.3347313,-0.2635180259012951,-4.40703605180259,8.81814420721036,0.44222222222222224,0.26666666666666666,-0.6088888888888889,0.10647532376618832,0.125,0.021987661883094155
1590512801.3447313,-0.27,-4.42,8.873569609198748,0.4434120919551383,0.26666666666666666,-0.6080956424002782,0.16518994250782332,0.1026899425078233,0.07365502874608834
1590512801.3547313,-0.2736246233318984,-4.42,8.89,0.4488888888888889,0.26666666666666666,-0.6044444444444445,0.08515389582436504,0.06796168747309514,0.07969220835126992
1590512801.3647313,-0.28,-4.417614867728071,8.858993280464919,0.4488888888888889,0.26666666666666666,-0.6044444444444445,0.09518584660088383,0.14277876990132574,0.014907076699558083
1590512801.3747313,-0.2732686330733292,-4.41,8.76673136692667,0.4488888888888889,0.26666666666666666,-0.6044444444444445,-0.02103552164584628,-0.04207104329169256,0.02042895670830744
1590512801.3847313,-0.26,-4.41,8.786014259846084,0.4488888888888889,0.26666666666666666,-0.6044444444444445,-0.04997029198732458,-0.08741087596197375,-0.0625
1590512801.3947313,-0.26,-4.411362953202528,8.812725906405056,0.4479802534205367,0.26590947044303986,-0.6044444444444445,0.0,0.08805537254740484,-0.04546308496839678
1590512801.4047313,-0.26,-4.419998352926643,8.829996705853286,0.4422233202711266,0.26111202615186474,-0.6044444444444445,0.0,0.24996911737456506,0.062479411583043376
1590512801.4147313,-0.2770500953440331,-4.4029499046559675,8.789350667408232,0.44222222222222224,0.2611111111111111,-0.6044444444444445,-0.09218452049896711,0.07687857540123948,0.01843690409979342
1590512801.4247313,-0.2782631393524005,-4.41,8.7379342151619,0.44222222222222224,0.2611111111111111,-0.6044444444444445,-0.35123346571437725,-0.21332231047625147,0.08832231047625148
1590512801.4347312,-0.29700251698491703,-4.41,8.772241819799019,0.44222222222222224,0.2611111111111111,-0.6044444444444445,-0.5203085672110672,-0.4749685376885373,0.1265742983667985
1590512801.4447312,-0.27400204185809085,-4.416003062787136,8.872006125574272,0.44222222222222224,0.2611111111111111,-0.6015540808802677,-0.5625,-0.8375127616130679,-0.012506380806533947
1590512801.4547312,-0.2979130414389906,-4.432086958561009,8.908130437841514,0.44222222222222224,0.2611111111111111,-0.59,-0.2904892005346966,-1.0116847634905373,0.011684763490537278
1590512801.4647312,-0.3025676690001685,-4.405135338000337,8.847883457667622,0.44222222222222224,0.2611111111111111,-0.59,0.21790413749789372,-1.3417763208284188,0.125
1590512801.4747312,-0.28329268853111933,-4.366585377062239,8.738658568343011,0.44222222222222224,0.2611111111111111,-0.59,0.45884139336100854,-1.9039632511756865,0.125
1590512801.4847312,-0.30815651716959397,-4.39,8.810195646461993,0.44222222222222224,0.2611111111111111,-0.59,0.6225544192250945,-3.490923813084868,-0.15048911615498112
1590512801.4947312,-0.342951027951028,-4.3848357010857,8.851475513975513,0.44222222222222224,0.26152097610430947,-0.588770405020405,0.1388329435204435,-4.224387849387849,-0.24077803765303765
1590512801.5047312,-0.42742984195661315,-4.300237565851411,8.883833703904012,0.44222222222222224,0.26666666666666666,-0.5733333333333334,0.2507423932856599,-4.736906085371472,0.02321825611441619
1590512801.5147312,-0.629716283348666,-4.210283716651333,8.928895676172953,0.44222222222222224,0.26666666666666666,-0.5733333333333334,0.05205151793928243,-4.946175252989881,0.7507911683532659
1590512801.5247312,-0.7973549811932779,-4.008163497705235,8.728277718347769,0.44222222222222224,0.26666666666666666,-0.5733333333333334,0.7320408744263087,-4.793113116394631,3.40729278097933
1590512801.5347311,-0.8820731311102579,-3.818298431638952,8.599811265026434,0.44222222222222224,0.26666666666666666,-0.5733333333333334,0.6627285347195557,-4.081355037363027,5.9033287060282955
1590512801.5447311,-0.4855141756396325,-3.220342783759755,8.621028351279264,0.4433714204177506,0.26666666666666666,-0.5762063288221542,-0.8081534624123283,-1.4138718759261089,11.368387582732392
1590512801.5547311,-0.5599458760254622,-3.269963917350308,8.769981958675153,0.4488888888888889,0.26666666666666666,-0.59,-1.6896424073254588,0.5067654968172379,14.94043171528747
1590512801.5647311,-0.5222611308720716,-3.2654777382558566,8.801273968682285,0.4488888888888889,0.26666666666666666,-0.59,-3.2458208123799013,4.717556676479005,16.320660339752237
1590512801.574731,-0.4878395764720367,-3.341269660500477,8.914788389916588,0.4488888888888889,0.26666666666666666,-0.59,-4.32335752100711,6.333938025177752,15.342704453815138
1590512801.584731,-0.4270104154290919,-3.484020830858184,8.901958338283633,0.4488888888888889,0.26666666666666666,-0.59,-4.412369807136351,7.7184245178408775,13.701041542909191
1590512801.594731,-0.41276719298730746,-3.4736164035063464,8.922767192987306,0.44547339668845076,0.26666666666666666,-0.5885936208586431,-4.624313870530653,7.779282346597351,13.022602521914663
1590512801.604731,-0.339260769875215,-3.430249129150315,8.922591384099828,0.43,0.26666666666666666,-0.5822222222222222,-5.493044225935888,6.298639435160281,13.294746792186604
1590512801.614731,-0.23164956093223166,-3.298042535847938,9.01164956093223,0.43,0.26666666666666666,-0.5822222222222222,-6.281570732520657,3.858229278594983,13.873717069917374
1590512801.624731,-0.23941994886805734,-3.430139130756975,9.019419948868057,0.43,0.26666666666666666,-0.5822222222222222,-6.135875958723925,2.012762143836378,14.456496165104301
1590512801.634731,-0.21970183958793232,-3.4529673289183225,8.796138189845475,0.43,0.26666666666666666,-0.5822222222222222,-1.9319094922737308,-0.46349981604120677,15.144817880794703
1590512801.644731,-0.17032082413539368,-3.3233421633554086,8.777620309050773,0.43,0.26666666666666666,-0.5822222222222222,-1.0060154525386313,-0.8878679175864607,15.839238410596026
1590512801.654731,0.014896058474476365,-2.8432102015954728,8.88639721774669,0.4558660483881531,0.24726713037555184,-0.5897664863354335,-2.261835874562817,0.5743358745628169,18.671189138208828
1590512801.664731,-0.05180511245027374,-2.880658946787979,8.774269171688527,0.4566666666666666,0.2466666666666667,-0.59,-1.051218047185789,-1.4776108747882941,29.177640907479617
1590512801.674731,-0.08588939315601003,-2.9358893931560104,8.890600907680819,0.4566666666666666,0.2466666666666667,-0.59,-0.9854261216751882,-3.9008408973401507,36.05257942207158
1590512801.684731,-0.12604852453993604,-2.976048524539936,8.962887344171886,0.4566666666666666,0.2466666666666667,-0.59,-1.7384098351238007,-4.5032278680990405,42.377642615039925
1590512801.694731,-0.32,-2.8260096897227087,8.920673126481805,0.4566666666666666,0.24891202510623192,-0.5874092018005016,0.27073239872178123,-4.544370425729306,51.84364369652613
1590512801.704731,-0.32223715665707175,-2.7746087232277894,8.818545396887348,0.4566666666666666,0.2611111111111111,-0.5733333333333334,1.0485177708933016,-5.069071083573206,59.84481418012392
1590512801.714731,-0.3462532981530343,-2.8576781002638523,8.779313984168866,0.4566666666666666,0.2611111111111111,-0.5733333333333334,0.37598944591029015,-5.571569920844327,67.14759234828496
1590512801.724731,-0.3918272521328385,-2.8622591218007423,9.246129560900371,0.4566666666666666,0.2611111111111111,-0.5733333333333334,-2.65801380922543,-7.6323715476936425,72.85226177278642
1590512801.734731,-0.3582562069032875,-2.9501072412243863,9.2141986209052,0.4566666666666666,0.2611111111111111,-0.5733333333333334,-5.881665950422909,-6.720196120563358,78.94307327173637
1590512801.744731,-0.3500630945637099,-3.1385488250346727,8.952019026038716,0.4566666666666666,0.2611111111111111,-0.5733333333333334,-3.2701113921825247,-6.873816976930439,83.9613545797277
1590512801.754731,-0.3924139212861856,-3.2386208819292785,8.901724362250825,0.4755555555555556,0.2344444444444445,-0.6044444444444445,-1.3254350401932995,-5.0560440964639195,90.34914734445425
1590512801.764731,-0.42,-3.28,8.95,0.4755555555555556,0.2344444444444445,-0.6044444444444445,-2.1875,-7.125,92.375
1590512801.774731,-0.433428263214671,-3.28,8.896286947141315,0.4755555555555556,0.2344444444444445,-0.6044444444444445,-2.565169902912621,-7.418743257820927,94.64101941747573
1590512801.784731,-0.4509919591893868,-3.1411572857209515,8.710165326531566,0.4755555555555556,0.2344444444444445,-0.6044444444444445,-1.1219001275331664,-7.677167091777221,99.24123112275845
1590512801.794731,-0.4901318879574475,-3.186820535950355,8.716688647992909,0.4755555555555556,0.2344444444444445,-0.6044444444444445,-0.9995878501329767,-7.269459500443255,101.36131059769507
1590512801.804731,-0.51,-3.146630868364529,8.83768553018016,0.4876258663432643,0.17912218666744595,-0.5843272597982632,-2.57830787270416,-8.307250799982466,105.32305867268663
1590512801.814731,-0.5731516006702531,-3.28033689037834,8.821932621924333,0.4888888888888889,0.17333333333333334,-0.5822222222222222,-2.618434165270306,-8.963763338918776,107.55463224270218
1590512801.8247309,-0.6087039677295962,-3.374815870918385,8.81,0.4888888888888889,0.17333333333333334,-0.5822222222222222,-2.72569939492993,-8.643502016900232,110.49659213408908
1590512801.8347309,-0.6977172189299724,-3.4836658041899673,8.953537267339955,0.4888888888888889,0.17333333333333334,-0.5822222222222222,-2.600482013187547,-9.559286578749687,112.25784053918704
1590512801.8447309,-0.781971842094885,-3.5095070394762784,8.980985921047443,0.4894913961956593,0.17240218567741541,-0.5846870248408285,-2.5532569901802264,-9.509243009819773,113.875
1590512801.8547308,-0.8150538312891903,-3.5012365421777023,8.997526915644595,0.4995997817828081,0.15678013522454898,-0.6260395113337102,-2.39818516583192,-9.66431483416808,113.875
1590512801.8647308,-0.851335087079245,-3.386564642178229,8.93538259183164,0.5011111111111111,0.15444444444444444,-0.6322222222222222,-2.4682717602104494,-9.261213732982585,112.86952514449202
1590512801.8747308,-0.9560335259893623,-3.418779546458265,8.814576700781506,0.5011111111111111,0.15444444444444444,-0.6322222222222222,-2.6192791240231186,-9.009534793294803,111.30911571842778
1590512801.8847308,-0.9156439342082103,-3.249662240128298,8.893251256576246,0.5011111111111111,0.15444444444444444,-0.6322222222222222,-2.4428661184017524,-8.730251706401205,108.55348394320471
1590512801.8947308,-0.8172073693062918,-3.11021043985058,8.778408597524006,0.5011111111111111,0.15444444444444444,-0.6322222222222222,-1.622561410885764,-8.166292219983962,106.34891504175549
1590512801.9047308,-1.0403942128702373,-3.297323688117062,8.973464737623413,0.52,0.10111111111111112,-0.6322222222222222,-3.375,-8.375,99.0
1590512801.9147308,-1.0911980986998464,-3.3728114078009224,8.95525513770446,0.52,0.10111111111111112,-0.6322222222222222,-3.2551901300153783,-8.270166363763456,98.61810603942402
1590512801.9247308,-1.0985277156437858,-3.328833706137285,8.74269624633021,0.52,0.10111111111111112,-0.6322222222222222,-2.5222284356214177,-7.6288248811687405,96.28179063854327
1590512801.9347308,-1.1352582045642796,-3.3340897146611064,8.72226914398332,0.52,0.10111111111111112,-0.6322222222222222,-1.6875,-6.900560716631916,90.18512039073434
1590512801.9447308,-1.1891679757790408,-3.3760195367170316,8.848058610151096,0.52,0.10111111111111112,-0.6322222222222222,-1.6875,-7.162622104481449,88.23837865242352
1590512801.9547307,-1.246794508282346,-3.379904118788241,8.940095881211759,0.5252100432771228,0.07580518662222886,-0.646363768260127,-1.854965676764662,-7.103167904044173,85.24101113639755
1590512801.9647307,-1.3253650761828388,-3.374634923817161,8.940036287089013,0.5277777777777778,0.06333333333333334,-0.6533333333333333,-2.1058390136327185,-6.601048767040898,79.82823150561347
1590512801.9747307,-1.3842265437048917,-3.3157734562951084,8.830722133119487,0.5277777777777778,0.06333333333333334,-0.6533333333333333,-1.8956194867682439,-6.338274358460305,75.88661537690457
1590512801.9847307,-1.4503911238825031,-3.2409815727057105,8.906273034117861,0.5277777777777778,0.06333333333333334,-0.6533333333333333,-1.5514761220580187,-5.665452244116037,71.18634829410692
1590512801.9947307,-1.4774676650782845,-3.23,8.911266167460857,0.5277777777777778,0.06333333333333334,-0.6533333333333333,-1.2816541865214433,-5.071221919673247,65.58721919673248
1590512802.0047307,-1.5288246909829686,-3.23,8.958824690982969,0.5324277483475843,0.03155853443965545,-0.6587582989981076,-1.2064065259080639,-4.607658733172575,60.559246064898325
1590512802.0147307,-1.552618546909979,-3.14,8.85738145309002,0.5344444444444445,0.017777777777777778,-0.6611111111111111,-0.9407731836374738,-3.9819974899938946,52.66684332813242
1590512802.0247307,-1.6237517807475748,-3.14,8.786248219252425,0.5344444444444445,0.017777777777777778,-0.6611111111111111,-1.0296897259344684,-3.4929565073604234,48.71005719591615
1590512802.0347307,-1.6865602983837547,-3.1217198508081228,8.805700372979693,0.5344444444444445,0.017777777777777778,-0.6611111111111111,-0.9482490675507667,-3.255374533775383,42.679962702030664
1590512802.0447307,-1.6987603250732746,-3.1375206501465494,8.862561950439648,0.5344444444444445,0.017777777777777778,-0.6611111111111111,-0.7184918731681322,-2.8119837463362645,38.691117938982146
1590512802.0547307,-1.808976227504999,-3.1294881137524992,8.92923217062875,0.5633333333333334,0.004444444444444445,-0.6888888888888889,-0.6297989335703177,-2.8029021328593644,35.113916351921795
1590512802.0647306,-1.771701844034659,-3.1108509220173293,8.901276383025994,0.5633333333333334,0.004444444444444445,-0.6888888888888889,-0.8045226060875361,-2.4534547878249278,32.43482003999111
1590512802.0747306,-1.8,-3.14295253157197,8.829448101030305,0.5633333333333334,0.004444444444444445,-0.6888888888888889,-0.6911906644649627,-2.415356013210224,29.16463212549713
1590512802.0847306,-1.8004243099605692,-3.1891513800788616,8.979151380078862,0.5633333333333334,0.004444444444444445,-0.6888888888888889,-0.7420441882393279,-2.0439364392250985,25.724986070632607
1590512802.0947306,-1.8124087090690897,-3.1651825818618207,8.95518258186182,0.5633333333333334,0.004444444444444445,-0.6888888888888889,-0.5173367049545688,-1.5196189782273273,23.253203754500255
1590512802.1047306,-1.82,-3.143741604591525,8.921224813774575,0.5501211652487755,-0.0059862145696801955,-0.6979287933677969,-0.41411497130296737,-1.1092700573940653,18.440957381853707
1590512802.1147306,-1.8618763714652424,-3.1148399784705836,8.981087235540098,0.5422222222222223,-0.012222222222222223,-0.7033333333333334,-0.8486135262700286,-1.0155907133689397,10.76838539725914
1590512802.1247306,-1.8966074607709187,-3.0193294828799733,8.816114561338138,0.5422222222222223,-0.012222222222222223,-0.7033333333333334,-0.3602075829089554,-0.14731348072703188,6.481266561089719
1590512802.1347306,-1.932921731944414,-3.0346912989583106,8.791769567013896,0.5422222222222223,-0.012222222222222223,-0.7033333333333334,-0.3125,0.40046185546832525,2.2559247439271037
1590512802.1447306,-1.9146739917592708,-3.0568840054938193,8.899746035709827,0.5422222222222223,-0.012222222222222223,-0.7033333333333334,-0.04868741415907102,0.23618741415907102,-1.6754885129229615
1590512802.1547306,-1.8636930260134885,-3.0269235900096345,8.847231898021196,0.5326668148916722,0.0017433731070431568,-0.7268543359931487,0.7028737122952642,0.7663371748313941,-3.4903653746387016
1590512802.1647305,-1.8581382876843517,-3.046276575368703,8.782792568473472,0.5277777777777778,0.008888888888888889,-0.7388888888888889,0.6090428078912086,1.4592750430951924,-5.71210017238077
1590512802.1747305,-1.8796843241448025,-3.0631228827632015,8.819368648289604,0.5277777777777778,0.008888888888888889,-0.7388888888888889,-0.2986891813351047,0.9668828877449352,-7.310315302225174
1590512802.1847305,-1.8816822686146253,-3.1032709255414983,8.856635462770749,0.5277777777777778,0.008888888888888889,-0.7388888888888889,-0.75,0.9994149269515491,-9.726046277074929
1590512802.1947305,-1.852572261178399,-3.0962861305891995,8.9079985429378,0.5277777777777778,0.008888888888888889,-0.7388888888888889,-0.49286494854749113,1.0196441580912485,-11.605310308715053
1590512802.2047305,-1.8202793801844288,-3.109720619815571,8.961396900922145,0.4811111111111111,0.008888888888888889,-0.7944444444444444,-0.3715077476946398,1.3229767569160806,-15.474529190702766
1590512802.2147305,-1.8291098572571478,-3.1008901427428524,9.005549286285738,0.4811111111111111,0.008888888888888889,-0.7944444444444444,-0.2611267842856541,1.6541196471430375,-18.620386647858858
1590512802.2247305,-1.7698327814569537,-3.1102341059602647,8.790334437086091,0.4811111111111111,0.008888888888888889,-0.7944444444444444,0.1866639072847682,2.1906353476821194,-23.26713990066225
1590512802.2347305,-1.7351117549668873,-3.1588435430463577,8.859776490066226,0.4811111111111111,0.008888888888888889,-0.7944444444444444,0.013058774834437098,2.841654594370861,-26.82604511589404
1590512802.2447305,-1.7128486897717667,-3.1943026204564666,8.8685460693153,0.4811111111111111,0.008888888888888889,-0.7944444444444444,0.20567413355874897,3.482565511411665,-32.44230769230769
1590512802.2547305,-1.6618000652412444,-3.190360013048249,8.879279973903502,0.4436222729654123,-0.011462194675919064,-0.7665955932504968,0.13175024465466623,4.046749429139112,-39.786242252602236
1590512802.2647305,-1.6880773473045636,-3.2461546946091273,8.842563536927248,0.44222222222222224,-0.012222222222222223,-0.7655555555555555,0.008011052897651541,4.5889502619605675,-45.20600814605451
1590512802.2747304,-1.666664415130324,-3.265557056579784,8.769993245390973,0.44222222222222224,-0.012222222222222223,-0.7655555555555555,0.04861580181182454,5.0139264144945965,-49.50037994675779
1590512802.2847304,-1.6688287124734515,-3.2964861374203545,8.80297227484071,0.44222222222222224,-0.012222222222222223,-0.7655555555555555,0.007320547040927619,5.345717811836289,-54.70827951897136
1590512802.2947304,-1.6544327035750261,-3.3155672964249736,8.833350944637461,0.44222222222222224,-0.012222222222222223,-0.7655555555555555,-0.4378302119523878,5.375,-58.80128949694715
1590512802.3047304,-1.6095441310113319,-3.29110295072238,8.845779409855524,0.4229575227038088,-0.0327712350418632,-0.7411536028322319,-0.6347426231940503,5.700091804373226,-62.26874918859771
1590512802.3147304,-1.572170577433177,-3.3091471128341152,8.87348826770047,0.4088888888888889,-0.04777777777777778,-0.7233333333333334,-0.6875,6.328971128341155,-67.34107069985717
1590512802.3247304,-1.558276943759803,-3.349307640600493,8.827246246919113,0.4088888888888889,-0.04777777777777778,-0.7233333333333334,-0.7607691015012323,6.987018261259243,-70.66788034954067
1590512802.3347304,-1.5561711106848264,-3.394684442739306,8.820855553424131,0.4088888888888889,-0.04777777777777778,-0.7233333333333334,-0.5810833493190102,7.567847208900825,-74.99772204105122
1590512802.3447304,-1.5292702858607872,-3.445851333162415,8.880972952185617,0.4088888888888889,-0.04777777777777778,-0.7233333333333334,-0.3734797622099731,8.135641664530189,-78.96173867933598
1590512802.3547304,-1.4777170542635658,-3.4844565891472867,8.924456589147287,0.44751266149870805,-0.044311541774332476,-0.730265805340224,0.300281007751938,8.45108527131783,-83.22081879844961
1590512802.3647304,-1.45,-3.4958058350311916,8.900970824844043,0.4955555555555556,-0.04,-0.7388888888888889,1.2076458757797894,8.893083503119158,-88.14490695036653
1590512802.3747303,-1.363620283018868,-3.5431898584905657,8.733154481132077,0.4955555555555556,-0.04,-0.7388888888888889,1.6904112617924527,9.042563384433961,-93.49215064858491
1590512802.3847303,-1.3248217703544962,-3.55,8.722589114822753,0.4955555555555556,-0.04,-0.7388888888888889,1.7893409838210996,9.0393409838211,-96.61966394837148
1590512802.3947303,-1.2911010971786834,-3.5688989028213167,8.799295977011495,0.4955555555555556,-0.04,-0.7388888888888889,1.7337545715778475,8.944381857366771,-100.32987199582027
1590512802.4047303,-1.247222400685298,-3.6258886390405825,8.85966655958882,0.4839012980214394,-0.06695047054764369,-0.7286914135465372,1.9333319948602634,8.956943998286754,-103.83748795374237
1590512802.4147303,-1.2208164642375168,-3.6775506072874493,8.925101214574898,0.4777777777777778,-0.0811111111111111,-0.7233333333333334,2.1198970985155197,9.229588394062079,-107.58286943319838
1590512802.4247303,-1.1648546390318542,-3.6432364260212364,8.691036769138035,0.4777777777777778,-0.0811111111111111,-0.7233333333333334,2.699430843418185,9.881873927760005,-110.05278028933093
1590512802.4347303,-1.1218918784995788,-3.6876351518755266,8.822432486001684,0.4777777777777778,-0.0811111111111111,-0.7233333333333334,1.9759287820226947,9.461148481244734,-112.75084547346515
1590512802.4447303,-1.0967613482450371,-3.7829546070198523,8.853238651754962,0.4777777777777778,-0.0811111111111111,-0.7233333333333334,2.2763970047598776,9.873224720405558,-114.23058801903952
1590512802.4547303,-1.0618421786411376,-3.8287718809059084,8.86,0.471520484142475,-0.049824642934597395,-0.6492886919822509,2.316337872169037,10.0,-116.44352596275986
1590512802.4647303,-1.0035988789418502,-3.8058280909750786,9.14200560529075,0.4711111111111111,-0.04777777777777778,-0.6444444444444445,2.5642907190095974,9.446060418178885,-117.67037916364222
1590512802.4747303,-0.7242201639194419,-3.2684403278388836,8.776877304165016,0.4711111111111111,-0.04777777777777778,-0.6444444444444445,7.300756375491301,8.943361338777002,-118.06054622040766
1590512802.4847302,-0.529214616287905,-2.9738219244318573,9.075256613939352,0.4711111111111111,-0.04777777777777778,-0.6444444444444445,-0.13717448366374185,12.99168940388202,-117.64515697312979
1590512802.4947302,-0.6841259343325636,-3.491455406410206,9.13689312409502,0.4711111111111111,-0.04777777777777778,-0.6444444444444445,0.672328102375455,8.98665763315462,-117.72269400853129
1590512802.5047302,-0.7501358571210502,-3.700407571363151,8.780842619447412,0.47409420105497047,0.028291015790634172,-0.6302747672111128,2.8877366050984583,10.539230651808884,-116.44955922759884
1590512802.5147302,-0.7065692124105012,-3.7366788484486877,8.867153937947494,0.4755555555555556,0.06555555555555556,-0.6233333333333333,2.518473113066826,9.913088268198091,-115.6872715915871
1590512802.5247302,-0.6478424975390241,-3.764118126845732,8.726661229081705,0.4755555555555556,0.06555555555555556,-0.6233333333333333,3.0306602446913233,9.389714878357474,-114.77081634088033
1590512802.5347302,-0.64,-3.7513846699787083,8.703435770049682,0.4755555555555556,0.06555555555555556,-0.6233333333333333,2.885898687012065,9.461218062455643,-113.98077093683463
1590512802.5447302,-0.5866467668148341,-3.7600074624444373,8.803360695629603,0.4755555555555556,0.06555555555555556,-0.6233333333333333,2.583317786574089,9.270771146296356,-112.74967351805587
1590512802.5547302,-0.5253222157349292,-3.7526611078674645,8.845779630710846,0.4832617298366824,0.11500350719278613,-0.6111318907215492,2.6347453838855643,9.1875,-111.15657385783098
1590512802.5647302,-0.5,-3.8295645486174696,8.801772935359823,0.4888888888888889,0.1511111111111111,-0.6022222222222222,2.644440120856986,9.1875,-108.89152398828054
1590512802.5747302,-0.48471520939477714,-3.8317880234869426,8.848781557723502,0.4888888888888889,0.1511111111111111,-0.6022222222222222,2.2906452055107493,8.757615264228107,-106.14834129178186
1590512802.5847301,-0.4307478260869565,-3.811791304347826,8.804330434782608,0.4888888888888889,0.1511111111111111,-0.6022222222222222,2.9057608695652175,8.77891304347826,-102.42173913043479
1590512802.5947301,-0.43840602293618136,-3.8652180688085442,8.80840602293618,0.4888888888888889,0.1511111111111111,-0.6022222222222222,2.6406953077125097,8.467387069946598,-99.52593889521141
1590512802.6047301,-0.39238909828935925,-3.89279863728617,8.84880545085532,0.465684497922103,0.189518378918205,-0.5918202538578009,2.465017033922876,8.024957415192809,-94.74936122789214
1590512802.6147301,-0.320026529072456,-3.865013264536228,8.801697617251198,0.4566666666666666,0.20444444444444448,-0.5877777777777777,2.2397215055857083,7.677221505585709,-89.37715548713705
1590512802.62473,-0.27883014173368287,-3.9067547873994757,8.696490425201048,0.4566666666666666,0.20444444444444448,-0.5877777777777777,2.528420324787844,7.137970964588795,-84.81237642733372
1590512802.63473,-0.25696372930370853,-3.9525906767407286,8.741699488829603,0.4566666666666666,0.20444444444444448,-0.5877777777777777,2.9101684214813757,6.714831578518624,-80.28724059629758
1590512802.64473,-0.2462873750429598,-3.9737126249570403,8.831976749398562,0.4566666666666666,0.20444444444444448,-0.5877777777777777,2.85366484616649,6.400072658129492,-76.53477970951691
1590512802.65473,-0.2400200230115207,-3.979979976988479,8.91971967783871,0.4566666666666666,0.20444444444444448,-0.5877777777777777,2.5011262943980395,6.125876006754031,-73.32276179340437
1590512802.66473,-0.15,-3.808661984960537,8.895352060157853,0.4511111111111111,0.2766666666666667,-0.6233333333333333,2.9181335839910507,5.534770989994406,-66.73547324591387
1590512802.67473,-0.14699240986717269,-3.845037950664137,8.819022770398483,0.4511111111111111,0.2766666666666667,-0.6233333333333333,2.487310246679317,5.237310246679317,-61.94028700189753
1590512802.68473,-0.14,-3.8893102257024412,8.798103984339015,0.4511111111111111,0.2766666666666667,-0.6233333333333333,2.2543110893597422,5.004311089359742,-56.45153802970981
1590512802.69473,-0.13186188180269653,-3.9203452954932585,8.782552472789213,0.4511111111111111,0.2766666666666667,-0.6233333333333333,1.9586154257008401,4.70861542570084,-51.95599178624015
1590512802.70473,-0.10294446990376377,-3.9158889398075276,8.812944469903764,0.4406882871634112,0.29656478511227563,-0.6143318035603197,1.6516492657753692,4.268402936898523,-47.17135726952121
1590512802.71473,-0.07446706486077227,-3.9031976108353663,8.850862286531505,0.4266666666666667,0.3233333333333333,-0.6022222222222222,1.4108532430386136,3.882934087658787,-41.64311327500631
1590512802.72473,-0.053369495964887444,-3.9133694959648873,8.8113039784794,0.4266666666666667,0.3233333333333333,-0.6022222222222222,1.395381300438907,3.410324932748124,-36.87363062792015
1590512802.73473,-0.03384406331484814,-3.9307796834257593,8.813871240221822,0.4266666666666667,0.3233333333333333,-0.6022222222222222,1.254703165742407,2.9181777700246063,-31.888430074552865
1590512802.74473,-0.011738575489760001,-3.9256514339863466,8.835651433986346,0.4266666666666667,0.3233333333333333,-0.6022222222222222,1.3288124407743334,2.5597768280183333,-27.475464861049332
1590512802.75473,0.0,-3.932725052337753,8.774549895324494,0.42919167248197254,0.34353337985578036,-0.6131639140885478,1.1685929867411025,2.3428122819260295,-22.924524598743893
1590512802.76473,0.0,-3.951471798318226,8.754264100840887,0.43,0.35,-0.6166666666666667,0.8474037815332667,1.9898556722999001,-19.849037815332668
1590512802.77473,0.030002636932117837,-4.026005801250659,8.75,0.43,0.35,-0.6166666666666667,1.062532961651473,1.5249802230091163,-15.999802230091163
1590512802.78473,0.012023567064300265,-4.0320235670643,8.77278585976142,0.43,0.35,-0.6166666666666667,0.7903240471341285,1.090176752982252,-11.177062118126273
1590512802.79473,0.028910213588026073,-4.077820427176052,8.808910213588026,0.43,0.35,-0.6166666666666667,0.5888622330149674,0.8554489320598696,-7.559218544062686
1590512802.80473,0.03864288333808728,-4.108642883338088,8.814857177784116,0.4405158487610303,0.3537857055539709,-0.6221349080224025,0.5388393402876819,0.5370540625891366,-4.078575139562365
1590512802.81473,0.02,-4.083858128237472,8.811496551168844,0.4577777777777778,0.36,-0.6311111111111111,0.3464532059368206,0.16830665074210258,-0.1707389489787703
1590512802.82473,0.014162322618013323,-4.08751303214596,8.784110194034174,0.4577777777777778,0.36,-0.6311111111111111,-0.07297096727483347,0.015543549087749783,4.840143534607588
1590512802.83473,0.02434776461717302,-4.085652235382827,8.792173646674417,0.4577777777777778,0.36,-0.6311111111111111,-0.005435294856891523,-0.27173823400043984,7.929341166860411
1590512802.84473,0.04,-4.037196146751383,8.842106989137118,0.4577777777777778,0.36,-0.6311111111111111,0.10636144701783153,-0.5559156589465054,10.501011990161919
1590512802.85473,0.013956856421334471,-3.9665107858946667,8.813021571789333,0.5445882563733295,0.3571063173801483,-0.621706642596593,-0.05957723552499468,-0.6468075881583351,14.352966121033255
1590512802.86473,0.0,-3.988687529382908,8.888520941070661,0.5911111111111111,0.3555555555555556,-0.6166666666666667,-0.4753911759295219,-0.8196617644052899,16.519402939312798
1590512802.8747299,0.0,-3.965361934247383,8.80876676986584,0.5911111111111111,0.3555555555555556,-0.6166666666666667,-0.25452417809228955,-1.3343945034154012,18.62109010270775
1590512802.8847299,-0.025958083046979514,-3.946489520761745,8.778405686855704,0.5911111111111111,0.3555555555555556,-0.6166666666666667,-0.2619760380872439,-1.381642971434567,21.125701676153504
1590512802.8947299,-0.04,-3.9167552623920847,8.81,0.5911111111111111,0.3555555555555556,-0.6166666666666667,-0.4375,-1.4577796100494713,22.976398050247358
1590512802.9047298,-0.027742540329098377,-3.8532276209872953,8.822257459670903,0.8049356853701728,0.35215070564697176,-0.5771704077270947,-0.3991954385284324,-1.7399136844147027,25.229768774448
1590512802.9147298,-0.05797744265619059,-3.861647868880159,8.836329573776032,0.94,0.35,-0.5522222222222222,-0.45411967220039706,-1.8520598361001985,27.944752460609134
1590512802.9247298,-0.07402761907077388,-3.8501380953538695,8.798193333495417,0.94,0.35,-0.5522222222222222,-0.7612916656536433,-2.2482738080766334,30.829041659575502
1590512802.9347298,-0.0960785119720481,-3.86259813996506,8.796078511972048,0.94,0.35,-0.5522222222222222,-0.6930139502620491,-2.459252325043675,34.54810817233584
1590512802.9447298,-0.09352358663907318,-3.8250786221302437,8.820984275573952,0.94,0.35,-0.5522222222222222,-0.7341293058429879,-2.6434551670115853,37.900225808947255
1590512802.9547298,-0.0745464122673534,-3.7309177104061804,8.868175114128526,1.1860174021616139,0.36939053416052126,-0.6000926034310091,-1.0454246166452066,-2.9829246166452066,41.57351047641344
1590512802.9647298,-0.08895692749461595,-3.696318975831539,8.84944819334769,1.3911111111111112,0.3855555555555555,-0.64,-0.9505384063173008,-3.3619615936826994,45.50113513998564
1590512802.9747298,-0.09480986438425763,-3.725950678078712,8.804429593152772,1.3911111111111112,0.3855555555555555,-0.64,-1.2017601711806778,-3.4675616524016104,48.36954068472271
1590512802.9847298,-0.09,-3.7438350706179517,8.756092888398733,1.3911111111111112,0.3855555555555555,-0.64,-1.3505805524920844,-3.57235783023231,50.563850768437156
1590512802.9947298,-0.09779905877202583,-3.763424537594396,8.70228302506293,1.3911111111111112,0.3855555555555555,-0.64,-0.9237441173251615,-3.854109664003502,52.410159242639814
1590512803.0047297,-0.0643068970208135,-3.7189974153176437,8.933827370425792,0.9917253132604786,0.343025287564806,-0.6493034961229764,-1.2751198816487552,-3.9865409468099577,54.509862603727385
1590512803.0147297,-0.006018019097846499,-3.4197297135323024,8.699189140596907,0.7233333333333334,0.3144444444444445,-0.6555555555555556,-0.15923403851532236,-4.488400954892325,55.32578833553078
1590512803.0247297,0.002853680614360381,-3.507817327065144,8.699951528601046,0.7233333333333334,0.3144444444444445,-0.6555555555555556,0.16082248080123807,-4.647332248080124,55.90167751919876
1590512803.0347297,0.00380815407703852,-3.5714244622311155,8.905261380690346,0.7233333333333334,0.3144444444444445,-0.6555555555555556,-1.3008691845922962,-4.1219125187593795,55.738009629814904
1590512803.0447297,0.004977083508535867,-3.525160415440249,8.835618745269532,0.7233333333333334,0.3144444444444445,-0.6555555555555556,-1.1292968421495249,-3.936927087713397,54.72233070179127
1590512803.0547297,0.01,-3.49,8.743688286544046,0.6116854899429923,0.30776984511132627,-0.6634437184037862,-0.7677350556631171,-4.028368526137464,52.4357151500484
1590512803.0647297,0.014445746348708639,-3.516674478092252,8.833348956184503,0.5188888888888888,0.3022222222222222,-0.67,-0.888783109167423,-3.749926767885139,49.77041835134912
1590512803.0747297,0.032881013445247534,-3.5338987331934404,8.877458226470818,0.5188888888888888,0.3022222222222222,-0.67,-0.5582595010491956,-3.4173734164918006,46.691772071967044
1590512803.0847297,0.08985011576424712,-3.4900499614119176,8.849900077176164,0.5188888888888888,0.3022222222222222,-0.67,-0.40827968235915346,-3.0329674235346684,41.60545970591819
1590512803.0947297,0.10341672692214991,-3.5007290913473126,8.907312364425163,0.5188888888888888,0.3022222222222222,-0.67,-0.44049319113039287,-2.506120450711015,36.995711315979754
1590512803.1047297,0.08,-3.503267138252536,8.898896316005798,0.5193132200277375,0.29670591741719005,-0.6772136293604267,-0.6328647219157635,-2.059050987518117,31.61658635645835
1590512803.1147296,0.08427170197130898,-3.468543403942618,8.855532125627017,0.52,0.2877777777777778,-0.6888888888888889,-0.07099068660340585,-1.589811176075913,25.55287509185597
1590512803.1247296,0.06408747572117113,-3.458406229767643,8.830668656931156,0.52,0.2877777777777778,-0.6888888888888889,-0.19601557441910655,-1.2130467232573197,19.515270933745775
1590512803.1347296,0.03,-3.446071719641402,8.78839445802771,0.52,0.2877777777777778,-0.6888888888888889,-0.0998879380603097,-0.7739914425427873,13.463681744091279
1590512803.1447296,0.01979908868936612,-3.4444977217234154,8.884296810412781,0.52,0.2877777777777778,-0.6888888888888889,0.12876708707438525,-0.21435506507988386,6.563470911118374
1590512803.1547296,0.004704652210282478,-3.4252953477897177,8.887067434528023,0.5035255846542122,0.27071499045535463,-0.6977144685384181,0.577267389485876,0.3640551605430796,0.18671578405507994
1590512803.1647296,0.005340318229797881,-3.419319363540404,8.936020954689393,0.4888888888888889,0.25555555555555554,-0.7055555555555556,0.678992044255053,0.9878929004261308,-6.150198893623676
1590512803.1747296,0.030106055137566284,-3.3798409172936505,8.88465532080291,0.4888888888888889,0.25555555555555554,-0.7055555555555556,0.7509942669146839,1.5327414003720259,-12.172655404092286
1590512803.1847296,0.045079049764489044,-3.4139723530616424,8.795395248822445,0.4888888888888889,0.25555555555555554,-0.7055555555555556,1.1220356338316608,2.0585475117755476,-18.26408201925046
1590512803.1947296,0.055140880317974386,-3.495140880317974,8.777570440158987,0.4888888888888889,0.25555555555555554,-0.7055555555555556,1.21786949801266,2.3913587516561168,-22.936403282791108
1590512803.2047296,0.09218754600323864,-3.5321875460032386,8.796093773001619,0.4888888888888889,0.25555555555555554,-0.7055555555555556,0.9863278374797586,2.5843101354335345,-26.756840681583984
1590512803.2147295,0.1130208837284309,-3.6120835349137237,8.876041767456861,0.4666666666666667,0.24,-0.6611111111111111,1.3030597383486535,3.503581831559426,-35.17286904329947
1590512803.2247295,0.12993065634575068,-3.679722625383003,8.909861312691502,0.4666666666666667,0.24,-0.6611111111111111,1.2502166989195291,3.8734831075632963,-41.03844641993227
1590512803.2347295,-5.9979655516724915,-12.582061907139291,1.8894608087868194,0.4666666666666667,0.24,-0.6611111111111111,-57.76791063404893,51.579334123814284,-314.90263042935595
1590512803.2447295,-7.078896727093758,-10.123219588220818,-3.8488425887950126,0.4666666666666667,0.24,-0.6611111111111111,-156.41022578131407,114.38171602001476,-751.3395640226397
1590512803.2547295,-0.4489086717296962,-0.4466347644141352,-2.9448215669559827,0.45157487772955845,0.2686743989805056,-0.6660159425156713,-189.22679256432113,81.4260004165375,-677.842800681959
1590512803.2647295,-0.02275270077882925,-0.09986600787203752,0.2622778661753622,0.4222222222222222,0.3244444444444444,-0.6755555555555556,-166.66725462691568,-11.737291684113558,-158.16978268151746
1590512803.2747295,-0.07459638996567564,-0.11114909749141891,-0.09327635376287163,0.4222222222222222,0.3244444444444444,-0.6755555555555556,-158.5427944466265,-1.5675451254290544,-109.28359432367355
1590512803.2847295,1.7515875665792193,-1.2347456077589634,6.055327927498211,0.4222222222222222,0.3244444444444444,-0.6755555555555556,-158.72530109706653,-2.7025374632323715,-100.51990668972097
1590512803.2947295,2.570119208553521,-2.0520455941993365,10.791898734177217,0.4222222222222222,0.3244444444444444,-0.6755555555555556,-98.22377719061079,31.398837870222444,-95.01175571463685
1590512803.3047295,-0.44806997084548106,-0.594199416909621,3.2745469387755097,0.41032225461613214,0.34697842565597664,-0.6634023971493359,0.6159839650145766,75.70010204081633,-94.48181486880466
1590512803.3147295,1.1126814611775868,-1.8915752991407937,9.58234067787676,0.31777777777777777,0.5222222222222223,-0.5688888888888889,126.72484647620053,14.743086487270045,-92.41052461651995
1590512803.3247294,0.629701624380429,-1.6095259361044314,6.6617205673062765,0.31777777777777777,0.5222222222222223,-0.5688888888888889,206.1271623644305,16.850965549393923,-83.77556804240075
1590512803.3347294,4.982421953200249,1.083415739674026,9.799449281383973,0.31777777777777777,0.5222222222222223,-0.5688888888888889,276.0739803867873,15.178452378704035,-72.50869822848401
1590512803.3447294,7.258693226652964,3.285030554383132,9.783421173361717,0.31777777777777777,0.5222222222222223,-0.5688888888888889,303.0143000018351,2.55351834180537,-59.115848595232414
1590512803.3547294,-0.6912289445460854,0.09716263958109898,-3.0351627657561036,0.31717403038013725,0.5228259696198628,-0.569629851604175,261.8840451706517,-31.626543672323514,-41.74740355498076
1590512803.3647294,0.18755675938888555,0.41355042911924034,-0.0028340130257471646,0.2933333333333333,0.5466666666666666,-0.5988888888888889,18.213783553472517,-29.779319343843206,2.315745024042851
1590512803.3747294,0.3546396413878755,-0.4838521695257315,3.4473890010090815,0.2933333333333333,0.5466666666666666,-0.5988888888888889,-22.136333976946364,-6.3180996759295205,23.964526895909337
1590512803.3847294,0.23253942579862516,-1.4547122253673002,6.629006604663701,0.2933333333333333,0.5466666666666666,-0.5988888888888889,-37.47989115783798,53.24023621781911,39.658048591454374
1590512803.3947294,1.2120910720264706,-2.2617420676343727,8.955204143934768,0.2933333333333333,0.5466666666666666,-0.5988888888888889,-11.256675546057945,42.995536505623065,39.635079175939964
1590512803.4047294,1.7860330805708917,-3.609082037066734,13.543770589448123,0.28978065921870183,0.5228637500986358,-0.6141653875818042,-3.1569165082128703,-34.67944892442327,34.92273086527227
1590512803.4147294,0.5787805251239366,-1.8087548197564112,7.066585776363302,0.2822222222222222,0.4722222222222222,-0.6466666666666666,-0.2597102790868471,-17.898437021849563,47.598680687312566
1590512803.4247293,0.6420376945283207,-2.5502750771476923,8.351360122109035,0.2822222222222222,0.4722222222222222,-0.6466666666666666,1.1463110130404486,12.946170819922354,62.42648364137107
1590512803.4347293,0.9314776102981626,-3.7087105292111344,12.345274507646605,0.2822222222222222,0.4722222222222222,-0.6466666666666666,-9.114286500165035,8.329140994608867,68.966683628562
1590512803.4447293,0.6215708005696242,-2.4748981487214414,7.744960064392298,0.2822222222222222,0.4722222222222222,-0.6466666666666666,-0.6657366416940125,-21.88338183394217,74.04820134976163
1590512803.4547293,0.5791714903632085,-3.0639049678773613,8.92041727625469,0.3006707941960152,0.47302433404716976,-0.6414529398045078,2.6530615895935377,2.986749411615037,86.32289413841359
1590512803.4647293,0.586731098605334,-3.1176168338634698,9.993929532664547,0.3333333333333333,0.4744444444444445,-0.6322222222222222,-8.014695987276731,-3.8269054318571065,93.57981098605335
1590512803.4747293,0.61,-3.22,10.45,0.3333333333333333,0.4744444444444445,-0.6322222222222222,-10.3125,-19.5625,93.8125
1590512803.4847293,0.06207602220691327,-5.014847023544191,6.591482351987681,0.3333333333333333,0.4744444444444445,-0.6322222222222222,-0.08625187421485592,-5.244438140778863,102.52173076143778
1590512803.4947293,-1.2621662907296156,-16.69191772561806,6.898315429796548,0.3333333333333333,0.4744444444444445,-0.6322222222222222,-4.09548568461487,-11.638692855707172,105.89636420483731
1590512803.5047293,-0.03507805346494863,-13.919260334546754,6.598568684815865,0.3333333333333333,0.4744444444444445,-0.6322222222222222,-11.354977164615763,-11.989958572481408,125.68433291645265
1590512803.5147293,7.879567037679975,-9.50192280200143,8.582186255488615,0.36,0.4444444444444444,-0.6466666666666666,-1.3237452772388423,-21.090715306851834,281.5853160420709
1590512803.5247293,9.43560528970569,-12.814858107811748,6.210757927979296,0.36,0.4444444444444444,-0.6466666666666666,12.875198747752094,-22.479152046142374,282.5400798828896
1590512803.5347292,0.11124618665802766,-2.0277344024189414,9.869907399908211,0.36,0.4444444444444444,-0.6466666666666666,-12.067455657244675,-27.754376906670988,138.36297109959236
1590512803.5447292,-1.3911240528776398,0.8838840077381913,9.689407141705626,0.36,0.4444444444444444,-0.6466666666666666,-5.823696699177816,-2.561792177172336,-39.91717213445107
1590512803.5547292,-1.9011100170670867,0.6394801102796377,11.512220034134174,0.3761444429857191,0.42668555716015344,-0.6447293335083804,16.562487692004726,31.32745011159249,-67.76975022974925
1590512803.5647292,-1.1638433894458105,-2.4540646869680347,10.319846794023075,0.4155555555555556,0.38333333333333336,-0.64,4.63993048988084,16.099323813126535,-58.61707962927937
1590512803.5747292,-0.4741566772124343,-2.6225829390764233,9.20864511073056,0.4155555555555556,0.38333333333333336,-0.64,-8.73451876469393,-7.6653148854961835,-47.89987718776304
1590512803.5847292,-0.376764868081154,-2.4156253446724523,8.186031114852117,0.4155555555555556,0.38333333333333336,-0.64,-3.788840957246104,2.3401717557251906,-39.720486967753175
1590512803.5947292,-0.5094819742699213,-2.9485114709191413,8.79248300151641,0.4155555555555556,0.38333333333333336,-0.64,1.4336478256615957,1.0531966932446315,-24.308033312136182
1590512803.6047292,1.5517754609578023,-4.4883130181908175,9.926351008538546,0.4117326307250203,0.38333333333333336,-0.64,-7.4028952945180055,-1.1502173307758943,17.535157700160873
1590512803.6147292,4.574113434215087,-6.886940048515651,7.342848561857457,0.4011111111111111,0.38333333333333336,-0.64,3.8263760540602973,-8.238130992260597,73.16403632898232
1590512803.6247292,0.569246133053011,-3.8601396606097014,8.188438203934524,0.4011111111111111,0.38333333333333336,-0.64,10.044141387595735,-3.0881889172548433,42.90067953146118
1590512803.6347291,-1.165509721258694,-4.329596563317145,8.374138783641959,0.4011111111111111,0.38333333333333336,-0.64,-2.2199201309212517,3.5130865663411424,-23.378114049131046
1590512803.6447291,-2.246817717496169,-8.274241813744963,9.150345326598945,0.4011111111111111,0.38333333333333336,-0.64,-1.369108592020884,8.030448399636796,-24.78908156461041
1590512803.6547291,1.434677609873325,-5.468036739847664,8.749277829823631,0.4025763150629755,0.38333333333333336,-0.641255889101598,-3.510987332491548,-2.2472531668771127,-1.7060379414280478
1590512803.664729,0.010537393012487723,-3.208823488143679,8.682737827978112,0.4088888888888889,0.38333333333333336,-0.6466666666666666,0.9379538199803564,-2.9870189946681633,12.35684500841869
1590512803.674729,0.21902153926976622,-4.611441642588215,8.888434462831626,0.4088888888888889,0.38333333333333336,-0.6466666666666666,1.7194231021801942,0.23287693722090885,-2.259010266176342
1590512803.684729,0.12626611724046258,-4.4701289379237,8.717467765519075,0.4088888888888889,0.38333333333333336,-0.6466666666666666,-0.9246228233417519,-1.049622823341752,-0.7100309052239797
1590512803.694729,0.14,-4.606246945756638,8.712966077537057,0.4088888888888889,0.38333333333333336,-0.6466666666666666,-0.1835651164684802,-0.0009837208828799501,0.04199457362762665
1590512803.704729,0.13540390544707093,-4.604846865364851,8.785278520041109,0.4088888888888889,0.38461002626470253,-0.6451346351490236,-0.500783658787256,0.06754881808838643,0.0
1590512803.714729,0.12,-4.471784815106216,8.853523013375295,0.4088888888888889,0.3888888888888889,-0.64,0.2426927616050354,-0.11028840479937058,0.014711595200629425
1590512803.724729,0.12,-4.618823244281213,8.799427655250843,0.4088888888888889,0.3888888888888889,-0.64,0.6321543093644549,-0.05892284531777252,0.0625
1590512803.734729,0.12,-4.329501854993568,8.791608158243069,0.4088888888888889,0.3888888888888889,-0.64,0.7298980219616324,-0.010050989019183804,0.0625
1590512803.744729,0.10867605242010261,-4.513380262100513,8.717943685479385,0.4088888888888889,0.3888888888888889,-0.64,-0.6461266381282067,0.03309868949743463,0.11672532762564135
1590512803.754729,0.10219416455461458,-4.480970822773073,8.756835012672312,0.4088888888888889,0.3888888888888889,-0.64,-0.44356764233170554,0.1951458861346356,0.07621352846634111
1590512803.764729,0.14117218906078696,-4.6449205140699235,8.731562918747716,0.4155555555555556,0.3744444444444445,-0.6466666666666666,-0.2856373340236326,-0.007326181629918382,0.004884121086612255
1590512803.774729,0.15761975120346983,-4.52,8.772476049759305,0.4155555555555556,0.3744444444444445,-0.6466666666666666,0.35952468900433726,-0.12559875601734904,0.07857406701301178
1590512803.784729,0.12236656550213358,-4.503434041485065,8.78,0.4155555555555556,0.3744444444444445,-0.6466666666666666,0.3125,0.047708965611665106,-0.03291793122333021
1590512803.794729,0.13165561751745117,-4.469867410209414,8.770066294895292,0.4155555555555556,0.3744444444444445,-0.6466666666666666,0.16763346722302383,-0.020695218968139455,0.07284760948406972
1590512803.804729,0.13983387279179504,-4.568006473501541,8.72099676324923,0.4155555555555556,0.3744444444444445,-0.6466666666666666,-0.5479638692820653,-0.1229234098974379,0.12396170494871894
1590512803.814729,0.11329267500054163,-4.516585350001083,8.711097558333515,0.4026964731484089,0.38136856574060035,-0.6407317055556759,-0.006097395844617326,0.0419207812466148,0.06935973958446173
1590512803.824729,0.13,-4.523944263727728,8.825777054910908,0.4011111111111111,0.38222222222222224,-0.64,0.1192725275525562,0.0625,0.04357582414914793
1590512803.834729,0.1268642238823669,-4.481778014941302,8.7605926716471,0.4011111111111111,0.38222222222222224,-0.64,0.15200699632396536,0.023302798529586152,0.03919720147041385
1590512803.844729,0.1224143822895773,-4.44655820518535,8.74,0.4011111111111111,0.38222222222222224,-0.64,-0.18321911447886488,-0.017230332070425673,0.125
1590512803.854729,0.13,-4.529294019400013,8.741411961199974,0.40232696658886674,0.38222222222222224,-0.6394901251222315,-0.5404381062504015,0.1205876212500803,0.125
1590512803.864729,0.13289513991879606,-4.53895139918796,8.788685419756387,0.4355555555555555,0.38222222222222224,-0.6255555555555555,0.11678387347742579,-0.018094624492475262,0.1792838734774258
1590512803.874729,0.13814425770308125,-4.584019607843137,8.806288515406163,0.4355555555555555,0.38222222222222224,-0.6255555555555555,0.3079919467787115,-0.0625,0.2893032212885154
1590512803.884729,0.1320251225490196,-4.498351715686274,8.794050245098038,0.4355555555555555,0.38222222222222224,-0.6255555555555555,0.49921492034313725,-0.0625,0.2128140318627451
1590512803.894729,0.12992916869963156,-4.539362518296684,8.760495819102578,0.4355555555555555,0.38222222222222224,-0.6255555555555555,-0.18794269562730287,0.1866146087453943,-0.0625
1590512803.904729,0.12287245318572607,-4.475852078671535,8.809892827699917,0.4355555555555555,0.38222222222222224,-0.6255555555555555,-0.23204716758921212,0.09840566482157578,-0.0625
1590512803.9147289,0.12004103587866688,-4.569466533577331,8.790041035878666,0.4088888888888889,0.3955555555555556,-0.64,-0.18493525758331947,0.000256474241668053,-0.06173057727499584
1590512803.9247289,0.1277940442522043,-4.468677424721345,8.797794044252205,0.4088888888888889,0.3955555555555556,-0.64,0.29962776576276823,0.048712776576276824,0.08363832972883048
1590512803.9347289,0.13,-4.529508768352366,8.710818719412725,0.4088888888888889,0.3955555555555556,-0.64,0.3125,-0.24795320146818922,0.06147660073409462
1590512803.9447289,0.13,-4.503850326264274,8.753582789559543,0.4088888888888889,0.3955555555555556,-0.64,0.3125,-0.14104302610114194,0.008021513050570965
1590512803.9547288,0.13,-4.565653660975032,8.76,0.4088888888888889,0.3955555555555556,-0.64,-0.33231274171906655,-0.06638065984372123,0.11723868031255755
1590512803.9647288,0.12144890905163101,-4.518693454309786,8.777102181896737,0.37468452509541295,0.37275264635990496,-0.6457007272989126,-0.4284443184273061,-0.0625,0.07155568157269387
1590512803.9747288,0.13512669236555097,-4.529746615268897,8.761877820609252,0.3688888888888889,0.3688888888888889,-0.6466666666666666,0.07106906966904851,-0.03204182728469349,0.0
1590512803.9847288,0.11,-4.566886949293433,8.728195656691605,0.3688888888888889,0.3688888888888889,-0.6466666666666666,0.3965217165419784,0.1147554291354946,-0.010244570864505403
1590512803.9947288,0.11,-4.5,8.786384856513788,0.3688888888888889,0.3688888888888889,-0.6466666666666666,0.16474325484195992,0.039743254841959924,-0.005608137104899803
1590512804.0047288,0.11,-4.5,8.856819420084337,0.3688888888888889,0.3688888888888889,-0.6466666666666666,0.0669174721050864,-0.058082527894913596,0.23895631973728404
1590512804.0147288,0.12790504898266766,-4.508379804069329,8.783240391861343,0.4088888888888889,0.3888888888888889,-0.64,-0.40834589299171065,-0.0625,0.0988131122833459
1590512804.0247288,0.11858149421588388,-4.53290747107942,8.71290747107942,0.4088888888888889,0.3888888888888889,-0.64,-0.009306033095645393,-0.04476867769854847,-0.008865661150725766
1590512804.0347288,0.11147744787520536,-4.497387239376027,8.677387239376026,0.4088888888888889,0.3888888888888889,-0.64,0.2570957046797988,0.04403190155993292,-0.05326595077996646
1590512804.0447288,0.1375135975135975,-4.51,8.774972804972805,0.4088888888888889,0.3888888888888889,-0.64,0.2814199689199689,-0.07027000777000778,0.10945998445998446
1590512804.0547287,0.12587440337440337,-4.51,8.798251193251193,0.4088888888888889,0.3888888888888889,-0.64,0.13593004218004218,-0.10664248945498946,0.03671502109002109
1590512804.0647287,0.1277543859649123,-4.541017543859649,8.817754385964912,0.3976881091617933,0.38371929824561407,-0.6503391812865497,-0.131359649122807,-0.07653508771929825,0.0
1590512804.0747287,0.13845852878689077,-4.519229264393445,8.745375586360673,0.3944444444444444,0.38222222222222224,-0.6533333333333333,-0.33164612213130273,-0.07213419508193272,0.00963419508193273
1590512804.0847287,0.12081280632743642,-4.510406403163718,8.69243841898231,0.3944444444444444,0.38222222222222224,-0.6533333333333333,0.1646398220408507,-0.18241996045352238,0.11991996045352238
1590512804.0947287,0.12,-4.519377944450954,8.736889722254777,0.3944444444444444,0.38222222222222224,-0.6533333333333333,0.2461121528184695,-0.1288878471815305,0.007775694363061053
1590512804.1047287,0.12949743763295302,-4.501005124734094,8.825476938696577,0.3944444444444444,0.38222222222222224,-0.6533333333333333,0.0719230443821311,-0.06564101479404372,0.05935898520595629
1590512804.1147287,0.13,-4.50786830885836,8.798526764566555,0.3944444444444444,0.38222222222222224,-0.648087794094426,-0.18338465182378022,0.03585386072951209,0.013323069635243955
1590512804.1247287,0.13896124075619373,-4.51,8.798961240756194,0.3944444444444444,0.38222222222222224,-0.6466666666666666,-0.30600775472621067,0.006492245273789311,0.05600775472621069
1590512804.1347287,0.1325192225127825,-4.517480777487217,8.687788337691737,0.3944444444444444,0.38222222222222224,-0.6466666666666666,0.01478401506576632,-0.046754859295109474,0.0625
1590512804.1447287,0.13,-4.500135477336034,8.760406432008104,0.3944444444444444,0.38222222222222224,-0.6466666666666666,0.43580653329956953,-0.06080653329956951,0.06334673335021525
1590512804.1547287,0.13,-4.508986452266396,8.786959356799189,0.3944444444444444,0.38222222222222224,-0.6466666666666666,0.32516934667004305,0.04983065332995695,0.11866532666497848
1590512804.1647286,0.13933478636789395,-4.483991281792637,8.84467829094315,0.4088888888888889,0.38222222222222224,-0.6322222222222222,-0.1416303408026515,0.11252724439801139,0.0
1590512804.1747286,0.13177966712299158,-4.529321997262051,8.784237336983931,0.4088888888888889,0.38222222222222224,-0.6322222222222222,-0.33050832192521074,-0.02913124144390805,0.0
1590512804.1847286,0.12,-4.502557932263815,8.682557932263814,0.4088888888888889,0.38222222222222224,-0.6322222222222222,-0.03052584670231729,0.07848707664884136,0.015987076648841355
1590512804.1947286,0.12,-4.51954991087344,8.69954991087344,0.4088888888888889,0.38222222222222224,-0.6322222222222222,0.18187388591800357,0.1846869429590018,0.12218694295900179
1590512804.2047286,0.1261876041824519,-4.48906197908774,8.774251250189423,0.4088888888888889,0.38222222222222224,-0.6322222222222222,0.1875,0.1488274738596757,0.08632747385967571
1590512804.2147286,0.13,-4.506339034423035,8.827267806884608,0.4177717639700753,0.38222222222222224,-0.6427201654999879,0.00580482788482356,0.03415241394241178,0.01707620697120589
1590512804.2247286,0.1214030948858411,-4.5,8.781581430684952,0.4211111111111111,0.38222222222222224,-0.6466666666666666,-0.30811532848174655,-0.11623065696349315,0.058115328481746574
1590512804.2347286,0.13817425726738375,-4.5,8.680954456395698,0.4211111111111111,0.38222222222222224,-0.6466666666666666,-0.2557054460394258,-0.011410892078851612,0.005705446039425806
1590512804.2447286,0.12225424332344213,-4.508872878338279,8.732110148367953,0.4211111111111111,0.38222222222222224,-0.6466666666666666,0.08273293768545997,0.055455489614243327,0.11091097922848665
1590512804.2547286,0.12,-4.493131519274376,8.782171201814059,0.4211111111111111,0.38222222222222224,-0.6466666666666666,0.2304280045351474,0.0625,0.0722859977324263
1590512804.2647285,0.10697593160486944,-4.50302406839513,8.82907220518539,0.4131519582029758,0.37715730673522707,-0.6423253105349565,0.25,-0.018900427469566022,0.0625
1590512804.2747285,0.1243522118314595,-4.50188259605618,8.768825960561802,0.4088888888888889,0.3744444444444445,-0.64,-0.10513642254211764,-0.011766225351126057,-0.038967549297747886
1590512804.2847285,0.12325151789174525,-4.533742410541274,8.702760625242217,0.4088888888888889,0.3744444444444445,-0.64,-0.27185602635318434,-0.08435602635318434,-0.020321986823407828
1590512804.2947285,0.14536392075078206,-4.516181438998957,8.730727841501563,0.4088888888888889,0.3744444444444445,-0.64,-0.0482924921793535,-0.0721584984358707,0.0528415015641293
1590512804.3047285,0.1354210730948678,-4.524578926905132,8.761868390357698,0.4088888888888889,0.3744444444444445,-0.64,0.1366774397356143,0.1197365863141524,-0.028618293157076202
1590512804.3147285,0.14890664003994009,-4.48218671992012,8.84890664003994,0.4088888888888889,0.38222222222222224,-0.6533333333333333,0.17383300049925113,0.0034167498751872193,0.17383300049925113
1590512804.3247285,0.1339494329933671,-4.512101134013266,8.833949432993368,0.4088888888888889,0.38222222222222224,-0.6533333333333333,-0.013132087582911345,0.050158021895727836,-0.013132087582911345
1590512804.3347285,0.14,-4.491425188374596,8.680950125583063,0.4088888888888889,0.38222222222222224,-0.6533333333333333,-0.24109257265877287,0.005938284894151417,-0.0029691424470757086
1590512804.3447285,0.14,-4.5139994617868675,8.695999641191245,0.4088888888888889,0.38222222222222224,-0.6533333333333333,-0.1000033638320775,0.09999775744528167,-0.04999887872264083
1590512804.3547285,0.1245551208747116,-4.512277560437355,8.784946835189086,0.4088888888888889,0.38222222222222224,-0.6533333333333333,0.08229574179957871,0.07673475273347377,-0.0625
1590512804.3647285,0.12063311471021282,-4.51,8.839366885289786,0.42777777777777776,0.38222222222222224,-0.6322222222222222,0.125,-0.05458606612233971,0.10917213224467942
1590512804.3747284,0.12998996118324188,-4.51,8.830010038816758,0.42777777777777776,0.38222222222222224,-0.6322222222222222,0.125,0.06237451479052336,-0.12474902958104672
1590512804.3847284,0.12091563496021335,-4.528168730079574,8.72098761952256,0.42777777777777776,0.38222222222222224,-0.6322222222222222,-0.15888640749333277,0.0057227185013334556,0.10210912599466618
1590512804.3947284,0.13978183343822112,-4.53,8.739672750157332,0.42777777777777776,0.38222222222222224,-0.6322222222222222,-0.1875,0.1236364589888819,0.06318177050555905
1590512804.4047284,0.13195259965505882,-4.521952599655059,8.764142201034824,0.42777777777777776,0.38222222222222224,-0.6322222222222222,0.06398126077941207,-0.02588875646764724,-0.03809250431176482
1590512804.4147284,0.13,-4.52,8.782323845618377,0.41134598361994135,0.38222222222222224,-0.6370148288515912,0.16351201755742903,-0.0625,-0.023987982442570964
1590512804.4247284,0.13,-4.496165270236254,8.821779639684994,0.4011111111111111,0.38222222222222224,-0.64,0.0385329389765903,-0.0625,0.0
1590512804.4347284,0.14286642753134213,-4.502866427531342,8.720635365983592,0.4011111111111111,0.38222222222222224,-0.64,-0.08041517207088823,-0.0625,0.0
1590512804.4447284,0.13497232630891404,-4.532541510536629,8.705083021073259,0.4011111111111111,0.38222222222222224,-0.64,-0.125,-0.0625,0.09392296056928737
1590512804.4547284,0.13,-4.526987929224771,8.752530176938071,0.4011111111111111,0.38222222222222224,-0.64,-0.0843372788274104,-0.021837278827410413,0.0843372788274104
1590512804.4647284,0.1383406113537118,-4.52,8.81170305676856,0.4131586608442504,0.37573508005822426,-0.6214653081028627,0.14601528384279477,0.0,0.1146288209606987
1590512804.4747283,0.14,-4.501569964184266,8.847645053723602,0.4155555555555556,0.3744444444444445,-0.6177777777777778,0.12990613807583057,0.0,0.06740613807583055
1590512804.4847283,0.11017312131315722,-4.509942292895614,8.740634778148243,0.4155555555555556,0.3744444444444445,-0.6177777777777778,-0.06141799179276736,0.06213933059758913,-0.12391799179276736
1590512804.4947283,0.12398243732403808,-4.5239824373240385,8.753982437324037,0.4155555555555556,0.3744444444444445,-0.6177777777777778,-0.10619511663761899,0.018804883362381015,0.006085349912856947
1590512804.5047283,0.13637276518874691,-4.5172544696225065,8.772745530377493,0.4155555555555556,0.3744444444444445,-0.6177777777777778,-0.045340435140663604,0.0796595648593364,0.1023297824296682
1590512804.5147283,0.13390283854559562,-4.51,8.786097161454403,0.4155555555555556,0.3710571325253309,-0.6353917997571682,0.0,0.125,0.048785481819945256
1590512804.5247283,0.12129791894852135,-4.51,8.807404162102957,0.4155555555555556,0.3688888888888889,-0.6466666666666666,0.16316401971522454,0.0706119934282585,0.10877601314348302
1590512804.5347283,0.13906625608423565,-4.51,8.714668719578823,0.4155555555555556,0.3688888888888889,-0.6466666666666666,0.1875,0.002917949736763681,0.005835899473527362
1590512804.5447283,0.12073245803876304,-4.519633770980618,8.738901312941856,0.4155555555555556,0.3688888888888889,-0.6466666666666666,0.006866794113403546,0.0,-0.06021106862886548
1590512804.5547283,0.12749823767298632,-4.52,8.754996475345973,0.4155555555555556,0.3688888888888889,-0.6466666666666666,-0.09372797091232887,0.0,-0.015636014543835564
1590512804.5647283,0.13,-4.528341736530457,8.768341736530456,0.40999439786858444,0.3735231869613649,-0.629056333991258,-0.020728293369291204,0.0521358533153544,0.1042717066307088
1590512804.5747283,0.13,-4.506802693545294,8.785464870969804,0.4088888888888889,0.3744444444444445,-0.6255555555555555,0.0,0.01417227821936199,0.07667227821936198
1590512804.5847282,0.13,-4.490306277290887,8.722143941036203,0.4088888888888889,0.3744444444444445,-0.6255555555555555,0.0,0.060585766931962465,-0.05867153386392493
1590512804.5947282,0.13,-4.5066462757849814,8.753292551569963,0.4088888888888889,0.3744444444444445,-0.6255555555555555,-0.052019611828066255,-0.04153922365613251,-0.010480388171933745
1590512804.6047282,0.11930463628716093,-4.520695363712839,8.776043045569258,0.4088888888888889,0.3744444444444445,-0.6255555555555555,-0.0290769883973779,-0.0290769883973779,0.0334230116026221
1590512804.6147282,0.11487063813379603,-4.525129361866204,8.794870638133796,0.39914761262129683,0.3814798106377054,-0.6255555555555555,0.0,-0.030441488336225182,-0.02882446500867554
1590512804.6247282,0.13178212934013495,-4.52,8.8,0.3888888888888889,0.3888888888888889,-0.6255555555555555,0.03681915418792167,-0.02568084581207833,0.022276616751686684
1590512804.6347282,0.13138075806325042,-4.502761516126501,8.722426822569254,0.3888888888888889,0.3888888888888889,-0.6255555555555555,0.0625,0.0,-0.03661078631405479
1590512804.6447282,0.13,-4.513107506524075,8.755876272834263,0.3888888888888889,0.3888888888888889,-0.6255555555555555,0.10346095788773474,0.0,-0.02153904211226526
1590512804.6547282,0.11753733696431132,-4.52,8.773768668482155,0.3888888888888889,0.3888888888888889,-0.6255555555555555,-0.03078328794610863,-0.07789164397305431,0.0
1590512804.6647282,0.11906560886538219,-4.492803173403853,8.797196826596148,0.4070201066196533,0.38284514964530075,-0.6446940631602512,-0.06833994459136129,0.044980166225916135,0.11332011081727741
1590512804.6747282,0.12935392516859864,-4.508707850337197,8.771938224494203,0.4088888888888889,0.38222222222222224,-0.6466666666666666,0.11288609691122473,0.004037967696258429,0.06653796769625843
1590512804.6847281,0.13,-4.496441562030433,8.729324686091298,0.4088888888888889,0.38222222222222224,-0.6466666666666666,0.16737011865489904,0.0,0.10487011865489905
1590512804.6947281,0.13,-4.50738562579297,8.74477125158594,0.4088888888888889,0.38222222222222224,-0.6466666666666666,0.13316991939696993,0.10866016120606016,0.07066991939696993
1590512804.7047281,0.14321711623429093,-4.51,8.783042790585728,0.4088888888888889,0.38222222222222224,-0.6466666666666666,0.04239302353568175,0.04239302353568175,-0.02010697646431825
1590512804.714728,0.12436319575335615,-4.518545601415547,8.8,0.40224231001012933,0.38222222222222224,-0.6343230201775418,-0.05341000884717468,0.0,0.04432001769434936
