time,acc_x,acc_y,acc_z,mag_x,mag_y,mag_z,gyr_x,gyr_y,gyr_z
1590512383.2784965,-0.03,-4.15,8.74,0.4222222222222222,0.2966666666666667,-0.64,0.375,-0.5,0.0
1590512383.2884965,-0.02593288542377753,-4.13,8.768134229152444,0.4222222222222222,0.30523639005656755,-0.64,0.5116610677972191,-0.6366610677972191,0.0
1590512383.2984965,-0.01683136597217743,-4.13,8.720494097916532,0.4222222222222222,0.3111111111111111,-0.64,0.6036519813369455,-0.6051960373261089,-0.04115198133694554
1590512383.3084965,-0.01917645401560106,-4.1254117729922,8.649529502914193,0.4222222222222222,0.3111111111111111,-0.64,0.53897074360374,-0.5338235812012466,-0.0625
1590512383.3184965,-0.03,-4.124019579717421,8.610097898587105,0.4222222222222222,0.3111111111111111,-0.64,0.33701050706447677,-0.2990210141289536,0.0379894929355232
1590512383.3284965,-0.03992497152060337,-4.13,8.644962485760303,0.4222222222222222,0.3111111111111111,-0.64,0.06343785599245787,0.031015536001885533,0.12546892799622894
1590512383.3384964,-0.05568860185023564,-4.124311398149764,8.667065805550706,0.4335994259226935,0.3149035123446015,-0.619773860088051,-0.16916128469191832,0.20471504625589107,0.13360752312794555
1590512383.3484964,-0.054461558616559366,-4.131076882766881,8.663384675849677,0.44222222222222224,0.31777777777777777,-0.6044444444444445,-0.21538474135349603,0.20865422406048809,0.15288474135349603
1590512383.3584964,-0.038983478869382665,-4.134491739434691,8.638983478869383,0.44222222222222224,0.31777777777777777,-0.6044444444444445,-0.11864674293364165,0.125,0.09057337146682082
1590512383.3684964,-0.03,-4.13,8.66284129125803,0.44222222222222224,0.31777777777777777,-0.6044444444444445,-0.02829032160621866,-0.011838713575125365,0.13091935678756267
1590512383.3784964,-0.016151766658762154,-4.120767844439174,8.722312544462888,0.44222222222222224,0.31777777777777777,-0.6044444444444445,-0.08655145838273653,-0.2692524306378943,0.21635048612757884
1590512383.3884964,0.0,-4.126619251922024,8.74892049871865,0.4274495538470891,0.30608274864746404,-0.6192171128195776,-0.1875,-0.3336296754873449,0.07688279247890811
1590512383.3984964,0.0,-4.133556692242114,8.746443307757886,0.4155555555555556,0.2966666666666667,-0.6311111111111111,-0.10695865302642796,-0.25,0.05831202046035805
1590512383.4084964,0.0,-4.13,8.692001654610637,0.4155555555555556,0.2966666666666667,-0.6311111111111111,-0.09874896586835238,-0.10500413652659044,0.16124896586835238
1590512383.4184964,-0.02490145913576429,-4.13,8.699802918271528,0.4155555555555556,0.2966666666666667,-0.6311111111111111,0.0306341195985268,0.0778170597992634,0.1875
1590512383.4284964,-0.04,-4.13,8.735219165797325,0.4155555555555556,0.2966666666666667,-0.6311111111111111,0.0923802137667234,0.2228593586998298,0.1548802137667234
1590512383.4384964,-0.04497078044489129,-4.13,8.74,0.4254971164453381,0.2966666666666667,-0.6311111111111111,0.00036524443885885965,0.4057021333417117,0.03179786665828831
1590512383.4484963,-0.05,-4.116856534738763,8.726856534738763,0.4355555555555555,0.2966666666666667,-0.6311111111111111,-0.10357332894136725,0.4178533421172655,0.06071998682410176
1590512383.4584963,-0.04489819004524887,-4.1202036199095025,8.653676470588236,0.4355555555555555,0.2966666666666667,-0.6311111111111111,-0.029341063348416296,0.375,0.09311368778280543
1590512383.4684963,-0.034933489963030785,-4.135066510036969,8.620399060221816,0.4355555555555555,0.2966666666666667,-0.6311111111111111,0.030834312268942406,0.18500587361365442,0.0941656877310576
1590512383.4784963,-0.03815626151691605,-4.135921869241542,8.662234392275375,0.4355555555555555,0.2966666666666667,-0.6311111111111111,0.10195326896145059,0.025488317240362646,0.09951168275963736
1590512383.4884963,-0.048705577267248626,-4.1312944227327515,8.682588845465503,0.4350521689372633,0.2980330017734598,-0.6316864101034451,0.2419098579203039,0.03822957376091165,0.0625
1590512383.4984963,-0.03347833493026722,-4.143043330139466,8.699129990418397,0.42777777777777776,0.31777777777777777,-0.64,0.14673959331417014,-0.35597918662834027,0.04076040668582988
1590512383.5084963,-0.04,-4.13,8.621188443360268,0.42777777777777776,0.31777777777777777,-0.64,0.16054753011129747,-0.41054753011129747,0.0539049397774051
1590512383.5184963,-0.03392308557292252,-4.1421538288541555,8.612538400989543,0.42777777777777776,0.31777777777777777,-0.64,0.08701928483076576,-0.29903856966153153,0.08701928483076576
1590512383.5284963,-0.02522501802872902,-4.140450036057458,8.706849747597794,0.42777777777777776,0.31777777777777777,-0.64,0.09234363732044361,-0.10078181339778197,0.09234363732044361
1590512383.5384963,-0.016486442566626427,-4.133513557433373,8.794054229733494,0.4305105446704016,0.31543540615552873,-0.6368768378370012,0.125,0.10641946791716965,0.05912079812424552
1590512383.5484962,-0.023205281358063504,-4.148803520905376,8.815598239547313,0.4355555555555555,0.3111111111111111,-0.6311111111111111,0.18002200565859794,0.1049669915121031,-0.0625
1590512383.5584962,-0.030039618670298376,-4.145059428005448,8.735297140027239,0.4355555555555555,0.3111111111111111,-0.6311111111111111,0.4367571499319054,0.0,-0.12475238331063512
1590512383.5684962,-0.010096694400719586,-4.120096694400719,8.66495165279964,0.4355555555555555,0.3111111111111111,-0.6311111111111111,0.7487913199910052,-0.09284348999325387,-0.2493956599955026
1590512383.5784962,-0.004524411409598551,-4.114524411409599,8.683573234228795,0.4355555555555555,0.3111111111111111,-0.6311111111111111,0.846722428690009,-0.3006102852399638,-0.3407775713099909
1590512383.5884962,-0.027205074418140046,-4.12,8.7,0.43221012441869494,0.30776567997425053,-0.6253760863050644,0.8931487863350315,-0.4643829287783438,-0.3481170712216562
1590512383.5984962,-0.05485063983588942,-4.129701279671779,8.661194881312884,0.42777777777777776,0.3033333333333333,-0.6177777777777778,1.0606329979486178,-0.5909494969229266,-0.25186700205138224
1590512383.6084962,-0.06277993793029643,-4.137220062069703,8.589420682766738,0.42777777777777776,0.3033333333333333,-0.6177777777777778,1.0728761638069417,-0.7048746120643528,-0.17012538793564727
1590512383.6184962,-0.06715723612622417,-4.128294341675734,8.513411316648531,0.42777777777777776,0.3033333333333333,-0.6177777777777778,0.919732725788901,-0.7606603645266594,-0.1285534548422198
1590512383.6284962,-0.017202949927201366,-4.102797050072798,8.597970500727987,0.42777777777777776,0.3033333333333333,-0.6177777777777778,0.6424815629549915,-0.8675737481800342,-0.17001843704500855
1590512383.6384962,-0.010565138950433628,-4.109434861049567,8.664348610495663,0.42777777777777776,0.3033333333333333,-0.6177777777777778,0.6839678815597898,-0.7016284737608407,-0.12853211844021017
1590512383.6484962,-0.004609777506392397,-4.13,8.739219555012784,0.44222222222222224,0.3111111111111111,-0.6111111111111112,0.19237778117009502,-0.6586888905850475,-0.125
1590512383.6584961,-0.02064627074585083,-4.13,8.764829834033193,0.44222222222222224,0.3111111111111111,-0.6111111111111112,-0.01211757648470306,-0.550382423515297,-0.10884323135372925
1590512383.6684961,-0.026437951159576104,-4.126437951159576,8.70781024420212,0.44222222222222224,0.3111111111111111,-0.6111111111111112,-0.20976280525264937,-0.33047438949470126,0.05821158424205192
1590512383.6784961,-0.015397120805736493,-4.126904318791396,8.744602879194264,0.44222222222222224,0.3111111111111111,-0.6111111111111112,-0.2643839974820735,-0.16369601510755927,-0.019348007553779627
1590512383.688496,0.0029303578625824653,-4.13827856854967,8.768791073587748,0.4379894830873809,0.3130646830194994,-0.6195765893807939,-0.27587052671771917,0.125,0.10668526335885958
1590512383.698496,0.006747574647993658,-4.11,8.786747574647993,0.42777777777777776,0.31777777777777777,-0.64,-0.16717234154996036,0.1859829753501189,0.10315531690007927
1590512383.708496,-0.008986800589959487,-4.118986800589959,8.685638593805425,0.42777777777777776,0.31777777777777777,-0.64,-0.15308375184362338,0.36866750368724677,0.15941624815637662
1590512383.718496,-0.023801496411665905,-4.126198503588334,8.585205985646663,0.42777777777777776,0.31777777777777777,-0.64,-0.2350187051458238,0.4612593525729119,0.1012406474270881
1590512383.728496,-0.038460095364652544,-4.115769952317674,8.62269014304698,0.42777777777777776,0.31777777777777777,-0.64,-0.3389377980145392,0.632188990072696,0.0625
1590512383.738496,-0.03901118027080445,-4.106337060090269,8.643662939909733,0.42574281116126006,0.31533581783795656,-0.6314531402106257,-0.5123602466149444,0.8353933744358241,0.1311801233074722
1590512383.748496,-0.02,-4.1,8.65,0.4222222222222222,0.3111111111111111,-0.6166666666666667,-0.8746618575293057,0.9373309287646528,0.25
1590512383.758496,-0.024456097916970745,-4.117824391667883,8.663368293750912,0.4222222222222222,0.3111111111111111,-0.6166666666666667,-1.19495428386747,1.1114024479242686,0.30570122396213434
1590512383.768496,-0.03367441192658355,-4.151023235779751,8.683674411926583,0.4222222222222222,0.3111111111111111,-0.6166666666666667,-1.2997095527531168,1.1581397018354112,0.3061047763765584
1590512383.778496,-0.042459520751066494,-4.160161916995734,8.694919041502132,0.4222222222222222,0.3111111111111111,-0.6166666666666667,-0.9548959671408408,0.9077679718350065,0.2182440093883312
1590512383.788496,-0.04911112168355615,-4.133555513265775,8.708222243367112,0.4222222222222222,0.3111111111111111,-0.6166666666666667,-0.6638884263444185,0.6583329368666444,0.30138902104445187
1590512383.798496,-0.07,-4.1369622709091995,8.746962270909199,0.4222222222222222,0.3111111111111111,-0.6255555555555555,-0.29351419318249655,0.14952838636499313,0.3125
1590512383.808496,-0.051729146221786065,-4.13,8.694322865554465,0.4222222222222222,0.3111111111111111,-0.6255555555555555,-0.16435537291462216,0.11959641805691855,0.1983071638861629
1590512383.818496,-0.034146198463052536,-4.125853801536947,8.644146198463053,0.4222222222222222,0.3111111111111111,-0.6255555555555555,-0.010672519211843291,0.23932748078815672,0.010672519211843291
1590512383.828496,-0.043100299235287604,-4.123100299235287,8.65,0.4222222222222222,0.3111111111111111,-0.6255555555555555,0.004369389338357538,0.23499251911781005,-0.023746259558905018
1590512383.838496,-0.047546895910359065,-4.13,8.662265520448205,0.42358505782757827,0.3111111111111111,-0.6269183911609116,-0.09433619887948828,0.031836198879488284,0.07783190056025585
1590512383.848496,-0.04599882389567263,-4.13,8.694001176104328,0.42777777777777776,0.3111111111111111,-0.6311111111111111,0.037492649347953926,-0.0625,0.08750735065204607
1590512383.858496,-0.04200189060997048,-4.133599621878005,8.676400378121993,0.42777777777777776,0.3111111111111111,-0.6311111111111111,0.1924929102126107,-0.1299929102126107,0.0
1590512383.868496,-0.01120799076878696,-4.141207990768787,8.67,0.42777777777777776,0.3111111111111111,-0.6311111111111111,0.3125,-0.28019976921967404,0.007549942304918507
1590512383.878496,-0.01646567512629058,-4.1429313502525815,8.694740274115967,0.42777777777777776,0.3111111111111111,-0.6311111111111111,0.35667906092136775,-0.5,-0.025858121842735518
1590512383.888496,-0.019657965501410114,-4.13,8.733561356332393,0.4238430510920181,0.308607194129264,-0.6311111111111111,0.47774152292254213,-0.6006038073063553,-0.22774152292254213
1590512383.898496,-0.04,-4.13,8.71502142104647,0.4155555555555556,0.3033333333333333,-0.6311111111111111,0.5936161184595575,-0.7813838815404425,-0.34361611845955753
1590512383.908496,-0.04382743486786815,-4.13,8.683207955924924,0.4155555555555556,0.3033333333333333,-0.6311111111111111,0.5771570641516481,-0.75,-0.3032355962274722
1590512383.918496,-0.04727873668747705,-4.127278736687477,8.653606316562614,0.4155555555555556,0.3033333333333333,-0.6311111111111111,0.5,-0.7159842085934631,-0.2215157914065369
1590512383.928496,-0.042794251157923895,-4.122794251157924,8.701177004631695,0.4155555555555556,0.3033333333333333,-0.6311111111111111,0.5873203486851216,-0.625,-0.3125
1590512383.9384959,-0.04924831120070168,-4.129248311200701,8.726993244802808,0.4155555555555556,0.3033333333333333,-0.6311111111111111,0.7890097250219275,-0.625,-0.3125
1590512383.9484959,-0.05294449522488732,-4.13,8.735888990449775,0.42777777777777776,0.31777777777777777,-0.6533333333333333,0.959724761244366,-1.0920154757777287,-0.4375
1590512383.9584959,-0.020417720750440183,-4.126041772075044,8.686668353200703,0.42777777777777776,0.31777777777777777,-0.6533333333333333,1.535150320778774,-1.4609335471858493,-0.38802215093805026
1590512383.9684958,0.030621848739495798,-4.1168739495798325,8.605630252100841,0.42777777777777776,0.31777777777777777,-0.6533333333333333,1.7968487394957984,-1.6093487394957984,-0.4101890756302521
1590512383.9784958,0.019334278768233387,-4.097554294975689,8.630665721231766,0.42777777777777776,0.31777777777777777,-0.6533333333333333,1.4888751012965964,-1.2430358589951378,-0.6833392423014587
1590512383.9884958,0.03075247947518584,-4.080788773945617,8.639283814995245,0.426921525877332,0.3167502754972429,-0.6499083257315503,1.071905993439823,-0.696905993439823,-0.8125
1590512383.9984958,-0.018091337849115922,-4.137773227490635,8.793955903188868,0.4223989501991559,0.31132318468343156,-0.6318180230188459,0.4613582768860509,-0.08635827688605091,-0.8125
1590512384.0084958,-0.002064471648617744,-4.1158710567027645,8.729355283513822,0.4222222222222222,0.3111111111111111,-0.6311111111111111,0.2370970521961391,-0.025805895607721802,-0.5991941043922782
1590512384.0184958,-0.009117508576040895,-4.101764982847918,8.658824914239592,0.4222222222222222,0.3111111111111111,-0.6311111111111111,0.1930155713997444,-0.11396885720051121,-0.5110311427994888
1590512384.0284958,-0.0014256268707543958,-4.11,8.678553761224526,0.4222222222222222,0.3111111111111111,-0.6311111111111111,0.10717966411557006,0.33032033588442994,-0.29467966411557006
1590512384.0384958,-0.008943236606742781,-4.11,8.723659419640457,0.4222222222222222,0.3111111111111111,-0.6311111111111111,0.01320954241571523,0.42429045758428474,-0.20070954241571523
1590512384.0484958,0.0171985927326192,-4.095602814534762,8.712801407267381,0.4488888888888889,0.31777777777777777,-0.6255555555555555,-0.32003518168452005,0.5350175908422601,-0.30252638626339007
1590512384.0584958,-0.0041331581892043116,-4.127666447736505,8.677600525432387,0.4488888888888889,0.31777777777777777,-0.6255555555555555,-0.47791694032936827,0.6470830596706317,-0.5479152983531587
1590512384.0684958,-0.03560240744118184,-4.151596388838227,8.622409629764727,0.4488888888888889,0.31777777777777777,-0.6255555555555555,-0.31494733722414736,0.6524849534926135,-0.7675075232536932
1590512384.0784957,-0.04956342828885789,-4.13,8.679563428288857,0.4488888888888889,0.31777777777777777,-0.6255555555555555,0.008185719583914664,0.5461285608321707,-0.8097714268053617
1590512384.0884957,-0.04215601434046236,-4.13,8.672156014340462,0.4488888888888889,0.31777777777777777,-0.6255555555555555,0.14707473111633082,0.26835053776733836,-0.7634750896278897
1590512384.0984957,-0.017576414632440373,-4.106364621948661,8.67,0.42777777777777776,0.3033333333333333,-0.6255555555555555,0.22727888717912847,-0.25757370427362386,-0.5947051829055047
1590512384.1084957,0.007938996175456821,-4.083969498087728,8.650152509561357,0.42777777777777776,0.3033333333333333,-0.6255555555555555,-0.061546815241512814,-0.4613561782898154,-0.4246187260966051
1590512384.1184957,0.023745603215933487,-4.086254396784066,8.634982412863733,0.42777777777777776,0.3033333333333333,-0.6255555555555555,-0.4372801607966744,-0.6406799598008314,-0.734100200995843
1590512384.1284957,0.03798961057964917,-4.066683982367252,8.681305628212398,0.42777777777777776,0.3033333333333333,-0.6255555555555555,-0.9330952424502936,-0.5791450220409358,-1.3746753306140367
1590512384.1384957,0.059087921935676586,-4.029087921935677,8.74273623419297,0.42813247480279243,0.30368803035834796,-0.6252008585305409,-1.4973551229712236,-0.6192995120979787,-2.142306830628298
1590512384.1484957,0.042335515654372206,-4.005328968691256,8.798832242172814,0.4355555555555555,0.3111111111111111,-0.6177777777777778,-2.8740742691385233,-0.4562090814805212,-3.95117124197835
1590512384.1584957,0.04894706749721645,-3.9523153079955464,8.778947067497215,0.4355555555555555,0.3111111111111111,-0.6177777777777778,-3.8125,0.13750714694110922,-5.221058650055671
1590512384.1684957,0.017392946345280012,-3.9018287141524484,8.74739294634528,0.4355555555555555,0.3111111111111111,-0.6177777777777778,-3.8125,0.8869175242995997,-5.8521410730943995
1590512384.1784956,0.08250585723954809,-3.723742385588588,8.701236528349039,0.4355555555555555,0.3111111111111111,-0.6177777777777778,-3.1562060707033894,1.7030737491539543,-7.91422723486229
1590512384.1884956,0.15529702712552718,-3.629113864736815,8.533816837611287,0.4355555555555555,0.3111111111111111,-0.6177777777777778,-2.6102722965585463,1.0661510126516376,-9.96147888790545
1590512384.1984956,-0.12978751395311752,-3.254704991229469,8.543957502790624,0.42777777777777776,0.3033333333333333,-0.6255555555555555,-3.3653125498325624,2.688507863578377,-11.716242176287674
1590512384.2084956,-0.7094723148521382,-2.89435340246986,8.657757338121588,0.42777777777777776,0.3033333333333333,-0.6255555555555555,-5.435026475869398,4.800956887390524,-11.187337388691414
1590512384.2184956,-0.6855335988826238,-3.2691897297949755,8.541778662942079,0.42777777777777776,0.3033333333333333,-0.6255555555555555,-4.683670874071009,3.8727766713224008,-4.283225992792234
1590512384.2284956,-0.7289281465004397,-3.406605797251393,8.686427155001466,0.42777777777777776,0.3033333333333333,-0.6255555555555555,-3.1015779921714692,3.6919660562481678,1.9095375735002502
1590512384.2384956,-0.6228834537863214,-3.3631318483352057,8.846220248818431,0.4288612894945684,0.30813174236483476,-0.6255555555555555,-4.543533952906767,1.3939660470932327,11.49412659220482
1590512384.2484956,-0.2629689148322667,-2.9298442225191645,9.062500175821084,0.4355555555555555,0.3377777777777778,-0.6255555555555555,-4.8125,1.1308592376397777,17.469721411491665
1590512384.2584956,-0.12,-2.510424213741772,8.868504926214344,0.4355555555555555,0.3377777777777778,-0.6255555555555555,-4.034467366518952,0.3722195929957407,23.493565266962097
1590512384.2684956,-0.13059183620977904,-2.5138316314720033,8.782647959052444,0.4355555555555555,0.3377777777777778,-0.6255555555555555,-2.1102040947555234,-1.6654974407777978,28.31852671107796
1590512384.2784956,-0.16,-2.6202694881533732,8.773892204738651,0.4355555555555555,0.3377777777777778,-0.6255555555555555,-1.2575473262193284,-2.208894766986194,33.87587417857358
1590512384.2884955,-0.15613321935134947,-2.734833475810813,8.73386678064865,0.4355555555555555,0.3358443874534525,-0.6248036815405401,-0.9435418447635164,-2.4797929133446153,38.047929133446154
1590512384.2984955,-0.12686334374291247,-2.7714208203213593,8.763136656257087,0.4355555555555555,0.32120944964923404,-0.6191123168388997,-0.9892760254016992,-2.7999321778118946,41.24932177811895
1590512384.3084955,-0.17237282589132322,-2.7771184776739695,8.707627174108678,0.4355555555555555,0.31777777777777777,-0.6177777777777778,-0.77966032364154,-3.07415080910385,44.5233016182077
1590512384.3184955,-0.18609830325441368,-2.818294909763241,8.693901696745586,0.4355555555555555,0.31777777777777777,-0.6177777777777778,-0.9512287906801709,-3.503071976700427,45.38114395340085
1590512384.3284955,-0.21914649928821017,-2.804267503558949,8.75341400284716,0.4355555555555555,0.31777777777777777,-0.6177777777777778,-0.7926750355894914,-3.428343794486864,47.483200142357965
1590512384.3384955,-0.21236136275397954,-2.8381931862301024,8.780554548984082,0.4355555555555555,0.31777777777777777,-0.6177777777777778,-1.1319318623010224,-3.852414827876278,48.84022744920409
1590512384.3484955,-0.25,-2.9373556999199075,8.842644300080092,0.4222222222222222,0.3033333333333333,-0.6311111111111111,-1.528020156625434,-4.448993281124856,50.9516218741657
1590512384.3584955,-0.25,-3.0269376168016375,8.753062383198364,0.4222222222222222,0.3033333333333333,-0.6311111111111111,-1.1081049212423244,-4.588965026252558,51.88476684168372
1590512384.3684955,-0.270718098927576,-3.0615311569896537,8.739281901072424,0.4222222222222222,0.3033333333333333,-0.6311111111111111,-1.4183605376293287,-4.80801188170265,52.67284865592668
1590512384.3784955,-0.3312443817929231,-3.0737331453787693,8.692443817929231,0.4222222222222222,0.3033333333333333,-0.6311111111111111,-1.3280547724115388,-4.4375,52.96083215861731
1590512384.3884954,-0.33981327122660787,-3.0994398136798234,8.778132712266078,0.4222222222222222,0.3033333333333333,-0.6311111111111111,-1.435165890332598,-4.4375,53.1214988354989
1590512384.3984954,-0.3579267706558308,-3.117926770655831,8.824816926639578,0.4461245830966633,0.2794309724588923,-0.645054154954535,-1.4935211582994714,-4.269436525101586,53.29306347489841
1590512384.4084954,-0.3917447468136411,-3.1087237340682052,8.66825525318636,0.4488888888888889,0.2766666666666667,-0.6466666666666666,-0.7390953324147433,-3.7013326730967964,53.51090466758526
1590512384.4184954,-0.4097715470063576,-3.169543094012715,8.67172585640763,0.4488888888888889,0.2766666666666667,-0.6466666666666666,-0.7730010363056287,-4.013642264968213,53.63578660254768
1590512384.4284954,-0.45,-3.244237169245158,8.730084953820974,0.4488888888888889,0.2766666666666667,-0.6466666666666666,-1.1520132691633218,-3.9295574997077276,53.919491153891116
1590512384.4384954,-0.45,-3.2115470948131404,8.787292584077003,0.4488888888888889,0.2766666666666667,-0.6466666666666666,-1.3052479930634036,-4.593574636608082,53.817334671291064
1590512384.4484954,-0.46834384375191335,-3.192085960937978,8.726257882813936,0.4811111111111111,0.27111111111111114,-0.6288888888888889,-1.2108882324129064,-4.179835302761281,53.98964902344946
1590512384.4584954,-0.5022796024200519,-3.203039469893403,8.73860198789974,0.4811111111111111,0.27111111111111114,-0.6288888888888889,-1.0909950302506481,-4.629749171708442,54.22074420195909
1590512384.4684954,-0.529262405292925,-3.2436879735353754,8.61032632589905,0.4811111111111111,0.27111111111111114,-0.6288888888888889,-1.3914003308078113,-4.705939867676875,54.625
1590512384.4784954,-0.5203107459182584,-3.288446270408708,8.735649557144383,0.4811111111111111,0.27111111111111114,-0.6288888888888889,-0.8319216198911535,-4.929731352043539,54.625
1590512384.4884953,-0.5520521549130751,-3.29,8.77846258589569,0.4811111111111111,0.27111111111111114,-0.6288888888888889,-1.0528911618480636,-4.616978450869248,54.26441325722791
1590512384.4984953,-0.5992554079696395,-3.3046277039848198,8.8,0.4811111111111111,0.2613593084545646,-0.6402659919881932,-1.1875,-4.208942125237192,53.33111480075901
1590512384.5084953,-0.6633158323988174,-3.327771944132939,8.728912223468244,0.4811111111111111,0.2577777777777778,-0.6444444444444445,-1.0764253491691305,-4.069462674584565,52.56266407126109
1590512384.5184953,-0.7028678485637919,-3.37,8.664779747606321,0.4811111111111111,0.2577777777777778,-0.6444444444444445,-0.9940253154921,-3.7798734225395,51.9641518929526
1590512384.5284953,-0.7241536691815813,-3.37,8.700256115302636,0.4811111111111111,0.2577777777777778,-0.6444444444444445,-0.9496798558717056,-4.0016007206414725,51.69807913523023
1590512384.5384953,-0.7841527233891065,-3.433178177287291,8.755127269490922,0.4811111111111111,0.2577777777777778,-0.6444444444444445,-0.7118636525453899,-4.288136347454611,51.737818173727305
1590512384.5484953,-0.7825159716575677,-3.350191659890812,8.797420141712163,0.48526890463468464,0.23782036886462488,-0.6552547076057356,-1.2488021256824253,-4.078624114298989,51.703224822859795
1590512384.5584953,-0.812119977603151,-3.3792933407989496,8.712226748788447,0.4866666666666667,0.2311111111111111,-0.6588888888888889,-0.7588332400131292,-4.25,51.35733351997374
1590512384.5684953,-0.8364145733979496,-3.3711951422006834,8.623146564207518,0.4866666666666667,0.2311111111111111,-0.6588888888888889,-0.8600607224914564,-4.25,51.154878555017085
1590512384.5784953,-0.8860617275680744,-3.3195255718926884,8.72,0.4866666666666667,0.2311111111111111,-0.6588888888888889,-1.1442019459423252,-3.9074735405432564,50.921263229728375
1590512384.5884953,-0.9352295943999732,-3.3967893626285295,8.72,0.4866666666666667,0.2311111111111111,-0.6588888888888889,-0.7930028971430485,-4.170872827142714,50.78956358642864
1590512384.5984952,-0.9479272567045204,-3.3752436459772874,8.861280017625027,0.5077777777777778,0.21777777777777774,-0.6522222222222223,-1.315545574716097,-4.0625,51.28163617336618
1590512384.6084952,-1.0319325442127822,-3.3248404734723307,8.76887420136594,0.5077777777777778,0.21777777777777774,-0.6522222222222223,-0.6855059184041339,-4.0625,52.27919896252679
1590512384.6184952,-1.083859571113851,-3.3648244638923135,8.679648927784626,0.5077777777777778,0.21777777777777774,-0.6522222222222223,-1.306469420134608,-4.024122319461568,54.12444797582715
1590512384.6284952,-1.1177686601855408,-3.407210825231926,8.764421650463852,0.5077777777777778,0.21777777777777774,-0.6522222222222223,-1.2534864684600926,-4.23605412615963,55.76691947773713
1590512384.6384952,-1.084187548555151,-3.3145001294804026,8.752093774277576,0.5077777777777778,0.21777777777777774,-0.6522222222222223,-0.8769536307828233,-4.511132458452024,56.77031128612123
1590512384.6484952,-1.0938649689332285,-3.2770919751465826,8.719681018640063,0.5213237653510692,0.20498434506966928,-0.6567375514133194,-0.625,-4.518175155333858,58.094630589831105
1590512384.6584952,-1.1309822369411409,-3.269345175372573,8.745416227608008,0.5277777777777778,0.1988888888888889,-0.6588888888888889,-1.4477316348035527,-4.451824288724974,59.13727796176426
1590512384.6684952,-1.163738303034122,-3.251068086581178,8.608397870128233,0.5277777777777778,0.1988888888888889,-0.6588888888888889,-1.7366489177352784,-4.875,59.52336439396326
1590512384.6784952,-1.2099907054412553,-3.2642830586975013,8.588575411953748,0.5277777777777778,0.1988888888888889,-0.6588888888888889,-1.5714617662812314,-4.875,59.812441909007845
1590512384.6884952,-1.2702741580639703,-3.286109663225588,8.708877305804705,0.5277777777777778,0.1988888888888889,-0.6588888888888889,-0.6945168387205957,-4.673629209680149,60.89401125401929
1590512384.6984951,-1.2187960771051742,-3.2015943335963626,8.835206102280841,0.5459122734503188,0.19359966098439776,-0.6785345925341416,-1.1375408634877693,-4.922519069627626,61.5925299665577
1590512384.7084951,-1.2346902019875865,-3.303008646360277,8.71017723244717,0.5544444444444444,0.19111111111111112,-0.6877777777777778,-0.7671469701862017,-5.006637247515517,62.259402019875864
1590512384.7184951,-1.3025752657487337,-3.2782831561675105,8.67609438538917,0.5544444444444444,0.19111111111111112,-0.6877777777777778,-1.1220504565884284,-4.956544954341157,61.96485963472926
1590512384.7284951,-1.33,-3.298080502470223,8.727120753705336,0.5544444444444444,0.19111111111111112,-0.6877777777777778,-0.9554952893416568,-4.877999214890276,61.217492148902764
1590512384.738495,-1.3738375350140055,-3.361372549019608,8.773837535014005,0.5544444444444444,0.19111111111111112,-0.6877777777777778,-1.1566876750700281,-4.820203081232493,61.297093837535016
1590512384.748495,-1.4206899190903126,-3.3224108900065605,8.755170566367811,0.5333333333333333,0.16111111111111112,-0.7155555555555555,-1.2693800568554559,-4.903004045484365,60.68963207959764
1590512384.758495,-1.4298617975071068,-3.221520227421824,8.690967417450251,0.5333333333333333,0.16111111111111112,-0.7155555555555555,-0.6961376558058168,-4.444410124644653,59.887092718128144
1590512384.768495,-1.4203203055438398,-3.3167969445616006,8.68032030554384,0.5333333333333333,0.16111111111111112,-0.7155555555555555,-1.1109866324570037,-4.739990451755003,59.08852482543699
1590512384.778495,-1.441676762877618,-3.280670705151047,8.67184443916538,0.5333333333333333,0.16111111111111112,-0.7155555555555555,-1.2447601160074435,-4.431212139208932,58.10404046402977
1590512384.788495,-1.524709189531615,-3.313883675812646,8.763180108484775,0.5333333333333333,0.16111111111111112,-0.7155555555555555,-0.9852837827137031,-4.119840539256444,57.06613513085481
1590512384.798495,-1.513780050954926,-3.3134450127387316,8.799664961783806,0.5362466610050083,0.14727280467065537,-0.7388621769289546,-1.183312022297569,-4.554124044595138,55.686908558895084
1590512384.808495,-1.5370962747344625,-3.3174192549468926,8.706130430743505,0.5377777777777778,0.14,-0.7511111111111111,-0.9415372526553742,-4.116944848728827,54.135093131638435
1590512384.818495,-1.592554709097432,-3.341277354548716,8.691277354548715,0.5377777777777778,0.14,-0.7511111111111111,-1.0784669318589486,-4.273950397788423,51.729092367104904
1590512384.828495,-1.6222397983573074,-3.3194005041067314,8.657160705749424,0.5377777777777778,0.14,-0.7511111111111111,-1.1110012602668289,-3.940258191734388,49.0390302464039
1590512384.838495,-1.63,-3.322769899792021,8.781799331946807,0.5377777777777778,0.14,-0.7511111111111111,-1.0150627087666226,-3.7198745824667547,45.977508350664905
1590512384.848495,-1.6606788997943902,-3.307963300616829,8.766605501028048,0.5255555555555556,0.12777777777777774,-0.7866666666666666,-1.0,-3.125,38.625
1590512384.858495,-1.6688146409589943,-3.2835560771230163,8.725926795205028,0.5255555555555556,0.12777777777777774,-0.7866666666666666,-1.0,-3.125,38.625
1590512384.868495,-1.6700658145105325,-3.279802556468402,8.729407669405207,0.5255555555555556,0.12777777777777774,-0.7866666666666666,-1.3125,-2.9337979337825435,35.16405358062278
1590512384.878495,-1.6794551274876317,-3.2516346175371047,8.644903852611314,0.5255555555555556,0.12777777777777774,-0.7866666666666666,-1.3125,-2.405649078820711,31.819110832531173
1590512384.888495,-1.6876825402998425,-3.265365080599685,8.716825402998426,0.5255555555555556,0.12777777777777774,-0.7866666666666666,-0.9283729850078752,-1.7027777237637818,25.382936006377975
1590512384.898495,-1.6100724429173507,-3.21,8.739583453225233,0.49,0.09333333333333334,-0.7955555555555556,0.4350097747160678,-0.37590553646688446,19.365944635331157
1590512384.908495,-1.6384693894822362,-3.21,8.576301010477142,0.49,0.09333333333333334,-0.7955555555555556,-0.5411352634518711,-0.7308673685279532,15.816326314720468
1590512384.918495,-1.6777344416818198,-3.2932033250454595,8.796589230712138,0.49,0.09333333333333334,-0.7955555555555556,-2.4975623446023674,-1.510580955208372,9.810373139867146
1590512384.928495,-1.7015427800269904,-3.285638146648673,8.67638146648673,0.49,0.09333333333333334,-0.7955555555555556,-1.0541722896986054,-0.6200033738191633,6.879294871794872
1590512384.938495,-1.7307136850956486,-3.2869045616985493,8.73047298717679,0.49,0.09333333333333334,-0.7955555555555556,-0.8258815955434097,-0.07738595753626235,3.156328831196132
1590512384.948495,-1.7103842981698216,-3.2663074385358573,8.803692561464143,0.4761793391459168,0.0696407718691907,-0.7863417816528334,-0.8889411181368314,0.4072159001649517,-0.39473651912654173
1590512384.958495,-1.6607269209508015,-3.2060903814262023,8.688271144278607,0.4666666666666667,0.05333333333333334,-0.78,-0.9954567440574903,0.6417608139856275,-5.384699765063571
1590512384.968495,-1.754438559861486,-3.3379546264704385,8.692219279930743,0.4666666666666667,0.05333333333333334,-0.78,-1.5520557493507154,1.1145557493507154,-10.595841078066915
1590512384.978495,-1.7306527619589978,-3.333768507972665,8.7196736190205,0.4666666666666667,0.05333333333333334,-0.78,-1.0921728181947608,1.6383537692198178,-13.605715671269932
1590512384.9884949,-1.6565302380600324,-3.226427916605057,8.723316279757505,0.4666666666666667,0.05333333333333334,-0.78,-0.8960465030311991,2.3345057666715956,-17.590261348513973
1590512384.9984949,-1.68,-3.2701843488884528,8.69070052577612,0.46,0.012222222222222223,-0.7511111111111111,-1.4418782861007482,2.3777652333267882,-23.827939219407902
1590512385.0084949,-1.68,-3.3159366887012673,8.864559417064818,0.46,0.012222222222222223,-0.7511111111111111,-2.528496356655104,3.064050330519013,-27.659697678731156
1590512385.0184948,-1.6340217992829815,-3.292413079569789,8.622522075984698,0.46,0.012222222222222223,-0.7511111111111111,-1.4180722311782683,3.7572002598590024,-31.046055797502465
1590512385.0284948,-1.6806384467377995,-3.3575179289837327,8.583120517754066,0.46,0.012222222222222223,-0.7511111111111111,-1.9982289662410355,3.8125,-34.530151303131014
1590512385.0384948,-1.64820150508366,-3.36303358418061,8.76809322712353,0.46,0.012222222222222223,-0.7511111111111111,-1.7331391101593148,3.8995801977423743,-37.432625240172925
1590512385.0484948,-1.5848022408207343,-3.3148022408207343,8.578813444924407,0.4971626019918406,-0.004852486801055914,-0.758141873650108,-0.0370756276997839,4.671963586663066,-41.205862749730024
1590512385.0584948,-1.5734888252339874,-3.3490670485960763,8.797424641108483,0.5011111111111111,-0.006666666666666667,-0.7588888888888888,0.3284742114378976,5.116253580588216,-43.656826641241715
1590512385.0684948,-1.4165190600522195,-3.238444908616188,8.61572950391645,0.5011111111111111,-0.006666666666666667,-0.7588888888888888,1.5337924281984334,6.271755874673629,-47.09644255874674
1590512385.0784948,-1.4832514220705348,-3.3521729237770193,8.41567007963595,0.5011111111111111,-0.006666666666666667,-0.7588888888888888,1.1671786120591583,5.895221843003413,-50.61335324232082
1590512385.0884948,-1.5562075821845176,-3.4337924178154826,8.860398992576883,0.5011111111111111,-0.006666666666666667,-0.7588888888888888,-0.5691112142099681,4.995633947507954,-54.31274854188759
1590512385.0984948,-1.56,-3.473134308392045,8.925842325871756,0.49015636612265523,-0.027206813520021404,-0.7499881585857685,0.7817154196022473,5.419242731650763,-57.073959912601445
1590512385.1084948,-1.4270102538362255,-3.455670084612075,8.72680410153449,0.4833333333333333,-0.04,-0.7444444444444445,1.5154636634160332,6.872423096228309,-60.541882529040585
1590512385.1184947,-1.4426919429281966,-3.5235568715884424,8.711827014267952,0.4833333333333333,-0.04,-0.7444444444444445,1.0288507133975426,5.825133301017935,-64.04203197116904
1590512385.1284947,-1.4157242924467563,-3.471448584893513,8.581466096675337,0.4833333333333333,-0.04,-0.7444444444444445,1.2052789652597151,6.365836895779146,-67.37423385954521
1590512385.1384947,-1.3540312253648408,-3.4949804841469745,8.804863389028823,0.4833333333333333,-0.04,-0.7444444444444445,1.643530446653464,6.631176815551155,-70.26113389028822
1590512385.1484947,-1.4015217391304347,-3.688804347826087,8.963641304347826,0.4883001207729468,-0.04,-0.674909420289855,0.1362092391304348,5.514096467391305,-74.55332880434783
1590512385.1584947,-1.3373279950083194,-3.6292533277870214,8.848879991680533,0.4888888888888889,-0.04,-0.6666666666666666,0.49263337146422626,7.09086678452579,-76.80476679492513
1590512385.1684947,-1.2519573250065053,-3.618505334374187,8.539323965651835,0.4888888888888889,-0.04,-0.6666666666666666,2.219750195160031,6.968416601613323,-79.74844197241738
1590512385.1784947,-1.1629024776960029,-3.62,8.635628653240884,0.4888888888888889,-0.04,-0.6666666666666666,1.5362809712000378,7.678099190666635,-82.86449730222212
1590512385.1884947,-1.097955039883974,-3.62,8.686022480058012,0.4888888888888889,-0.04,-0.6666666666666666,1.578300625453227,8.015800625453227,-85.9147480058013
1590512385.1984947,-1.0543555678249767,-3.659111080437558,8.762577728700093,0.4993185103389044,0.015624647733416153,-0.6492839642499741,1.6386111494530522,7.587222643983575,-90.88138608992719
1590512385.2084947,-1.0131691560287353,-3.697623132978449,8.743169156028735,0.5022222222222222,0.031111111111111114,-0.6444444444444445,1.682548193705101,8.300722905576515,-95.78827717194687
1590512385.2184947,-0.9679235031819559,-3.8262294904541325,8.689508203818347,0.5022222222222222,0.031111111111111114,-0.6444444444444445,1.161543789774449,8.112021894887224,-99.91188471362396
1590512385.2284946,-0.9136565940501288,-3.855792925743734,8.691585851487467,0.5022222222222222,0.031111111111111114,-0.6444444444444445,1.8590272897634106,8.605586788475053,-102.7973471539002
1590512385.2384946,-0.8473319504764374,-3.838221300317625,8.656442600635248,0.5022222222222222,0.031111111111111114,-0.6444444444444445,2.539587654761133,9.374321400790821,-106.92719136902832
1590512385.2484946,-0.7719227674979887,-3.9562188254223654,8.66807723250201,0.4968803074997766,0.09432376866005185,-0.6275283811566997,2.2243563958165726,9.637419549477071,-112.96877514078841
1590512385.2584946,-0.691005072142611,-3.921005072142611,8.861111685625646,0.4955555555555556,0.11,-0.6233333333333333,1.8015862756684888,10.164022873885852,-117.87236697936672
1590512385.2684946,-0.624146255815995,-3.886062681063998,8.514982003335968,0.4955555555555556,0.11,-0.6233333333333333,3.545298920200158,10.948171802300061,-122.0407284259503
1590512385.2784946,-0.5925459877366035,-4.037086110370567,8.524724073580378,0.4955555555555556,0.11,-0.6233333333333333,2.5273177152759265,10.743193481738203,-127.19191548920288
1590512385.2884946,-0.43154713690533864,-3.843927913961825,8.62642883441527,0.4955555555555556,0.11,-0.6233333333333333,3.84301060943707,11.227680215095436,-131.09859630849724
1590512385.2984946,-0.2618115965780589,-3.6698429971483826,8.479685994296766,0.48453636631813557,0.15808373485419602,-0.6233333333333333,5.339070028516176,13.353336310596873,-136.77015388901634
1590512385.3084946,-0.20621964382083108,-3.738804641122504,8.61760928224501,0.4833333333333333,0.16333333333333333,-0.6233333333333333,2.6465022935779814,11.975462088505127,-142.4489172962763
1590512385.3184946,-0.18261921810110268,-3.8629750823428326,8.735594300443935,0.4833333333333333,0.16333333333333333,-0.6233333333333333,2.0327402262637833,12.564724151510813,-147.42406558785623
1590512385.3284945,-0.13621426855632957,-4.01865481623829,8.793785731443672,0.4833333333333333,0.16333333333333333,-0.6233333333333333,3.0490331491712706,12.14017835695412,-149.84129533989912
1590512385.3384945,-0.044259719510030174,-3.969012959346707,8.538597328244276,0.4833333333333333,0.16333333333333333,-0.6233333333333333,3.9897728785726967,12.844805443369431,-151.52564963163502
1590512385.3484945,-0.03896411645226812,-3.800900473933649,8.964461746784023,0.46341834047995184,0.2352004814564056,-0.6181381178063643,3.630627962085308,12.303486797562627,-153.53744922139472
1590512385.3584945,0.07675689223057643,-3.991824561403509,8.725962406015038,0.4577777777777778,0.25555555555555554,-0.6166666666666667,4.675360275689223,13.188345864661654,-153.54138471177944
1590512385.3684945,0.043604385379371724,-3.8707318405243036,8.83246596678601,0.4577777777777778,0.25555555555555554,-0.6166666666666667,2.9666343022432593,12.794546594655824,-152.81504111293162
1590512385.3784945,0.0658976056493435,-3.8917952112986867,8.63256316892861,0.4577777777777778,0.25555555555555554,-0.6166666666666667,4.208340229504579,12.699520026481297,-151.32090988083417
1590512385.3884945,0.10276269233934007,-3.8570424997942894,8.59572019254505,0.4577777777777778,0.25555555555555554,-0.6166666666666667,4.110647833868181,12.852383413560437,-147.90101081008805
1590512385.3984945,0.1636387665198238,-3.771686595342983,8.67298804279421,0.42968128102929865,0.31855982099153907,-0.6328434375218516,3.9310258023914413,12.539757709251102,-142.0834172435494
1590512385.4084945,0.2087295806887941,-3.70972323379461,8.708729580688795,0.4211111111111111,0.3377777777777778,-0.6377777777777778,3.838050150868796,12.168160181042555,-136.54795286650713
1590512385.4184945,0.2353060894557212,-3.628775642177115,8.771020298185737,0.4211111111111111,0.3377777777777778,-0.6377777777777778,3.686224627267828,12.030612313633915,-131.2398037542662
1590512385.4284945,0.2906023239269623,-3.59900165994783,8.825800331989566,0.4211111111111111,0.3377777777777778,-0.6377777777777778,3.2624792506521225,10.36865662793455,-124.08854043158644
1590512385.4384944,0.3752468784914832,-3.693662504655311,8.793168747672345,0.4211111111111111,0.3377777777777778,-0.6377777777777778,2.3861457945390754,9.954817756826156,-116.18137336574082
1590512385.4484944,0.5002505494505495,-3.544457142857143,8.709832967032966,0.416932844932845,0.3912595848595849,-0.6377777777777778,3.3631593406593403,9.403379120879121,-107.09332417582418
1590512385.4584944,0.53,-3.48,8.69,0.4155555555555556,0.4088888888888889,-0.6377777777777778,3.8125,9.0625,-105.1875
1590512385.4684944,0.6772522310944105,-3.596251761390324,8.651249412869893,0.4155555555555556,0.4088888888888889,-0.6377777777777778,2.359352982620949,8.142173555659934,-94.87015617660873
1590512385.4784944,0.6886543997290738,-3.2851983970198115,8.677614720325112,0.4155555555555556,0.4088888888888889,-0.6377777777777778,3.387234012530338,8.306002003725236,-88.77962197324604
1590512385.4884944,0.6999715370018975,-3.1399430740037952,8.625071157495256,0.4155555555555556,0.4088888888888889,-0.6377777777777778,3.407050521821632,8.062974383301707,-84.72085507590133
1590512385.4984944,0.8083109404990403,-3.403608445297505,8.831919385796546,0.4042439752612498,0.4162849221582427,-0.6377777777777778,1.803862763915547,7.097528790786948,-80.7869481765835
1590512385.5084944,0.9279706308919508,-3.705794416243655,9.085327411167512,0.38666666666666666,0.42777777777777776,-0.6377777777777778,0.5488986584481508,6.349632886149384,-77.05958121827412
1590512385.5184944,0.9203667512690356,-3.6525672588832485,8.393374365482233,0.38666666666666666,0.42777777777777776,-0.6377777777777778,0.2637531725888325,6.254584390862944,-73.06754441624365
1590512385.5284944,0.9649902454885384,-3.7750227605267437,8.77006503007641,0.38666666666666666,0.42777777777777776,-0.6377777777777778,2.0000406437977563,5.343607746707852,-65.96954255405625
1590512385.5384943,1.021634919410812,-3.664182540294594,8.49908729852703,0.38666666666666666,0.42777777777777776,-0.6377777777777778,1.8488591231587876,5.757605845608082,-61.79135256805738
1590512385.5484943,1.1035598519652885,-3.787663348647269,8.633423940786116,0.39263286257160684,0.4359812971470705,-0.6474728461233056,1.9580501850433896,4.330501850433895,-57.73725832695253
1590512385.5584943,1.0874375759072852,-3.5734506679841083,8.848399514193376,0.3955555555555556,0.44,-0.6522222222222223,1.7339848494205314,5.142575752897343,-55.30648788571193
1590512385.5684943,1.1162771996215706,-3.497128666035951,8.857161778618732,0.3955555555555556,0.44,-0.6522222222222223,1.5928630558183539,4.562706953642384,-55.14273888363292
1590512385.5784943,1.1766882229711266,-3.5755627409903754,8.698809849105869,0.3955555555555556,0.44,-0.6522222222222223,0.6933217202538179,3.9519727054680147,-56.86254819807511
1590512385.5884943,1.1797100685292568,-3.585144965735372,8.758044280442805,0.3955555555555556,0.44,-0.6522222222222223,0.32156035846072745,4.441124143384291,-58.71468107538218
1590512385.5984943,1.17,-3.4617490711631893,8.706098885395827,0.43317582801435334,0.4354399669746912,-0.6339820901209869,1.041815518719634,5.075503715347242,-60.394505573020865
1590512385.6084943,1.15092722352646,-3.2827816705793804,8.51231805881615,0.4688888888888889,0.4311111111111111,-0.6166666666666667,1.2586927205605634,5.8605121323990605,-61.721024264798125
1590512385.6184943,1.149446308724832,-3.292923657718121,8.469723154362416,0.4688888888888889,0.4311111111111111,-0.6166666666666667,1.3967334312080537,5.762111996644295,-62.98269714765101
1590512385.6284943,1.1371672087283464,-3.258368509676378,8.880560053514174,0.4688888888888889,0.4311111111111111,-0.6166666666666667,0.19044241459645228,4.737926152746061,-63.255631098193895
1590512385.6384943,1.1669196922076515,-3.287974422889347,8.790886962176222,0.4688888888888889,0.4311111111111111,-0.6166666666666667,1.2444564863986127,5.243932209819009,-61.7428836566598
1590512385.6484942,1.1855327315674034,-3.311420617513076,8.821121140543276,0.6044525523498866,0.4193229664623287,-0.536828777909004,1.6281555803948033,5.11927672093808,-59.36577315674034
1590512385.6584942,1.224310694769711,-3.3731903200624513,8.819308665105385,0.75,0.4066666666666667,-0.4511111111111111,0.8286651053864169,5.155716237314598,-54.825411787665885
1590512385.6684942,1.2448285714285714,-3.41595,8.562242857142856,0.75,0.4066666666666667,-0.4511111111111111,1.3146428571428572,4.71125,-48.261473214285715
1590512385.6784942,1.1316116449433926,-3.076387118257064,8.773672343259442,0.75,0.4066666666666667,-0.4511111111111111,0.1548467082104461,2.7557796594044337,-41.07088110075159
1590512385.6884942,1.1884022308399633,-3.111656538599928,8.683195538320074,0.75,0.4066666666666667,-0.4511111111111111,0.37425913524967025,2.70968846199976,-33.59024182425139
1590512385.6984942,1.28006993006993,-3.3050874125874126,8.6593006993007,0.8612762237762238,0.6458275058275058,-0.171536519036519,0.37849650349650354,2.036166958041958,-26.292067307692307
1590512385.7084942,1.24788643374884,-3.33451104813022,8.8297160843721,0.9733333333333334,0.8866666666666667,0.11,-0.662854894534875,0.5492902109302501,-19.36415565197763
1590512385.7184942,1.2678249071477299,-3.34615007958766,8.75435018570454,0.9733333333333334,0.8866666666666667,0.11,-0.3893759948457515,0.4006253316152505,-14.589382627150762
1590512385.7284942,1.3092328891369567,-3.3092328891369567,8.683040884671737,0.9733333333333334,0.8866666666666667,0.11,0.0097611281657713,0.32671108630433265,-10.727061239796274
1590512385.7384942,1.3204492600422835,-3.3681642001409444,8.737753699788582,0.9733333333333334,0.8866666666666667,0.11,-0.19897374911909793,0.9943842494714588,-4.8085304351656095
1590512385.7484941,1.356189887070169,-3.4809494353508437,8.566670790508818,0.7891778750581567,0.8608425679200328,-0.15586121332600206,0.2678019128283213,0.5238132058114452,-1.5057793268620734
1590512385.7584941,1.3004005851434792,-3.388954566330436,8.667230094065216,0.49,0.8188888888888889,-0.5877777777777777,-0.16942476483695929,0.18096603956522478,1.3378725186684584
1590512385.7684941,1.229619293712317,-3.305390869939707,8.742685271317828,0.49,0.8188888888888889,-0.5877777777777777,-0.033692937123169675,-0.37737941429801897,3.745495262704565
1590512385.7784941,1.2511367691288169,-3.303978691950859,8.674715807717796,0.49,0.8188888888888889,-0.5877777777777777,-0.29013100881888154,-0.24289519294489473,8.64342789417342
1590512385.788494,1.23,-3.2816239732278674,8.7187179799209,0.49,0.8188888888888889,-0.5877777777777777,-0.1518874860561809,-0.6976498326741709,12.211361677314674
1590512385.798494,1.2271132881709224,-3.335566440854612,8.772886711829077,0.44188813618203926,0.7505700422673847,-0.612475201204331,-0.3679194893173528,-1.251293642522147,15.503268629494528
1590512385.808494,1.2397042389614754,-3.3459765575767757,8.74387556190396,0.3233333333333333,0.5822222222222222,-0.6733333333333333,-0.7303990043271856,-1.5625,19.956368419947065
1590512385.818494,1.2935040319084368,-3.48051209572531,8.688005375877916,0.3233333333333333,0.5822222222222222,-0.6733333333333333,-0.6187667996184861,-1.646900199427729,25.53823918321339
1590512385.828494,1.313548275264344,-3.558386202114751,8.717096550528689,0.3233333333333333,0.5822222222222222,-0.6733333333333333,-0.7318534408042988,-2.060474085630092,30.713641879008495
1590512385.838494,1.3018324800965488,-3.5918324800965484,8.680039320265509,0.3233333333333333,0.5822222222222222,-0.6733333333333333,-0.6989530006034298,-2.6533867498491426,37.52044848461254
1590512385.848494,1.2552608321717726,-3.5452608321717722,8.702463892760758,0.30729868751874145,0.5547342579686362,-0.6756239970211322,-0.6913498324386844,-2.9967395978528426,43.31929698389632
1590512385.858494,1.2144309372797744,-3.498861874559549,8.725325933756167,0.28444444444444444,0.5155555555555555,-0.6788888888888889,-0.6661601479915433,-3.576726568005638,49.444338002114165
1590512385.868494,1.2058087070331336,-3.510956464834332,8.633234828132535,0.28444444444444444,0.5155555555555555,-0.6788888888888889,-0.5523911620858304,-3.6089132568712543,53.15445253840325
1590512385.878494,1.186126689189189,-3.509478716216216,8.7126625,0.28444444444444444,0.5155555555555555,-0.6788888888888889,-0.625,-3.5867081925675675,55.846482263513515
1590512385.888494,1.131856749878639,-3.411856749878639,8.783448123685256,0.28444444444444444,0.5155555555555555,-0.6788888888888889,-0.3415117168537342,-3.3778179658423926,58.016081253034024
1590512385.898494,1.0948367878315364,-3.374836787831536,8.382398534841641,0.28444444444444444,0.5155555555555555,-0.6788888888888889,0.23692519013224678,-2.490881375130555,58.9415803042116
1590512385.908494,1.1023514066135516,-3.5101981245152647,8.613764365790031,0.2911111111111111,0.5077777777777778,-0.6855555555555556,-1.8114247690897554,-5.061424769089755,58.85658887400409
1590512385.918494,1.0801718606782769,-3.539770852428964,9.175646196150321,0.2911111111111111,0.5077777777777778,-0.6855555555555556,-3.9831719752520627,-7.233171975252063,58.44072238771769
1590512385.928494,1.0722194902548727,-3.5725935032483758,8.583715542228886,0.2911111111111111,0.5077777777777778,-0.6855555555555556,-1.2406496751624188,-4.541615442278861,59.865803348325834
1590512385.938494,1.041434074592891,-3.5742893830619273,8.6642958034203,0.2911111111111111,0.5077777777777778,-0.6855555555555556,-0.5178456779314773,-4.2588425844860796,60.499919745520344
1590512385.948494,0.9841386868121619,-3.5546532829695954,8.65791969781757,0.3008799664241746,0.4970320369334079,-0.6891374691703456,-0.9730154705278866,-4.897650566592054,61.61633207423988
1590512385.958494,0.9590573616166688,-3.557172084850006,8.797049077444457,0.3244444444444444,0.4711111111111111,-0.6977777777777778,-1.5845283670139325,-4.682377306388854,62.86475461277771
1590512385.968494,0.928499576001696,-3.523000847996608,8.681500423998303,0.3244444444444444,0.4711111111111111,-0.6977777777777778,-1.2593776499894,-5.0,63.7156329499682
1590512385.978494,0.9056138601520628,-3.54464851053222,8.673683160912377,0.3244444444444444,0.4711111111111111,-0.6977777777777778,-1.3201732519007852,-5.041120061074411,64.28180699239685
1590512385.988494,0.8734011479341117,-3.49,8.643075637850375,0.3244444444444444,0.4711111111111111,-0.6977777777777778,-1.0420057396705587,-5.083757174588198,65.24923708574124
1590512385.998494,0.8344499075914495,-3.49,8.750574676570073,0.32598613678015287,0.46062760322829366,-0.6959277469749277,-1.0137523102137602,-4.94437615510688,65.64234403877671
1590512386.008494,0.805278490670736,-3.4507426417886293,8.719628679105686,0.33,0.43333333333333335,-0.6911111111111111,-1.0683018889736653,-5.125,65.53415094448684
1590512386.018494,0.566066731166488,-6.977309050022226,5.7819977512224465,0.33,0.43333333333333335,-0.6911111111111111,-0.5547093585754256,-4.929709358575425,65.08206403786313
1590512386.028494,-3.881474990239035,-11.289633421543535,-2.9487562361719664,0.33,0.43333333333333335,-0.6911111111111111,-54.449964209795674,-30.394787644787645,222.26701390395212
1590512386.0384939,-4.599595139317975,-10.366492041074528,-3.443224762409157,0.33,0.43333333333333335,-0.6911111111111111,-115.1687979962927,-69.94753508694501,493.28567080795597
1590512386.0484939,2.558123988583871,-6.263144437579075,7.824012416512195,0.33,0.43333333333333335,-0.6911111111111111,-135.06849126136464,-102.5737763703769,754.3341663724366
1590512386.0584939,3.6166782589596225,-7.006678258959623,-2.033390928725702,0.33,0.4455555555555555,-0.6555555555555556,-106.22938325950874,-101.26970613537358,742.8122140059304
1590512386.0684938,0.010389754189119388,-1.4316055215176795,-1.251037868162693,0.33,0.4455555555555555,-0.6555555555555556,-63.620524839447846,-42.81979405034325,441.12583966929947
1590512386.0784938,0.2251135021650702,0.7847132922188689,2.193843983729169,0.33,0.4455555555555555,-0.6555555555555556,-40.231061786510956,-18.61165283427372,134.26536461750428
1590512386.0884938,-0.2704879821022238,-0.46219075663996023,6.494780771363558,0.33,0.4455555555555555,-0.6555555555555556,11.131473841711767,-10.404741189743199,103.07813306690632
1590512386.0984938,-0.9089306111077946,-0.7684595944520725,7.432011422203649,0.36558385679572475,0.41535609814339436,-0.6569601814817025,86.19335288440492,-16.312102013810122,109.0243878474917
1590512386.1084938,-1.0557649357900614,-0.6169172250139586,6.58696189279732,0.4988888888888889,0.3022222222222222,-0.6622222222222223,149.7830079215522,-13.955563407314349,116.10823649497488
1590512386.1184938,-2.3256192236598894,2.6253512014787432,1.0830314232902032,0.4988888888888889,0.3022222222222222,-0.6622222222222223,183.13326016635858,-14.227241219963032,119.44495147874306
1590512386.1284938,1.297083179297596,0.9690573012939003,-1.1723475046210723,0.4988888888888889,0.3022222222222222,-0.6622222222222223,115.95644639556377,-29.997273567467655,107.50730129390018
1590512386.1384938,-1.0520144776835707,0.8291765317549192,3.7145448728203485,0.4988888888888889,0.3022222222222222,-0.6622222222222223,-0.4631333986562147,-5.88827537593985,93.47149456087025
1590512386.1484938,-2.171044633753248,0.596295431371904,12.090957142387264,0.5038014523420569,0.2830398315955662,-0.6687723068264463,-57.6448602933921,4.691037890997599,89.3651202183995
1590512386.1584938,-1.9117635243960207,-0.713002368545713,8.096689720511606,0.5222222222222223,0.2111111111111111,-0.6933333333333334,-42.67695641875888,8.063035291331124,90.94092728564661
1590512386.1684937,-2.1630369348054677,-0.39500460042060986,9.925122239747633,0.5222222222222223,0.2111111111111111,-0.6933333333333334,11.50471337736593,-14.301270044689801,97.05811933162461
1590512386.1784937,-1.971196802470818,-0.589023027660444,6.60283326520416,0.5222222222222223,0.2111111111111111,-0.6933333333333334,20.249753031748195,-5.4282174001907615,98.35787686787482
1590512386.1884937,-2.7106932839528475,-2.037927525104256,12.575585113590172,0.5222222222222223,0.2111111111111111,-0.6933333333333334,-14.1854318157867,-5.728958719118378,91.55301345166583
1590512386.1984937,-2.3318215076103153,-1.8042899296930281,10.889605708865904,0.5222222222222223,0.2111111111111111,-0.6933333333333334,-23.8545552745284,-8.68889447179441,88.19841959863301
1590512386.2084937,-6.591403981264637,-8.450287470725996,5.710858899297424,0.5288888888888889,0.1688888888888889,-0.7066666666666667,3.5223141100702575,-0.1705906030444968,88.79099092505855
1590512386.2184937,-12.440327493743297,-14.13514265284233,8.859612680252651,0.5288888888888889,0.1688888888888889,-0.7066666666666667,-3.8364870098915507,0.4685258014539393,46.84706381837683
1590512386.2284937,-1.023569407663928,1.4054036803150676,8.32832009234739,0.5288888888888889,0.1688888888888889,-0.7066666666666667,3.774468945926982,-16.475256614834432,-4.30076135669179
1590512386.2384937,-1.5262286155297347,0.4728538352699052,5.764867727136303,0.5288888888888889,0.1688888888888889,-0.7066666666666667,17.59423637610942,4.46427882347897,-8.934462494104531
1590512386.2484937,-1.419267543320634,-1.0851861865552415,8.704784318544919,0.5285535209536684,0.16218153018447967,-0.7066666666666667,-5.2073629716111585,1.3504132358363035,-8.412728892712302
1590512386.2584937,-2.6609193273419907,-5.325658661839917,8.074384905183845,0.5277777777777778,0.14666666666666667,-0.7066666666666667,-12.503379338286363,-1.2289373434638942,-6.957844432050176
1590512386.2684937,-4.311428311799888,-8.733650332088688,8.383234808181609,0.5277777777777778,0.14666666666666667,-0.7066666666666667,2.1911946931897037,0.26546339589597867,-6.872093191355781
1590512386.2784936,-2.5027637709414137,-5.518246703895846,8.362445560585533,0.5277777777777778,0.14666666666666667,-0.7066666666666667,2.9707914780424938,6.458926742226481,-13.585287727588144
1590512386.2884936,0.09358269048585738,-2.0158248748139127,8.55881513059954,0.5277777777777778,0.14666666666666667,-0.7066666666666667,1.375,-3.627770165110299,-40.39462165042631
1590512386.2984936,-1.0913680809311137,-2.9808147245906076,8.118893287318988,0.5277777777777778,0.14666666666666667,-0.7066666666666667,1.375,6.572030636757342,-43.18848013093788
1590512386.3084936,-1.6857092262286668,-4.36877069164635,9.136300269472605,0.5311111111111111,0.13666666666666666,-0.7122222222222222,-0.29720742974464265,3.644134158860516,-47.74120845630694
1590512386.3184936,-1.371343892960795,-4.010013773427124,8.54132323282011,0.5311111111111111,0.13666666666666666,-0.7122222222222222,0.18327881351763498,4.23746556643219,-54.41441260022628
1590512386.3284936,-1.0963663011067872,-3.605450548339819,8.79817826519095,0.5311111111111111,0.13666666666666666,-0.7122222222222222,1.7897893819174204,5.272741151597851,-60.6081960378026
1590512386.3384936,-1.1387608025471267,-3.5418587961793095,8.741652263270497,0.5311111111111111,0.13666666666666666,-0.7122222222222222,2.054755015919543,5.493545846599619,-64.45019773083338
1590512386.3484936,-1.2714466601285823,-3.7496942355889726,8.939082706766918,0.5322793941375177,0.14133979877229305,-0.7110539391958156,1.3891685736079329,5.150121226980494,-69.73252288329519
1590512386.3584936,-1.0712482844856508,-3.5625002287352467,8.377500686205739,0.5377777777777778,0.16333333333333333,-0.7055555555555556,1.6249885632376713,5.70313786635762,-74.7813157613834
1590512386.3684936,-0.9301759284425885,-3.6094722146722344,8.505317881940154,0.5377777777777778,0.16333333333333333,-0.7055555555555556,0.9342013417014652,6.933101788935287,-81.7977811272269
1590512386.3784935,-0.9199961531498914,-3.6966564083997104,8.68665640839971,0.5377777777777778,0.16333333333333333,-0.7055555555555556,1.4999278715604634,7.458325319062274,-87.83257999185373
1590512386.3884935,-0.892691651393541,-3.742115275232257,8.68217868503655,0.5377777777777778,0.16333333333333333,-0.7055555555555556,2.006412079462386,7.582132549663991,-93.24481240388464
1590512386.3984935,-0.7498966037324417,-3.6997932074648836,8.547784339735784,0.5332873794366407,0.16642048219286504,-0.7037313312294687,2.35921344333194,7.875646226672239,-98.15578832839672
1590512386.4084935,-0.6889229706892479,-3.577845941378496,8.715461830604568,0.506187986972999,0.18505131451161866,-0.6927222030411142,2.26394214170195,8.2567314331922,-102.49063255256128
1590512386.4184935,-0.6606718475150306,-3.6293475806663342,8.646640762424846,0.5022222222222222,0.18777777777777774,-0.6911111111111111,1.5916504765155295,8.991723332195647,-109.95070427157447
1590512386.4284935,-0.6253424197945061,-3.7188169427552946,8.53820675193961,0.5022222222222222,0.18777777777777774,-0.6911111111111111,1.683686307401971,9.477817676661774,-115.75599444327952
1590512386.4384935,-0.46151520333823576,-3.7343434688921575,8.642727194992647,0.5022222222222222,0.18777777777777774,-0.6911111111111111,2.2133832985600437,9.883838329856005,-121.04418630502445
1590512386.4484935,-0.41847761398228267,-3.7056517426548554,8.707283579026576,0.5022222222222222,0.18777777777777774,-0.6911111111111111,2.661691521017888,9.928669152101788,-125.70659181858603
1590512386.4584935,-0.3201829744505188,-3.6662561642307265,8.780365948901037,0.4922222222222222,0.2411111111111111,-0.7055555555555556,2.9275158986946335,10.796797947115921,-133.56988870913756
1590512386.4684935,-0.27018627369815384,-3.6492549052073846,8.652566989541077,0.4922222222222222,0.2411111111111111,-0.7055555555555556,2.3238868421778847,11.520445263128845,-138.17352947263845
1590512386.4784935,-0.2139657646753696,-3.890228235497536,8.462296706146796,0.4922222222222222,0.2411111111111111,-0.7055555555555556,2.13792794155788,11.70042794155788,-142.95577721103137
1590512386.4884934,-0.19220921587274142,-4.035271894181724,8.65085346243624,0.4922222222222222,0.2411111111111111,-0.7055555555555556,2.4098848015907324,11.972384801590731,-146.6271948214749
1590512386.4984934,-0.10305311931160019,-3.999737713056429,8.7054203210326,0.489666740213654,0.2467600713405777,-0.7038070678654826,3.0851967152076782,12.435524573887141,-153.70918831706106
1590512386.5084934,0.01841014396822771,-3.782839028628165,8.887615215952342,0.4713508513063783,0.28724782576718705,-0.691275143876294,3.247870728528876,12.869321942743671,-159.2401047699818
1590512386.5184934,-8.483654889071488,-15.267903040262942,6.432057518488086,0.4711111111111111,0.2877777777777778,-0.6911111111111111,1.251879622021364,15.19075595727198,-157.3104149548069
1590512386.5284934,-1.118064704167881,-7.745320606237248,8.581262022733897,0.4711111111111111,0.2877777777777778,-0.6911111111111111,-6.620609880501311,11.179074978140484,-87.71382250072865
1590512386.5384934,2.57,1.28,14.51,0.4711111111111111,0.2877777777777778,-0.6911111111111111,-12.1875,-6.0,36.0625
1590512386.5484934,0.9017007619678648,-0.22977306609242998,8.161404257081331,0.4711111111111111,0.2877777777777778,-0.6911111111111111,19.659275612887196,-11.331386139638894,59.41680211611728
1590512386.5584934,0.19171174420002407,-2.7669948311095083,9.105291501382377,0.4177777777777778,0.3533333333333333,-0.7055555555555556,5.382873542493089,1.596999338862844,10.93554664022118
1590512386.5684934,0.2830264512807311,-4.255208521045179,10.993545179559788,0.4177777777777778,0.3533333333333333,-0.7055555555555556,-19.315265397734585,-0.9833734232204917,-12.235726525292831
1590512386.5784934,-0.8575910599336292,-5.239447443125025,8.389612170644916,0.4177777777777778,0.3533333333333333,-0.7055555555555556,-4.54622216224861,3.854224141377794,-28.622925912598458
1590512386.5884933,-3.962609816999047,-9.782609816999047,8.40593241778099,0.4177777777777778,0.3533333333333333,-0.7055555555555556,6.6277259174688705,3.2398673900187274,-39.93859036698755
1590512386.5984933,-0.6622357656799291,-6.482235765679929,9.088055655945068,0.4177777777777778,0.3533333333333333,-0.7055555555555556,-1.769624552354042,4.8332108124979465,-36.57965017905838
1590512386.6084933,0.9102920806985848,-2.1114216888200628,8.58411881102938,0.4266666666666667,0.3466666666666667,-0.6911111111111111,2.3671495246698497,-2.3677275562438163,10.22818266873145
1590512386.6184933,-0.4789671785606744,-5.232744440142814,9.377981244891814,0.4266666666666667,0.3466666666666667,-0.6911111111111111,4.960734180754505,-0.28158337634963626,3.969750129048909
1590512386.6284933,-0.016278431719621202,-4.106382570728973,8.436278431719622,0.4266666666666667,0.3466666666666667,-0.6911111111111111,-3.8343382157713073,-0.005977667640204146,-4.653466752219961
1590512386.6384933,-0.07195990795645632,-4.094008909343009,8.491959907956456,0.4266666666666667,0.3466666666666667,-0.6911111111111111,-0.7022551774493317,0.18736079151547336,-0.9027006445998174
1590512386.6484933,-0.08022444406136874,-4.39304223409757,8.783715566281675,0.4266666666666667,0.3466666666666667,-0.6911111111111111,-0.29847224616445445,0.0056111015342182324,0.19030555076710912
1590512386.6584933,-0.07117767712161355,-4.241198188189044,8.91351252029741,0.40902202090989376,0.35744950574025014,-0.6969926596967021,0.18375566190923853,0.0,0.1875
1590512386.6684933,-0.11397842301545019,-4.242151038891849,8.611989211507725,0.4066666666666667,0.3588888888888889,-0.6977777777777778,0.46303942461374537,0.0,0.1875
1590512386.6784933,-0.12794452583910496,-4.144388319126265,8.618972262919552,0.4066666666666667,0.3588888888888889,-0.6977777777777778,0.11388685402237614,0.0,0.1875
1590512386.6884933,-0.10772388059701493,-4.24,8.544794776119403,0.4066666666666667,0.3588888888888889,-0.6977777777777778,-0.049790111940298504,0.10366138059701492,0.0
1590512386.6984932,-0.09124980361351138,-4.24,8.651876276512176,0.4066666666666667,0.3588888888888889,-0.6977777777777778,-0.41016054595443835,-0.05078309112333071,0.0
1590512386.7084932,-0.09,-4.2599326339607115,8.669966316980355,0.4265993006273784,0.3533520461220245,-0.6844893551373032,0.1853948112722411,0.18665792450889643,0.06228948112722411
1590512386.7184932,-0.10845387230475481,-4.200773063847623,8.692269361523774,0.4266666666666667,0.3533333333333333,-0.6844444444444444,0.2068265961905649,0.1875,0.05283670190471755
1590512386.7284932,-0.09,-4.2114455651450555,8.598554434854943,0.4266666666666667,0.3533333333333333,-0.6844444444444444,0.40437246542580846,0.18147681189560155,-0.05647681189560154
1590512386.7384932,-0.09,-4.237613600915046,8.572386399084953,0.4266666666666667,0.3533333333333333,-0.6844444444444444,-0.1953116876364771,0.07244332952064053,0.05255667047935947
1590512386.7484932,-0.09615829523240221,-4.227683409535196,8.637741247556423,0.4266666666666667,0.3533333333333333,-0.6844444444444444,-0.3269786904050277,0.024010654797486146,-0.09145738081005542
1590512386.7584932,-0.1,-4.283728364260097,8.602109777015437,0.41250480794220074,0.3533333333333333,-0.6891650640192665,0.1118138936535163,-0.04425580851395603,-0.05473257445813193
1590512386.7684932,-0.11427861005781065,-4.224328339653137,8.662810965375769,0.4066666666666667,0.3533333333333333,-0.6911111111111111,0.3125,0.07136196929197489,-0.044620656430658295
1590512386.7784932,-0.11783144947950665,-4.245662898959013,8.585421376301234,0.4066666666666667,0.3533333333333333,-0.6911111111111111,-0.02371852131789604,-0.12161163981172914,0.059111639811729136
1590512386.7884932,-0.08901157797093483,-4.1880231559418695,8.657471055072662,0.4066666666666667,0.3533333333333333,-0.6911111111111111,-0.3389358659429003,-0.07658059057958566,0.014080590579585668
1590512386.7984931,-0.09739928176962309,-4.2221978453088695,8.671300359115188,0.4066666666666667,0.3533333333333333,-0.6911111111111111,-0.16563622234963937,-0.11687275553007212,-0.10874551106014425
1590512386.8084931,-0.10741425165980417,-4.252242754979412,8.640342993360784,0.40254763796677545,0.3533333333333333,-0.6911111111111111,-0.03232185425244784,-0.07866092712622391,-0.07866092712622391
1590512386.8184931,-0.11,-4.2284372646337465,8.640781367683127,0.4011111111111111,0.3533333333333333,-0.6911111111111111,0.3652329039609123,0.019534192078175392,0.05761645198045615
1590512386.828493,-0.11,-4.212237113999343,8.64888144300033,0.4011111111111111,0.3533333333333333,-0.6911111111111111,0.26398196249589617,0.22203607500820763,0.006990981247948093
1590512386.838493,-0.10256712545126355,-4.1959899593862815,8.685721457581227,0.4011111111111111,0.3533333333333333,-0.6911111111111111,0.030410931859205778,-0.05180364395306859,0.0053481780234657045
1590512386.848493,-0.12622630866425993,-4.251194720216606,8.646289485559567,0.4011111111111111,0.3533333333333333,-0.6911111111111111,-0.2653288583032491,0.04677628610108303,0.054638143050541516
1590512386.858493,-0.09,-4.24,8.63740099111275,0.43333333333333335,0.3388888888888889,-0.6911111111111111,0.012182854158987592,-0.0625,0.0584390486136708
1590512386.868493,-0.09,-4.24,8.603045419175164,0.43333333333333335,0.3388888888888889,-0.6911111111111111,0.17322459761641482,-0.0625,0.004758467461195064
1590512386.878493,-0.1098736079375862,-4.170631960312069,8.610505568249655,0.43333333333333335,0.3388888888888889,-0.6911111111111111,0.5538105457090512,-0.0625,-0.06171004960991375
1590512386.888493,-0.10123963029292493,-4.213801848535375,8.6450414788283,0.43333333333333335,0.3388888888888889,-0.6911111111111111,-0.039775417361411325,-0.0625,-0.007747689330780794
1590512386.898493,-0.1,-4.214074300136921,8.65,0.43333333333333335,0.3388888888888889,-0.6911111111111111,-0.16203562414424522,0.011571248288490404,-0.0740712482884904
1590512386.908493,-0.09387062377821219,-4.246776257330726,8.637741247556425,0.4244797899018621,0.343656181505835,-0.6999646545425824,-0.2258086013861738,0.0625,0.028234405544695224
1590512386.918493,-0.11,-4.24,8.66491029836841,0.4188888888888889,0.3466666666666667,-0.7055555555555556,0.25530177253290653,0.0625,0.06780177253290652
1590512386.928493,-0.11,-4.237178077084401,8.614515076664958,0.4188888888888889,0.3466666666666667,-0.7055555555555556,0.3019177890665051,0.0625,0.1179451927110034
1590512386.938493,-0.11,-4.204598965372606,8.666641655403831,0.4188888888888889,0.3466666666666667,-0.7055555555555556,0.1797461201472713,0.0625,0.03649741343151418
1590512386.948493,-0.1028755655412268,-4.232746606752639,8.668626696623681,0.4188888888888889,0.3466666666666667,-0.7055555555555556,-0.05311086146932997,0.1070277153673325,-0.04452771536733249
1590512386.958493,-0.10674041145456425,-4.243259588545436,8.666740411454564,0.4188888888888889,0.3466666666666667,-0.6958194056767405,-0.125,-0.0013827147730797185,0.10601028636410628
1590512386.968493,-0.09001627644922999,-4.22998372355077,8.65986978840616,0.4188888888888889,0.3466666666666667,-0.6911111111111111,-0.06158444973081257,0.125203455615375,0.0
1590512386.978493,-0.1,-4.219102286506149,8.583590853975403,0.4188888888888889,0.3466666666666667,-0.6911111111111111,0.48877858132686647,0.23597322665858306,0.0
1590512386.988493,-0.1,-4.200938853282522,8.656244586869912,0.4188888888888889,0.3466666666666667,-0.6911111111111111,0.2617356660315261,-0.04783041746059241,0.0
1590512386.998493,-0.1081740649404028,-4.208174064940403,8.676348129880806,0.4188888888888889,0.3466666666666667,-0.6911111111111111,-0.10761534114262228,-0.0625,0.051087905877517464
1590512387.008493,-0.10911528687976461,-4.230294904373412,8.67852547813294,0.44,0.3466666666666667,-0.6911111111111111,-0.24078423833088136,0.12131369533235255,-0.12131369533235255
1590512387.018493,-0.08807927644777318,-4.237306907850742,8.64346546074629,0.44,0.3466666666666667,-0.6911111111111111,-0.02165912966430386,0.03366365186572155,-0.03366365186572155
1590512387.028493,-0.1,-4.219829513897273,8.550681944410906,0.44,0.3466666666666667,-0.6911111111111111,0.18909830721305934,0.18643446185796045,0.0005327690710197774
1590512387.038493,-0.09984302109016088,-4.200470936729517,8.630941873459035,0.44,0.3466666666666667,-0.6911111111111111,0.37107552725402204,0.06151888181350551,0.06348111818649449
1590512387.048493,-0.09240328502758217,-4.222790144917254,8.675580289834507,0.44,0.3466666666666667,-0.6911111111111111,0.18508212568955426,0.015020531422388565,0.10997946857761143
1590512387.058493,-0.09405171306668189,-4.234051713066682,8.681896573866636,0.4314463835258938,0.3466666666666667,-0.6852586366814595,-0.026939240000570797,0.025323206666761796,0.0996767933332382
1590512387.068493,-0.10004891922639364,-4.239951080773607,8.669559726962458,0.4188888888888889,0.3466666666666667,-0.6766666666666666,-0.24877701934015928,0.0625,0.06219425483503982
1590512387.0784929,-0.10800170648464164,-4.231998293515359,8.597984641638226,0.4188888888888889,0.3466666666666667,-0.6766666666666666,-0.04995733788395906,0.0625,0.012489334470989766
1590512387.0884929,-0.10097638066777771,-4.211952761335556,8.65218895465778,0.4188888888888889,0.3466666666666667,-0.6766666666666666,0.16919286247916787,-0.05029524165277857,0.11279524165277857
1590512387.0984929,-0.09217820978510116,-4.21,8.683465370644695,0.4188888888888889,0.3466666666666667,-0.6766666666666666,0.08972762231376448,-0.01361381115688224,0.125
1590512387.1084929,-0.09,-4.229646836638339,8.680176581680831,0.41343143426712825,0.3532156122127793,-0.6974049942293569,0.0011036355051935731,0.18418909348441925,-0.05918909348441925
1590512387.1184928,-0.08103645461043603,-4.238963545389564,8.617255182273052,0.4133333333333333,0.3533333333333333,-0.6977777777777778,-0.1680664760543245,0.13147784131522516,-0.11852215868477484
1590512387.1284928,-0.08875211984171848,-4.257504239683437,8.54873516110797,0.4133333333333333,0.3533333333333333,-0.6977777777777778,-0.023397752967778407,0.07029925098925946,-0.07029925098925946
1590512387.1384928,-0.11193523285047288,-4.2380647671495275,8.591182209984437,0.4133333333333333,0.3533333333333333,-0.6977777777777778,0.09139680354363702,0.0625,-0.01680159822818149
1590512387.1484928,-0.10613654070899883,-4.236931729645501,8.644658648227503,0.4133333333333333,0.3533333333333333,-0.6977777777777778,0.16832331028437864,0.1491466205687573,-0.04332331028437865
1590512387.1584928,-0.10935111706026708,-4.230648882939733,8.706755585301336,0.41852839836681505,0.3335920862061028,-0.7050508688246522,0.07061103674666155,0.1875,-0.0625
1590512387.1684928,-0.11,-4.243399704519509,8.676500738701229,0.4188888888888889,0.3322222222222222,-0.7055555555555556,-0.10499630649385536,0.06187777012960849,0.02124815324692768
1590512387.1784928,-0.08585394922171259,-4.2419513164072375,8.587561847665137,0.4188888888888889,0.3322222222222222,-0.7055555555555556,-0.13719572754523457,-0.10060854490953086,-0.03810854490953086
1590512387.1884928,-0.0866396525720931,-4.226720694855814,8.623117220576745,0.4188888888888889,0.3322222222222222,-0.7055555555555556,-0.0005065142732542383,-0.20799565715116386,0.06199348572674576
1590512387.1984928,-0.10970588235294118,-4.213431372549019,8.669705882352941,0.4188888888888889,0.3322222222222222,-0.7055555555555556,0.1446078431372549,-0.04473039215686275,0.08394607843137256
1590512387.2084928,-0.11337830605236163,-4.229865081842915,8.693243387895276,0.4188888888888889,0.3417868912576999,-0.6959908865200779,0.1875,-0.02027117434547969,0.10388558717273985
1590512387.2184927,-0.11,-4.220830620640315,8.719169379359686,0.4188888888888889,0.3466666666666667,-0.6911111111111111,-0.11202155249508139,-0.12240431049901629,0.06509568950098371
1590512387.2284927,-0.10079101275827029,-4.238417974483459,8.554238229648865,0.4188888888888889,0.3466666666666667,-0.6911111111111111,-0.18255617026081067,-0.00988765947837869,-0.05261234052162131
1590512387.2384927,-0.1,-4.221210284485287,8.615158862058852,0.4188888888888889,0.3466666666666667,-0.6911111111111111,-0.01134641704956496,-0.058717860983478344,-0.003782139016521656
1590512387.2484927,-0.09242446926945372,-4.2275755307305465,8.64272659219164,0.4188888888888889,0.3466666666666667,-0.6911111111111111,0.14204120119774272,0.03219413413182848,0.0
1590512387.2584927,-0.09,-4.2208311176452185,8.695844411773905,0.4321328300680173,0.3395353137240591,-0.6849985228745903,0.13019448528261754,-0.05211102943476492,0.11461102943476492
1590512387.2684927,-0.10788939231802555,-4.237889392318026,8.673165911522961,0.43333333333333335,0.3388888888888889,-0.6844444444444444,-0.0427130529814895,-0.11840435099382983,0.06909564900617017
1590512387.2784927,-0.11,-4.24,8.562885443583118,0.43333333333333335,0.3388888888888889,-0.6844444444444444,-0.2856553258685042,0.04236649440137813,0.006711168532873957
1590512387.2884927,-0.0958764305511039,-4.24,8.564123569448897,0.43333333333333335,0.3388888888888889,-0.6844444444444444,-0.047683072833198226,0.0183638454721997,0.0441361545278003
1590512387.2984927,-0.09582056264629245,-4.234179437353708,8.628205626462925,0.43333333333333335,0.3388888888888889,-0.6844444444444444,0.09887851653932783,0.036378516539327825,-0.01025703307865565
1590512387.3084927,-0.1,-4.23746763570293,8.67746763570293,0.4134196381255205,0.33391046508693567,-0.6894228682463976,0.21834544628662278,0.10917272314331139,0.030845446286622766
1590512387.3184927,-0.1,-4.233147181628393,8.700558455114823,0.4066666666666667,0.3322222222222222,-0.6911111111111111,0.16433977035490605,0.03933977035490606,0.0625
1590512387.3284926,-0.1,-4.221653160453808,8.618184764991897,0.4066666666666667,0.3322222222222222,-0.6911111111111111,-0.18800648298217182,0.0,0.010332252836304706
1590512387.3384926,-0.08812968467304214,-4.231870315326958,8.59406484233652,0.4066666666666667,0.3322222222222222,-0.6911111111111111,-0.13871579380976995,0.03709473539674334,0.03709473539674334
1590512387.3484926,-0.08491894585641838,-4.24,8.604756837569255,0.4066666666666667,0.3322222222222222,-0.6911111111111111,0.02973023480784452,-0.02973023480784452,0.0625
1590512387.3584926,-0.10698842587266158,-4.228674382751559,8.665302468993763,0.4066666666666667,0.34417704042890995,-0.6911111111111111,0.1603925539013783,-0.054214892197243375,0.13328510780275662
1590512387.3684926,-0.12,-4.22810799424218,8.635136046062563,0.4066666666666667,0.3533333333333333,-0.6911111111111111,0.08615007197275568,-0.15202489204086647,-0.015199856054488647
1590512387.3784926,-0.11334825490410161,-4.236651745095899,8.586741274520508,0.4066666666666667,0.3533333333333333,-0.6911111111111111,-0.14536703424682462,-0.06277977945190523,-0.020926593150635074
1590512387.3884926,-0.11,-4.232590482784667,8.599638068861333,0.4066666666666667,0.3533333333333333,-0.6911111111111111,-0.20369051740416694,0.09261896519166614,-0.04630948259583307
1590512387.3984926,-0.09746789093139532,-4.236266054534303,8.622532109068604,0.4066666666666667,0.3533333333333333,-0.6911111111111111,-0.1091743183212208,0.046674318321220806,-0.023337159160610403
1590512387.4084926,-0.09711485870556062,-4.218655423883318,8.665574293527802,0.41140990580370707,0.3485900941962929,-0.6958543502481516,0.026435733819507742,0.0,0.04446786690975387
1590512387.4184926,-0.1,-4.223413482007096,8.686706741003547,0.4133333333333333,0.3466666666666667,-0.6977777777777778,0.10441713127217435,0.0,-0.1051685250886974
1590512387.4284925,-0.10733042386901706,-4.23,8.61669576130983,0.4133333333333333,0.3466666666666667,-0.6977777777777778,-0.10407574590678306,0.0,-0.1416848508186434
1590512387.4384925,-0.0968763719113116,-4.236561814044345,8.616247256177378,0.4133333333333333,0.3466666666666667,-0.6977777777777778,-0.14648866222284873,-0.041011337777151255,-0.04297732444569749
1590512387.4484925,-0.09510038760484814,-4.24,8.650401550419392,0.4133333333333333,0.3466666666666667,-0.6977777777777778,-0.09312257746969915,-0.09437742253030085,0.06375484506060171
1590512387.4584925,-0.1,-4.217814919503502,8.655209946335669,0.42319336910955446,0.3409149791305377,-0.6977777777777778,0.07615675310310924,-0.17121891770103642,-0.059875670804145686
1590512387.4684925,-0.1,-4.221521637067138,8.690325729734981,0.4266666666666667,0.3388888888888889,-0.6977777777777778,0.08899488416519613,-0.0794846524955884,-0.05298976833039226
1590512387.4784925,-0.10647944078947369,-4.2235205592105265,8.622808388157894,0.4266666666666667,0.3388888888888889,-0.6977777777777778,-0.018493009868421048,0.1619860197368421,0.0
1590512387.4884925,-0.09858593629789197,-4.225707031851054,8.59853515925527,0.4266666666666667,0.3388888888888889,-0.6977777777777778,-0.09816894906908755,0.14299315279273733,0.0
1590512387.4984925,-0.09,-4.234808054841475,8.639232219365896,0.4266666666666667,0.3388888888888889,-0.6977777777777778,-0.0648993144815767,0.03244965724078835,-0.030050342759211653
1590512387.5084925,-0.09502091519837749,-4.24,8.675062745595133,0.4166248362699117,0.3427940451542936,-0.6977777777777778,0.0941421599695779,0.06276143997971859,-0.0938807199898593
1590512387.5184925,-0.1,-4.233177007909101,8.669531023727304,0.4066666666666667,0.3466666666666667,-0.6977777777777778,0.14485629943188147,-0.08821850284059263,0.045574802272474096
1590512387.5284925,-0.11155599397746742,-4.212666009033799,8.619554021078864,0.4066666666666667,0.3466666666666667,-0.6977777777777778,0.08888751882041432,-0.11527503764082862,-0.019449924718342754
1590512387.5384924,-0.09949158485273492,-4.220508415147266,8.610508415147265,0.4066666666666667,0.3466666666666667,-0.6977777777777778,-0.022951729780271157,-0.0625,-0.03954827021972884
1590512387.5484924,-0.10114968105622311,-4.23,8.642299362112446,0.4066666666666667,0.3466666666666667,-0.6977777777777778,-0.09734275330069722,0.04202825990209168,0.0
1590512387.5584924,-0.10442787538756829,-4.23,8.671144249224863,0.42152566563315125,0.3503814164082878,-0.6977777777777778,-0.125,0.055348442344603566,0.03482577882769822
1590512387.5684924,-0.10620161941643025,-4.23,8.68,0.43333333333333335,0.3533333333333333,-0.6977777777777778,-0.04747975729462196,0.03876012135268902,0.02373987864731098
1590512387.5784924,-0.09691740576496674,-4.223458702882484,8.614587028824834,0.43333333333333335,0.3533333333333333,-0.6977777777777778,0.0,-0.019266213968957877,0.04088310698447894
1590512387.5884924,-0.10417663050015638,-4.234176630500157,8.608353261000312,0.43333333333333335,0.3533333333333333,-0.6977777777777778,0.044301970312988666,-0.195405910938966,-0.02610394062597733
1590512387.5984924,-0.0978999229552735,-4.233949961477637,8.63815011556709,0.43333333333333335,0.3533333333333333,-0.6977777777777778,-0.08875096305908114,-0.023123555411378283,-0.024687259235229714
1590512387.6084924,-0.09,-4.234614863060139,8.663844589180416,0.42666742002424446,0.3533333333333333,-0.6916246270309265,-0.129814211748269,0.038471317622403495,0.057685788251731006
1590512387.6184924,-0.09637970885203358,-4.24,8.667240582295932,0.4188888888888889,0.3533333333333333,-0.6844444444444444,0.017246360650419693,-0.002690229512185227,0.025317049186975388
1590512387.6284924,-0.10338742232952072,-4.230081133494282,8.620162266988563,0.4188888888888889,0.3533333333333333,-0.6844444444444444,0.14617138955950448,0.08367138955950448,-0.10484277911900898
1590512387.6384923,-0.0941591199880361,-4.21,8.588318239976072,0.4188888888888889,0.3533333333333333,-0.6844444444444444,0.11448899985045113,-0.02599449992522557,0.03650550007477443
1590512387.6484923,-0.09763031191124137,-4.217109064266276,8.614218128532551,0.4188888888888889,0.3533333333333333,-0.6844444444444444,0.11344724722629265,-0.04768944944525853,0.014810550554741468
1590512387.6584923,-0.10198244985673352,-4.228017550143266,8.6779736747851,0.4235487304998408,0.34467934177013687,-0.6924327443489334,-0.05010968839541548,0.0,-0.04983546740687679
1590512387.6684923,-0.11,-4.231481727574751,8.684259136212624,0.4266666666666667,0.3388888888888889,-0.6977777777777778,0.035880398671096346,0.10764119601328904,-0.125
1590512387.6784923,-0.10556688061070005,-4.2267006418321005,8.6268025673284,0.4266666666666667,0.3388888888888889,-0.6977777777777778,0.09020699618312472,0.07667201526750113,-0.09729300381687528
1590512387.6884923,-0.1,-4.204456734808177,8.604346121534585,0.4266666666666667,0.3388888888888889,-0.6977777777777778,0.021063777653318405,-0.02785459255110613,-0.0625
1590512387.6984923,-0.09452577725304998,-4.216422668240851,8.65642266824085,0.4266666666666667,0.3388888888888889,-0.6977777777777778,-0.02828610783156238,0.0,-0.09671389216843762
1590512387.7084923,-0.10229350191729712,-4.223853249041351,8.67,0.4218858603654956,0.3477675291624923,-0.6936799438053455,0.0,0.0,-0.04816561301689294
1590512387.7184923,-0.1046844949329282,-4.235946515201215,8.675315505067072,0.4188888888888889,0.3533333333333333,-0.6911111111111111,-0.03322190666919876,0.0,0.06644381333839752
1590512387.7284923,-0.09459900069295014,-4.244599000692951,8.631391006236552,0.4188888888888889,0.3533333333333333,-0.6911111111111111,0.005012491338123204,-0.0337562456690616,0.057487508661876796
1590512387.7384923,-0.09,-4.226326216669774,8.631021349990677,0.4188888888888889,0.3533333333333333,-0.6911111111111111,0.10523057290695506,-0.10523057290695506,-0.08546114581391012
1590512387.7484922,-0.10570840638553104,-4.225236135461844,8.655236135461845,0.4188888888888889,0.3533333333333333,-0.6911111111111111,0.125,-0.059548306726953965,-0.157725846636523
1590512387.7584922,-0.09889848246991104,-4.23,8.675826138147567,0.4124412029769173,0.34219642130356415,-0.6946280306994593,0.026086636577708003,-0.032971121140764,-0.121557757718472
1590512387.7684922,-0.09336817540959697,-4.23,8.669947736885604,0.4066666666666667,0.3322222222222222,-0.6977777777777778,-0.0625,-0.020724451845009477,0.021051096309981046
1590512387.7784922,-0.1,-4.2239366283180155,8.605429654862139,0.4066666666666667,0.3322222222222222,-0.6977777777777778,0.013292146024808785,0.0,-0.013292146024808785
1590512387.7884922,-0.11180288461538462,-4.214098557692307,8.575901442307693,0.4066666666666667,0.3322222222222222,-0.6977777777777778,0.13626802884615385,-0.03688401442307692,0.04815204326923078
1590512387.7984922,-0.11511825001431598,-4.219763499971368,8.62881749985684,0.4066666666666667,0.3322222222222222,-0.6977777777777778,0.06545625035789956,-0.0625,0.03346718776842467
1590512387.8084922,-0.11,-4.23,8.675303448918138,0.41240689576671946,0.3390061293404664,-0.6878628366049594,-0.0331465557383665,0.02556033278490051,-0.0918534442616335
1590512387.8184922,-0.10016711824852165,-4.239832881751479,8.679832881751478,0.4188888888888889,0.3466666666666667,-0.6766666666666666,-0.09218326642010956,-0.09009428831358898,-0.03281673357989044
1590512387.8284922,-0.09364217467366438,-4.246357825326336,8.646293903916026,0.4188888888888889,0.3466666666666667,-0.6766666666666666,-0.11920922486879289,-0.26697281657919525,-0.005790775131207113
1590512387.8384922,-0.10479137299126022,-4.23520862700874,8.58916549196504,0.4188888888888889,0.3466666666666667,-0.6766666666666666,0.05989216239075275,-0.1875,-0.09505391880462363
1590512387.8484921,-0.11997612751579256,-4.239976127515793,8.639928382547378,0.4188888888888889,0.3466666666666667,-0.6766666666666666,0.09382460151314823,-0.15632460151314823,-0.0625
1590512387.8584921,-0.10973510391811045,-4.239867551959056,8.675066224020473,0.41607431998862643,0.3466666666666667,-0.6873620284876639,0.15749170038385724,-0.125,-0.030836099872047586
1590512387.8684921,-0.09425045689800808,-4.23,8.650246801713942,0.4133333333333333,0.3466666666666667,-0.6977777777777778,0.14373857754979805,-0.125,-0.02656535561255049
1590512387.878492,-0.10185768469656993,-4.23,8.60442694591029,0.4133333333333333,0.3466666666666667,-0.6977777777777778,0.0,-0.136610529353562,-0.027668411939313985
1590512387.888492,-0.10134995030499094,-4.23,8.592975074542514,0.4133333333333333,0.3466666666666667,-0.6977777777777778,0.0,-0.10640578410929004,0.04390578410929004
1590512387.898492,-0.10258205367217779,-4.2331455134180445,8.622582053672177,0.4133333333333333,0.3466666666666667,-0.6977777777777778,0.0,-0.019659458862777805,-0.0625
1590512387.908492,-0.11951284676271567,-4.229512846762716,8.663982870983046,0.41799429032768187,0.34394777508663,-0.6931168207834292,0.0,-0.04065176408899099,-0.04065176408899099
1590512387.918492,-0.09495748730964466,-4.2251275380710664,8.679914974619289,0.4266666666666667,0.3388888888888889,-0.6844444444444444,-0.06303140862944162,0.0,-0.03151570431472081
1590512387.928492,-0.08391415951714729,-4.2339141595171474,8.609141595171472,0.4266666666666667,0.3388888888888889,-0.6844444444444444,0.027146012071317893,-0.07607300603565895,0.013573006035658947
1590512387.938492,-0.09205493314058548,-4.23,8.588082399710878,0.4266666666666667,0.3388888888888889,-0.6844444444444444,0.04965666787134081,-0.08732833393567041,-0.05051499819298881
1590512387.948492,-0.10481391126744583,-4.23,8.638511290139567,0.4266666666666667,0.3388888888888889,-0.6844444444444444,0.0902608362646091,-0.032413054578463635,-0.06482610915692727
1590512387.958492,-0.09572458543619322,-4.2252415284787315,8.689516943042538,0.4229656332612353,0.34576223664183287,-0.6844444444444444,0.12801910598413843,0.08922134102379237,0.0
1590512387.968492,-0.09037939241215176,-4.225189696206076,8.7,0.4188888888888889,0.3533333333333333,-0.6844444444444444,-0.03480680386392272,0.09019319613607728,0.0
1590512387.978492,-0.09661527110371183,-4.23,8.652613795451966,0.4188888888888889,0.3533333333333333,-0.6844444444444444,-0.0826908887963979,0.06346366680540316,0.021154555601801052
1590512387.988492,-0.09,-4.23,8.580373088015186,0.4188888888888889,0.3533333333333333,-0.6844444444444444,-0.03183295002372869,0.1875,0.03066704997627131
1590512387.998492,-0.0837444421841853,-4.23,8.646255557815815,0.4188888888888889,0.3533333333333333,-0.6844444444444444,-0.02725690912789515,0.1288541454767371,-0.0038541454767370906
1590512388.008492,-0.07155560721862196,-4.23,8.658444392781378,0.4188888888888889,0.3533333333333333,-0.6844444444444444,0.16319363720903202,0.014583817674580807,0.1104161823254192
1590512388.018492,-0.10196335225675904,-4.221963352256759,8.666073295486482,0.4188888888888889,0.3466666666666667,-0.6844444444444444,0.07477095160474397,0.0625,0.22545809679051207
1590512388.028492,-0.10982182002135911,-4.2298218200213595,8.650356359957282,0.4188888888888889,0.3466666666666667,-0.6844444444444444,0.12388637513349446,0.0625,0.12722724973301108
1590512388.038492,-0.09278495251692734,-4.23,8.56113981006771,0.4188888888888889,0.3466666666666667,-0.6844444444444444,-0.055376187076816574,0.11471785969238757,0.0625
1590512388.048492,-0.10202934158614661,-4.232029341586147,8.604205391103026,0.4188888888888889,0.3466666666666667,-0.6844444444444444,0.086949845259751,0.19926646034633466,0.049816615086583665
