time,acc_x,acc_y,acc_z,mag_x,mag_y,mag_z,gyr_x,gyr_y,gyr_z
1590513577.176285,-0.24,-4.36,8.76,0.4533333333333333,0.2344444444444445,-0.5966666666666667,-0.5,1.1875,0.1875
1590513577.186285,-0.2784657006603082,-4.379232850330154,8.740767149669846,0.4533333333333333,0.22696500264938452,-0.6020091250917095,-0.5,1.7284239155355832,-0.11301328640865738
1590513577.196285,-0.2770210322905873,-4.340531548435881,8.616489483854705,0.4533333333333333,0.22666666666666666,-0.6022222222222222,-0.6808556445514885,1.3430927409191475,0.12167782227574425
1590513577.206285,-0.29,-4.36,8.653685095159288,0.4533333333333333,0.22666666666666666,-0.6022222222222222,-0.4071631283616053,0.5734575403392635,0.12134748655357881
1590513577.216285,-0.2860475541529192,-4.36,8.727667120929565,0.4533333333333333,0.22666666666666666,-0.6022222222222222,-0.25148606727872613,-0.08423065198680246,0.1758916403672357
1590513577.226285,-0.2714799709674075,-4.362840009677531,8.789880067742716,0.45112443691747595,0.22666666666666666,-0.6003288824372016,-0.0980001209691356,-0.5532501814537034,0.0625
1590513577.236285,-0.2450942916570372,-4.374905708342963,8.825282874971112,0.4455555555555555,0.22666666666666666,-0.5955555555555555,-0.21816067714351745,-0.6568393228564825,0.0625
1590513577.246285,-0.2353066037735849,-4.36122641509434,8.76306603773585,0.4455555555555555,0.22666666666666666,-0.5955555555555555,-0.19133254716981132,-0.5076650943396226,-0.02550117924528303
1590513577.256285,-0.24371285499341735,-4.344570951664473,8.769422371638143,0.4455555555555555,0.22666666666666666,-0.5955555555555555,-0.23927379161181117,-0.08931552097047207,-0.01072620838818883
1590513577.266285,-0.2700472603226494,-4.360047260322649,8.880189041290597,0.4455555555555555,0.22666666666666666,-0.5955555555555555,-0.4796589616942648,0.4383861310496766,0.16686358467770593
1590513577.276285,-0.28798816128024746,-4.378658774186832,8.954635096747328,0.4451829928296754,0.22621959139561054,-0.5950339677393234,-0.6623520160030936,0.8041173386676979,0.23742600800154676
1590513577.286285,-0.2692739116855303,-4.366182607790353,8.904730431161415,0.44171739105287594,0.22206086926345117,-0.5901821252518041,-0.4284238960691286,0.7261412986897096,0.12046194803456431
1590513577.296285,-0.2753045281381106,-4.365101509379371,8.757563774895116,0.44,0.22,-0.5877777777777777,-0.3443844336210638,0.6875,0.0625
1590513577.306285,-0.27536375735974195,-4.37,8.630242504906494,0.44,0.22,-0.5877777777777777,-0.43598434433440864,0.5045469669967741,0.0625
1590513577.316285,-0.2563743428366843,-4.359123028510053,8.609123028510052,0.44,0.22,-0.5877777777777777,-0.34137749910493886,0.1991982136463849,0.08516035727072302
1590513577.326285,-0.25301012648837123,-4.3490303794651135,8.632141770837197,0.44401350198449496,0.21799324900775252,-0.5834298172945749,-0.10012658110464037,-0.03762658110464038,0.06856012834303943
1590513577.3362849,-0.24604177577246908,-4.356041775772469,8.711389034363291,0.4533333333333333,0.21333333333333332,-0.5733333333333334,-0.15842036619264394,0.04947780284413647,0.024738901422068235
1590513577.3462849,-0.23726346330762155,-4.3472634633076215,8.69,0.4533333333333333,0.21333333333333332,-0.5733333333333334,-0.21579329134526926,0.29539664567263463,0.03420670865473073
1590513577.3562849,-0.25372532402791625,-4.378626620139581,8.727253240279161,0.4533333333333333,0.21333333333333332,-0.5733333333333334,-0.6311160269192423,0.537982926221336,-0.10171672482552344
1590513577.3662848,-0.2734866251668838,-4.404605349933247,8.841249175634157,0.4533333333333333,0.21333333333333332,-0.5733333333333334,-1.0962165629172096,0.8125,-0.028783437082790457
1590513577.3762848,-0.30721967540092326,-4.39111212983963,8.96943476652351,0.4533333333333333,0.21333333333333332,-0.5733333333333334,-1.1805491885023083,0.8125,0.055549188502308236
1590513577.3862848,-0.28618456599193454,-4.378092282995968,8.950461414979838,0.46,0.22666666666666666,-0.6022222222222222,-0.47903738107356797,0.30346061234877253,-0.0625
1590513577.3962848,-0.2695653421316884,-4.370217328934156,8.90695739492182,0.46,0.22666666666666666,-0.6022222222222222,-0.12771661167694737,0.0,-0.05842508248457897
1590513577.4062848,-0.25714982204670667,-4.38,8.719951245673053,0.46,0.22666666666666666,-0.6022222222222222,-0.20531361220808347,0.11171596947979133,0.14734319389595826
1590513577.4162848,-0.27,-4.38,8.649436338695597,0.46,0.22666666666666666,-0.6022222222222222,-0.1423538738353553,0.4166232430121319,0.13543837849393406
1590513577.4262848,-0.27085202477951725,-4.38021300619488,8.701065030974396,0.45985799587008047,0.22666666666666666,-0.6016068709925709,-0.18616871128200432,0.6861687112820043,0.0
1590513577.4362848,-0.2964512191400409,-4.38661280478501,8.733064023925051,0.45559146347665985,0.22666666666666666,-0.583118563954415,-0.1461699700936861,0.6461699700936862,0.0
1590513577.4462848,-0.30094228828332875,-4.385471144141664,8.722826864849987,0.4533333333333333,0.22666666666666666,-0.5733333333333334,-0.125,0.540083952656207,0.05661069822919534
1590513577.4562848,-0.2855284492560186,-4.375528449256018,8.703414652231944,0.4533333333333333,0.22666666666666666,-0.5733333333333334,-0.09705280785011616,0.21392246280092936,0.09705280785011616
1590513577.4662848,-0.28,-4.3667500622561635,8.72974981323151,0.4533333333333333,0.22666666666666666,-0.5733333333333334,0.018748443595916,-0.143748443595916,0.001563667303063003
1590513577.4762847,-0.2795846004529279,-4.361246198641217,8.754153995470721,0.45301024479672164,0.22698975520327833,-0.5739333549013265,0.17711501132319638,-0.32807748301520545,-0.11980750566159819
1590513577.4862847,-0.27,-4.385069650148107,8.85,0.4455555555555555,0.2344444444444445,-0.5877777777777777,-0.0008706268513329618,-0.7337220298615003,0.04622202986150028
1590513577.4962847,-0.26527119623544954,-4.37,8.841724593412037,0.4455555555555555,0.2344444444444445,-0.5877777777777777,0.1875,-0.8232787088252291,0.15794497647155947
1590513577.5062847,-0.24144852788121285,-4.372289705576242,8.786869116728727,0.4455555555555555,0.2344444444444445,-0.5877777777777777,0.1445680204454518,-0.2800827416333233,-0.0625
1590513577.5162847,-0.2782589520534089,-4.378258952053409,8.81,0.4455555555555555,0.2344444444444445,-0.5877777777777777,-0.02176309933238924,0.32617084766336235,-0.05161845033380538
1590513577.5262847,-0.2708955223880597,-4.37,8.81,0.44530679933665,0.23409618573797686,-0.588424543946932,-0.125,0.6847014925373134,0.0
1590513577.5362847,-0.2841613221111129,-4.37,8.81,0.44,0.22666666666666666,-0.6022222222222222,-0.08850826319445566,0.5520165263889113,0.036491736805544336
1590513577.5462847,-0.2706096832038255,-4.37,8.81,0.44,0.22666666666666666,-0.6022222222222222,-0.0038105200239091502,0.3826210400478183,0.12118947997609085
1590513577.5562847,-0.26137770778921493,-4.37,8.652874097403595,0.44,0.22666666666666666,-0.6022222222222222,0.38435243508987554,-0.08120487017975112,-0.08907378245506223
1590513577.5662847,-0.24,-4.36886016589688,8.66,0.44,0.22666666666666666,-0.6022222222222222,0.5340041474220002,-0.4375,0.0
1590513577.5762846,-0.24,-4.36,8.672216736453972,0.44180988688206985,0.22847655354873653,-0.6041829330111312,0.295532310480595,-0.47143537903881005,0.008483844759702519
1590513577.5862846,-0.2505209535266246,-4.36,8.760520953526624,0.4533333333333333,0.24,-0.6166666666666667,0.1875,-0.6217440404585962,0.0625
1590513577.5962846,-0.2769058495821727,-4.377264623955432,8.773094150417826,0.4533333333333333,0.24,-0.6166666666666667,0.1443384401114206,-0.4784192200557103,0.040919220055710304
1590513577.6062846,-0.28697422928709054,-4.397896917148362,8.781180394990367,0.4533333333333333,0.24,-0.6166666666666667,0.08141106695568401,-0.399677866088632,0.01891106695568401
1590513577.6162846,-0.28,-4.37,8.84687432708372,0.4533333333333333,0.24,-0.6166666666666667,0.1701990904028216,-0.2823672730647856,0.032367273064785596
1590513577.6262846,-0.2793259070655634,-4.369662953532782,8.898651814131126,0.4533333333333333,0.23955060471037554,-0.6156929768724804,0.3103934595798854,-0.18328691915977086,-0.06039345957988542
1590513577.6362846,-0.26228798324805913,-4.36,8.850848067007764,0.4533333333333333,0.22666666666666666,-0.5877777777777777,0.25,-0.03390020939926118,0.0
1590513577.6462846,-0.2691274824985729,-4.36,8.806912237478594,0.4533333333333333,0.22666666666666666,-0.5877777777777777,0.23909353123216057,0.05704676561608028,-0.0054532343839197184
1590513577.6562846,-0.26,-4.362140649006868,8.676421947020604,0.4533333333333333,0.22666666666666666,-0.5877777777777777,0.125,0.05351622517169249,-0.03574188741415375
1590513577.6662846,-0.26,-4.369904851816886,8.699714555450658,0.4533333333333333,0.22666666666666666,-0.5877777777777777,0.125,0.24762129542215064,0.06131064771107532
1590513577.6762846,-0.2788863056163385,-4.37,8.7,0.4533333333333333,0.22666666666666666,-0.5877777777777777,0.06598029494894238,0.42705911515317285,0.003480294948942378
1590513577.6862845,-0.2718214406132988,-4.363642881226598,8.693642881226598,0.44,0.2344444444444445,-0.6022222222222222,-0.07388400383311743,0.30669597700129547,0.1988840038331174
1590513577.6962845,-0.27926460932370323,-4.378529218647406,8.708529218647406,0.44,0.2344444444444445,-0.6022222222222222,-0.1204038082731451,0.0275771503611294,0.24540380827314512
1590513577.7062845,-0.27,-4.363084413983532,8.733928553818846,0.44,0.2344444444444445,-0.6022222222222222,0.0625,-0.1396103495882846,0.04322241260292885
1590513577.7162845,-0.27,-4.367504266748109,8.819982933007564,0.44,0.2344444444444445,-0.6022222222222222,0.09369666564863555,-0.3748933312972711,-0.031196665648635543
1590513577.7262845,-0.270036865569273,-4.3599631344307275,8.85,0.4401187890565463,0.23441577122389887,-0.6021976451760402,0.18819122942386832,-0.5625,-0.12407836076817558
1590513577.7362845,-0.2790267061042524,-4.3509732938957475,8.85,0.46908605300259104,0.22742367303002592,-0.5962044181527206,0.3567507394547325,-0.5625,0.10066765260631
1590513577.7462845,-0.26779378198921017,-4.37,8.77455647392447,0.4722222222222222,0.22666666666666666,-0.5955555555555555,0.3262888625674367,-0.6185556871628164,-0.13878886256743672
1590513577.7562845,-0.26054122285240006,-4.37,8.7237885599668,0.4722222222222222,0.22666666666666666,-0.5955555555555555,0.37161735717249966,-0.39191321413750174,-0.18411735717249966
1590513577.7662845,-0.1956998905116262,-4.372150054744187,8.77,0.4722222222222222,0.22666666666666666,-0.5955555555555555,0.2009378421511682,0.04906215784883181,-0.05375136860467274
1590513577.7762845,-0.18013287063670272,-4.379933564681648,8.77,0.4722222222222222,0.22666666666666666,-0.5955555555555555,0.24958477926030398,0.0004152207396960275,-0.2483391170412159
1590513577.7862844,-0.1423185728867934,-4.300725708452826,8.770725708452826,0.4455555555555555,0.22666666666666666,-0.6088888888888889,0.3224554027122928,-0.09148216108491712,-1.622232416273757
1590513577.7962844,-0.16219532337604115,-4.265121870649583,8.725365611948751,0.4455555555555555,0.22666666666666666,-0.6088888888888889,0.5320116915598971,-0.14176753733984568,-3.794219402562469
1590513577.8062844,-0.2,-4.25730445690673,8.68973927587564,0.4455555555555555,0.22666666666666666,-0.6088888888888889,0.3614119072215663,0.04565285566706021,-6.960339494785518
1590513577.8162844,-0.20145263294591262,-4.287263164729564,8.725810531783651,0.4455555555555555,0.22666666666666666,-0.6088888888888889,0.13407895591195376,0.22381582364781508,-10.104079280566197
1590513577.8262844,-0.20689942211544704,-4.314497110577236,8.747597688461788,0.4455555555555555,0.22666666666666666,-0.6088888888888889,0.16812138822154404,0.35998555288617623,-11.431734140640218
1590513577.8362844,-0.21,-4.367305389221557,8.774922155688623,0.4654517631403859,0.23246972721224224,-0.6039148369926813,-0.09229041916167668,0.857185628742515,-12.7937125748503
1590513577.8462844,-0.26727543652619157,-4.401478288697322,8.787159429565774,0.4722222222222222,0.2344444444444445,-0.6022222222222222,-0.4112321739304358,1.0894928695721744,-12.55253565213913
1590513577.8562844,-0.3487380456646787,-4.41,8.750841302890214,0.4722222222222222,0.2344444444444445,-0.6022222222222222,-0.6835563927021209,1.6144837138723225,-10.47825060874475
1590513577.8662844,-0.3721553217711254,-4.395229785485916,8.78692553628521,0.4722222222222222,0.2344444444444445,-0.6022222222222222,-0.7336569203565113,1.5326861592869774,-8.314281663600479
1590513577.8762844,-0.34351695339903127,-4.2896716218473365,8.88208685485218,0.4722222222222222,0.2344444444444445,-0.6022222222222222,-0.5789857190579589,0.6449285952897945,-3.4581572573910133
1590513577.8862844,-0.34,-4.227994443709485,8.863997221854742,0.4442933123625014,0.22770298344382217,-0.6147420783662351,-0.5625,-0.03339699916214667,-2.304085637429995
1590513577.8962843,-0.35886282391022106,-4.129765415191989,8.836353886922652,0.44,0.22666666666666666,-0.6166666666666667,-0.5980367528055917,-0.2600396606612482,-2.1093191438276984
1590513577.9062843,-0.3514032404360894,-4.062629163924805,8.746838885233073,0.44,0.22666666666666666,-0.6166666666666667,-0.8311487363722055,-1.145865198214381,-1.596472779981148
1590513577.9162843,-0.4480273648981199,-3.842798503789743,8.686880598484102,0.44,0.22666666666666666,-0.6166666666666667,-2.1536691603504283,-1.2909981297371789,-0.15998129737178854
1590513577.9262843,-0.5058285264297667,-3.718938871936214,8.736424451225515,0.44,0.22666666666666666,-0.6166666666666667,-2.36010188010631,-1.1361735899202676,1.3882641007973227
1590513577.9362843,-0.45,-3.55,8.75,0.46,0.24,-0.5955555555555555,-2.6875,-0.4375,4.1875
1590513577.9462843,-0.44459542048641637,-3.4473129892419103,8.77702289756792,0.46,0.24,-0.5955555555555555,-2.7888358658796935,0.7447517685964251,5.60620212231571
1590513577.9562843,-0.37904123383506466,-3.2283350116599534,8.80872164511342,0.46,0.24,-0.5955555555555555,-2.692493573775705,-0.4265141376934492,8.21945887216451
1590513577.9662843,-0.3217836284416427,-2.5189181422082134,8.76299712617039,0.46,0.24,-0.5955555555555555,-2.9832784833595993,0.1440970612774636,10.516356493927876
1590513577.9762843,-0.3373367942894225,-2.596683971447112,9.050730694354316,0.46,0.24,-0.5955555555555555,-2.8374675535366647,-0.7793721609344582,13.383971447112264
1590513577.9862843,-0.23291727344012547,-2.9312481796796237,8.84689537358575,0.4405304133527501,0.24,-0.5814941874214307,-0.3179592108211047,-1.9718217906351518,18.985766494903103
1590513577.9962842,-0.19792772846377282,-3.102433629217363,8.855855456927545,0.44,0.24,-0.5811111111111111,-1.4420169710141983,-2.515210182608519,26.469718013040563
1590513578.0062842,-0.19070439217771762,-3.1183023520027073,8.835069254755977,0.44,0.24,-0.5811111111111111,-1.941902451110735,-2.8125,31.802037757741303
1590513578.0162842,-0.20332500810280071,-2.702660006482241,8.789285046996243,0.44,0.24,-0.5811111111111111,-2.0665001620560144,-2.808343739871499,38.00690763760462
1590513578.0262842,-0.2433080398848449,-2.7346464319078763,9.021186631332101,0.44,0.24,-0.5811111111111111,-2.866160797696898,-2.758364950143944,44.854001830279685
1590513578.0362842,-0.2803818859447593,-2.7805728289171388,8.958854342165724,0.4533333333333333,0.24,-0.5811111111111111,-1.0648867871547454,-4.2535801807321185,56.27700451830296
1590513578.0462842,-0.3205458682135538,-2.8481880232033068,8.837816527145785,0.4533333333333333,0.24,-0.5811111111111111,-1.332970058008267,-4.665940116016534,66.01284127618187
1590513578.0562842,-0.3278304213414846,-2.9574563201222692,8.808678314634061,0.4533333333333333,0.24,-0.5811111111111111,-1.6061408003056723,-5.212281600611345,72.02259760672479
1590513578.0662842,-0.3331314664091599,-3.00156573320458,8.732609555340966,0.4533333333333333,0.24,-0.5811111111111111,-1.5587149951717478,-6.2560008277003725,81.71750413850187
1590513578.0762842,-0.37170506276727827,-3.020852531383639,8.764754218972731,0.4533333333333333,0.24,-0.5811111111111111,-2.2819699268864673,-7.099798248034212,85.93649124017105
1590513578.0862842,-0.41770332523661946,-3.03,8.946219951419717,0.46564592232738644,0.22153111650892035,-0.6006060436850286,-2.1055626518133845,-7.5,93.76674135187201
1590513578.0962842,-0.42,-3.038592695726679,8.813924172646459,0.4666666666666667,0.22,-0.6022222222222222,-1.9013869551247724,-7.8759304380421975,99.2982087394238
1590513578.1062841,-0.46062425835873333,-3.1018727750762003,8.849375741641266,0.4666666666666667,0.22,-0.6022222222222222,-2.7929919262895835,-8.26170484422625,105.60894855627167
1590513578.1162841,-0.4708228417266187,-3.1321942446043165,8.841919964028778,0.4666666666666667,0.22,-0.6022222222222222,-2.5,-8.452928282374101,111.14056879496403
1590513578.1262841,-0.49177757793764987,-3.1880735411670664,8.890814348521182,0.4666666666666667,0.22,-0.6022222222222222,-2.5,-8.845829586330936,114.72033623101518
1590513578.136284,-0.5187783222193567,-3.1912216777806433,8.91938916110968,0.47188286728315465,0.18870279630107212,-0.6022222222222222,-2.61736451387098,-9.293411284677449,120.99562732564566
1590513578.146284,-0.602024609375,-3.24,8.9227908203125,0.4722222222222222,0.18666666666666668,-0.6022222222222222,-2.9003076171875,-9.731788330078125,126.03624877929687
1590513578.156284,-0.61840859375,-3.24,8.783526953125,0.4722222222222222,0.18666666666666668,-0.6022222222222222,-3.105107421875,-10.09018798828125,129.36424560546874
1590513578.166284,-0.6737263766397391,-3.2809315941599344,8.770465797079966,0.4722222222222222,0.18666666666666668,-0.6022222222222222,-3.0595887682502036,-10.556677536500407,132.67312680649226
1590513578.176284,-0.7358963907211147,-3.2964740976802784,8.778237048840138,0.4722222222222222,0.18666666666666668,-0.6022222222222222,-3.011018444749129,-10.459536889498258,134.51879909953308
1590513578.186284,-0.7899322722654928,-3.359898408398239,8.789983068066372,0.49884373706588403,0.14673439440117395,-0.6310621966361891,-3.1871825262444973,-11.248624280392821,135.81101845580764
1590513578.196284,-0.8658273934786052,-3.3505215758151743,8.714172606521396,0.4988888888888889,0.14666666666666667,-0.6311111111111111,-2.4766181861380763,-10.598358337293236,135.93098030231033
1590513578.206284,-0.8839244374967067,-3.3360755625032934,8.682151125006587,0.4988888888888889,0.14666666666666667,-0.6311111111111111,-2.4375,-10.518986132822791,135.02370878927863
1590513578.216284,-0.9679907447692124,-3.3592465292884546,8.903972234307638,0.4988888888888889,0.14666666666666667,-0.6311111111111111,-3.2295935015623147,-11.231163232211367,132.73616165012064
1590513578.226284,-0.9997818344364177,-3.348087266225433,8.898087266225433,0.4988888888888889,0.14666666666666667,-0.6311111111111111,-2.9521816556358234,-10.840499776499257,131.42177203645224
1590513578.236284,-1.0502931241146345,-3.345048854019106,8.92534197813374,0.5050597104677959,0.11749551011183354,-0.6271842246518066,-2.7815553376194107,-10.499389324761179,129.61583987141768
1590513578.246284,-1.0619138878241983,-3.3319138878241983,8.923827775648396,0.5111111111111111,0.08888888888888889,-0.6233333333333333,-2.737141199267493,-10.362141199267493,127.36872098718112
1590513578.256284,-1.0986121546038903,-3.3686121546038903,8.812498121712999,0.5111111111111111,0.08888888888888889,-0.6233333333333333,-2.505204420235412,-9.64408287419651,124.79857458886384
1590513578.266284,-1.159889370500009,-3.325082972124993,8.824972342625003,0.5111111111111111,0.08888888888888889,-0.6233333333333333,-2.3128457171874715,-9.484634287890604,123.39313144960917
1590513578.276284,-1.2165413142485362,-3.273458685751464,8.851924788549121,0.5111111111111111,0.08888888888888889,-0.6233333333333333,-2.2956766428106703,-9.34614671437866,121.43017078724789
1590513578.286284,-1.2609841892388773,-3.190285574212526,8.85225395269028,0.5016437199547875,0.054462011956802996,-0.6302187087197505,-2.1188488172570166,-9.215674408628509,118.50277301139846
1590513578.296284,-1.27,-3.121684862791384,8.898315137208616,0.4988888888888889,0.04444444444444445,-0.6322222222222222,-2.0625,-8.643954706403068,114.1888647093538
1590513578.306284,-1.3610612948738048,-3.0301516135534006,8.812425816854411,0.4988888888888889,0.04444444444444445,-0.6322222222222222,-2.7528427541262626,-9.923286229368687,109.04161254562963
1590513578.316284,-1.4268129800909233,-3.0395447114415606,8.962715383064968,0.4988888888888889,0.04444444444444445,-0.6322222222222222,-2.928963339529259,-9.042683302353705,103.87540870714173
1590513578.326284,-1.459318102514187,-3.0106818974858127,8.830739013057611,0.4988888888888889,0.04444444444444445,-0.6322222222222222,-1.8838806908964023,-7.99219022607482,99.45633229876402
1590513578.336284,-1.4911265835025627,-2.9883101247461563,8.863943042258969,0.5288888888888889,-0.021111111111111112,-0.6377777777777778,-2.169897132772459,-7.596835412435935,91.23508666956774
1590513578.346284,-1.5132762698502085,-2.960819067462552,8.927133263881068,0.5288888888888889,-0.021111111111111112,-0.6377777777777778,-1.8442849701542967,-7.076367869410969,85.52475644779818
1590513578.356284,-1.5605146976010813,-2.97262867440027,8.885799639599053,0.5288888888888889,-0.021111111111111112,-0.6377777777777778,-1.4014247099898638,-6.375172457483951,82.27711453992566
1590513578.366284,-1.6252495248033991,-2.933000633595468,8.918749208005666,0.5288888888888889,-0.021111111111111112,-0.6377777777777778,-0.2804801349185644,-4.8359523498937795,77.20238483470612
1590513578.376284,-1.6604687632448927,-2.8371874205306433,8.954765618377554,0.5288888888888889,-0.021111111111111112,-0.6377777777777778,-0.5708018987878275,-5.043946554208697,71.88915614139188
1590513578.3862839,-1.7108811112049311,-2.791680317487123,9.13688507979397,0.5262932627806393,-0.0438228395582951,-0.6514048148460881,-2.7620377015958795,-6.41201289791438,65.5324057460103
1590513578.3962839,-1.74,-2.8,9.083573583703455,0.5244444444444445,-0.06,-0.6611111111111111,-1.757943535540938,-5.096217274788703,60.61941188321058
1590513578.4062839,-1.7853333333333334,-2.815111111111111,8.748444444444445,0.5244444444444445,-0.06,-0.6611111111111111,-0.2013888888888889,-3.4333333333333336,55.50555555555555
1590513578.4162838,-1.851717245805446,-2.813535344274319,8.822222425964977,0.5244444444444445,-0.06,-0.6611111111111111,-0.9330819657100944,-3.856061474282571,50.77903525259008
1590513578.4262838,-1.88,-2.797365574912892,8.906317212543554,0.5244444444444445,-0.06,-0.6611111111111111,-1.2565522648083625,-3.832156794425087,45.37751567944251
1590513578.4362838,-1.88,-2.77147582205029,8.866776918117344,0.5271887671036607,-0.07234945196647324,-0.6741466437423884,-0.8787637008381689,-3.200487588652482,40.01749274661509
1590513578.4462838,-1.960188552676904,-2.779924578929238,8.86003771053538,0.5288888888888889,-0.08,-0.6822222222222222,-0.8738215457693493,-2.373114473230959,31.85402351469442
1590513578.4562838,-1.9982100186739669,-2.764715992530413,8.867642003734792,0.5288888888888889,-0.08,-0.6822222222222222,-0.636187383287706,-1.9928998132603295,27.624135422521167
1590513578.4662838,-1.990961873745847,-2.7124046843646172,8.87,0.5288888888888889,-0.08,-0.6822222222222222,-0.3245234218230863,-1.5775292772788578,21.43398014737327
1590513578.4762838,-2.043627365632097,-2.7329831566994702,8.938949470098411,0.5288888888888889,-0.08,-0.6822222222222222,-0.40826315291445875,-1.2752105412566237,17.740026495079483
1590513578.4862838,-2.109347789824854,-2.74,8.96,0.5245024186822352,-0.07780676489667315,-0.7381497173570568,-0.37581526271893245,-0.8790763135946622,12.863046288573813
1590513578.4962838,-2.1186999853436905,-2.7573999706873806,8.925200058625238,0.5244444444444445,-0.07777777777777778,-0.7388888888888889,-0.2118752748058039,-0.7118752748058039,9.441255679319948
1590513578.5062838,-2.12,-2.76,8.823165140100809,0.5244444444444445,-0.07777777777777778,-0.7388888888888889,-0.06645642512600942,-0.2033257005040377,5.366714541217278
1590513578.5162838,-2.12,-2.7416270896228543,8.829186455188573,0.5244444444444445,-0.07777777777777778,-0.7388888888888889,0.10974603478574327,0.3292381043572298,2.0347406839994595
1590513578.5262837,-2.0937282908173755,-2.7242369744904256,8.803728290817375,0.5244444444444445,-0.07777777777777778,-0.7388888888888889,0.2891981823914027,0.7033963647828054,-0.31889709813167366
1590513578.5362837,-2.0636852091418714,-2.7289443725743854,8.821046140577835,0.5174280101576351,-0.0711121652053088,-0.7388888888888889,0.18096162138852956,0.7829290642518327,-3.5491267787839584
1590513578.5462837,-2.033438661119756,-2.7782806694401216,8.984526024961097,0.5022222222222222,-0.05666666666666665,-0.7388888888888889,-0.375,0.9853043920099082,-10.485072168058688
1590513578.5562837,-1.9948340328853633,-2.765933613154145,8.831203357849743,0.5022222222222222,-0.05666666666666665,-0.7388888888888889,0.2843618833994378,1.8283193422927337,-14.565351958103893
1590513578.5662837,-1.9747087562566055,-2.797038706203761,8.802329949947156,0.5022222222222222,-0.05666666666666665,-0.7388888888888889,0.36407835962270924,2.0588594532075697,-18.97996515245179
1590513578.5762837,-1.9915336720608534,-2.8515336720608535,8.899217598167347,0.5022222222222222,-0.05666666666666665,-0.7388888888888889,-0.08167090076066846,2.1682318129754177,-24.883904446532938
1590513578.5862837,-1.994427245194877,-2.8596181634632516,8.91366357212138,0.48203531784521114,-0.060127278845582846,-0.7573454871764419,0.10926210930540986,2.8315918268374274,-30.771994200201902
1590513578.5962837,-1.9869915220663972,-2.9129236985975755,8.914957610331987,0.4633333333333333,-0.06333333333333334,-0.7744444444444445,0.3689089612550511,3.530985064574915,-37.882413239838364
1590513578.6062837,-1.9765658916244597,-2.973585270938851,8.849395349746759,0.4633333333333333,-0.06333333333333334,-0.7744444444444445,0.564389532041379,4.254723830103448,-44.01160363337701
1590513578.6162837,-1.9274983948906836,-2.9474983948906837,8.741997431825094,0.4633333333333333,-0.06333333333333334,-0.7744444444444445,0.900008025546582,5.253151083026391,-51.65020866421113
1590513578.6262836,-1.8623699441703232,-2.946403339536631,8.8964868279524,0.4633333333333333,-0.06333333333333334,-0.7744444444444445,0.3371869184408667,5.01481215106452,-57.02729593143364
1590513578.6362836,-1.83,-2.9717016632016633,8.903193347193346,0.444042966042966,-0.08825005775005774,-0.7639954954954955,0.22605899168399168,5.671524168399168,-63.88554443866944
1590513578.6462836,-1.799097072138681,-2.9645485360693407,8.846822804104011,0.43666666666666665,-0.09777777777777777,-0.76,0.7953582478331096,7.0140023204495305,-69.9565100552813
1590513578.6562836,-1.7817115948421245,-3.0097304309472537,8.781981163894871,0.43666666666666665,-0.09777777777777777,-0.76,0.7820924032898322,7.3125,-76.17124056248865
1590513578.6662836,-1.7076970911917522,-3.02,8.690466800310928,0.43666666666666665,-0.09777777777777777,-0.76,0.75,8.080718406087632,-81.16415998445363
1590513578.6762836,-1.6480786261772573,-3.007231450470903,8.628078626177256,0.43666666666666665,-0.09777777777777777,-0.76,0.8298034345568568,8.335098282721571,-86.31855627233698
1590513578.6862836,-1.5804802740775419,-2.994497808230838,8.791572328382346,0.4446142769999007,-0.1051140334699938,-0.7447161339745499,-0.46615924373324247,8.071779110099161,-91.64192636293996
1590513578.6962836,-1.5089682687646817,-3.028789664044148,8.784841343823409,0.4511111111111111,-0.1111111111111111,-0.7322222222222222,-0.6412454789514895,9.329612401655544,-97.85205684402848
1590513578.7062836,-1.4746340659857862,-3.0991871793664987,8.723089377323857,0.4511111111111111,-0.1111111111111111,-0.7322222222222222,0.41768543794418034,10.806913917258907,-102.732735797995
1590513578.7162836,-1.4553186986471907,-3.132021952029214,8.800747157440451,0.4511111111111111,-0.1111111111111111,-0.7322222222222222,0.42486279981741226,10.724725599634825,-106.92430907129223
1590513578.7262836,-1.4632746912173555,-3.179824073652067,8.86318672804339,0.4511111111111111,-0.1111111111111111,-0.7322222222222222,0.7483506904881272,10.666483410054237,-111.04985529374231
1590513578.7362835,-1.429634757432909,-3.2353195872462046,8.844680412753796,0.47690001608453036,-0.10158042883832571,-0.7428741612329823,1.3159241490664786,10.8451767287777,-114.58133281986564
1590513578.7462835,-1.3846441868633648,-3.3021348788198104,8.831423252546541,0.5022222222222222,-0.09222222222222222,-0.7533333333333333,1.6875,10.899578503688092,-118.86774675096594
1590513578.7562835,-1.3649001086537451,-3.3551664855770915,8.799667028845816,0.5022222222222222,-0.09222222222222222,-0.7533333333333333,1.8447905348568223,11.001248641828187,-122.69998641828187
1590513578.7662835,-1.3162481389578164,-3.3848216944345975,8.73071322226161,0.5022222222222222,-0.09222222222222222,-0.7533333333333333,2.241084721729883,11.247771180432471,-126.28022864232541
1590513578.7762835,-1.237097533632287,-3.4206446188340807,8.795804932735425,0.5022222222222222,-0.09222222222222222,-0.7533333333333333,2.423388452914798,11.197582679372196,-130.27012331838566
1590513578.7862835,-1.1779068860133948,-3.4801163924832563,8.825930164510046,0.4826097636748525,-0.12877271315141137,-0.7417441532826149,2.776163924832564,11.375727453020353,-133.88154707718317
1590513578.7962835,-1.121460233136515,-3.471797587426193,8.801797587426194,0.4777777777777778,-0.13777777777777778,-0.7388888888888889,2.875,11.58918677144839,-136.0681327930702
1590513578.8062835,-1.0419235289796518,-3.535548740174833,8.769395798134136,0.4777777777777778,-0.13777777777777778,-0.7388888888888889,2.6603728972305882,11.6875,-139.14249476603246
1590513578.8162835,-0.9880578125298717,-3.5763884374940256,8.77277687498805,0.4777777777777778,-0.13777777777777778,-0.7388888888888889,2.802066406025962,11.887138671688302,-141.57975390483108
1590513578.8262835,-0.9407291058231962,-3.5858541788353606,8.797562536506081,0.4777777777777778,-0.13777777777777778,-0.7388888888888889,2.9740886177210046,12.182943088605024,-143.53515853163015
1590513578.8362834,-0.8918514448961653,-3.6040742775519172,8.76074002856829,0.4676130217680597,-0.07209781586883006,-0.6677355968208621,3.1319463520492254,12.048607295901549,-145.54399928579278
1590513578.8462834,-0.8177746710936915,-3.6566689966797314,8.716665501660135,0.4633333333333333,-0.04444444444444445,-0.6377777777777778,3.0416593853758394,12.326408305664428,-147.08338430236913
1590513578.8562834,-0.7433078836750451,-3.613307883675045,8.72417302908124,0.4633333333333333,-0.04444444444444445,-0.6377777777777778,3.3100350111520975,12.614662863515484,-147.64074429527324
1590513578.8662834,-0.6649335462155864,-3.5655260205402604,8.70552602054026,0.4633333333333333,-0.04444444444444445,-0.6377777777777778,3.4375,13.031665336152585,-147.82648118581167
1590513578.8762834,-0.7410363121297966,-3.7535665722379603,9.714001545197013,0.4633333333333333,-0.04444444444444445,-0.6377777777777778,3.1676200746845224,12.016263198557816,-148.29909702549574
1590513578.8862834,-0.37688856173590224,-3.282306215195545,7.933238174486334,0.46622074292176063,0.056614891150511715,-0.612753561344741,8.143198329386161,6.539913108877936,-148.77905571913206
1590513578.8962834,-0.3867431463003231,-3.412555124270937,7.698137663340582,0.4666666666666667,0.07222222222222223,-0.6088888888888889,9.41714466437702,8.2586877883228,-147.37356600686894
1590513578.9062834,-0.45359179589794896,-3.523591795897949,9.44008004002001,0.4666666666666667,0.07222222222222223,-0.6088888888888889,-3.287998165749542,20.942335751208937,-144.03138027347006
1590513578.9162834,-0.3626351033834586,-3.525684680451128,8.934774436090226,0.4666666666666667,0.07222222222222223,-0.6088888888888889,1.045751585996241,11.390592692669173,-143.96641359257518
1590513578.9262834,-0.28058893437211146,-3.539705532813944,8.814994057837053,0.4666666666666667,0.07222222222222223,-0.6088888888888889,2.5937871385184206,10.820989590210836,-142.15812755843126
1590513578.9362833,-0.2753663585736362,-3.557683179286818,8.920851386418638,0.44788556174333355,0.14649295532813042,-0.6088888888888889,2.0282185759687437,11.37264556666764,-139.70346349534944
1590513578.9462833,-0.2507195865929807,-3.5502398621976603,8.743837795162564,0.44222222222222224,0.1688888888888889,-0.6088888888888889,3.0720124883370414,11.2685073207493,-137.7264776071198
1590513578.9562833,-0.22,-3.565997137584272,8.613087266016347,0.44222222222222224,0.1688888888888889,-0.6088888888888889,3.6750357801966027,11.605704587397838,-135.36825825769273
1590513578.9662833,-0.1901820505259019,-3.6755582424063697,8.766856777745012,0.44222222222222224,0.1688888888888889,-0.6088888888888889,3.1308402142927356,10.964123169173302,-131.28800132704217
1590513578.9762833,-0.14188733290897518,-3.6816056651814133,8.817830999363464,0.44222222222222224,0.1688888888888889,-0.6088888888888889,3.330810391470401,10.89859166136219,-127.03785407383832
1590513578.9862833,-0.09506006521366055,-3.649982838510383,8.700171614896172,0.4322393837118395,0.21492086646454245,-0.6022336632153004,2.999356444139351,10.375643555860648,-121.91059400205938
1590513578.9962833,-0.054139061367289694,-3.7420531408579443,8.846159422573832,0.4222222222222222,0.2611111111111111,-0.5955555555555555,3.4116308664544395,9.743583934818924,-116.1148528855549
1590513579.0062833,-0.021922387245156515,-3.7943844774490314,8.845918800919971,0.4222222222222222,0.2611111111111111,-0.5955555555555555,3.5778880637742176,9.176432824620901,-110.54847751724944
1590513579.0162833,0.005525941921918509,-3.745792464624652,8.721051883843838,0.4222222222222222,0.2611111111111111,-0.5955555555555555,3.514814314940047,8.805925725976019,-104.6498977098369
1590513579.0262833,0.015511213026465267,-3.732044852105861,8.779600917238188,0.4222222222222222,0.2611111111111111,-0.5955555555555555,3.4783352442462236,8.439994267261328,-98.4929918584592
1590513579.0362833,0.06650117669815274,-3.7566430252425933,8.83992907572778,0.4200078804746912,0.29654057907160847,-0.5999842390506177,3.1888298301041296,7.772310922337922,-91.4525714078468
1590513579.0462832,0.10888740240809888,-3.7285209959865018,8.8437041991973,0.4188888888888889,0.3144444444444445,-0.6022222222222222,2.645861204848146,7.326407469898764,-85.18088072322837
1590513579.0562832,0.14256390469759814,-3.664872190604804,8.72153950033761,0.4188888888888889,0.3144444444444445,-0.6022222222222222,2.2964755956400116,6.834938989100029,-78.80131667792033
1590513579.0662832,0.17457378383879504,-3.64943171178506,8.712584775086507,0.4188888888888889,0.3144444444444445,-0.6022222222222222,2.157137950335844,6.258879503358437,-72.4101745369428
1590513579.0762832,0.19301649305555557,-3.6730164930555556,8.803016493055557,0.4188888888888889,0.3144444444444445,-0.6022222222222222,1.9741753472222223,5.767822265625,-66.74460177951389
1590513579.0862832,0.20467422991816234,-3.6811685574795407,8.81116855747954,0.42018728608837846,0.32002755240224956,-0.6030012605419159,1.625,5.309268641775842,-60.972599311580204
1590513579.0962832,0.26052162228194475,-3.7139418926622687,8.823420270380325,0.43,0.3622222222222222,-0.6088888888888889,1.5394932404918968,4.620109791106768,-52.16668066414203
1590513579.1062832,0.30351763201169374,-3.7494471039649184,8.706882879590719,0.43,0.3622222222222222,-0.6088888888888889,1.5948520007308606,4.14007399963457,-44.953172391741276
1590513579.1162832,0.3017551479229472,-3.73,8.636652189464003,0.43,0.3622222222222222,-0.6088888888888889,1.587757396147361,3.551022558888151,-37.618127586735476
1590513579.1262832,0.3019337335858991,-3.746707227020259,8.84329277297974,0.43,0.3622222222222222,-0.6088888888888889,0.9552484990528782,2.9254141650881307,-31.986942964009376
1590513579.1362832,0.3587485858855956,-3.7812514141144042,8.804998868708475,0.4179175779848384,0.3734713737535796,-0.6063890774374762,0.9296786617849724,2.4062712117160663,-24.031440905444597
1590513579.1462831,0.3624425972610207,-3.7578735436397084,8.826063228180146,0.3977777777777778,0.3922222222222223,-0.6022222222222222,1.0019758806295564,1.6422421135109355,-17.179783845472507
1590513579.1562831,0.3446006031707218,-3.7749201206341443,8.765878673024412,0.3977777777777778,0.3922222222222223,-0.6022222222222222,0.9047522618902066,0.9414939682927823,-9.896170833842769
1590513579.1662831,0.3652748076762852,-3.7421984614102812,8.761977115560864,0.3977777777777778,0.3922222222222223,-0.6022222222222222,0.4684158635820813,0.5398377398839115,-3.845514413863971
1590513579.1762831,0.37330511913734127,-3.7088700794248943,8.762344483738188,0.3977777777777778,0.3922222222222223,-0.6022222222222222,-0.125,0.15324801437764507,1.4604578526291379
1590513579.186283,0.3763828464885022,-3.7472343070229956,8.767163869898488,0.42047303363027416,0.4134044610178855,-0.6087786294684989,-0.15336906981562046,-0.3235834887093433,6.582025585249637
1590513579.196283,0.3646639533015584,-3.770672093396883,8.836680233492208,0.4477777777777778,0.4388888888888889,-0.6166666666666667,-0.21664970813474,-0.67909883253896,11.58617723450972
1590513579.206283,0.3542470588235294,-3.7324323529411765,8.798185294117648,0.4477777777777778,0.4388888888888889,-0.6166666666666667,-0.34845588235294117,-0.9601838235294118,15.984319852941177
1590513579.216283,0.32528641373335215,-3.7135679313332393,8.747004896133465,0.4477777777777778,0.4388888888888889,-0.6166666666666667,-0.4410801716669017,-1.3347995708327456,21.07733321915738
1590513579.226283,0.32,-3.7362424039427724,8.781394325087325,0.4477777777777778,0.4388888888888889,-0.6166666666666667,-0.4689399014306905,-1.5939399014306905,25.21402339824872
1590513579.236283,0.31332786126194384,-3.7333360693690283,8.853295028833607,0.5378516507415358,0.46594811821544996,-0.6255628516507415,-0.4998973986614471,-1.9376539020078294,29.105278181167655
1590513579.246283,0.29300965592275263,-3.7376698853075845,8.797281835078653,0.7177777777777777,0.52,-0.6433333333333333,-0.3665057346207897,-2.3416264336551973,32.72998266013872
1590513579.256283,0.27632042734042966,-3.7078785043084963,8.825193589893555,0.7177777777777777,0.52,-0.6433333333333333,-0.7895026708776856,-2.65476468982727,36.85607478457519
1590513579.266283,0.273626237208522,-3.700934406978695,8.677308169770173,0.7177777777777777,0.52,-0.6433333333333333,-0.9005840043616843,-3.1761680087233684,40.657120239892635
1590513579.276283,0.23342241308569708,-3.7507902294920537,8.763683908203179,0.7177777777777777,0.52,-0.6433333333333333,-0.9720366394047977,-3.2615122131349326,43.412769427500756
1590513579.286283,0.1547723301913246,-3.712613834904338,8.79045533961735,0.9045217603876822,0.5368447138279541,-0.7261047719706937,-1.0923270636957787,-3.4595282133689955,47.71954336619141
1590513579.296283,0.12864683548969738,-3.72,8.82,1.4322222222222225,0.5844444444444444,-0.96,-1.1773931954734786,-3.875,52.21390624424048
1590513579.306283,0.09087652469911253,-3.710876524699113,8.783506098796451,1.4322222222222225,0.5844444444444444,-0.96,-1.4539348381083599,-4.21713032378328,58.40151000932042
1590513579.316283,0.06772213641167385,-3.683629515215565,8.776833590764978,1.4322222222222225,0.5844444444444444,-0.96,-1.403473294854077,-4.829631059805436,64.06923048261659
1590513579.326283,0.05,-3.667427086021902,8.811432284945246,1.4322222222222225,0.5844444444444444,-0.96,-1.4857421370893404,-5.357096438184433,69.79957758747834
1590513579.336283,0.05,-3.6656494694474935,8.78,1.24502752368175,0.5047192747082978,-0.8837827377322437,-1.339690815953165,-5.803814489571899,74.86386754482254
1590513579.346283,0.039802007174969345,-3.6096040143499386,8.795296989237546,0.78,0.30666666666666664,-0.6944444444444444,-1.4668938172653376,-6.192449820625766,80.66583602016257
1590513579.356283,0.04010422870756403,-3.59,8.764530970815963,0.78,0.30666666666666664,-0.6944444444444444,-1.4065757147111375,-6.4690757147111375,84.39258859440143
1590513579.366283,0.06042718032553842,-3.6317087213021537,8.766922311464924,0.78,0.30666666666666664,-0.6944444444444444,-1.4049150614826924,-6.695509631103845,87.333312602175
1590513579.376283,0.06596177421152347,-3.678076451576953,8.826152903153906,0.78,0.30666666666666664,-0.6944444444444444,-1.375,-6.950716733533935,89.15621169062744
1590513579.386283,0.05789210019267823,-3.6878921001926783,8.847892100192677,0.7214472275743953,0.31533247698565614,-0.692570755726825,-1.4672206165703277,-7.0888487475915225,90.28309248554913
1590513579.396283,0.04845646558273819,-3.6877176720863094,8.824564655827382,0.5022222222222222,0.3477777777777778,-0.6855555555555556,-1.7642645494605682,-7.158558729676341,90.875
1590513579.406283,0.04,-3.747939257878685,8.790827897322941,0.5022222222222222,0.3477777777777778,-0.6855555555555556,-1.64949381565571,-7.018686726956964,90.48257873390376
1590513579.416283,0.04513191489361702,-3.774604255319149,8.879208510638298,0.5022222222222222,0.3477777777777778,-0.6855555555555556,-1.839627659574468,-6.998351063829787,89.15622340425531
1590513579.426283,0.06947021276595745,-3.701589361702128,8.733178723404256,0.5022222222222222,0.3477777777777778,-0.6855555555555556,-1.07905585106383,-6.6941223404255314,87.2294414893617
1590513579.4362829,0.08481442997694581,-3.749260317563399,8.8785206351268,0.4972840788965736,0.3366669552950684,-0.688847651105988,-1.7060245316102218,-6.305557359483067,82.1759668149495
1590513579.4462829,0.10538757311735591,-3.6846124268826443,8.772286988178509,0.4888888888888889,0.31777777777777777,-0.6944444444444444,-1.0818786558677957,-5.812740315785168,77.28026956272754
1590513579.4562829,0.09612301192842942,-3.6589840954274355,8.740214214711731,0.4888888888888889,0.31777777777777777,-0.6944444444444444,-1.0063494035785288,-5.375,72.19168892892644
1590513579.4662828,0.08552995272661518,-3.6368202836403087,8.737281134561236,0.4888888888888889,0.31777777777777777,-0.6944444444444444,-1.0889976363307587,-4.983870863578828,65.17684249954793
1590513579.4762828,0.07221959120271268,-3.6427685692094944,8.83887836481085,0.4888888888888889,0.31777777777777777,-0.6944444444444444,-0.8125,-4.32980355755934,58.408719146034215
1590513579.4862828,0.04697405565264148,-3.593487027826321,8.796512972173678,0.49286903855058173,0.3043900016429927,-0.7013192484055503,-0.6903817717435139,-3.7775574674015324,51.266929358784786
1590513579.4962828,0.027973103485977733,-3.5919596552289668,8.8458789656869,0.5011111111111111,0.2766666666666667,-0.7155555555555555,-0.5869956903620824,-2.9632564644568764,42.98559050239627
1590513579.5062828,0.037120548650911196,-3.607120548650911,8.816495910876425,0.5011111111111111,0.2766666666666667,-0.7155555555555555,-0.6325342906819499,-2.4270377197501447,35.71248349861549
1590513579.5162828,0.013554099448430307,-3.5958885248621075,8.692229502757849,0.5011111111111111,0.2766666666666667,-0.7155555555555555,-0.11040984116451706,-1.6034426450462407,25.557295338614026
1590513579.5262828,-0.015862874951305023,-3.5841371250486946,8.807068562524348,0.5011111111111111,0.2766666666666667,-0.7155555555555555,-0.036642968445656406,-0.9234636735488897,17.16016994546163
1590513579.5362828,-0.038013006819947626,-3.5780130068199476,8.805342004546633,0.48360120731937367,0.2630148772697189,-0.6965617616119759,0.04193764208224224,-0.10362471583551552,7.841822897182816
1590513579.5462828,-0.056581093701359345,-3.589743281104078,8.861026875583688,0.4355555555555555,0.2255555555555556,-0.6444444444444445,0.5,0.8552363287330083,-2.0145156687765904
1590513579.5562828,0.2729857951907901,-5.314756599511033,4.665188004827778,0.4355555555555555,0.2255555555555556,-0.6444444444444445,-6.149707548045678,6.18206101259555,-16.605868767988117
1590513579.5662827,-0.44512189067077124,-11.417169951839531,-4.752298793505784,0.4355555555555555,0.2255555555555556,-0.6444444444444445,-71.71804403952137,72.1079266173477,-403.7311019810337
1590513579.5762827,-5.378253758851489,-10.922151130080511,-5.638969832185469,0.4355555555555555,0.2255555555555556,-0.6444444444444445,-148.30626273159376,116.79326680570375,-913.5086574837521
1590513579.5862827,-5.7396475528993705,-4.141886286544985,-3.958163140041996,0.442829806708663,0.248234103268185,-0.6581371524973528,-172.4208528509126,99.5849701179131,-845.4969350670328
1590513579.5962827,0.7716305383124774,0.12089877492035339,0.07189443951785071,0.4544444444444444,0.28444444444444444,-0.68,-140.03713009491904,64.56544774526226,-347.16902937892075
1590513579.6062827,-0.29949160291383464,-0.0636191288975586,-0.221904355512207,0.4544444444444444,0.28444444444444444,-0.68,-111.41032948276387,10.956376299186198,-183.02337392178976
1590513579.6162827,0.8686508672995931,-1.2768684417160399,4.570249839388964,0.4544444444444444,0.28444444444444444,-0.68,-116.83113088014848,18.71810978656578,-166.71880130630308
1590513579.6262827,2.0483776534600358,-3.184754387309372,13.090608475745267,0.4544444444444444,0.28444444444444444,-0.68,-90.35963962755767,23.11956375967507,-156.33494903824047
1590513579.6362827,-0.8066905955313908,-1.093193441508793,8.202780562399116,0.43598051709002345,0.31357063970775634,-0.670638008665364,13.850177342621697,43.71078551100162,-148.33506074250275
1590513579.6462827,2.01,-1.57,11.77,0.2966666666666667,0.5333333333333333,-0.6,122.125,47.1875,-137.1875
1590513579.6562827,-0.24532010719030772,-0.841358119215439,4.179980408494155,0.2966666666666667,0.5333333333333333,-0.6,173.35763224266447,10.050618427274976,-118.04980774427455
1590513579.6662827,0.5464675733393278,-1.3435605260200068,6.307729346970889,0.2966666666666667,0.5333333333333333,-0.6,276.5859517253007,18.230914915139934,-94.26171321793863
1590513579.6762826,-0.6704149030673564,0.16230887808956473,-2.3305954433819305,0.2966666666666667,0.5333333333333333,-0.6,288.12579035376496,-9.189301157443696,-73.48441664053927
1590513579.6862826,-0.20987116436932882,0.5114469765186673,-0.28597423287386575,0.2861843411604443,0.5365945012686025,-0.6046588113360989,85.94912522222992,-31.67953435616818,-30.98335007272979
1590513579.6962826,0.6480751145223432,0.43113460546673543,1.0685131814458635,0.2466666666666667,0.5488888888888889,-0.6222222222222222,-30.875,-3.375,7.25
1590513579.7062826,0.5555547238410949,-0.4163449713949634,4.84992781906646,0.2466666666666667,0.5488888888888889,-0.6222222222222222,-25.743256429449822,12.392096187777362,14.110918034539914
1590513579.7162826,0.39309662000682827,-1.0333174007055879,5.526194378058495,0.2466666666666667,0.5488888888888889,-0.6222222222222222,-12.331384431546603,40.66551439626721,30.62991493114829
1590513579.7262826,2.317888777312234,-2.197836490183178,12.184205824301396,0.2466666666666667,0.5488888888888889,-0.6222222222222222,2.4614988399875344,-28.00330257280377,39.366243637245056
1590513579.7362826,0.8611898479708506,-1.5819206768019434,7.377745110357248,0.24527951119859653,0.5443006054175799,-0.6243563075577148,5.490071512334046,6.8460338400971645,53.438028751518196
1590513579.7462826,1.1586484092921863,-2.506138928628199,10.854206235665464,0.23222222222222225,0.5011111111111111,-0.6444444444444445,-12.926763289960714,-0.6872629834003217,71.75223675545564
1590513579.7562826,1.2689810800551415,-2.800980560605758,11.331358360138253,0.23222222222222225,0.5011111111111111,-0.6444444444444445,0.4754535192695739,-8.83508356142489,80.27413192016462
1590513579.7662826,0.4405689488910318,-1.7038324838131973,5.259630114340818,0.23222222222222225,0.5011111111111111,-0.6444444444444445,5.978664416586306,-6.593259229921477,89.10231264637002
1590513579.7762825,0.8288889995022399,-2.4059771030363364,8.239425584868094,0.23222222222222225,0.5011111111111111,-0.6444444444444445,-8.982043305126929,-8.466475858636137,98.4904181184669
1590513579.7862825,0.6270726729716276,-2.2389566948730715,7.696609258337482,0.23222222222222225,0.5011111111111111,-0.6444444444444445,-3.3712014683922353,-7.07463912394226,104.57970383275261
1590513579.7962825,0.8445948926491368,-3.191519109487542,10.272453044766861,0.2611111111111111,0.4955555555555556,-0.6311111111111111,-0.5720181273046836,-9.679412068787263,114.42739600923596
1590513579.8062825,0.783660807464855,-3.1799300169841827,6.834708097157707,0.2611111111111111,0.4955555555555556,-0.6311111111111111,-14.82481225316663,-15.33756190018212,147.38462905932187
1590513579.8162825,1.2223419780715776,-4.956206721456378,9.140667820134277,0.2611111111111111,0.4955555555555556,-0.6311111111111111,-19.453919282342543,-21.352014885374157,209.17152502209768
1590513579.8262825,0.3546591315141143,-1.8483245256051002,9.937358433791587,0.2611111111111111,0.4955555555555556,-0.6311111111111111,8.942973877719893,-16.81640000564196,259.5069901547778
1590513579.8362825,-1.1678793585462452,-3.154173914731692,8.02921817970024,0.2676215345189097,0.4925793619977048,-0.6318551595005738,15.51310718723305,-13.247351139628796,258.34988739613266
1590513579.8462825,-0.6711559369418343,-2.250300147549895,5.350168905801041,0.29928878361937306,0.4781029052660644,-0.6354742736834839,-15.735681835831329,-21.74661460355673,253.6676584219927
1590513579.8562825,0.35339606316244865,-3.04697166342202,8.991518494484101,0.3,0.4777777777777778,-0.6355555555555555,-12.724110426130219,-22.951059917802294,250.07865563486914
1590513579.8662825,-0.24033971989378872,-3.077182537616494,8.070868173061903,0.3,0.4777777777777778,-0.6355555555555555,0.7619471416671004,-19.105975360545635,249.309904917478
1590513579.8762825,0.04176770406981234,-4.3146517105568,8.210557958143486,0.3,0.4777777777777778,-0.6355555555555555,-11.271225094601899,-21.782268418410688,205.67468530388447
1590513579.8862824,0.2542789870238593,-5.033528673084973,8.387709292591042,0.31973791916655037,0.4610764615599275,-0.6406165604700557,-22.356584432119437,-15.877764406306683,62.842080019533974
1590513579.8962824,-2.41,-0.4,11.33,0.38666666666666666,0.4044444444444445,-0.6577777777777778,-6.1875,16.75,-111.6875
1590513579.9062824,-1.0204564315352698,-0.4453112033195021,12.991410788381742,0.38666666666666666,0.4044444444444445,-0.6577777777777778,40.68127593360996,16.938796680497926,-101.91727178423237
1590513579.9162824,-0.5339675741817069,-0.5498103395533803,3.213013153869685,0.38666666666666666,0.4044444444444445,-0.6577777777777778,9.61006806362802,-1.5258488834505965,-74.94726980728052
1590513579.9262824,-2.2618121749770568,-3.2698825328846746,14.118962985622515,0.38666666666666666,0.4044444444444445,-0.6577777777777778,-35.56408687672071,14.03116778831447,-58.855647751606
1590513579.9362824,-0.8469396103066049,-2.6109598071620317,10.4127689413999,0.38666666666666666,0.4044444444444445,-0.6577777777777778,-15.637306888113805,2.812309399024855,-49.32474753930717
1590513579.9462824,-3.3297313383934912,-7.630009283022989,7.472773439633047,0.4311111111111111,0.3644444444444445,-0.6311111111111111,9.736505487904767,6.561121198056026,-12.609949216403647
1590513579.9562824,-2.032577190043083,-10.359497965533748,8.53512745332695,0.4311111111111111,0.3644444444444445,-0.6311111111111111,-5.555383107946385,-6.859461016036381,64.69450469722355
1590513579.9662824,0.3056432082154919,-3.129349240780911,7.9998256404623955,0.4311111111111111,0.3644444444444445,-0.6311111111111111,5.533191809220462,-10.948536478211922,86.51070697987315
1590513579.9762824,6.984804442298407,-10.093196962380931,6.774904086738949,0.4311111111111111,0.3644444444444445,-0.6311111111111111,-3.8380530924893552,-4.925560225626619,47.718435867608974
1590513579.9862823,-0.2726360307794725,-2.6234517259608796,9.384826033324849,0.43068479322625347,0.3664694543975182,-0.6315374289959687,0.4875386701388209,1.545695621952891,-28.336764288371548
1590513579.9962823,-1.1513588393084409,-3.3379272805591995,6.600835079200361,0.42703485425001686,0.3838066645346421,-0.6351873679722053,10.547682973391028,9.963367385898616,-36.03585431637069
1590513580.0062823,-1.7455530038102198,-7.321287819475616,9.479764079544863,0.4266666666666667,0.3855555555555555,-0.6355555555555555,-6.760094255093342,-0.3072837830784487,-5.282888155262105
1590513580.0162823,0.7282499086591154,-3.8696395079771033,9.545440263061748,0.4266666666666667,0.3855555555555555,-0.6355555555555555,-2.016814334429424,-7.55902904640117,25.13795518207283
1590513580.0262823,1.6012973051149784,-4.6883804978386285,8.414858506484116,0.4266666666666667,0.3855555555555555,-0.6355555555555555,1.522572875990294,-1.0492435199022965,-0.7323303845473976
1590513580.0362823,-0.11742949428722937,-4.755781548795578,8.212655353613266,0.4266666666666667,0.3855555555555555,-0.6355555555555555,-0.4573329958700927,1.520421547831397,-8.23069730350801
1590513580.0462823,0.43554428137651824,-4.4767117914979755,9.133812753036437,0.4188888888888889,0.37777777777777777,-0.6444444444444445,-0.051677947874493924,-0.4134235829959514,2.8314650809716597
1590513580.0562823,0.08436962108886846,-4.289663294899908,8.748151894555658,0.4188888888888889,0.37777777777777777,-0.6444444444444445,0.013655065902713918,0.0,-0.0625
1590513580.0662823,0.10634242460651208,-4.379027273819537,8.644630301573951,0.4188888888888889,0.37777777777777777,-0.6444444444444445,-0.13570076895350236,-0.026426769193800312,-0.049286615403099844
1590513580.0762823,0.1284096889431036,-4.465903110568964,8.591348087479307,0.4188888888888889,0.37777777777777777,-0.6444444444444445,-0.6762111178879499,-0.125,0.00993944410560251
1590513580.0862823,0.12110063605471813,-4.538993639452818,8.78138346257733,0.4188888888888889,0.37777777777777777,-0.6444444444444445,0.2374204931602335,-0.125,0.05562102465801168
1590513580.0962822,0.09,-4.403318939776747,8.736551518213975,0.4044444444444445,0.3911111111111111,-0.6444444444444445,0.23908855482566954,0.010371686802333593,0.020743373604667187
1590513580.1062822,0.09462280611721235,-4.421155701529303,8.83648465565021,0.4044444444444445,0.3911111111111111,-0.6444444444444445,0.6752604433952581,0.05527686544185569,0.125
1590513580.1162822,0.1290623011392795,-4.4297655752848195,8.586798316740223,0.4044444444444445,0.3911111111111111,-0.6444444444444445,-0.3471620650723597,0.0014651544698758082,0.125
1590513580.1262822,0.14808708566242446,-4.504261256987273,8.71478228584394,0.4044444444444445,0.3911111111111111,-0.6444444444444445,-0.2173892865246179,0.044566428085229266,0.056522142695076424
1590513580.1362822,0.13078422474783935,-4.452352674243518,8.758039438130401,0.4044444444444445,0.3911111111111111,-0.6444444444444445,-0.48774648831501,-0.11764789298900599,0.002450702336997998
1590513580.1462822,0.11369824532833937,-4.43369824532834,8.857810528029963,0.4107840157056458,0.3865828459245387,-0.6335766079966707,0.5698026503277287,0.1806579000936368,0.0
1590513580.1562822,0.12742152691702122,-4.420975344209574,8.73,0.4122222222222222,0.3855555555555555,-0.6311111111111111,0.125,0.125,0.14721135807845634
1590513580.1662822,0.11337074134869854,-4.371797594720445,8.73,0.4122222222222222,0.3855555555555555,-0.6311111111111111,0.125,0.125,-0.07233216642658535
1590513580.1762822,0.12935175065776158,-4.493517506577616,8.604261485529245,0.4122222222222222,0.3855555555555555,-0.6311111111111111,-0.6973297409431289,-0.008103116777980165,-0.16724220805504958
1590513580.1862822,0.12086298320178102,-4.408629832017811,8.791014369560818,0.4122222222222222,0.3855555555555555,-0.6311111111111111,-0.007617385144707556,-0.11421270997773729,0.09803177494434329
1590513580.1962821,0.12884344645876755,-4.5457123756341185,8.67387864249479,0.4122222222222222,0.3711111111111111,-0.65,0.05782767706162256,0.13222845963270283,0.00722845963270282
1590513580.2062821,0.12059636635337606,-4.372523693420898,8.772843603759487,0.4122222222222222,0.3711111111111111,-0.65,0.47018168233119667,0.18377271029139958,0.058772710291399584
1590513580.2162821,0.11154814670498271,-4.469874092835225,8.630962934099655,0.4122222222222222,0.3711111111111111,-0.65,0.043148166187716136,0.043148166187716136,0.0625
1590513580.2262821,0.12,-4.382162463976946,8.78174855907781,0.4122222222222222,0.3711111111111111,-0.65,-0.11953575288184437,-0.05435203530259366,0.0625
1590513580.236282,0.12,-4.510590237752162,8.675984510086456,0.4122222222222222,0.3711111111111111,-0.65,-0.45004840597982704,-0.00713594200288184,0.0625
1590513580.246282,0.13779267824584973,-4.417357739180501,8.818963391229248,0.4044444444444445,0.3644444444444445,-0.6355555555555555,0.4191056520487477,0.06709858698781307,0.05790141301218693
1590513580.256282,0.11134158885101748,-4.502621261319404,8.683353972127543,0.4044444444444445,0.3644444444444445,-0.6355555555555555,0.2084623257971482,0.11242260452171107,0.0
1590513580.266282,0.12825988746142833,-4.409570618962144,8.725649718653571,0.4044444444444445,0.3644444444444445,-0.6355555555555555,0.47281074158481734,-0.046186444950890415,0.0
1590513580.276282,0.1391072998261481,-4.43,8.702678100521554,0.4044444444444445,0.3644444444444445,-0.6355555555555555,-0.30134124782685134,-0.054130935870138494,0.1166309358701385
1590513580.286282,0.12272107514699275,-4.43,8.751836774559022,0.4044444444444445,0.3644444444444445,-0.6355555555555555,-0.09651343933740941,0.09948992049694294,-0.03698992049694294
1590513580.296282,0.13122428193114688,-4.48816357710328,8.706121409655733,0.4122222222222222,0.3644444444444445,-0.65,-0.16071883275616214,0.007651762069667957,0.04719647586066408
1590513580.306282,0.1467474724816945,-4.458373736240847,8.79105554932466,0.4122222222222222,0.3644444444444445,-0.65,0.23983585150529538,0.125,-0.17225377725794305
1590513580.316282,0.11986653421562815,-4.444933267107815,8.717132969092978,0.4122222222222222,0.3644444444444445,-0.65,0.15583291942383798,0.125,-0.04624937913575697
1590513580.326282,0.11108527281506518,-4.420723515210043,8.767105939159826,0.4122222222222222,0.3644444444444445,-0.65,0.22739014968614196,0.0647609850313858,0.05571704490584259
1590513580.336282,0.13538831482375666,-4.436925543215838,8.702297827136649,0.4122222222222222,0.3644444444444445,-0.65,-0.27892322549493,0.115392322549493,-0.096176967648479
1590513580.346282,0.11134777033765494,-4.48,8.73730445932469,0.4188888888888889,0.3855555555555555,-0.65,-0.04565287077931329,-0.05828821769482832,0.11236465308448497
1590513580.356282,0.12866499812288826,-4.477329996245777,8.7,0.4188888888888889,0.3855555555555555,-0.65,0.2083594043298711,0.004171880865974221,-0.054156238268051556
1590513580.366282,0.11108200455580866,-4.438917995444192,8.701082004555808,0.4188888888888889,0.3855555555555555,-0.65,0.4661873576309795,0.0489749430523918,0.0692625284738041
1590513580.376282,0.12,-4.429323623983355,8.716087384149802,0.4188888888888889,0.3855555555555555,-0.65,0.1790452997919425,-0.049817949687913754,0.1165452997919425
1590513580.386282,0.12,-4.421390391526385,8.787486476262531,0.4188888888888889,0.3855555555555555,-0.65,0.07987989407981842,0.09893015888027237,0.017379894079818423
1590513580.396282,0.12,-4.429828948116156,8.721368415070751,0.4188888888888889,0.3713581860544411,-0.6358026304988855,-0.24465462862988008,0.125,-0.06143092572597602
1590513580.406282,0.1106833055566847,-4.46136661111337,8.76838380553636,0.4188888888888889,0.3711111111111111,-0.6355555555555555,0.012811979187837892,-0.1704173610828828,0.1164586805414414
1590513580.416282,0.11920795902605585,-4.478415918052112,8.62346469655705,0.4188888888888889,0.3711111111111111,-0.6355555555555555,0.1726492317385472,0.0426989756513963,0.009900512174301851
1590513580.426282,0.10117114568599718,-4.450390381895333,8.749609618104667,0.4188888888888889,0.3711111111111111,-0.6355555555555555,0.35304101838755303,0.057620226308345124,0.0625
1590513580.436282,0.12490127298444131,-4.458300424328147,8.741699575671854,0.4188888888888889,0.3711111111111111,-0.6355555555555555,-0.09189886845827439,-0.04125530410183875,0.0625
1590513580.446282,0.13,-4.46,8.794790638345074,0.4259913790447316,0.3711111111111111,-0.6355555555555555,-0.41579432643780156,-0.17664716321890078,0.17664716321890078
1590513580.456282,0.14866181262051997,-4.47866181262052,8.728126537668729,0.4266666666666667,0.3711111111111111,-0.6355555555555555,-0.23829086042954983,0.18582726577564998,0.0033454684487000466
1590513580.466282,0.11379995345435202,-4.443799953454352,8.679319934836093,0.4266666666666667,0.3711111111111111,-0.6355555555555555,0.06675040727441983,0.14224994181794,0.09050011636411996
1590513580.476282,0.1,-4.449066967644846,8.688600451467268,0.4266666666666667,0.3711111111111111,-0.6355555555555555,0.06833145221971407,0.125,0.18458427389014298
1590513580.4862819,0.10646058855274436,-4.430618234341767,8.754605885527443,0.4266666666666667,0.3711111111111111,-0.6355555555555555,0.14325735690930447,0.044242643090695546,0.10674264309069555
1590513580.4962819,0.14172352537446,-4.45172352537446,8.782069118656384,0.4090424859030778,0.3763983653401878,-0.6355555555555555,-0.010772033590375069,0.04956800839759377,0.0625
1590513580.5062819,0.11079800938057384,-4.450598507035431,8.708004976548565,0.4044444444444445,0.37777777777777777,-0.6355555555555555,-0.18500622068570674,0.06374688965714663,0.1212593310285601
1590513580.5162818,0.1477416158368749,-4.478306211877657,8.615645960407813,0.4044444444444445,0.37777777777777777,-0.6355555555555555,-0.06955745050976592,0.12147127474511704,-0.051913824235351125
1590513580.5262818,0.1360033055501253,-4.445008263875313,8.672985125024436,0.4044444444444445,0.37777777777777777,-0.6355555555555555,0.24367769109100929,0.125,0.06871901046757539
1590513580.5362818,0.11518713415715721,-4.422593567078579,8.774064329214214,0.4044444444444445,0.37777777777777777,-0.6355555555555555,0.004678353928930401,0.125,0.0324195884822326
1590513580.5462818,0.11,-4.439933095629182,8.786711269580545,0.4014913932401213,0.38663693139074734,-0.6355555555555555,-0.00041815231761548055,-0.04110913024317936,-0.04152728256079484
1590513580.5562818,0.1293064071122011,-4.488612814224402,8.741387185775597,0.4,0.3911111111111111,-0.6355555555555555,-0.05816504445125689,-0.18533252222562846,-0.0625
1590513580.5662818,0.13,-4.4613947814772645,8.663719417272706,0.4,0.3911111111111111,-0.6355555555555555,-0.002905794744301686,0.050876821022793256,-0.002905794744301686
1590513580.5762818,0.13,-4.440086377770909,8.730259133312725,0.4,0.3911111111111111,-0.6355555555555555,0.12607972213634958,-0.061960138931825205,0.18480069465912605
1590513580.5862818,0.13,-4.447713625866051,8.753140877598153,0.4,0.3911111111111111,-0.6355555555555555,0.2214203233256351,-0.014289838337182448,-0.05355080831408779
1590513580.5962818,0.13,-4.440921735905045,8.750921735905045,0.4171478321793604,0.37900675898450376,-0.6486686036927135,0.07978254821958455,0.05673915059347181,0.045217451780415446
1590513580.6062818,0.13,-4.467683617157339,8.685404893299543,0.4188888888888889,0.37777777777777777,-0.65,-0.341219416877857,-0.05284840482224486,0.004825797588877571
1590513580.6162817,0.1395381497328393,-4.45,8.650615800356215,0.4188888888888889,0.37777777777777777,-0.65,-0.12115124777366061,-0.0625,-0.1855756238868303
1590513580.6262817,0.1137783282494319,-4.45,8.684962229000757,0.4188888888888889,0.37777777777777777,-0.65,0.09351393125473417,-0.0625,-0.07824303437263291
1590513580.6362817,0.12040073230268511,-4.460400732302685,8.716001830756714,0.4188888888888889,0.37777777777777777,-0.65,0.19000457689178193,-0.09500228844589097,0.0025045768917819344
1590513580.6462817,0.12618022807167967,-4.466180228071679,8.751459315784961,0.4133714405479818,0.37523126315889754,-0.6533953528251736,0.22612642544799794,0.018241447312012327,0.0625
1590513580.6562817,0.1289434354592417,-4.442113129081517,8.77,0.4044444444444445,0.3711111111111111,-0.6588888888888889,-0.036085886481042245,0.0823105851392183,0.0625
1590513580.6662817,0.13,-4.47547436220689,8.672445503931051,0.4044444444444445,0.3711111111111111,-0.6588888888888889,-0.11792869094826597,0.0625,0.007071309051734025
1590513580.6762817,0.1375860443187176,-4.442069778406412,8.713102310231024,0.4044444444444445,0.3711111111111111,-0.6588888888888889,-0.07758722300801509,0.0625,0.0
1590513580.6862817,0.14,-4.437289884490841,8.744579768981684,0.4044444444444445,0.3711111111111111,-0.6588888888888889,0.11974711227103571,0.016938221932241072,0.04556177806775893
1590513580.6962817,0.12318086445656735,-4.44,8.761212757028956,0.4169030633655057,0.3748486967874295,-0.6507907865901991,0.22253986571548467,0.03503986571548468,0.027460134284515318
1590513580.7062817,0.10364567769477055,-4.44635432230523,8.77,0.4266666666666667,0.37777777777777777,-0.6444444444444445,0.05142742796157951,0.1419290288153682,0.0
1590513580.7162817,0.11316018933731938,-4.45,8.691038863976084,0.4266666666666667,0.37777777777777777,-0.6444444444444445,-0.10362559167912308,0.0641232249626308,0.0
1590513580.7262816,0.12818024152106886,-4.466360483042138,8.674540724563206,0.4266666666666667,0.37777777777777777,-0.6444444444444445,-0.125,-0.1533795285200411,0.05112650950668037
1590513580.7362816,0.11673140578994531,-4.463365702894973,8.713171485525137,0.4266666666666667,0.37777777777777777,-0.6444444444444445,0.04085742762568351,-0.06310692928073737,0.10396435690642088
1590513580.7462816,0.11,-4.435054048325561,8.763261268899251,0.4201991977140345,0.37777777777777777,-0.6444444444444445,0.17697073265507984,-0.05197073265507983,0.02105853468984034
1590513580.7562816,0.1235266720034932,-4.436763336001746,8.756473327996506,0.4188888888888889,0.37777777777777777,-0.6444444444444445,0.018416599956335045,0.022041700021832478,-0.04227085001091624
1590513580.7662816,0.13912742800997657,-4.467382284029929,8.667853147910211,0.4188888888888889,0.37777777777777777,-0.6444444444444445,-0.17659285012470716,0.11954642506235358,0.10863927518706068
1590513580.7762816,0.10593700313695158,-4.47,8.651484250784238,0.4188888888888889,0.37777777777777777,-0.6444444444444445,-0.24072343259851317,0.17822343259851317,-0.03467029779553951
1590513580.7862816,0.12803528917518556,-4.47,8.720088222937964,0.4188888888888889,0.37777777777777777,-0.6444444444444445,-0.11858458199131774,0.012279442655090345,-0.0625
1590513580.7962816,0.1320043250288829,-4.446012975086649,8.781982699884468,0.4073395805972753,0.37777777777777777,-0.6373371778034514,0.13739187427792754,0.03744593713896377,-0.012527031430518115
1590513580.8062816,0.1129304153726708,-4.44,8.798534792313665,0.4044444444444445,0.37777777777777777,-0.6355555555555555,-0.07921225980201863,0.16918490392080743,0.1600273558812112
1590513580.8162816,0.11,-4.44,8.69900163666121,0.4044444444444445,0.37777777777777777,-0.6355555555555555,-0.125,0.0727291325695581,-0.09942716857610479
1590513580.8262815,0.115721648723288,-4.451443297446576,8.69,0.4044444444444445,0.37777777777777777,-0.6355555555555555,-0.08923969547945003,-0.08054121808219988,0.05380152260274984
1590513580.8362815,0.11540420858721837,-4.46,8.708383165651126,0.4044444444444445,0.37777777777777777,-0.6355555555555555,-0.00505260734022956,-0.15877630367011478,0.07260521468045912
1590513580.8462815,0.1197410347659458,-4.469741034765946,8.754352586914864,0.4022797700520121,0.37777777777777777,-0.6398849043404203,0.09294073364358062,-0.09455926635641938,-0.03205926635641938
1590513580.8562815,0.1250283866331297,-4.455141933165649,8.755141933165648,0.4,0.37777777777777777,-0.6444444444444445,0.125,-0.0625,-0.031072583542939278
1590513580.8662815,0.14193024441916122,-4.4409651222095805,8.691622072266469,0.4,0.37777777777777777,-0.6444444444444445,0.09073399309506061,-0.02823399309506061,-0.02823399309506061
1590513580.8762815,0.1256146602188852,-4.443122932043777,8.68750827182489,0.4,0.37777777777777777,-0.6444444444444445,-0.10942669890557394,0.042981674726393485,0.0
1590513580.8862815,0.11600507714743531,-4.452010154294871,8.724020308589742,0.4,0.37777777777777777,-0.6444444444444445,-0.1124365356570585,0.0625,0.03753173217147075
1590513580.8962815,0.12765599565925123,-4.452344004340749,8.785935973955509,0.4093573280279737,0.3726737806716103,-0.6274311207572195,0.03319994574064025,0.11034997287032013,0.0625
1590513580.9062815,0.11327625969669439,-4.45,8.77491438954504,0.4122222222222222,0.3711111111111111,-0.6222222222222222,0.0625,0.22952337689566008,-0.042023376895660075
1590513580.9162815,0.12746379530276883,-4.45,8.708876716440308,0.4122222222222222,0.3711111111111111,-0.6222222222222222,0.0625,-0.022871801605762743,-0.007925639678847449
1590513580.9262815,0.13822140468227426,-4.45,8.724664214046824,0.4122222222222222,0.3711111111111111,-0.6222222222222222,-0.09165133779264215,-0.011116220735785956,0.0
1590513580.9362814,0.12694920464151233,-4.436949204641512,8.73,0.4122222222222222,0.3711111111111111,-0.6222222222222222,-0.125,-0.08156747099054791,-0.08156747099054791
1590513580.9462814,0.12,-4.452454703750765,8.746841027813074,0.4053610627428219,0.37485356173623857,-0.6346970576393137,0.015341898442279622,-0.05482905077886019,-0.05482905077886019
1590513580.9562814,0.10552311133200795,-4.455523111332008,8.77447688866799,0.4,0.37777777777777777,-0.6444444444444445,0.125,0.0,0.0904805541749503
1590513580.9662814,0.12447826408946161,-4.45,8.682086943642153,0.4,0.37777777777777777,-0.6444444444444445,0.07400361648028833,0.0,-0.027989150559135006
1590513580.9762814,0.13,-4.45,8.69643942435705,0.4,0.37777777777777777,-0.6444444444444445,-0.11969712178525391,-0.09109856089262695,-0.016950719553686523
1590513580.9862814,0.11827219435547229,-4.45,8.727591708466791,0.4,0.37777777777777777,-0.6444444444444445,-0.1508506073608509,-0.015051822082552735,0.0
1590513580.9962814,0.12669148314168777,-4.45,8.752518612356265,0.4051001754044046,0.3749958639208298,-0.6407352259685138,-0.1771608848177743,0.010339115182225682,-0.02608044240888716
1590513581.0062814,0.14534153322503288,-4.45,8.760683066450065,0.4122222222222222,0.3711111111111111,-0.6355555555555555,-0.13353833062582193,-0.0625,0.024846252030633564
1590513581.0162814,0.12644170990698647,-4.45,8.722883419813973,0.4122222222222222,0.3711111111111111,-0.6355555555555555,0.05649287538755642,-0.034253562306221785,0.125
1590513581.0262814,0.11844670671606893,-4.45,8.687184431094643,0.4122222222222222,0.3711111111111111,-0.6355555555555555,0.10740269434152308,0.0,0.08980538868304616
1590513581.0362813,0.14,-4.45,8.720535030672016,0.4122222222222222,0.3711111111111111,-0.6355555555555555,-0.0008359854250265253,0.0,0.0
1590513581.0462813,0.13287180910099888,-4.464256381798002,8.745743618201997,0.4122222222222222,0.3814073868541127,-0.6418917252435565,-0.10705119311875694,0.0,0.0
1590513581.0562813,0.13,-4.453334048452043,8.751110634365304,0.4122222222222222,0.3855555555555555,-0.6444444444444445,-0.020837802825268995,0.034720732391577004,0.0
1590513581.0662813,0.13,-4.44,8.718075971590455,0.4122222222222222,0.3855555555555555,-0.6444444444444445,0.13736433644561485,-0.012364336445614868,-0.037432168222807434
1590513581.0762813,0.12409425925925927,-4.445905740740741,8.707717222222222,0.4122222222222222,0.3855555555555555,-0.6444444444444445,0.07676736111111111,-0.1732326388888889,-0.025589120370370373
1590513581.0862813,0.10704083632799738,-4.445680278775999,8.724319721224001,0.4122222222222222,0.3855555555555555,-0.6444444444444445,-0.026998257650005447,-0.1960034846999891,0.0
1590513581.0962813,0.09717586030099225,-4.44,8.73,0.4122222222222222,0.3821005117069296,-0.6444444444444445,-0.047550291039599485,-0.05025145519799741,0.0
1590513581.1062813,0.11615058660313056,-4.44,8.73,0.4122222222222222,0.3729645323762705,-0.6444444444444445,-0.008019611243477998,0.14740194378260996,0.0
1590513581.1162813,0.12,-4.45495627278624,8.68513118164128,0.4122222222222222,0.3711111111111111,-0.6444444444444445,0.0,0.2342383524569997,0.04673835245699971
1590513581.1262813,0.12,-4.452403457927721,8.70038616828912,0.4122222222222222,0.3711111111111111,-0.6444444444444445,-0.04747838795174754,0.060086448193009845,-0.17489193975873768
