time,acc_x,acc_y,acc_z,mag_x,mag_y,mag_z,gyr_x,gyr_y,gyr_z
1590515714.5584955,0.04,-4.38,8.64,0.4533333333333333,0.27111111111111114,-0.6222222222222222,0.0,0.0,0.375
1590515714.5684955,0.04,-4.38,8.648454545454547,0.4533333333333333,0.27111111111111114,-0.6222222222222222,-0.05284090909090909,0.05284090909090909,0.21647727272727274
1590515714.5784955,0.03069773596708611,-4.37,8.71,0.4533333333333333,0.2788888888888889,-0.5866666666666667,0.0625,0.06686084979428819,0.3081391502057118
1590515714.5884955,0.049549116712247765,-4.37,8.707294700273488,0.4533333333333333,0.2788888888888889,-0.5866666666666667,0.06813604109690295,0.17904593835464558,0.19313604109690294
1590515714.5984955,0.040733932273669664,-4.370733932273669,8.654403593642018,0.4533333333333333,0.2788888888888889,-0.5866666666666667,0.19208707671043537,-0.004587076710435383,0.2895646164478231
1590515714.6084955,0.04899881574093848,-4.379332543827292,8.710333728086354,0.4533333333333333,0.2788888888888889,-0.5866666666666667,0.24374259838086548,-0.066671601079423,0.0020858005397115065
1590515714.6184955,0.024570269273330874,-4.363046846182221,8.718476576908891,0.4533333333333333,0.2788888888888889,-0.5866666666666667,0.09106418295831797,-0.16845721136112135,0.052978605680560675
1590515714.6284955,0.03065923210326433,-4.406703839483678,8.738681535793472,0.46,0.2788888888888889,-0.6077777777777778,0.3207404012908041,-0.3791202006454021,0.18337979935459794
1590515714.6384954,0.0398667486224837,-4.360666256887582,8.720266502755033,0.46,0.2788888888888889,-0.6077777777777778,0.43583435778104623,-0.43666717889052314,0.12583282110947688
1590515714.6484954,0.04782893615409383,-4.375657872308188,8.688684255383624,0.46,0.2788888888888889,-0.6077777777777778,0.4375,-0.4864308509630864,0.027138298073827158
1590515714.6584954,0.05,-4.350547487469477,8.720273743734738,0.46,0.2788888888888889,-0.6077777777777778,0.4965782033157692,-0.36815640663153837,0.0625
1590515714.6684954,0.05,-4.362526239129504,8.726263119564752,0.46,0.2788888888888889,-0.6077777777777778,0.4217110054406032,-0.21842201088120636,0.0625
1590515714.6784954,0.032459690870677196,-4.358306460580451,8.75923384854887,0.45610215352681716,0.2788888888888889,-0.5993324437525482,0.44808462137217836,-0.19808462137217836,0.0625
1590515714.6884954,0.03278618968386023,-4.3563930948419305,8.76721381031614,0.4533333333333333,0.2788888888888889,-0.5933333333333334,0.34017262895174705,-0.21004315723793676,0.02254315723793677
1590515714.6984954,0.030420171339563862,-4.369579828660436,8.635462227414331,0.4533333333333333,0.2788888888888889,-0.5933333333333334,0.25,-0.24737392912772585,0.0
1590515714.7084954,0.01016936403561983,-4.36008468201781,8.66966127192876,0.4533333333333333,0.2788888888888889,-0.5933333333333334,0.25,-0.49788294955475215,0.06197073738868804
1590515714.7184954,0.041454607327863276,-4.36,8.732909214655727,0.4533333333333333,0.2788888888888889,-0.5933333333333334,0.3974434718493591,-0.40170435210042726,0.11164782394978637
1590515714.7284954,0.023150792955401737,-4.3421005286369345,8.767899471363066,0.4533333333333333,0.2788888888888889,-0.5933333333333334,0.7171792400478986,-0.766550936067058,0.23687169601915944
1590515714.7384953,0.04931279620853081,-4.34977093206951,8.73091627172196,0.4533333333333333,0.2788888888888889,-0.5933333333333334,0.9332049763033176,-1.1178416271721958,0.49427330173775674
1590515714.7484953,0.030790489785411743,-4.35,8.66276671424894,0.4533333333333333,0.2788888888888889,-0.5933333333333334,1.2376485971029414,-1.1850297194205883,0.6200594388411766
1590515714.7584953,0.04962795913889363,-4.359813979569447,8.738511836555574,0.4533333333333333,0.2788888888888889,-0.5933333333333334,1.25,-1.3715121169271278,1.054361606163298
1590515714.7684953,0.05,-4.383482227713363,8.732172590762213,0.4533333333333333,0.2788888888888889,-0.5933333333333334,1.1521573845276563,-1.2771573845276563,0.9646573845276564
1590515714.7784953,0.06744547039821618,-4.372554529601784,8.747445470398215,0.43588786293511717,0.2847040456882943,-0.605932839732045,0.7978974300334467,-1.0319316200222979,1.0465341899888512
1590515714.7884953,0.07,-4.360328533085579,8.730657066171158,0.43333333333333335,0.2855555555555556,-0.6077777777777778,0.568659995354599,-0.637319990709198,0.6393733224940642
1590515714.7984953,0.07664857530529173,-4.366648575305292,8.670162822252376,0.43333333333333335,0.2855555555555556,-0.6077777777777778,0.4378392130257802,-0.41723202170963364,0.5003392130257802
1590515714.8084953,0.07136899730306324,-4.352737994606126,8.683155013484683,0.43333333333333335,0.2855555555555556,-0.6077777777777778,0.26711246628829044,0.06510636799098335,0.4914437668558548
1590515714.8184953,0.04741856104991798,-4.35,8.735162877900164,0.43333333333333335,0.2855555555555556,-0.6077777777777778,0.20295533552066244,0.2190893289586751,0.3118213420826498
1590515714.8284953,0.04,-4.358475945116656,8.724572164650032,0.4502852235666454,0.2733125237203857,-0.6077777777777778,0.13452534302089966,0.19702534302089966,0.19702534302089966
1590515714.8384953,0.04,-4.36,8.6773670262228,0.4533333333333333,0.27111111111111114,-0.6077777777777778,0.23158243444299798,-0.07895608610749488,0.027626348335503065
1590515714.8484952,0.04806948756884165,-4.351930512431158,8.613513587018108,0.4533333333333333,0.27111111111111114,-0.6077777777777778,0.3004342973052603,-0.125,0.0
1590515714.8584952,0.07356140886768957,-4.35,8.64712281773538,0.4533333333333333,0.27111111111111114,-0.6077777777777778,0.3125,-0.321345073897413,0.0
1590515714.8684952,0.0729398980009038,-4.35,8.702360611994578,0.4533333333333333,0.27111111111111114,-0.6077777777777778,0.3125,-0.46325127498870267,0.0
1590515714.8784952,0.07,-4.344201742696053,8.760587801127627,0.44173681872543996,0.2794863716612564,-0.6116432826470756,0.3849782162993337,-0.3912826755509995,-0.03623910814966684
1590515714.8884952,0.05782137179196003,-4.35217862820804,8.79,0.43333333333333335,0.2855555555555556,-0.6144444444444445,0.5136164263002498,-0.2744417868498751,-0.0625
1590515714.8984952,0.05,-4.3477766929202195,8.710548503981427,0.43333333333333335,0.2855555555555556,-0.6144444444444445,0.6006978346243138,-0.25,-0.02430216537568617
1590515714.9084952,0.07477175855905405,-4.356514505706036,8.693029011412072,0.43333333333333335,0.2855555555555556,-0.6144444444444445,0.4185686786745497,-0.14678433933727486,0.05160783033136258
1590515714.9184952,0.06595046675557249,-4.345950466755572,8.714049533244427,0.43333333333333335,0.2855555555555556,-0.6144444444444445,0.2871904172223281,-0.08109520861116404,-0.06921437416650791
1590515714.9284952,0.05217443001099849,-4.363476709967005,8.743476709967005,0.44898447331133634,0.2690349078009968,-0.60314084334922,0.34781962486251894,-0.16031962486251894,0.021729437293778436
1590515714.9384952,0.05,-4.34446438228209,8.741488127427363,0.4533333333333333,0.2644444444444444,-0.6,0.48139840715795684,-0.08110159284204317,-0.09709761073693526
1590515714.9484951,0.03404649715504979,-4.35595350284495,8.636302231507823,0.4533333333333333,0.2644444444444444,-0.6,0.4002906072190612,-0.16220939278093882,-0.125
1590515714.9584951,0.03,-4.347111207048804,8.616444396475597,0.4533333333333333,0.2644444444444444,-0.6,0.3347225220275123,-0.14722252202751232,-0.125
1590515714.9684951,0.041730759761682015,-4.34,8.663012785792834,0.4533333333333333,0.2644444444444444,-0.6,0.28806091716316246,-0.14943908283683752,-0.10056091716316247
1590515714.9784951,0.05829649443896945,-4.345110516683092,8.735110516683092,0.4508727141896225,0.26690506358815524,-0.5977286592519593,0.26064690975644095,-0.23008763902576376,-0.05185309024355906
1590515714.988495,0.05676623328790836,-4.363233766712092,8.773532466575816,0.4388888888888889,0.2788888888888889,-0.5866666666666667,0.2702110419505727,-0.4797889580494273,-0.04228895804942728
1590515714.998495,0.06,-4.353117567707793,8.711175677077929,0.4388888888888889,0.2788888888888889,-0.5866666666666667,0.37904560547888344,-0.41396959634741104,-0.019484798173705513
1590515715.008495,0.0650260440976047,-4.344973955902395,8.700104176390418,0.4388888888888889,0.2788888888888889,-0.5866666666666667,0.5317383268300879,-0.4692383268300879,-0.12565110244011723
1590515715.018495,0.065332926643282,-4.335332926643282,8.738668293426873,0.4388888888888889,0.2788888888888889,-0.5866666666666667,0.7125076254384627,-0.5916692084794876,-0.3083384169589751
1590515715.028495,0.06,-4.325152890350965,8.755152890350963,0.4421202953215794,0.27188750828472596,-0.5931294795320479,0.903383305919423,-0.6855888706129486,-0.4052944353064743
1590515715.038495,0.06,-4.333018374846876,8.769527562270314,0.4455555555555555,0.2644444444444444,-0.6,0.9186351572070233,-0.5465878930175582,-0.47818242139648837
1590515715.048495,0.06625719050385055,-4.333742809496149,8.67988495193839,0.4455555555555555,0.2644444444444444,-0.6,0.6794627967546703,-0.20285535610560437,-0.34357023740373627
1590515715.058495,0.07734249139342893,-4.344684982786857,8.678739931147431,0.4455555555555555,0.2644444444444444,-0.6,0.33304714395534607,-0.10839057120893078,-0.06643771516427688
1590515715.068495,0.08,-4.35,8.706471831388154,0.4455555555555555,0.2644444444444444,-0.6,0.290448946175961,-0.24634683852788303,-0.08089789235192202
1590515715.078495,0.08,-4.343134914816878,8.730595255549366,0.44097883210014105,0.27436067859784247,-0.6053395106979835,0.484127129578043,-0.484127129578043,-0.16790678239451073
1590515715.088495,0.07370870659285356,-4.333708706592853,8.695960946149976,0.4388888888888889,0.2788888888888889,-0.6077777777777778,0.6411411675893306,-0.6411411675893306,-0.14817941620533467
1590515715.098495,0.08522133057209423,-4.3147786694279056,8.624336008283716,0.4388888888888889,0.2788888888888889,-0.6077777777777778,0.4972333678488221,-0.6399333419622055,-0.22013331607558895
1590515715.108495,0.08225238757117877,-4.325495224857643,8.664233287001748,0.4388888888888889,0.2788888888888889,-0.6077777777777778,0.19538711159933642,-0.5281548446397346,-0.15315484463973456
1590515715.118495,0.08636989994607873,-4.342739799892157,8.72458929962255,0.4388888888888889,0.2788888888888889,-0.6077777777777778,0.04537625067401593,-0.3805643760110239,-0.125
1590515715.128495,0.07361944584845839,-4.35,8.782761108303083,0.4425290120336759,0.274642078553304,-0.6035309674421929,0.0,-0.2783738455176217,0.011504617929513405
1590515715.138495,0.08139220161368092,-4.335738532257546,8.81,0.4455555555555555,0.27111111111111114,-0.6,-0.0891341733903372,-0.1608658266096628,0.035865826609662796
1590515715.148495,0.07697631303867622,-4.336511843480662,8.725346034751395,0.4455555555555555,0.27111111111111114,-0.6,-0.043601956491726324,-0.08430097824586316,0.0
1590515715.158495,0.07,-4.34,8.695901710989228,0.4455555555555555,0.27111111111111114,-0.6,0.0,-0.0293714354391102,-0.0331285645608898
1590515715.168495,0.07,-4.34,8.71,0.4455555555555555,0.27111111111111114,-0.6,0.0,0.08590247265064561,-0.033865842449784786
1590515715.178495,0.07347102595652429,-4.34,8.713471025956524,0.443241538251206,0.27111111111111114,-0.5926722785362265,-0.021693912228276793,0.10072435108689283,0.06508173668483037
1590515715.188495,0.07395140664961637,-4.34,8.72,0.4388888888888889,0.27111111111111114,-0.5788888888888889,-0.0057944373401534535,0.05091112531969309,0.13079443734015345
1590515715.198495,0.07413886365077017,-4.34,8.672870454497433,0.4388888888888889,0.27111111111111114,-0.5788888888888889,0.0071761362435818765,0.2535880681217909,0.0
1590515715.208495,0.06953764914543695,-4.333179216381812,8.660924701709126,0.4388888888888889,0.27111111111111114,-0.5788888888888889,-0.082370102386327,0.230129897613673,0.08525979522734602
1590515715.218495,0.054512053628980275,-4.33,8.690975892742038,0.4388888888888889,0.27111111111111114,-0.5788888888888889,-0.0625,0.1128013407245069,0.125
1590515715.228495,0.05,-4.324882739384153,8.72046904246339,0.4388888888888889,0.2676996040338794,-0.5862804875562244,-0.2543972730942856,0.09594863654714281,0.2209486365471428
1590515715.2384949,0.057305680977526086,-4.334611361955052,8.754611361955051,0.4388888888888889,0.2644444444444444,-0.5933333333333334,-0.4375,0.1875,0.3125
1590515715.2484949,0.06,-4.347967551922002,8.704227136545981,0.4388888888888889,0.2644444444444444,-0.5933333333333334,-0.1387168029248972,0.08790560097496572,0.1631084014624486
1590515715.2584949,0.0721155219191775,-4.343942239040411,8.696057760959588,0.4388888888888889,0.2644444444444444,-0.5933333333333334,-0.02463899400257033,0.10036100599742967,0.08713899400257033
1590515715.2684948,0.08936165197303286,-4.34,8.728084955919098,0.4388888888888889,0.2644444444444444,-0.5933333333333334,0.02925516241572769,0.15425516241572768,0.15026548724718305
1590515715.2784948,0.08776461179045736,-4.335921537263486,8.755921537263486,0.4366230762574921,0.2703355572860761,-0.5933333333333334,0.037009607896786145,0.1875,0.22450960789678615
1590515715.2884948,0.06549082359088237,-4.339018352818235,8.763527529227353,0.43333333333333335,0.2788888888888889,-0.5933333333333334,0.0,0.15931764744301483,0.15931764744301483
1590515715.2984948,0.05496644833042886,-4.339932896660858,8.729664483304289,0.43333333333333335,0.2788888888888889,-0.5933333333333334,0.06291939586963925,0.18791939586963924,0.15645969793481962
1590515715.3084948,0.06112054989948772,-4.341120549899488,8.691120549899487,0.43333333333333335,0.2788888888888889,-0.5933333333333334,0.0207448446923027,0.11099312625640362,0.0832448446923027
1590515715.3184948,0.05861506841034115,-4.3443075342051705,8.7,0.43333333333333335,0.2788888888888889,-0.5933333333333334,-0.026922088782316077,0.07115582243536785,0.07115582243536785
1590515715.3284948,0.07119914788345244,-4.332933617372182,8.714132765255636,0.44197002321177686,0.27339281351169753,-0.5933333333333334,0.0,-0.007494674271577795,0.08083510857614074
1590515715.3384948,0.08,-4.3233837073421935,8.706767414684386,0.4455555555555555,0.27111111111111114,-0.5933333333333334,-0.04135182911129157,-0.021148170888708427,0.10385182911129157
1590515715.3484948,0.0735239410201636,-4.332952117959673,8.654667587141146,0.4455555555555555,0.27111111111111114,-0.5933333333333334,-0.10297536862397749,-0.08095073724795498,0.08452463137602251
1590515715.3584948,0.053458874206880495,-4.34,8.668595960183945,0.4455555555555555,0.27111111111111114,-0.5933333333333334,-0.09053932126433437,-0.125,-0.07534271494266254
1590515715.3684947,0.04673236162031655,-4.346732361620316,8.716830904050791,0.4455555555555555,0.27111111111111114,-0.5933333333333334,-0.10457726012697845,-0.14603863006348922,-0.12438410980953232
1590515715.3784947,0.0617307211933055,-4.3548078364200835,8.762115048353138,0.44690167203923753,0.27111111111111114,-0.5958332639458858,-0.2199510223744781,-0.1875,-0.02163401491631874
1590515715.3884947,0.05673779410725641,-4.33,8.797896323512093,0.4533333333333333,0.27111111111111114,-0.6077777777777778,-0.31974080878023503,-0.32564797804941237,0.013147978049412368
1590515715.3984947,0.03448369647336134,-4.3244836964733615,8.725869571786891,0.4533333333333333,0.27111111111111114,-0.6077777777777778,-0.14656930887552505,-0.5344768970414916,0.3254075881659666
1590515715.4084947,0.0016948031605694587,-4.296412335967141,8.71358766403286,0.4533333333333333,0.27111111111111114,-0.6077777777777778,-0.0035308399178530445,-0.5330154199589265,0.7323458004107348
1590515715.4184947,-0.04824722143509336,-4.27,8.74,0.4533333333333333,0.27111111111111114,-0.6077777777777778,0.08530902679386669,-0.5456180535877334,1.3818263751141338
1590515715.4284947,-0.060011322602362444,-4.256674215068242,8.73333710753412,0.4437091553270634,0.2807352891173811,-0.6122197060883638,0.041713844176510195,-0.9581446232939592,2.728718480323153
1590515715.4384947,-0.043378136200716844,-4.256621863799283,8.736621863799284,0.4388888888888889,0.2855555555555556,-0.6144444444444445,-0.20693324372759855,-1.0836133512544803,3.8285730286738353
1590515715.4484947,0.003924966352624501,-4.297649971159393,8.68352504326091,0.4388888888888889,0.2855555555555556,-0.6144444444444445,-0.3125,-0.9448438401268987,4.9326556791963085
1590515715.4584947,0.056819472616632866,-4.333409736308316,8.703638945233266,0.4388888888888889,0.2855555555555556,-0.6144444444444445,-0.14487829614604464,-0.49785116632860044,5.7521488336713995
1590515715.4684947,0.11508790716691653,-4.351271976791729,8.73,0.4388888888888889,0.2855555555555556,-0.6144444444444445,-0.0625,-0.17160029010338584,6.1136246373707674
1590515715.4784946,0.13835271664579232,-4.3541763583228965,8.747470925031312,0.44277131667362474,0.27326120090389194,-0.6060325175775166,-0.2808865628913938,-0.1716932814456969,6.104408958072404
1590515715.4884946,0.14297842194504448,-4.382446054862611,8.76,0.4455555555555555,0.2644444444444444,-0.6,-0.599730274313056,-0.16888486284347198,5.59442431421736
1590515715.4984946,0.09935365882436227,-4.368346036765226,8.690361280883499,0.4455555555555555,0.2644444444444444,-0.6,-0.806202362130401,-0.125,5.018892913608798
1590515715.5084946,0.049374853481284675,-4.334531140110964,8.665468859889037,0.4455555555555555,0.2644444444444444,-0.6,-1.1650411229194342,-0.2539071657419708,4.780273208564507
1590515715.5184946,0.04139487366899783,-4.342789747337996,8.719882057841492,0.4455555555555555,0.2644444444444444,-0.6,-1.3840865296765728,-0.3928044901078091,4.696586529676573
1590515715.5284946,0.06926443960863138,-4.398528879217263,8.81742553863021,0.4455555555555555,0.2644444444444444,-0.6,-1.2534479393345404,-0.4363506868884865,4.56594793933454
1590515715.5384946,0.14620003800595427,-4.441600050674606,8.778399949325394,0.4388888888888889,0.2855555555555556,-0.6,0.670001425223285,-0.31750015835814277,3.4449982580604295
1590515715.5484946,0.15444228235532584,-4.4933463058680445,8.698865105908585,0.4388888888888889,0.2855555555555556,-0.6,1.569593088071349,-0.40973573527921353,1.8051636769028072
1590515715.5584946,0.12591502594234272,-4.471830051884685,8.684407105796653,0.4388888888888889,0.2855555555555556,-0.6,1.8965044411229084,-0.5450222056145415,0.5699111775418342
1590515715.5684946,0.07179062159214832,-4.368272316560212,8.741790621592148,0.4388888888888889,0.2855555555555556,-0.6,1.9081807914005298,-0.6767019785013242,-0.2646596042997352
1590515715.5784945,-0.025850807350229953,-4.23036042059199,8.63036042059199,0.4407273918299263,0.28157213251664115,-0.6039834230389144,1.13594911768877,0.0645956157944853,-0.11646052391661094
1590515715.5884945,-0.17673992673992672,-3.7916308329351804,8.514801720019111,0.4455555555555555,0.27111111111111114,-0.6144444444444445,-2.316899585921325,0.4545707915273133,1.5184444179009398
1590515715.5984945,-0.2785203487619984,-2.8380867247936665,8.982921269824843,0.4455555555555555,0.27111111111111114,-0.6144444444444445,-12.085940531939665,0.7578927453364726,7.192444891464645
1590515715.6084945,-0.33286387675327667,-3.0296769372269488,9.342609795355255,0.4455555555555555,0.27111111111111114,-0.6144444444444445,-11.574909461945275,4.326360945044838,11.331556104851689
1590515715.6184945,-0.2695179624338946,-2.853869065710291,9.174202784025288,0.4455555555555555,0.27111111111111114,-0.6144444444444445,-5.861095070208497,3.0502173120175065,15.91772156707799
1590515715.6284945,-0.1739144876094956,-2.623481389820574,8.920433097788923,0.45686038475872076,0.27111111111111114,-0.5987432927733817,-1.5597585398417402,-0.9212242339379334,24.546431827802923
1590515715.6384945,-0.22352089503126027,-2.7270417900625206,8.907640671273445,0.4655555555555556,0.27111111111111114,-0.5866666666666667,-1.3455083909180652,-2.209279368213228,34.25170697597894
1590515715.6484945,-0.23405883947939263,-2.807529284164859,8.777412147505423,0.4655555555555556,0.27111111111111114,-0.5866666666666667,-1.0172807077006507,-3.2698515455531454,42.70403165672451
1590515715.6584945,-0.2356328439868858,-2.885062751895086,8.7194299079082,0.4655555555555556,0.27111111111111114,-0.5866666666666667,-1.0747580240983983,-4.012258024098398,49.536348591475765
1590515715.6684945,-0.22109790351212277,-2.9389020964878774,8.764176572365908,0.4655555555555556,0.27111111111111114,-0.5866666666666667,-1.197792845426151,-4.578310731860773,54.94450374132081
1590515715.6784945,-0.21251581134803038,-2.96834387423202,8.80085968558005,0.4604565213026543,0.2632307854475365,-0.5894479580773401,-1.1303730348753163,-5.0053730348753165,59.74202091615468
1590515715.6884944,-0.23,-2.9900500186791747,8.833350006226391,0.4533333333333333,0.25222222222222224,-0.5933333333333334,-1.3125,-5.229375077829895,63.61000217923706
1590515715.6984944,-0.2365280021096351,-3.0491680126578102,8.830207996835547,0.4533333333333333,0.25222222222222224,-0.5933333333333334,-1.373700019777829,-5.353300013185219,66.91670031644526
1590515715.7084944,-0.2678884508541677,-3.122844619658333,8.817155380341667,0.4533333333333333,0.25222222222222224,-0.5933333333333334,-1.4552788728645807,-5.549302817838548,69.92136479697922
1590515715.7184944,-0.30201231289232255,-3.1230800338000964,8.841067720907773,0.4533333333333333,0.25222222222222224,-0.5933333333333334,-1.4001539111540318,-5.768865433365524,71.88873128923225
1590515715.7284944,-0.32471275522086795,-3.2376436223895664,8.921148979116527,0.45961700696115726,0.25222222222222224,-0.6001406464301426,-1.5955452798695753,-5.922772639934788,73.96731984123903
1590515715.7384944,-0.34570134738873837,-3.2366515719535283,8.846696856092944,0.48,0.25222222222222224,-0.6222222222222222,-1.5356334211796148,-5.8868778070598715,75.03535039530827
1590515715.7484944,-0.41003848792012804,-3.2966538373599574,8.68319221095953,0.48,0.25222222222222224,-0.6222222222222222,-1.7704324174986663,-6.083654066001067,77.23173252800854
1590515715.7584944,-0.42740597059040863,-3.295188058819183,8.635940294095914,0.48,0.25222222222222224,-0.6222222222222222,-1.5462873161900539,-6.282425367619892,78.7732648895293
1590515715.7684944,-0.432630546796893,-3.31,8.735261093593786,0.48,0.25222222222222224,-0.6222222222222222,-1.5,-6.322372721679613,79.42762727832039
1590515715.7784944,-0.460955482835268,-3.32825913805878,8.784607310447024,0.48243455174117067,0.2424840152575396,-0.6141070497516533,-1.5684717677204247,-6.227176077426525,79.36305646455915
1590515715.7884943,-0.49749877230315925,-3.3687493861515794,8.81874938615158,0.4866666666666667,0.2255555555555556,-0.6,-1.6875,-6.242183663447372,78.96094900965788
1590515715.7984943,-0.527644211695628,-3.3723557883043718,8.787956835674047,0.4866666666666667,0.2255555555555556,-0.6,-1.6636118384511625,-6.384164484646512,78.41556573831627
1590515715.8084943,-0.554434110634332,-3.3780426382929147,8.748868221268665,0.4866666666666667,0.2255555555555556,-0.6,-1.6926598935984312,-6.522553297866144,77.44648734054327
1590515715.8184943,-0.5822212650750677,-3.4144425301501355,8.802221265075069,0.4866666666666667,0.2255555555555556,-0.6,-1.756968373123308,-6.534734186561654,76.34042733202068
1590515715.8284943,-0.5967250688466292,-3.4344833792310863,8.814483379231087,0.489157432906159,0.2168378737173325,-0.60323799611134,-1.5905211201942884,-6.353436639417135,74.71869375718282
1590515715.8384943,-0.6257428214731585,-3.446554307116105,8.821960049937578,0.4977777777777778,0.18666666666666668,-0.6144444444444445,-1.6587858926342072,-5.997893258426966,73.06843008739077
1590515715.8484943,-0.6648199079508823,-3.4231080552294704,8.767252128868765,0.4977777777777778,0.18666666666666668,-0.6144444444444445,-1.4634004602455886,-5.558276035552574,71.4076539120875
1590515715.8584943,-0.6515954231433506,-3.285797711571675,8.685797711571675,0.4977777777777778,0.18666666666666668,-0.6144444444444445,-1.3125,-5.365028605354059,68.60140732944733
1590515715.8684943,-0.696870682210708,-3.308435341105354,8.708435341105355,0.4977777777777778,0.18666666666666668,-0.6144444444444445,-1.3125,-5.082058236183074,67.04507029900691
1590515715.8784943,-0.7802867775831874,-3.398572314652656,8.859713222416811,0.49892075306479866,0.18076129435039243,-0.6159684114938055,-1.6946306735259777,-4.792861573263281,64.79282280720957
1590515715.8884943,-0.8261963660245184,-3.436830305020432,8.813803633975482,0.5040218184471688,0.15440578987481354,-0.6227698320036323,-1.1685833059690602,-4.98415152510216,63.31032568045826
1590515715.8984942,-0.8735219998788442,-3.441760999939422,8.78358500090867,0.5044444444444445,0.15222222222222226,-0.6233333333333333,-1.4779875007572238,-5.00746875189306,61.32036250832946
1590515715.9084942,-0.8911904844711857,-3.45,8.660396828157062,0.5044444444444445,0.15222222222222226,-0.6233333333333333,-1.3725198240183634,-4.754960351963273,60.12797577644072
1590515715.9184942,-0.9399045615984445,-3.4471564912002224,8.701278596797556,0.5044444444444445,0.15222222222222226,-0.6233333333333333,-1.294728070001389,-4.839456140002778,58.456464910018056
1590515715.9284942,-0.99,-3.4436764705882354,8.796544117647057,0.5093464052287582,0.14875000000000002,-0.6243545751633987,-1.2155330882352942,-4.727022058823529,57.63373161764706
1590515715.9384942,-0.9929778604022309,-3.4480885583910763,8.87297786040223,0.5311111111111111,0.13333333333333333,-0.6288888888888889,-1.0252767449721143,-4.587776744972114,56.15304419469326
1590515715.9484942,-1.0156015231038387,-3.409078933827313,8.862838324585779,0.5311111111111111,0.13333333333333333,-0.6288888888888889,-0.9667528558196974,-4.470747144180303,54.92422429762272
1590515715.9584942,-1.1040261911395932,-3.370130955697966,8.774026191139592,0.5311111111111111,0.13333333333333333,-0.6288888888888889,-1.1501636946224576,-4.237008916132628,52.87090763443856
1590515715.9684942,-1.1007233304092452,-3.375262214424654,8.792368892787673,0.5311111111111111,0.13333333333333333,-0.6288888888888889,-1.1488472100385216,-4.105673605019261,51.41568733552004
1590515715.9784942,-1.0811709793645594,-3.3235129380936783,8.815316082541763,0.5325423081122393,0.13099137460421442,-0.6305803035265859,-1.0478627579430069,-4.033225515886014,50.08167171634458
1590515715.9884942,-1.089757410743531,-3.349272232230593,8.780970357025875,0.5430368353532045,0.11381851184627143,-0.6429829266295447,-0.9405323657058631,-3.818564731411726,48.847372205617425
1590515715.9984941,-1.15,-3.4167421319117612,8.724163451029376,0.5433333333333333,0.11333333333333333,-0.6433333333333333,-0.8560532977940356,-3.626414973345527,46.82381978676421
1590515716.0084941,-1.16852478456795,-3.42852478456795,8.6870495691359,0.5433333333333333,0.11333333333333333,-0.6433333333333333,-0.8032799035496877,-3.4807033494083854,45.330083735209634
1590515716.0184941,-1.22607299957035,-3.47321459991407,8.77321459991407,0.5433333333333333,0.11333333333333333,-0.6433333333333333,-0.9419525032223746,-3.4174087505370623,43.74771876342656
1590515716.0284941,-1.2719669538662886,-3.48,8.796753735412803,0.5404080779437961,0.10907841640309739,-0.6414718071763551,-0.7772521539971644,-3.375,42.343450076344205
1590515716.038494,-1.31,-3.4833075854273132,8.843384829145373,0.5311111111111111,0.09555555555555556,-0.6355555555555555,-1.0211551821585851,-3.3543275910792927,40.77453459482373
1590515716.048494,-1.3132768813296507,-3.493276881329651,8.787400542714542,0.5311111111111111,0.09555555555555556,-0.6355555555555555,-0.8965389833793671,-3.3125,39.23904576731114
1590515716.058494,-1.32,-3.496936127959937,8.718383232240377,0.5311111111111111,0.09555555555555556,-0.6355555555555555,-0.8507984005007879,-3.2359031989984244,37.62206839424094
1590515716.068494,-1.3305234928127012,-3.4984187942501612,8.77473288993778,0.5311111111111111,0.09555555555555556,-0.6355555555555555,-0.8848825359364944,-2.9835738039047413,36.282986483587216
1590515716.078494,-1.368321968090313,-3.5316780319096868,8.83,0.5340942789505548,0.09555555555555556,-0.6394709633448254,-0.6455492022578224,-2.6140861039511893,34.67488131749813
1590515716.088494,-1.3655411532691692,-3.54,8.824458846730831,0.5488888888888889,0.09555555555555556,-0.6588888888888889,-0.40286779206769263,-2.301948311898461,32.577649088947695
1590515716.098494,-1.379680752439867,-3.54,8.810319247560134,0.5488888888888889,0.09555555555555556,-0.6588888888888889,-0.31449529725083014,-2.434507054123755,31.340434161511624
1590515716.108494,-1.3834040316313938,-3.466702015815697,8.716702015815697,0.5488888888888889,0.09555555555555556,-0.6588888888888889,-0.35438759884810533,-2.1452810028797367,28.93385461900626
1590515716.118494,-1.4126172050018329,-3.48,8.745703230010998,0.5488888888888889,0.09555555555555556,-0.6588888888888889,-0.48657259378436724,-1.9211424687385443,27.088131593417785
1590515716.128494,-1.4250272693148447,-3.481256817328711,8.79125681732871,0.5497267671080297,0.09304192089813323,-0.6643350973133039,-0.6328551083044448,-1.875,25.537912075779992
1590515716.138494,-1.4614675340923307,-3.4922013011384965,8.796331164769173,0.5555555555555556,0.07555555555555556,-0.7022222222222222,-0.6783279119229325,-1.875,23.943262854998125
1590515716.148494,-1.48,-3.52,8.740181941372233,0.5555555555555556,0.07555555555555556,-0.7022222222222222,-0.5471592833941133,-1.82897785018234,21.9772785018234
1590515716.158494,-1.4835478820561885,-3.5247305094082515,8.71354788205619,0.5555555555555556,0.07555555555555556,-0.7022222222222222,-0.5073914209503928,-1.6579343161984286,20.348148792438607
1590515716.168494,-1.5147827619817915,-3.56,8.75673966693627,0.5555555555555556,0.07555555555555556,-0.7022222222222222,-0.5176616064207056,-1.452446131193098,18.33150832659325
1590515716.178494,-1.531630519097707,-3.56,8.811630519097708,0.5568237370759944,0.07772958101916494,-0.7056644292062704,-0.36480925563933103,-1.4184740451146483,16.684086924819262
1590515716.188494,-1.54,-3.5660110430679652,8.823005521533982,0.5633333333333334,0.08888888888888889,-0.7233333333333334,-0.3312845095873908,-1.0375690191747817,14.461395693203494
1590515716.198494,-1.54,-3.572287365365311,8.808790254754605,0.5633333333333334,0.08888888888888889,-0.7233333333333334,-0.3870509916167015,-1.100898016766597,12.66481727664885
1590515716.208494,-1.5490621438128749,-3.5430207146042916,8.735103573021458,0.5633333333333334,0.08888888888888889,-0.7233333333333334,-0.45637946627682247,-0.9622410674463551,10.414736545418505
1590515716.218494,-1.5751747647578087,-3.5551747647578082,8.762237852863286,0.5633333333333334,0.08888888888888889,-0.7233333333333334,-0.4676577202636966,-0.7779731607910899,8.706734922900663
1590515716.228494,-1.5915835758370376,-3.5707917879185187,8.742375363755556,0.5617497574962959,0.08827305384115208,-0.7261485792658445,-0.3799486744907422,-0.4802053020370311,7.548937114259218
1590515716.238494,-1.6078009700618834,-3.5756019401237666,8.765601940123766,0.5433333333333333,0.0811111111111111,-0.7588888888888888,-0.41001212577354074,-0.23625606288677037,5.566413697942799
1590515716.248494,-1.6007859173774879,-3.5615718347549756,8.751571834754976,0.5433333333333333,0.0811111111111111,-0.7588888888888888,-0.3223239672185984,-0.1924119836092992,4.382623557451079
1590515716.258494,-1.597022646411024,-3.5685113232055117,8.702977353588976,0.5433333333333333,0.0811111111111111,-0.7588888888888888,-0.2686084599311007,-0.053195770034449655,2.1211561811712882
1590515716.268494,-1.581231151521997,-3.5606155757609983,8.718768848478003,0.5433333333333333,0.0811111111111111,-0.7588888888888888,-0.36730530298751907,-0.0038473485062404666,0.4433098492121761
1590515716.278494,-1.6298398121936062,-3.59,8.790080093903196,0.5430040583979685,0.0811111111111111,-0.7591558685662116,-0.6869994131050197,0.2494994131050197,-2.079519954429331
1590515716.2884939,-1.6105330387350687,-3.59,8.799733480632467,0.5033179129554191,0.0811111111111111,-0.7913338243304411,-0.6266657460470897,0.1891657460470897,-4.13086463439895
1590515716.2984939,-1.575302109160072,-3.572953163740108,8.771208436640288,0.5022222222222222,0.0811111111111111,-0.7922222222222223,-0.580957273375675,0.5255854532486499,-6.609469992867575
1590515716.3084939,-1.5610566178718202,-3.55158492680773,8.714226471487281,0.5022222222222222,0.0811111111111111,-0.7922222222222223,-0.4474057925483137,0.7926884149033726,-8.07853628196855
1590515716.3184938,-1.5822680653589674,-3.6045361307179347,8.77907226143587,0.5022222222222222,0.0811111111111111,-0.7922222222222223,-0.534149183012908,1.113403267948368,-11.07539338220957
1590515716.3284938,-1.587751988738665,-3.622248011261335,8.808501325825777,0.49922487387377557,0.07869658049708464,-0.7934711173674084,-0.4375,1.5187334271777917,-13.446700985366812
1590515716.3384938,-1.5513358657803102,-3.6557760894797933,8.804440223699482,0.4622222222222222,0.048888888888888885,-0.8088888888888889,-0.4194497203756463,1.8041508388730612,-16.74141342196898
1590515716.3484938,-1.5223638805901016,-3.683363208967322,8.807546492507932,0.4622222222222222,0.048888888888888885,-0.8088888888888889,-0.38693143657796614,1.9732943097338984,-19.34032602654068
1590515716.3584938,-1.4882094853580008,-3.7435810292839986,8.67,0.4622222222222222,0.048888888888888885,-0.8088888888888889,-0.45988143302499107,2.2033350155874687,-21.76012866049982
1590515716.3684938,-1.4780580065682745,-3.7658259802951766,8.679709967158628,0.4622222222222222,0.048888888888888885,-0.8088888888888889,-0.5989123768448542,2.611049835793139,-24.35868565267281
1590515716.3784938,-1.4668955328059563,-3.78407328990228,8.71407328990228,0.46209678920428104,0.04741505092808024,-0.8076345587094773,-0.7464721963704049,2.8195556072591903,-26.699083876221497
1590515716.3884938,-1.3604670169293638,-3.5807160926250243,8.510747227086982,0.4577777777777778,-0.0033333333333333327,-0.7644444444444445,-0.6224703249659467,3.0644459038723486,-29.258172796263864
1590515716.3984938,-1.471762988908348,-3.7513699163261336,8.688820782253357,0.4577777777777778,-0.0033333333333333327,-0.7644444444444445,-0.01961714341311538,3.52817912045145,-31.205852305896087
1590515716.4084938,-1.5002070069357993,-3.741449048550596,8.867515916770406,0.4577777777777778,-0.0033333333333333327,-0.7644444444444445,-2.5667792993064205,2.1573448337186556,-34.690485505957675
1590515716.4184937,-1.531556420233463,-3.7636673151750974,8.593881322957198,0.4577777777777778,-0.0033333333333333327,-0.7644444444444445,-0.3568822957198443,3.35767266536965,-35.538910505836576
1590515716.4284937,-1.5118678248192918,-3.7793773917269027,8.763812184899471,0.4577777777777778,-0.0033333333333333327,-0.7644444444444445,-1.0393913624491282,3.9219347931725688,-37.449652250501124
1590515716.4384937,-1.5803731943001627,-3.7878192438111293,8.740903780944354,0.48905475302229456,-0.004202138201236577,-0.7418555178789601,-0.6851675356239832,3.888629726180443,-38.58877575021071
1590515716.4484937,-1.53,-3.7233422417582416,8.874465230769232,0.4977777777777778,-0.004444444444444445,-0.7355555555555555,-0.9446021978021978,4.01387032967033,-39.569518681318684
1590515716.4584937,-1.53,-3.679094681318681,8.771220923076923,0.4977777777777778,-0.004444444444444445,-0.7355555555555555,-0.1610516483516483,4.106052747252747,-39.20078901098901
1590515716.4684937,-1.4109001165421264,-3.7502373688901076,8.737487660245424,0.4977777777777778,-0.004444444444444445,-0.7355555555555555,-0.302423604922191,4.139218567902927,-38.46445358024268
1590515716.4784937,-1.353392746966477,-3.8149331596627136,8.658415027078906,0.4977777777777778,-0.004444444444444445,-0.7355555555555555,0.5512014122163571,4.22907383286488,-38.239815417837804
1590515716.4884937,-1.2560039847183995,-3.9033200509386683,8.807335989812266,0.4777777777777778,-0.008888888888888889,-0.7644444444444445,0.3208250318366676,4.516650063673335,-40.08710152816005
1590515716.4984937,-1.2301589779402702,-3.9894700735324324,8.790105985293513,0.4777777777777778,-0.008888888888888889,-0.7644444444444445,0.3746687959577702,4.62433759191554,-42.67160220597297
1590515716.5084937,-1.0758895080023712,-4.050552459988145,8.627668524007113,0.4777777777777778,-0.008888888888888889,-0.7644444444444445,0.47948873740367515,4.73715471250741,-45.53604919976289
1590515716.5184937,-1.072854857142857,-4.115859657142857,8.596711314285715,0.4777777777777778,-0.008888888888888889,-0.7644444444444445,1.044657142857143,4.703568571428572,-47.438337142857144
1590515716.5284936,-1.136768,-4.0455552,8.679798400000001,0.4777777777777778,-0.008888888888888889,-0.7644444444444445,0.6452,4.78346,-48.99622
1590515716.5384936,-1.16,-4.039608520014689,8.72960852001469,0.4843139511160077,-0.05573146447953645,-0.6947252621699923,0.990213000367242,5.118883125229527,-51.27824550128535
1590515716.5484936,-1.205088624635405,-3.9983037917881985,8.800987211128561,0.4844444444444445,-0.05666666666666665,-0.6933333333333334,0.6462026026475207,4.751107807942562,-52.3844934933812
1590515716.5584936,-1.2312033012648338,-3.9866909215217077,8.612707427845875,0.4844444444444445,-0.05666666666666665,-0.6933333333333334,0.7481198417736973,5.056859525321092,-52.09491746837916
1590515716.5684936,-1.2695222320218555,-3.8842999118033,8.69904446404371,0.4844444444444445,-0.05666666666666665,-0.6933333333333334,0.705416299180416,4.872013950136598,-51.062292952868546
1590515716.5784936,-1.2604997095962311,-3.9655026136339195,8.680999419192462,0.4844444444444445,-0.05666666666666665,-0.6933333333333334,1.0437608901413298,4.815623184976445,-49.87808688450534
1590515716.5884936,-1.282254259501966,-3.8661467889908256,8.79127129750983,0.4745536624435707,-0.026170088830639288,-0.6504732779962138,0.6915956749672345,4.673410878112713,-48.60706094364351
1590515716.5984936,-1.2621698299723212,-3.857830170027679,8.79289310662976,0.4711111111111111,-0.015555555555555557,-0.6355555555555555,0.6204795208909978,4.219143353763016,-44.70872874654013
1590515716.6084936,-1.1758043520123242,-3.9059248989023683,8.6904960523782,0.4711111111111111,-0.015555555555555557,-0.6355555555555555,1.1033843635663394,4.043984690930098,-41.3280016368188
1590515716.6184936,-0.9607819897142468,-4.0703909948571235,8.707263036000137,0.4711111111111111,-0.015555555555555557,-0.6355555555555555,0.3467120499982971,3.612781410714894,-36.143883467865535
1590515716.6284935,-0.9750672661012908,-4.0775336330506455,8.657264568645482,0.4711111111111111,-0.015555555555555557,-0.6355555555555555,0.9716928919314738,3.3895739671673306,-33.063620746909166
1590515716.6384935,-0.9700965250965251,-4.0813397683397685,8.745262548262549,0.4844444444444445,0.048888888888888885,-0.6133333333333333,0.5541264478764478,2.6997586872586874,-27.409362934362935
1590515716.6484935,-1.1162376883438785,-4.07737068684365,8.660825125562585,0.4844444444444445,0.048888888888888885,-0.6133333333333333,0.4774476550779466,2.2960667927728133,-22.522205824799425
1590515716.6584935,-1.2012703504498203,-4.0077050722365595,8.698729649550181,0.4844444444444445,0.048888888888888885,-0.6133333333333333,0.4070180410506259,1.931096391789875,-19.28868092906587
1590515716.6684935,-1.2851770604826074,-3.893896436669309,8.619182627610742,0.4844444444444445,0.048888888888888885,-0.6133333333333333,0.6439031190664921,1.8205038988331153,-17.393903119066493
1590515716.6784935,-1.153735506110937,-3.8397734436927387,8.789283462679965,0.4844444444444445,0.048888888888888885,-0.6133333333333333,0.2573103120909912,1.3372628901137391,-17.00731031209099
1590515716.6884935,-1.0771832806269765,-3.9606805994775196,8.678544479582015,0.49,0.10222222222222224,-0.5988888888888889,0.4475130620101746,1.8024869379898254,-15.640772377285852
1590515716.6984935,-0.8166596292699404,-4.1817527340286285,8.780783262255627,0.49,0.10222222222222224,-0.5988888888888889,0.694459105687624,1.6349227293839463,-14.881959105687624
1590515716.7084935,-0.6517243131972859,-4.340940303438461,8.52799384990724,0.49,0.10222222222222224,-0.5988888888888889,1.069161541589367,1.7241384787415182,-15.343261582251138
1590515716.7184935,-0.8806660652848871,-4.168190819837207,8.68574557355039,0.49,0.10222222222222224,-0.5988888888888889,1.0644877066375766,2.3257950826550307,-16.907740779978184
1590515716.7284935,-1.0654447428043972,-4.062603004111772,8.826529327850968,0.49,0.10222222222222224,-0.5988888888888889,-0.03538537383569684,1.8858458504657212,-16.082835969623225
1590515716.7384934,-1.1756441149212233,-3.9317794253938834,8.711288229842445,0.4977777777777778,0.13444444444444445,-0.5988888888888889,0.7537071362372567,1.2654657089898054,-12.322984244670991
1590515716.7484934,-1.1880378326386662,-3.8164411670407183,8.747117665918564,0.4977777777777778,0.13444444444444445,-0.5988888888888889,0.5115020840012825,1.039495831997435,-10.629228117986534
1590515716.7584934,-1.104790912838364,-3.8612664315485734,8.657467136902852,0.4977777777777778,0.13444444444444445,-0.5988888888888889,0.5915471991938808,0.8794056016122384,-9.788754408464252
1590515716.7684934,-0.9844169198410844,-3.9846015424164527,8.686564617901379,0.4977777777777778,0.13444444444444445,-0.5988888888888889,0.9221634727740127,0.9907980836644076,-8.427144192568358
1590515716.7784934,-0.9738735957594193,-3.996126404240581,8.70225280848116,0.4977777777777778,0.13444444444444445,-0.5988888888888889,0.5928897614673373,1.1148700795108877,-7.838939628949191
1590515716.7884934,-1.01055675945991,-4.0067594599099845,8.76407567927988,0.4977777777777778,0.14796336426441445,-0.6033951954955455,0.45949324887481247,1.0607601266877813,-7.542246624437406
1590515716.7984934,-1.0091185038808645,-4.044802493531892,8.796960498706378,0.4977777777777778,0.15444444444444444,-0.6055555555555555,0.8480249353189235,1.0435031169148654,-8.171543636808117
1590515716.8084934,-1.0,-4.06,8.67074616431804,0.4977777777777778,0.15444444444444444,-0.6055555555555555,1.0,1.1867825343095773,-10.115314213179293
1590515716.8184934,-0.9848474299700843,-4.006966004895295,8.753339135164536,0.4977777777777778,0.15444444444444444,-0.6055555555555555,1.1894071253739462,1.4716106880609192,-11.49820165896111
1590515716.8284934,-1.0158549989961856,-4.004341999598474,8.744145001003815,0.4977777777777778,0.15444444444444444,-0.6055555555555555,1.2948187487452318,1.2935875075286087,-13.416518708592651
1590515716.8384933,-1.0027104882660438,-4.003177622066511,8.777756645534424,0.4924714838295085,0.16733115831881265,-0.6055555555555555,1.3551398620843065,1.4433391725058393,-14.895437103770437
1590515716.8484933,-0.9641396424899153,-4.087395396662185,8.740232737483192,0.49,0.17333333333333334,-0.6055555555555555,1.1834303072846635,1.7459303072846635,-16.095057541722692
1590515716.8584933,-0.8894961638851538,-4.054220517282291,8.61582693980859,0.49,0.17333333333333334,-0.6055555555555555,1.1315945582535791,1.6940945582535791,-16.509743533971367
1590515716.8684933,-0.8604350498383261,-4.079347425242511,8.688042275727533,0.49,0.17333333333333334,-0.6055555555555555,1.430702346276155,1.6875,-16.929342815531385
1590515716.8784933,-0.8324410345751809,-4.125931609041365,8.754304252657912,0.49,0.17333333333333334,-0.6055555555555555,1.035598420888055,1.7449145113017064,-16.59301293218976
1590515716.8884933,-0.33457449515394044,-4.685212694594157,8.81191482963614,0.4844444444444445,0.1955555555555556,-0.6266666666666667,1.4035905947121279,1.7433511253498646,-15.367686093312669
1590515716.8984933,-0.5364327591616984,-4.181695925748542,8.368128684910241,0.4844444444444445,0.1955555555555556,-0.6266666666666667,2.5884502320358047,2.194809953592839,-14.65533599775396
1590515716.9084933,-0.6126285280177041,-4.320233687304917,8.58286221532262,0.4844444444444445,0.1955555555555556,-0.6266666666666667,2.155519727172136,2.281396054565573,-12.793734826840184
1590515716.9184933,-0.7114394290758389,-4.27776088810425,8.94776088810425,0.4844444444444445,0.1955555555555556,-0.6266666666666667,-1.338014669579138,-1.2785134801538025,-9.21701308367869
1590515716.9284933,-0.7679164858839899,-4.1899076886249045,8.859907688624904,0.4844444444444445,0.1955555555555556,-0.6266666666666667,0.11313192896362878,0.05497258337198341,-7.922747198491899
1590515716.9384933,-0.8603816348637614,-4.094713773852179,8.779809182568119,0.48612171207954896,0.1955555555555556,-0.6166030608560398,-0.05313619698358463,0.5294610865761187,-6.762941629864178
1590515716.9484932,-0.9515151832680177,-3.987575706771172,8.65,0.4866666666666667,0.1955555555555556,-0.6133333333333333,0.9147722509797347,0.6268939790850221,-6.445075916340088
1590515716.9584932,-0.9954649286417838,-3.917256114173146,8.65,0.4866666666666667,0.1955555555555556,-0.6133333333333333,0.25552607037324226,0.6818311608022298,-6.664824643208919
1590515716.9684932,-0.9629766333982952,-4.043284119766137,8.753665426484773,0.4866666666666667,0.1955555555555556,-0.6133333333333333,0.32633762475639283,0.6412207917478691,-6.1784287092265595
1590515716.9784932,-0.8958730532160165,-4.042638921564014,8.756170658260011,0.4866666666666667,0.1955555555555556,-0.6133333333333333,0.3327133228250129,0.7095733543499742,-4.4353929445254785
1590515716.9884932,-0.8203427627958173,-4.088278701155751,8.727585690698955,0.4990809759677124,0.1955555555555556,-0.6188508041337981,0.467678866263071,0.5172317006053935,-2.019327187671987
1590515716.9984932,-0.4060782943026914,-4.705882558545963,8.672009786787836,0.5066666666666667,0.1955555555555556,-0.6222222222222222,0.9224265990912268,0.614951066060818,1.699449493184201
1590515717.0084932,-0.2641189020637591,-4.7803524391744965,8.552510975259509,0.5066666666666667,0.1955555555555556,-0.6222222222222222,1.5669054896812047,0.8872522873671687,5.431581565666926
1590515717.0184932,-0.3752462376177942,-4.702248387550483,8.565995700134623,0.5066666666666667,0.1955555555555556,-0.6222222222222222,1.0641061705077457,0.11489581868231229,11.071733910667282
1590515717.0284932,-0.4932317305953505,-4.752813598826578,8.700836263537544,0.5066666666666667,0.1955555555555556,-0.6222222222222222,-0.30536830155317585,-1.5179391287749402,15.496189897325646
1590515717.0384932,-0.831174181879364,-4.227651636241272,8.55375283923614,0.5188888888888888,0.14888888888888888,-0.6133333333333333,-1.686972901068394,-2.522928146294271,18.14989458021368
1590515717.0484931,-0.9458496677042146,-3.9983006645915706,8.694891898712878,0.5188888888888888,0.14888888888888888,-0.6133333333333333,0.24266267771515126,-1.4754116892403466,17.763967464456968
1590515717.0584931,-1.0314823599169878,-3.970741179958494,8.67237177586718,0.5188888888888888,0.14888888888888888,-0.6133333333333333,-0.861102875778239,-1.5560146753631783,16.119441150311296
1590515717.0684931,-1.1271356245296358,-4.018567812264817,8.825416999247418,0.5188888888888888,0.14888888888888888,-0.6133333333333333,0.03564647996533554,-1.1375316426828435,15.760741408013866
1590515717.078493,-1.1357761215218625,-3.916029812606473,8.835776121521862,0.5188888888888888,0.14888888888888888,-0.6133333333333333,-0.009701519023282229,-1.0527984809767177,15.605596961953436
1590515717.088493,-1.1167889104687916,-3.84,8.821431128375034,0.5219837008263833,0.10865633370146108,-0.6133333333333333,-0.09151386191401044,-1.0290138619140103,15.354930690429947
1590515717.098493,-1.07,-3.75,8.7,0.5255555555555556,0.06222222222222223,-0.6133333333333333,0.25,-0.8125,14.6875
1590515717.108493,-1.0789641546711828,-3.7791335026813435,8.679830651989839,0.5255555555555556,0.06222222222222223,-0.6133333333333333,0.15195455828394017,-0.7984935083262772,14.6875
1590515717.118493,-1.0763831767792165,-3.8896048066345097,8.672431243124311,0.5255555555555556,0.06222222222222223,-0.6133333333333333,-0.09745493780147245,-0.7199849792671575,14.987650207328425
1590515717.128493,-1.0186822894300964,-3.958623704067235,8.787964848782284,0.5255555555555556,0.06222222222222223,-0.6133333333333333,0.033308922765474515,-0.6875,15.67889815042022
1590515717.138493,-0.9223936092955701,-4.116708787218592,8.742692810457516,0.602084079722424,-0.16628548374082144,-0.4872229484386347,0.18375998547567174,-0.5662400145243283,14.362990196078432
1590515717.148493,-0.9296807533843437,-4.110319246615656,8.63351171277222,0.6044444444444445,-0.17333333333333334,-0.4833333333333333,0.1875,-0.5625,14.3125
1590515717.158493,-0.9824566221848848,-4.083771688907558,8.597214611134447,0.6044444444444445,-0.17333333333333334,-0.4833333333333333,0.10553652783611749,-0.398573055672235,12.71421229280429
1590515717.168493,-1.057951657886582,-4.077991942981097,8.65991942981097,0.6044444444444445,-0.17333333333333334,-0.4833333333333333,-0.18724821815928105,-0.41239928726371244,10.626258909203594
1590515717.178493,-1.1162460460100647,-4.046967109992811,8.792311826024443,0.6044444444444445,-0.17333333333333334,-0.4833333333333333,-0.3325822250179727,-0.6026644500359454,10.76670223759885
1590515717.188493,-1.1887019569196113,-4.0056490215401945,8.768830071800647,0.73702199383672,-0.4799752843086646,0.16873175653479744,-0.2735375897508095,-0.7382312051245953,12.217548922990286
1590515717.198493,-1.1729980814639904,-3.9122437647579695,8.797253357438017,0.7677777777777778,-0.5511111111111111,0.32,-0.20780950228748524,-0.8343809954250295,14.103238913075561
1590515717.208493,-1.185390154809532,-3.8784633849365107,8.599951991650723,0.7677777777777778,-0.5511111111111111,0.32,-0.5048769351191511,-1.0336884675595757,16.726365454861714
1590515717.218493,-1.1126179401993357,-3.819813953488372,8.688970099667776,0.7677777777777778,-0.5511111111111111,0.32,-0.13259966777408638,-1.2237126245847176,18.782101328903654
1590515717.228493,-1.1140392679390212,-3.8450981698475526,8.759137437786574,0.7677777777777778,-0.5511111111111111,0.32,-0.15024542461888152,-1.3377454246188816,20.68579035544931
1590515717.238493,-1.0871295366518434,-3.8819136422321043,8.801913642232105,0.9449130524872886,0.0843845136199175,0.15808253239611725,-0.11901986802467364,-1.4092400659876632,22.402201979629893
1590515717.248493,-1.0902158382732938,-3.9075539595683235,8.797338121295029,1.0911111111111111,0.6088888888888889,0.024444444444444446,-0.48741022571819426,-1.5319244946040431,24.571942924456604
1590515717.258493,-1.1085371483529696,-3.8587771098821833,8.627794181293579,1.0911111111111111,0.6088888888888889,0.024444444444444446,-0.625,-1.7225715316181776,26.22721507573936
1590515717.268493,-1.1273036834486085,-3.832696316551391,8.634607366897217,1.0911111111111111,0.6088888888888889,0.024444444444444446,-0.5889506594820653,-1.8220986810358695,27.59107889657391
1590515717.278493,-1.1349829899223312,-3.7798639193786507,8.715187110854355,1.0911111111111111,0.6088888888888889,0.024444444444444446,-0.37436212208742536,-2.188563129854291,29.50361464150459
1590515717.288493,-1.1668570118791357,-3.7663264370565255,8.817387586701745,0.9489483510058732,0.5152837793545758,-0.27099668252323117,-0.3520402316032847,-2.467091953679343,31.61555748226102
1590515717.298493,-1.2072171739216697,-3.7755656521566605,8.823914130391652,0.8211111111111111,0.4311111111111111,-0.5366666666666666,-0.4097853259791278,-2.527714674020872,34.09614945835483
1590515717.308493,-1.2274702410723217,-3.7874702410723216,8.740119035710713,0.8211111111111111,0.4311111111111111,-0.5366666666666666,-0.33860366443266315,-2.6716890067020107,35.92497540928945
1590515717.318493,-1.2146371860805585,-3.7556150756409776,8.651955779120838,0.8211111111111111,0.4311111111111111,-0.5366666666666666,-0.23324120650174557,-2.75,37.96175250572469
1590515717.3284929,-1.1698729225932025,-3.705898338074562,8.75653372510855,0.8211111111111111,0.4311111111111111,-0.5366666666666666,-0.41345308055098073,-2.938294233792484,39.56647116896242
1590515717.3384929,-1.188547174026361,-3.774803782857994,8.724358477920918,0.6814846807489596,0.3026205310232416,-0.624040261126418,-0.46613206493409787,-2.9661320649340976,40.62115570779656
1590515717.3484929,-1.1848833231263065,-3.7848833231263064,8.848725107173781,0.64,0.2644444444444444,-0.65,-0.5792188456908749,-3.1264584609211665,40.98619807615146
1590515717.3584929,-1.1874589379097003,-3.765082124180599,8.758280179715696,0.64,0.2644444444444444,-0.65,-0.625,-3.094263276128747,40.78278982838624
1590515717.3684928,-1.1728829170504416,-3.725765834100883,8.71570569431652,0.64,0.2644444444444444,-0.65,-0.41103646313051956,-3.0625,40.259572926261036
1590515717.3784928,-1.1800016516640515,-3.710000825832026,8.664995457923858,0.64,0.2644444444444444,-0.65,-0.3750103229003221,-2.874984515649517,39.24994322404823
1590515717.3884928,-1.210136396573036,-3.6946590085674096,8.726568560589914,0.6135327422815168,0.23459838786828258,-0.6646414617166078,-0.5633524785814756,-2.750852478581476,37.707241539150075
1590515717.3984928,-1.2536110117983554,-3.7237776188773686,8.806388988201643,0.5877777777777777,0.20555555555555555,-0.6788888888888889,-0.20486235252055773,-2.602431176260279,35.86666964604934
1590515717.4084928,-1.254513797013797,-3.726770695520696,8.751284492534493,0.5877777777777777,0.20555555555555555,-0.6788888888888889,-0.33876069032319034,-2.5,34.019957238707235
1590515717.4184928,-1.2383123443871107,-3.64403023851622,8.728312344387112,0.5877777777777777,0.20555555555555555,-0.6788888888888889,-0.29140430483888424,-2.536523923790279,32.60233013387219
1590515717.4284928,-1.2143333793674906,-3.631777655020025,8.813999723795057,0.5877777777777777,0.20555555555555555,-0.6788888888888889,-0.5791655158127331,-2.1381956912028723,31.059030175390138
1590515717.4384928,-1.1949634186217608,-3.6397805117305646,8.799268372435217,0.5670718321116833,0.18596885019573647,-0.6939986330236064,-0.3394059613340963,-2.0018290689119596,29.36814099158015
1590515717.4484928,-1.196813305549124,-3.630439916647372,8.774946361040364,0.5466666666666666,0.16666666666666666,-0.7088888888888889,-0.13324843713822643,-1.739002083815698,26.861923091765068
1590515717.4584928,-1.1858742373094584,-3.604685593273646,8.774685593273645,0.5466666666666666,0.16666666666666666,-0.7088888888888889,-0.09178495796028766,-1.6324290252238274,24.270993646866415
1590515717.4684927,-1.18,-3.629748958227462,8.765678422603923,0.5466666666666666,0.16666666666666666,-0.7088888888888889,-0.07098028254903953,-1.4745591523528814,21.86745350137209
1590515717.4784927,-1.1943572122726642,-3.6743572122726644,8.755642787727336,0.5466666666666666,0.16666666666666666,-0.7088888888888889,-0.03526742329584895,-1.1629457054930816,19.189278772733584
1590515717.4884927,-1.1875543562066306,-3.675036237471087,8.777409406322281,0.5433413861046861,0.1508715839972586,-0.703900968045918,0.24954703161141092,-0.9064764841942945,15.286912104857363
1590515717.4984927,-1.151321087840355,-3.715886259455432,8.749849522976497,0.5422222222222223,0.14555555555555555,-0.7022222222222222,0.3483486401995562,-0.5882108784035505,12.492476148824853
1590515717.5084927,-1.1185505865102638,-3.8072470674486802,8.72,0.5422222222222223,0.14555555555555555,-0.7022222222222222,0.3392205828445748,-0.16032349706744867,8.137646627565982
1590515717.5184927,-1.0502482778415614,-3.8174081515499427,8.698272101033295,0.5422222222222223,0.14555555555555555,-0.7022222222222222,0.4143495264064294,0.13579936854190586,2.6050157864523533
1590515717.5284927,-1.0139818428644154,-3.7853393857118616,8.731266757169523,0.5422222222222223,0.14555555555555555,-0.7022222222222222,0.4708711606991346,0.6578037502121161,-3.658074198201256
1590515717.5384927,-1.057898875045361,-3.77535018749244,8.79464981250756,0.5360224722121419,0.1362559305404352,-0.6955058263779687,0.49562265634450225,1.2703066408612556,-11.311411334220395
1590515717.5484927,-1.106580561834033,-3.709204606608546,8.833161123668066,0.5288888888888889,0.12555555555555556,-0.6877777777777778,0.5625,1.817471208696588,-20.253740178667528
1590515717.5584927,-1.1485492892946219,-3.602901421410756,8.710116231203235,0.5288888888888889,0.12555555555555556,-0.6877777777777778,0.9193661161827735,2.5710826452284667,-28.86230083299029
1590515717.5684927,-1.1215940735451626,-3.4647822206354872,8.734493038200643,0.5288888888888889,0.12555555555555556,-0.6877777777777778,0.966485183862906,3.0860518564798287,-34.893129685826494
1590515717.5784926,-1.11,-3.4163884975553165,8.807640258556393,0.5288888888888889,0.12555555555555556,-0.6877777777777778,1.1927156708378222,3.400179725698185,-38.88983643407641
1590515717.5884926,-1.0638186988567118,-3.440787534095526,8.806909349428356,0.5305993074497514,0.13923890404245579,-0.6809361035343277,1.4568165660727759,3.7886331321455518,-42.73709266728571
1590515717.5984926,-1.0222863778982112,-3.484642027627236,8.82771362210179,0.5311111111111111,0.14333333333333334,-0.6788888888888889,1.5866050690680902,3.96160506906809,-45.31870645042989
1590515717.6084926,2.0945565271705187,-0.4513814282739954,-0.6554679367062253,0.5311111111111111,0.14333333333333334,-0.6788888888888889,-42.42613991255465,119.3720331043098,-164.73094615344576
1590515717.6184926,-2.8666601417482283,-1.6627661154235573,-2.3197853526830916,0.5311111111111111,0.14333333333333334,-0.6788888888888889,-16.166894476319044,12.865389807627423,-390.1729553380583
1590515717.6284926,-2.368116759998237,-2.221393800432118,-0.5975413378014903,0.5311111111111111,0.14333333333333334,-0.6788888888888889,-0.8980499581110282,-9.54152519952379,-463.07531196260857
1590515717.6384926,-0.0044295476863263905,-1.6732740135072848,-0.12192589029840277,0.5240279809659958,0.1460576141583777,-0.6718057587437735,-7.195834335357422,23.373148760496203,-451.84333102867794
1590515717.6484926,-0.2281288532675709,-1.971703041512536,1.1338060008220303,0.5166666666666667,0.14888888888888888,-0.6644444444444444,-11.059354449239622,29.536611179613644,-440.09605040073984
1590515717.6584926,-2.540332204740092,-3.803070703047202,6.6342776339374625,0.5166666666666667,0.14888888888888888,-0.6644444444444444,27.166331408086037,50.51388667596096,-413.11313732324237
1590515717.6684926,-0.7533691587210676,-2.1027640578147637,8.709418483204743,0.5166666666666667,0.14888888888888888,-0.6644444444444444,97.39665316195546,17.492676291230076,-356.31167455611336
1590515717.6784925,2.627924127576989,0.6872042183895419,4.716431945512468,0.5166666666666667,0.14888888888888888,-0.6644444444444444,65.142409553627,-30.25634863964261,-297.5510477315171
1590515717.6884925,2.1505242702833094,-2.2109978825484466,11.318543246937736,0.4655283354329161,0.2682116617676402,-0.6473983340331942,-1.5651334128494447,37.133084510439836,-232.8595764426814
1590515717.6984925,0.7137445580772299,-1.3225835286844072,10.24116695432649,0.43666666666666665,0.33555555555555555,-0.6377777777777778,-7.528686017156549,72.52538061258662,-201.8440341714109
1590515717.7084925,0.008972513881441213,-1.0924303333275676,6.920231270865407,0.43666666666666665,0.33555555555555555,-0.6377777777777778,-6.092571050492121,32.017156120807456,-187.0890639324696
1590515717.7184925,0.6980678615714124,-2.0019411565776126,6.981515800548604,0.43666666666666665,0.33555555555555555,-0.6377777777777778,8.430853812046744,-9.121662815165521,-172.6498022582948
1590515717.7284925,0.9742907807934729,-2.2116666972932246,7.060709311086201,0.43666666666666665,0.33555555555555555,-0.6377777777777778,9.156693893676842,7.920653861702714,-156.32225302743527
1590515717.7384925,1.0129283872705583,-2.6539258090583755,9.271809366221573,0.38101875724186884,0.40710286767315274,-0.6465224492588174,-11.232296436679878,21.963914649632507,-138.44832993419786
1590515717.7484925,1.03,-2.91,10.39,0.3588888888888889,0.4355555555555555,-0.65,-17.6875,21.875,-134.625
1590515717.7584925,0.635137676292814,-17.16094022834117,4.854748153122902,0.3588888888888889,0.4355555555555555,-0.65,3.2222548690396238,11.644476158495634,-116.40748824714574
1590515717.7684925,2.123502281842069,-11.551737657308811,7.067375190153506,0.3588888888888889,0.4355555555555555,-0.65,-11.839570944544324,1.453049370764763,-11.68909469644585
1590515717.7784925,0.4614433197268948,-2.5892216873203866,12.10791492010031,0.3588888888888889,0.4355555555555555,-0.65,2.623630585198878,-4.694539272574179,63.95724840292142
1590515717.7884924,-1.243521405592675,0.1920885919326899,12.240076713684731,0.33397866314718583,0.44687838543814784,-0.644716012721457,21.94542398746185,-7.218051431163904,94.16150602161181
1590515717.7984924,-0.024568051366864463,-1.7544695495670783,7.9429638097091155,0.2855555555555556,0.4688888888888889,-0.6344444444444445,7.456458556279793,-8.159154891039984,93.0668976189318
1590515717.8084924,1.4743207342665405,-2.191055969374813,10.531841662246615,0.2855555555555556,0.4688888888888889,-0.6344444444444445,-23.529822371607132,-11.542700574222263,91.32799420012454
1590515717.8184924,0.693704288614968,-2.671728572307566,9.301669298767356,0.2855555555555556,0.4688888888888889,-0.6344444444444445,-7.7056563672908505,-3.4509954980823268,91.02816518653732
1590515717.8284924,0.20321538990037788,-2.5499742356578494,7.1960254208175884,0.2855555555555556,0.4688888888888889,-0.6344444444444445,11.768249742356579,-9.95635091034009,89.7988341635177
1590515717.8384924,0.47998110176698483,-2.900004724558254,9.593322309364074,0.30852394301132846,0.4762980461326866,-0.6500036746564196,-6.625236227912691,-5.958205376547292,92.66688320891997
1590515717.8484924,0.3593781512605042,-2.8851932773109246,8.906420168067227,0.32,0.48,-0.6577777777777778,-1.0008403361344538,-7.625525210084033,93.47384453781513
1590515717.8584924,0.6020421272057398,-6.655527196044211,8.775511440760132,0.32,0.48,-0.6577777777777778,-3.517885277293,-8.605866419429901,101.26406462090362
1590515717.8684924,0.31834362660726945,-5.477830312848031,9.237116533360332,0.32,0.48,-0.6577777777777778,-6.031537916371368,-11.216209375316392,134.66885187810064
1590515717.8784924,-0.2939071268237935,-2.679544452461119,8.519097723264391,0.32,0.48,-0.6577777777777778,0.899391985329486,-12.865911095077761,159.7874503968254
1590515717.8884923,-0.11818364803987352,-2.9315524457650404,8.529352375475256,0.32381311437000115,0.457121313779993,-0.6533291443461098,-2.8205114380651146,-13.625942522125307,165.1065369500623
1590515717.8984923,-0.042054349088375326,-3.136081988154686,8.791973289977935,0.32666666666666666,0.44,-0.65,-4.546413018232493,-13.836302403901986,164.74931482986878
1590515717.9084923,-0.06221133067480562,-3.1533292490030522,8.512211330674806,0.32666666666666666,0.44,-0.65,-2.989672678058235,-13.5625,164.8125
1590515717.9184923,6.093463846620665,-8.75558270211953,7.183968667820458,0.32666666666666666,0.44,-0.65,-5.495375469196017,-15.04183008923153,155.0420408060057
1590515717.9284923,2.605366738966845,-8.2119724669116,8.748151918905759,0.32666666666666666,0.44,-0.65,-10.3726898986322,-10.27060831747156,51.483289805674815
1590515717.9384923,-5.061238370799021,-2.4244961050523037,10.07219474738482,0.35626807132082006,0.4187239904048273,-0.6458373024705097,1.7195651569107504,8.264407133318494,-58.855900845760075
1590515717.9484923,-2.2296055242479564,-1.6125573458210969,7.549210254782126,0.3977777777777778,0.3888888888888889,-0.64,21.70686165568696,13.56367568854671,-52.192837725216286
1590515717.9584923,0.07506491828693238,-1.3239690588463278,6.859772624507461,0.3977777777777778,0.3888888888888889,-0.64,9.935624717395516,-10.16888242038628,-3.8292422970092366
1590515717.9684923,-0.3190701377278879,-3.6017763978451818,8.422938725685322,0.3977777777777778,0.3888888888888889,-0.64,-14.140326871533583,1.73427838813258,21.71802769153199
1590515717.9784923,0.996558681140566,-5.4558868817846395,8.274026104203545,0.3977777777777778,0.3888888888888889,-0.64,-3.956047793725606,0.22323599351660395,39.56382893642432
1590515717.9884923,2.0259265966437283,-6.8144615477484,8.824312447180972,0.40131071672904345,0.38535594993762323,-0.64,1.131730653144996,-4.718934866594229,32.607573493903175
1590515717.9984922,0.25131413246268663,-5.582628264925374,8.86405472636816,0.4044444444444445,0.38222222222222224,-0.64,1.5402722714552235,0.9777722714552235,-0.5547749533582085
1590515718.0084922,-0.05778619094055332,-4.403624543490316,8.407596321153369,0.4044444444444445,0.38222222222222224,-0.64,2.782657173177307,2.8043270425820763,-9.80093548633817
1590515718.0184922,0.6185491216655823,-4.851984385165908,8.774096725222295,0.4044444444444445,0.38222222222222224,-0.64,-2.4898205378442855,-1.5041341357623075,5.155850140967252
1590515718.0284922,-0.04948355880319938,-4.4151361706329615,8.733830946973438,0.4044444444444445,0.38222222222222224,-0.64,-0.26596227905598896,-0.2435444850399921,1.0767601461439715
1590515718.0384922,-0.007242689749815267,-4.471495126499877,8.678038988000985,0.4105868530834223,0.38505718005559664,-0.6376375351388547,0.25,-0.03446637812730918,-0.1702668109363454
1590515718.0484922,0.01,-4.379282412271485,8.762312610692522,0.4188888888888889,0.3888888888888889,-0.6344444444444445,0.25,-0.17793072524239786,0.009569274757602136
1590515718.0584922,0.011658903618774632,-4.260285202436402,8.746682192762451,0.4188888888888889,0.3888888888888889,-0.6344444444444445,0.23341096381225368,-0.05627911142959513,0.12085274095306342
1590515718.0684922,0.05345539659622873,-4.494553965962287,8.65,0.4188888888888889,0.3888888888888889,-0.6344444444444445,-0.20909622872642955,0.125,0.0
1590515718.0784922,0.034854080905181335,-4.388302555021503,8.680875514568912,0.4188888888888889,0.3888888888888889,-0.6344444444444445,-0.07675700848607502,0.125,0.0
1590515718.0884922,0.015363433212389168,-4.444498882668141,8.753772016243362,0.4155402573200589,0.38734336662635194,-0.6393385982758114,0.07698927121128385,0.0670429151548646,0.0
1590515718.0984921,0.00797760447910418,-4.367977604479105,8.707977604479103,0.4044444444444445,0.38222222222222224,-0.6555555555555556,0.125,-0.10006998600279944,0.0
1590515718.1084921,0.038589340533343196,-4.400705329733329,8.725893405333432,0.4044444444444445,0.38222222222222224,-0.6555555555555556,0.10295844583348744,0.013224932499907534,0.0
1590515718.1184921,0.028029130850047757,-4.405985434574976,8.608247612225405,0.4044444444444445,0.38222222222222224,-0.6555555555555556,-0.1875,0.13731793218720154,0.0
1590515718.128492,0.0364969382459782,-4.435030617540218,8.702993876491957,0.4044444444444445,0.38222222222222224,-0.6555555555555556,-0.12181759211209132,0.1281824078879087,-0.043788271925272446
1590515718.138492,0.024366316458041125,-4.463381056977267,8.69,0.4085132158914148,0.3859780112501948,-0.6555555555555556,0.03521052213724297,0.21478947786275704,-0.08978947786275704
1590515718.148492,0.006857749469214438,-4.410849256900212,8.677430997876858,0.4188888888888889,0.3955555555555556,-0.6555555555555556,0.16427813163481952,0.046443736730360924,0.0
1590515718.158492,0.0022639338874019814,-4.456985256139363,8.652263933887403,0.4188888888888889,0.3955555555555556,-0.6555555555555556,0.20755123961121286,-0.06840165281495046,0.0
1590515718.168492,0.015438325924581935,-4.348068281472074,8.654561674075419,0.4188888888888889,0.3955555555555556,-0.6555555555555556,-0.005479074057274186,0.07401569445704437,0.016994768514318546
1590515718.178492,0.026587397092812253,-4.415873970928122,8.68777644070063,0.4188888888888889,0.3955555555555556,-0.6555555555555556,-0.1661712318300766,0.0014863045097702199,0.0625
1590515718.188492,0.015301827347195967,-4.375839949590422,8.761207309388784,0.42019393684800116,0.3939894980046209,-0.653467478820976,-0.09563642091997479,0.1103182104599874,0.0625
1590515718.198492,0.005962655321447866,-4.442112034035657,8.714906638303619,0.4244444444444445,0.3888888888888889,-0.6466666666666666,0.0,0.025233404240950837,0.0625
1590515718.208492,0.019739473313617802,-4.399609209970427,8.74882762991128,0.4244444444444445,0.3888888888888889,-0.6466666666666666,0.001628291789888748,-0.06087170821011125,0.0625
1590515718.218492,0.01023648897284302,-4.37,8.673648651963791,0.4244444444444445,0.3888888888888889,-0.6466666666666666,-0.0029561121605377327,0.08382601869342296,-0.0014780560802688664
1590515718.228492,0.033092768713618104,-4.388556612281708,8.687628925145527,0.4244444444444445,0.3888888888888889,-0.6466666666666666,-0.2693298044601131,0.10567019553988685,-0.06701058661966057
1590515718.238492,0.034680832759807295,-4.433546111493461,8.665319167240193,0.4234594134740384,0.3877068517244016,-0.6466666666666666,-0.2570920079146593,0.051418401582931865,0.04033680316586373
1590515718.248492,0.011201614741022888,-4.445193541035908,8.683991926294885,0.4188888888888889,0.38222222222222224,-0.6466666666666666,0.030040368525572157,0.0,-0.05498990786860696
1590515718.258492,0.02,-4.4127508944048985,8.642750894404898,0.4188888888888889,0.38222222222222224,-0.6466666666666666,0.21561381993877476,0.01719309003061262,0.03438618006122524
1590515718.268492,0.02,-4.415077371607984,8.650984525678403,0.4188888888888889,0.38222222222222224,-0.6466666666666666,0.11884671450997981,0.05019342901995963,0.10654014352993944
1590515718.278492,0.013364482501861504,-4.389906552494415,8.66331775874907,0.4188888888888889,0.38222222222222224,-0.6466666666666666,0.0417640078183172,-0.0625,-0.021028015636634395
1590515718.288492,0.0,-4.422287773454939,8.67771222654506,0.41481854710121824,0.38222222222222224,-0.6453812955758232,0.0,-0.0625,0.08660070795331334
1590515718.298492,0.010578619285896021,-4.411157238571792,8.713526206428632,0.3977777777777778,0.38222222222222224,-0.64,0.08815516071580018,-0.040461209821049955,0.16546120982104995
1590515718.308492,0.03,-4.434512853924044,8.69212313706328,0.3977777777777778,0.38222222222222224,-0.64,0.2306410674050547,0.019358932594945297,0.125
1590515718.318492,0.019028343666961912,-4.414628875110718,8.659257750221435,0.3977777777777778,0.38222222222222224,-0.64,0.14178476527900796,0.0625,0.10214238263950398
1590515718.328492,0.00546710242338287,-4.423598692729851,8.704532897576618,0.3977777777777778,0.38222222222222224,-0.64,-0.005838780292285864,0.028330609853857068,0.07958469507307146
1590515718.338492,0.02,-4.386199793058037,8.69826639074405,0.40076286332424044,0.3849776858035724,-0.6432147075115752,-0.16166752892484243,-0.0625,0.11208376446242121
1590515718.348492,0.02,-4.41793764111044,8.73,0.4122222222222222,0.3955555555555556,-0.6555555555555556,-0.07903675231341623,-0.029426495373167556,0.07903675231341623
1590515718.358492,0.02,-4.437944160015264,8.73,0.4122222222222222,0.3955555555555556,-0.6555555555555556,-0.12071700003179953,0.053934000063599066,0.12071700003179953
1590515718.368492,0.012586586491797069,-4.422586586491797,8.647759759475392,0.4122222222222222,0.3955555555555556,-0.6555555555555556,0.10883383442626832,0.0625,0.0
1590515718.3784919,0.022221479035157393,-4.42111408385937,8.681107395175786,0.4122222222222222,0.3955555555555556,-0.6555555555555556,0.04861575603026629,0.09026848793946742,-0.027768487939467415
1590515718.3884919,0.027163932951512787,-4.397090167621218,8.71574589942727,0.41111930725892165,0.3955555555555556,-0.6542950813117835,-0.026588128579567605,0.17863729047347746,-0.10727458094695494
1590515718.3984919,0.01,-4.426702929287889,8.693324267678028,0.4044444444444445,0.3955555555555556,-0.6466666666666666,-0.14594665402465193,0.08344665402465193,-0.020776672987674036
1590515718.4084918,0.013460784760515883,-4.41730392380258,8.66539215239484,0.4044444444444445,0.3955555555555556,-0.6466666666666666,0.02401961901289705,-0.021629904753224263,0.0023897142596727844
1590515718.4184918,0.02,-4.4155750487329435,8.617212475633528,0.4044444444444445,0.3955555555555556,-0.6466666666666666,0.1875,-0.040984405458089665,0.038937621832358674
1590515718.4284918,0.01376706198254643,-4.374931752069814,8.671815283061088,0.4044444444444445,0.3955555555555556,-0.6466666666666666,0.1290662060863728,0.058433793913627206,-0.08604413739091518
1590515718.4384918,0.004338097840154151,-4.422769836933076,8.725784130453539,0.4026770712503076,0.3916994685865297,-0.6489160507319317,0.0,0.1784622961663455,0.0
1590515718.4484918,0.03,-4.395182060280246,8.750890763831853,0.3922222222222223,0.3688888888888889,-0.6622222222222223,0.0,0.125,-0.056932726050922124
1590515718.4584918,0.026621258680345518,-4.43,8.696212586803457,0.3922222222222223,0.3688888888888889,-0.6622222222222223,0.042234266495681,0.0616486002564785,-0.1241486002564785
1590515718.4684918,0.01644204720181583,-4.422884094403631,8.647789763990922,0.3922222222222223,0.3688888888888889,-0.6622222222222223,0.14723720498865106,0.004211614965953181,0.02223720498865106
1590515718.4784918,0.014135821352095441,-4.407932089323952,8.68827164270419,0.3922222222222223,0.3688888888888889,-0.6622222222222223,0.14872667482410523,0.08622667482410523,0.049575558274701746
1590515718.4884918,0.025292803277162275,-4.402353598361419,8.710585606554325,0.3922222222222223,0.3688888888888889,-0.6622222222222223,0.044129969276603676,-0.018370030723396324,0.014709989758867892
1590515718.4984918,0.013083094955696647,-4.391541547477848,8.72,0.40256033086040766,0.36324992054078775,-0.6434256610618851,-0.10573065652689596,-0.11536532826344797,0.05286532826344798
1590515718.5084918,0.01,-4.40525893093142,8.681852672671452,0.4044444444444445,0.3622222222222222,-0.64,-0.07731584083931439,-0.0296316816786288,0.15786831832137121
1590515718.5184917,0.018368962329558584,-4.391631037670441,8.633262075340884,0.4044444444444445,0.3622222222222222,-0.64,0.35970902183961173,-0.11480601455974115,0.0625
1590515718.5284917,0.004168463418140003,-4.40583153658186,8.67833692683628,0.4044444444444445,0.3622222222222222,-0.64,0.20052644818168752,-0.013026448181687508,0.0625
1590515718.5384917,0.02,-4.3927906020678735,8.71,0.40397934409979885,0.3636175232561592,-0.6394573829312468,0.24563968426894695,-0.06686031573105305,0.0625
1590515718.5484917,0.02,-4.427276819667413,8.71,0.3982316411665422,0.380860632055929,-0.6327517295091141,0.1917549692696664,-0.1207450307303336,0.0625
1590515718.5584917,0.03571695429384244,-4.4042830457061575,8.688584771469213,0.3977777777777778,0.38222222222222224,-0.6322222222222222,-0.04911548216825761,-0.04911548216825761,0.03573096433651522
1590515718.5684917,0.021340851056537165,-4.418659148943463,8.616704255282686,0.3977777777777778,0.38222222222222224,-0.6322222222222222,-0.004190159551678632,-0.004190159551678632,-0.054119680896642736
1590515718.5784917,0.0061712209761491076,-4.390285368293582,8.712057073658718,0.3977777777777778,0.38222222222222224,-0.6322222222222222,0.04964328963302269,0.09928657926604538,0.012856710366977308
1590515718.5884917,0.028254620123203286,-4.427091033538672,8.719418206707735,0.3977777777777778,0.38222222222222224,-0.6322222222222222,0.0036362080766598193,0.0072724161533196385,0.05886379192334018
1590515718.5984917,0.024437391032232105,-4.407218695516116,8.745562608967768,0.4244444444444445,0.37666666666666665,-0.6322222222222222,0.0625,0.09023369395145067,0.03476630604854933
1590515718.6084917,0.01,-4.40243747157799,8.72587539790814,0.4244444444444445,0.37666666666666665,-0.6322222222222222,0.047265802637562526,0.015234197362437472,0.10976580263756253
1590515718.6184916,0.01,-4.41,8.63443007858499,0.4244444444444445,0.37666666666666665,-0.6322222222222222,0.03607519646247386,0.044462401768763066,0.0625
1590515718.6284916,0.013691373534338358,-4.411845686767169,8.673691373534338,0.4244444444444445,0.37666666666666665,-0.6322222222222222,0.125,-0.02307108458961474,0.05096445770519263
1590515718.6384916,0.026237138071308924,-4.418118569035655,8.68623713807131,0.4244444444444445,0.37666666666666665,-0.6322222222222222,0.125,-0.10148211294568078,0.011758943527159608
1590515718.6484916,0.010166436358053125,-4.380166436358053,8.749417472746813,0.4188888888888889,0.38222222222222224,-0.6611111111111111,0.12447988638108398,0.000520113618916014,0.12395977276216798
1590515718.6584916,0.024139571607887596,-4.4,8.670232619346478,0.4188888888888889,0.38222222222222224,-0.6611111111111111,0.05029077418309916,0.05029077418309916,0.0
1590515718.6684916,0.000594761337807122,-4.4,8.629405238662194,0.4188888888888889,0.38222222222222224,-0.6611111111111111,-0.0037172583612945123,0.007434516722589025,0.007434516722589025
1590515718.6784916,0.011450226061682545,-4.398549773938318,8.635952486678507,0.4188888888888889,0.38222222222222224,-0.6611111111111111,-0.03530826134345229,0.125,0.125
1590515718.6884916,0.019916034232197642,-4.390083965767802,8.729076376554174,0.4188888888888889,0.38222222222222224,-0.6611111111111111,0.1234256418537058,0.125,0.125
1590515718.6984916,0.011754298876136769,-4.431228505619316,8.73,0.4133917548063134,0.3776412771534093,-0.643703519849622,0.07346436797585482,0.021928735951709633,0.021928735951709633
1590515718.7084916,0.01920728441349759,-4.4092072844134975,8.711280128548474,0.4122222222222222,0.37666666666666665,-0.64,-0.0625,-0.057545527584359935,0.10022763792179967
1590515718.7184916,0.01218683047670059,-4.402186830476701,8.634055135243706,0.4122222222222222,0.37666666666666665,-0.64,-0.0625,-0.013667690479378686,-0.11916154760310657
1590515718.7284915,0.01946140182194482,-4.409461401821945,8.672692990890276,0.4122222222222222,0.37666666666666665,-0.64,-0.055767522774310255,0.17066880693577563,0.1774012841614654
1590515718.7384915,0.012626175382559522,-4.40262617538256,8.706869123087202,0.4122222222222222,0.37666666666666665,-0.64,0.02967280771800597,-0.04293201929501492,0.049240788422991066
1590515718.7484915,0.01,-4.409914018117611,8.729914018117611,0.39790197383011755,0.37666666666666665,-0.64,0.12446261323506833,-0.0010747735298633487,0.18588783970520498
1590515718.7584915,0.028364660826693665,-4.41,8.684088347933265,0.3977777777777778,0.37666666666666665,-0.64,0.125,-0.05738956508341771,0.07272086983316459
