time,acc_x,acc_y,acc_z,mag_x,mag_y,mag_z,gyr_x,gyr_y,gyr_z
1590513685.4475427,-0.37,-4.38,8.79,0.5422222222222223,0.10777777777777778,-0.6044444444444445,-0.0625,0.125,0.0
1590513685.4575427,-0.3504272853644006,-4.370427285364401,8.7502136426822,0.5422222222222223,0.10777777777777778,-0.6044444444444445,0.05982946647249619,0.061164733236248096,0.05849419970874429
1590513685.4675426,-0.36430926060766533,-4.384309260607665,8.757154630303832,0.5422222222222223,0.10777777777777778,-0.6044444444444445,-0.02693287879790826,0.01778356060104587,-0.07164931819686238
1590513685.4775426,-0.387225083518931,-4.3813874582405345,8.785837625278395,0.5604042548255382,0.0972513378495422,-0.6044444444444445,-0.00867161400334076,-0.10765677199331848,0.03648515798997773
1590513685.4875426,-0.380887789888126,-4.389112210111874,8.79,0.5633333333333334,0.09555555555555556,-0.6044444444444445,0.11390262639842512,-0.125,-0.1083539395976377
1590513685.4975426,-0.3706184074964431,-4.399381592503557,8.69618407496443,0.5633333333333334,0.09555555555555556,-0.6044444444444445,0.007730093705538926,-0.24226990629446107,0.10953981258892215
1590513685.5075426,-0.35275616210659844,-4.3655123242131975,8.715865756840103,0.5633333333333334,0.09555555555555556,-0.6044444444444445,0.10777398683375981,-0.03445202633248037,0.017226013166240187
1590513685.5175426,-0.3445013884603517,-4.370997223079296,8.747493057698241,0.5633333333333334,0.09555555555555556,-0.6044444444444445,0.1937326442456032,-0.06873264424560321,0.03436632212280161
1590513685.5275426,-0.34,-4.3747583459943336,8.785724962017,0.5557620553251482,0.09555555555555556,-0.6044444444444445,0.11895864985833368,-0.026718987393750254,0.02973966246458342
1590513685.5375426,-0.3305706386679921,-4.398288083996024,8.828288083996023,0.5488888888888889,0.09555555555555556,-0.6044444444444445,0.1178670166500994,0.1803670166500994,0.0
1590513685.5475426,-0.3374083788975913,-4.385183242204818,8.741099453228905,0.5488888888888889,0.09555555555555556,-0.6044444444444445,-0.013907104329835968,0.1411976318900547,0.04630236810994532
1590513685.5575426,-0.3569980107177655,-4.385666003572588,8.726998010717766,0.5488888888888889,0.09555555555555556,-0.6044444444444445,-0.0625,0.16041252232867814,0.09791252232867814
1590513685.5675426,-0.3885240936759723,-4.396174697891991,8.752349395783982,0.5488888888888889,0.09555555555555556,-0.6044444444444445,-0.17827558547482683,0.2260918618249423,-0.029367447299769117
1590513685.5775425,-0.3832517836989996,-4.3944172612329995,8.748834522466,0.5451670630442221,0.09865707709277786,-0.6001023142923332,-0.31978423458750166,0.28489211729375086,-0.09010788270624917
1590513685.5875425,-0.3497326356533582,-4.383244211884453,8.746755788115548,0.5422222222222223,0.10111111111111112,-0.5966666666666667,-0.1216579456669773,0.35472367572217045,0.0219473514443409
1590513685.5975425,-0.34640039697211467,-4.386400396972115,8.711597618167312,0.5422222222222223,0.10111111111111112,-0.5966666666666667,0.08000496215143318,0.3349975189242834,0.022497518924283408
1590513685.6075425,-0.35,-4.380643333200303,8.718070000399091,0.5422222222222223,0.10111111111111112,-0.5966666666666667,0.125,0.19554166500379136,0.0
1590513685.6175425,-0.37076919115627577,-4.38,8.76846144603131,0.5422222222222223,0.10111111111111112,-0.5966666666666667,0.125,0.23076914824224115,0.043269148242241144
1590513685.6275425,-0.38,-4.388854888659489,8.77229022268102,0.5609158760589228,0.10701437021743761,-0.6035538022907142,0.45705832473086566,-0.1927444329744875,-0.26955832473086566
1590513685.6375425,-0.3729758911938652,-4.37595178238773,8.74190356477546,0.5633333333333334,0.10777777777777778,-0.6044444444444445,0.4560993199616574,-0.46950340019171294,-0.2685993199616574
1590513685.6475425,-0.36054492173009867,-4.379455078269901,8.701634765190295,0.5633333333333334,0.10777777777777778,-0.6044444444444445,0.3193115216262334,-0.3852172824393501,-0.13181152162623339
1590513685.6575425,-0.33165355433640714,-4.370551184778803,8.766141706548384,0.5633333333333334,0.10777777777777778,-0.6044444444444445,0.3125,-0.2568898097350298,-0.1840550951324851
1590513685.6675425,-0.33,-4.36416082729727,8.77,0.5633333333333334,0.10777777777777778,-0.6044444444444445,0.3125,-0.031031023647602046,-0.11451034121586735
1590513685.6775424,-0.3402129873991748,-4.36,8.795532468497937,0.5559572868783738,0.10437344864471951,-0.6016075035002293,0.21675324313273614,0.25266234248968517,0.033246756867263874
1590513685.6875424,-0.3585881404995673,-4.36,8.811411859500433,0.5488888888888889,0.10111111111111112,-0.5988888888888889,0.0713241218777045,0.3213241218777045,-0.08970351248918201
1590513685.6975424,-0.37784234752589185,-4.386763521288837,8.702945914844648,0.5488888888888889,0.10111111111111112,-0.5988888888888889,0.006742663981588036,0.368257336018412,-0.125
1590513685.7075424,-0.38,-4.37179417985559,8.74461746043323,0.5488888888888889,0.10111111111111112,-0.5988888888888889,0.0,0.20432043614616002,-0.011213624097440006
1590513685.7175424,-0.358099427480916,-4.377300190839694,8.735399618320612,0.5488888888888889,0.10111111111111112,-0.5988888888888889,-0.045626192748091605,-0.08625715648854959,0.0
1590513685.7275424,-0.3551439780886816,-4.38,8.73,0.5454595701631012,0.098253345506288,-0.5977457826469597,-0.0625,-0.15535013694573988,-0.032149863054260125
1590513685.7375424,-0.3477008028196593,-4.38614959859017,8.73614959859017,0.5422222222222223,0.09555555555555556,-0.5966666666666667,0.014369982377129428,-0.08656500881143528,-0.13936998237712944
1590513685.7475424,-0.35707214631293527,-4.381463926843532,8.697319634217662,0.5422222222222223,0.09555555555555556,-0.5966666666666667,0.11585045722792281,-0.2225513716837684,-0.1341495427720772
1590513685.7575424,-0.36828429812195895,-4.363431403756082,8.723137192487837,0.5422222222222223,0.09555555555555556,-0.5966666666666667,0.280330589786731,-0.25,-0.07322313673775635
1590513685.7675424,-0.37,-4.371673256070453,8.776693024281812,0.5422222222222223,0.09555555555555556,-0.5966666666666667,0.27602107477983473,-0.28647892522016527,-0.0625
1590513685.7775424,-0.36398098201936374,-4.38,8.822038035961272,0.5502475795297372,0.10291213308744429,-0.6066983633010604,0.17476227524204702,-0.23726227524204702,-0.024881137621023515
1590513685.7875423,-0.3484761039157767,-4.38,8.812714155873666,0.5555555555555556,0.10777777777777778,-0.6133333333333333,0.125,-0.22351217526319778,-0.03601217526319776
1590513685.7975423,-0.332350617863288,-4.387649382136712,8.746454325043016,0.5555555555555556,0.10777777777777778,-0.6133333333333333,0.125,-0.25,-0.11030863835445018
1590513685.8075423,-0.3434357881354348,-4.39,8.723282105932283,0.5555555555555556,0.10777777777777778,-0.6133333333333333,0.125,-0.08205264830706527,-0.08301316207676632
1590513685.8175423,-0.36725321888412016,-4.37274678111588,8.748755364806867,0.5555555555555556,0.10777777777777778,-0.6133333333333333,0.0890557939914163,-0.07188841201716739,-0.0625
1590513685.8275423,-0.3752715522352662,-4.369456895529468,8.77,0.5466240431110584,0.10462547926795526,-0.6065033532287178,0.15115839558875843,-0.036341604411241554,-0.0033944029408276982
1590513685.8375423,-0.35780302727744717,-4.38,8.763901513638723,0.5366666666666666,0.10111111111111112,-0.5988888888888889,0.1737689204840449,0.1387310795159551,0.024384460242022447
1590513685.8475423,-0.35,-4.364487729617665,8.682438648088327,0.5366666666666666,0.10111111111111112,-0.5988888888888889,0.07652415505520466,0.042072465165614,0.048475844944795336
1590513685.8575423,-0.35,-4.376808302430985,8.735637360939432,0.5366666666666666,0.10111111111111112,-0.5988888888888889,0.009974054903172644,-0.052525945096827356,0.009974054903172644
1590513685.8675423,-0.36991198752228166,-4.366725341651812,8.78318664587047,0.5366666666666666,0.10111111111111112,-0.5988888888888889,-0.0829666146761735,-0.02101669266191325,-0.12444992201426024
1590513685.8775423,-0.3879549399198932,-4.375909879839786,8.8,0.5463893710132027,0.10111111111111112,-0.5918178311823171,-0.07528162550066755,-0.09943674899866489,-0.1875
1590513685.8875422,-0.36487066747743113,-4.38,8.749741334954862,0.5488888888888889,0.10111111111111112,-0.59,-0.0625,0.03205832826605548,-0.03044167173394452
1590513685.8975422,-0.3365749023982153,-4.38,8.716574902398216,0.5488888888888889,0.10111111111111112,-0.59,-0.013697713329615169,0.013697713329615169,-0.04880228667038483
1590513685.9075422,-0.33,-4.37388570558337,8.73445717766652,0.5488888888888889,0.10111111111111112,-0.59,-0.03821434010393863,0.07642868020787726,-0.0625
1590513685.9175422,-0.33507794627485205,-4.364922053725148,8.755077946274852,0.5488888888888889,0.10111111111111112,-0.59,-0.0625,0.1884743284356501,0.03271149265347516
1590513685.9275422,-0.353641248058001,-4.373641248058001,8.787282496116003,0.5534359715748892,0.09732187553944416,-0.5998520124863341,-0.1903867005437597,0.2926289001812532,0.16762890018125323
1590513685.9375422,-0.36,-4.369170782690784,8.8,0.5555555555555556,0.09555555555555556,-0.6044444444444445,-0.3515239122738996,0.2786586959087001,0.11981739181740024
1590513685.9475422,-0.36,-4.354215420835786,8.736369629193643,0.5555555555555556,0.09555555555555556,-0.6044444444444445,-0.473653619776339,0.35846085932901706,0.0625
1590513685.9575422,-0.35417453975129765,-4.3616509204974045,8.701650920497405,0.5555555555555556,0.09555555555555556,-0.6044444444444445,-0.46359087344561034,0.2190452406736622,-0.010318253108779277
1590513685.9675422,-0.35,-4.37467021175124,8.72401063525372,0.5555555555555556,0.09555555555555556,-0.6044444444444445,-0.5542552937809996,0.12087764689049982,-0.03331117655475009
1590513685.9775422,-0.36381015037593983,-4.370793233082707,8.744603383458646,0.5524866332497912,0.09811299081035924,-0.6044444444444445,-0.6875,0.21627114661654134,0.0
1590513685.9875422,-0.3532793522267207,-4.35331983805668,8.763360323886639,0.5488888888888889,0.10111111111111112,-0.6044444444444445,-0.603997975708502,0.25,0.0
1590513685.9975421,-0.36890918144150237,-4.373127345153201,8.729527145981896,0.5488888888888889,0.10111111111111112,-0.6044444444444445,-0.5625,0.3945459072075116,0.0
1590513686.0075421,-0.3837382310494124,-4.383738231049413,8.7500941516047,0.5488888888888889,0.10111111111111112,-0.6044444444444445,-0.6407721118823448,0.4608639440588276,0.11740816782351728
1590513686.0175421,-0.37408451240645174,-4.38,8.803661950374194,0.5488888888888889,0.10111111111111112,-0.6044444444444445,-0.6875,0.28961281016129337,0.15052820254032334
1590513686.027542,-0.37,-4.38675388874242,8.83350777748484,0.5586445059612737,0.09735895069865542,-0.5991914198670065,-0.47644097679936726,0.10307639071974689,0.04057639071974689
1590513686.037542,-0.37,-4.405284928440454,8.778860286238181,0.5633333333333334,0.09555555555555556,-0.5966666666666667,-0.3272345986235801,0.15803080275283976,0.09553080275283976
1590513686.047542,-0.36291240875912406,-4.41,8.717474452554743,0.5633333333333334,0.09555555555555556,-0.5966666666666667,-0.44539233576642334,0.0989051094890511,0.2135948905109489
1590513686.057542,-0.353590091996525,-4.41,8.719229724010425,0.5633333333333334,0.09555555555555556,-0.5966666666666667,-0.37981422493484507,0.1426238500434366,0.1698761499565634
1590513686.067542,-0.3550464075658987,-4.399907184868202,8.760278445395393,0.5633333333333334,0.09555555555555556,-0.5966666666666667,-0.21787985813939856,0.2505800945737343,0.125
1590513686.077542,-0.36,-4.39,8.797389000222667,0.5633333333333334,0.09760805561740767,-0.5966666666666667,-0.05572812291249166,0.35868125139167223,0.14809062569583611
1590513686.087542,-0.36,-4.387147194304857,8.81,0.5633333333333334,0.10111111111111112,-0.5966666666666667,0.08033003559463986,0.4018399288107203,0.11617985762144054
1590513686.097542,-0.36288789436697855,-4.382887894366978,8.784008950697194,0.5633333333333334,0.10111111111111112,-0.5966666666666667,0.14304933979361617,0.27640132041276766,-0.0625
1590513686.107542,-0.3656959866600978,-4.39,8.715695986660098,0.5633333333333334,0.10111111111111112,-0.5966666666666667,0.1875,0.1336998332512222,0.018200250123166714
1590513686.117542,-0.3567468791064389,-4.383493758212878,8.723012483574244,0.5633333333333334,0.10111111111111112,-0.5966666666666667,0.1875,0.0015039832457293054,0.08433598883048621
1590513686.127542,-0.3573945197281238,-4.373697259864062,8.753697259864062,0.5678522065005202,0.1109704707486095,-0.5966666666666667,0.16439212584961313,-0.055676377548839404,-0.0693236224511606
1590513686.137542,-0.37,-4.375464972327411,8.732789833964462,0.5755555555555556,0.12777777777777774,-0.5966666666666667,0.06831215409263036,0.005812154092630355,-0.07412430818526071
1590513686.147542,-0.36512339084934187,-4.384629827451975,8.680493563397366,0.5755555555555556,0.12777777777777774,-0.5966666666666667,0.030478807191613402,-0.0929788071916134,-0.028936421574840207
1590513686.157542,-0.3552340039117072,-4.395234003911707,8.69336197261805,0.5755555555555556,0.12777777777777774,-0.5966666666666667,0.03271252444816988,-0.125,-0.06542504889633977
1590513686.167542,-0.35494841765180996,-4.38010316469638,8.759690505910859,0.5755555555555556,0.12777777777777774,-0.5966666666666667,0.09278283097143696,-0.1559276103238123,0.0
1590513686.177542,-0.36,-4.374916155419223,8.819496932515337,0.5755555555555556,0.12176914337650532,-0.6070452169961372,0.1875,-0.21822597137014316,0.030725971370143153
1590513686.187542,-0.36,-4.38,8.822437178754997,0.5755555555555556,0.11555555555555555,-0.6177777777777778,0.11859294688749286,-0.25,-0.07531410622501428
1590513686.197542,-0.3658537587694837,-4.38,8.747316171074647,0.5755555555555556,0.11555555555555555,-0.6177777777777778,0.0990859923092729,-0.25,-0.1509140076907271
1590513686.207542,-0.37,-4.391642496913387,8.739106242283466,0.5755555555555556,0.11555555555555555,-0.6177777777777778,-0.02053121141733108,-0.21361719714566724,-0.05223439429133446
1590513686.217542,-0.3607417472455708,-4.3907417472455705,8.77851650550886,0.5755555555555556,0.11555555555555555,-0.6177777777777778,-0.09606796014240873,-0.07177184056963493,0.08679611957277382
1590513686.227542,-0.3598694908643605,-4.38,8.8,0.5722657252674354,0.11171742021941536,-0.6040701515772771,-0.0625,0.1858686358045063,0.12581568209774685
1590513686.237542,-0.3605606719777012,-4.375280335988851,8.809439328022298,0.5688888888888889,0.10777777777777778,-0.59,-0.12149580013936756,0.3419979000696838,0.003504199860632433
1590513686.247542,-0.35504023196810436,-4.3750402319681045,8.759517216382747,0.5688888888888889,0.10777777777777778,-0.59,-0.1875,0.375,0.03200434940195723
1590513686.257542,-0.36957412928581107,-4.38,8.714361193928717,0.5688888888888889,0.10777777777777778,-0.59,-0.15758084598184036,0.40491915401815964,0.125
1590513686.267542,-0.38865287783716784,-4.377115707387611,8.735768585224779,0.5688888888888889,0.10777777777777778,-0.59,-0.10697317117256694,0.36539268469026775,0.10697317117256694
1590513686.2775419,-0.39216574722618236,-4.372972375462303,8.744055249075394,0.562944137964283,0.10579619413624249,-0.5919815836415353,-0.0625,0.13176796008181987,0.04392265336060662
1590513686.2875419,-0.35,-4.377132422072756,8.727132422072756,0.5488888888888889,0.10111111111111112,-0.5966666666666667,-0.04457763795472626,0.017922362045273737,-0.017922362045273737
1590513686.2975419,-0.345680598755832,-4.378638802488336,8.694083592534993,0.5488888888888889,0.10111111111111112,-0.5966666666666667,0.0,-0.0994775466562986,-0.0625
1590513686.3075418,-0.3441560223449087,-4.39,8.676624089379635,0.5488888888888889,0.10111111111111112,-0.5966666666666667,0.02597513965567933,-0.15664916206592402,-0.03652486034432067
1590513686.3175418,-0.35977844627830396,-4.380221553721696,8.74889223139152,0.5488888888888889,0.10111111111111112,-0.5966666666666667,0.15417293385909997,-0.02917293385909997,0.030557644619699988
1590513686.3275418,-0.37975381756952914,-4.379753817569529,8.81950763513906,0.5559333126891044,0.1081555349113266,-0.6004598179437057,0.15855796028566452,-0.125,0.0015386401904430164
1590513686.3375418,-0.35977131908328563,-4.383954263816657,8.833954263816658,0.5633333333333334,0.11555555555555555,-0.6044444444444445,0.024714148854107047,-0.16278585114589295,-0.024714148854107047
1590513686.3475418,-0.3587748630729317,-4.38,8.767417123090228,0.5633333333333334,0.11555555555555555,-0.6044444444444445,0.07822859613721533,-0.26572859613721533,0.07822859613721533
1590513686.3575418,-0.36391048292108363,-4.38,8.736089517078916,0.5633333333333334,0.11555555555555555,-0.6044444444444445,0.125,-0.1602620730270907,0.010821554770318015
1590513686.3675418,-0.3555613331440335,-4.371122666288067,8.744438666855967,0.5633333333333334,0.11555555555555555,-0.6044444444444445,0.1804833356995812,-0.0902416678497906,-0.03475833215020941
1590513686.3775418,-0.35235401176340025,-4.362354011763401,8.75,0.5570559686309325,0.11084753202875497,-0.6010442052306441,0.20586227943624458,-0.1544251470425036,0.04413772056375541
1590513686.3875418,-0.36,-4.37416626514955,8.744444979800601,0.5366666666666666,0.09555555555555556,-0.59,0.0625,-0.22396084281531448,0.17014056187687632
1590513686.3975418,-0.36,-4.397484340832438,8.713354212223416,0.5366666666666666,0.09555555555555556,-0.59,0.0625,-0.07822286979726475,0.0729819131981765
1590513686.4075418,-0.36690502153140997,-4.38690502153141,8.680832424640066,0.5366666666666666,0.09555555555555556,-0.59,-0.1443436154286876,0.0528281922856562,-0.0863127691426248
1590513686.4175417,-0.3514012974291681,-4.371401297429168,8.735095458997911,0.5366666666666666,0.09555555555555556,-0.59,-0.2412418910676992,0.004379054466150403,0.10748378213539839
1590513686.4275417,-0.3562095552338305,-4.3859476111915425,8.816209555233831,0.54432117886042,0.09780688267136535,-0.5958534505011055,-0.16217256994713983,-0.20098229015858052,0.013482290158580518
1590513686.4375417,-0.369888590408363,-4.38,8.824832885612544,0.5555555555555556,0.10111111111111112,-0.6044444444444445,-0.06180369005226881,-0.24930369005226882,0.06180369005226881
1590513686.4475417,-0.35681132505212254,-4.386377349895755,8.781301925469103,0.5555555555555556,0.10111111111111112,-0.6044444444444445,-0.05978765527270179,-0.20742921842423392,0.019929218424233928
1590513686.4575417,-0.35,-4.397547003760301,8.72122649811985,0.5555555555555556,0.10111111111111112,-0.6044444444444445,-0.1568375470037603,-0.22700316025282022,0.07016561324905993
1590513686.4675417,-0.3536698576877934,-4.38,8.76302871919014,0.5555555555555556,0.10111111111111112,-0.6044444444444445,0.016626778902582157,0.029246442194835687,0.03325355780516431
1590513686.4775417,-0.36,-4.38,8.817301010394708,0.5555555555555556,0.09961167244150454,-0.6005459039034673,-0.11310605509922222,0.3055807952315185,-0.040656574834629644
1590513686.4875417,-0.36767542319308844,-4.376162288403456,8.813837711596545,0.5555555555555556,0.09555555555555556,-0.59,-0.2020286050431973,0.5770286050431973,0.1395286050431973
1590513686.4975417,-0.3824902752026757,-4.3675097247973245,8.785136147162541,0.5555555555555556,0.09555555555555556,-0.59,-0.10943577998327698,0.46887155996655394,0.0625
1590513686.5075417,-0.39502360049089025,-4.36,8.69004720098178,0.5555555555555556,0.09555555555555556,-0.59,-0.0625,0.21801248465968093,0.12529500613612765
1590513686.5175416,-0.4,-4.36,8.707606352911142,0.5555555555555556,0.09555555555555556,-0.59,-0.08626985284732226,-0.008809558541966772,0.0686507357633887
1590513686.5275416,-0.3883998917298243,-4.36,8.72165715832431,0.5555555555555556,0.0988698722041772,-0.5934984453513228,-0.15607171858082786,-0.11464276047305738,-0.11464276047305738
1590513686.5375416,-0.33070474972735137,-4.36,8.73,0.5555555555555556,0.11555555555555555,-0.6111111111111112,-0.34773748636756796,-0.07130937159189199,-0.0625
1590513686.5475416,-0.36738995627401616,-4.259570160328607,8.739129985424672,0.5555555555555556,0.11555555555555555,-0.6111111111111112,-1.0122184311647011,-0.24456240890420033,-0.033968795547899826
1590513686.5575416,-0.4247243113551424,-3.9422055091588613,8.75,0.5555555555555556,0.11555555555555555,-0.6111111111111112,-1.0336622756425045,-0.15797305403036035,0.24724311355142342
1590513686.5675416,-0.44206551662672555,-3.720163791566814,8.82141035035947,0.5555555555555556,0.11555555555555555,-0.6111111111111112,-0.49016161296072563,-0.07438578162444792,1.119881513537066
1590513686.5775416,-0.43,-3.641752100840336,8.942061974789915,0.5658305711173358,0.11555555555555555,-0.6026230547774666,-0.4271949404761905,-0.3131455707282913,2.5902113970588236
1590513686.5875416,-0.43,-3.57,8.96,0.5811111111111111,0.11555555555555555,-0.59,-1.0625,-0.5,3.375
1590513686.5975416,-0.41785901981230444,-3.4403568300312823,8.942863399374348,0.5811111111111111,0.11555555555555555,-0.59,-1.2544603753910324,-0.8727698123044838,5.015556569343065
1590513686.6075416,-0.36537559958289884,-3.449104066736184,8.76791866527633,0.5811111111111111,0.11555555555555555,-0.59,-1.363800834202294,-0.818099582898853,6.929014598540146
1590513686.6175416,-0.22622776557295726,-3.0708096520445043,8.777620119056056,0.5811111111111111,0.11555555555555555,-0.59,-1.5819617674154915,-0.5322786744383814,9.404748511799305
1590513686.6275415,-0.16678052583091205,-2.7289880235277444,8.681018354475231,0.5811111111111111,0.11555555555555555,-0.59,-1.3961891432216,-0.6716081425837999,10.612270569059598
1590513686.6375415,-0.21776709766936797,-2.7880723521486455,8.871317138892799,0.5488888888888889,0.10777777777777778,-0.6111111111111112,-1.5149095598141928,-0.33027132055742126,14.720534044521305
1590513686.6475415,-0.280010349824053,-2.9066735665493684,8.656683916373423,0.5488888888888889,0.10777777777777778,-0.6111111111111112,-1.1038863589318981,-0.8751293728006624,18.927913475470916
1590513686.6575415,-0.3238453822206849,-2.94,8.786159633344864,0.5488888888888889,0.10777777777777778,-0.6111111111111112,-0.07696406952611551,-1.7692645278450363,24.36075536146662
1590513686.6675415,-0.31,-2.941617514633048,8.893774200810446,0.5488888888888889,0.10777777777777778,-0.6111111111111112,-0.8125,-2.385109466456551,27.788278084196307
1590513686.6775415,-0.31883808350677484,-2.9859085503121947,8.97060570020813,0.5500673000231255,0.10777777777777778,-0.608950690698344,-0.690976351781846,-2.661928439451217,32.36866584547424
1590513686.6875415,-0.36,-3.0623763264086086,9.02594081602152,0.5555555555555556,0.10777777777777778,-0.5988888888888889,-0.23639030040352715,-3.2660943805111344,35.584170901210584
1590513686.6975415,-0.3530451747324557,-3.08,8.962200208353064,0.5555555555555556,0.10777777777777778,-0.5988888888888889,-1.214636802727531,-4.095161710389242,39.17092527701487
1590513686.7075415,-0.3419396930391194,-3.074180920882642,8.763879386078239,0.5555555555555556,0.10777777777777778,-0.5988888888888889,-1.3908922665495322,-3.6996230814944964,41.747046341274356
1590513686.7175415,-0.3658431603773585,-3.063579851752021,8.807159703504043,0.5555555555555556,0.10777777777777778,-0.5988888888888889,-1.1638308625336928,-3.8065827156334233,44.27930740397574
1590513686.7275414,-0.4249061763319189,-3.114906176331919,8.891823039446802,0.5568275271971642,0.10577896519810712,-0.5997974400614665,-1.8046243910105297,-3.887566792393525,46.692696055319814
1590513686.7375414,-0.4531234847095736,-3.1431234847095735,8.856246969419146,0.5633333333333334,0.09555555555555556,-0.6044444444444445,-1.125,-3.3125,50.875
1590513686.7475414,-0.4639198889739663,-3.151959944486983,8.83864088820827,0.5633333333333334,0.09555555555555556,-0.6044444444444445,-1.2229972243491578,-3.5084944486983156,51.242489591309344
1590513686.7575414,-0.485316310489867,-3.165316310489867,8.711772103496623,0.5633333333333334,0.09555555555555556,-0.6044444444444445,-1.5696217657305518,-4.268197412584442,53.13764763988614
1590513686.7675414,-0.5105439422686001,-3.19,8.723263653611601,0.5633333333333334,0.09555555555555556,-0.6044444444444445,-1.3294981958937526,-4.144091340290013,55.17887438169129
1590513686.7775414,-0.5176490716899309,-3.19,8.765894430139586,0.5633333333333334,0.09555555555555556,-0.6044444444444445,-1.5515334903103402,-5.209860753489632,58.33177556240683
1590513686.7875414,-0.5630533211563455,-3.1948853138501527,8.811221328462539,0.5633333333333334,0.06888888888888889,-0.6044444444444445,-1.6211833485545681,-5.632633302890864,62.167932663599004
1590513686.7975414,-0.599885489479785,-3.253816783167656,8.825954195791914,0.5633333333333334,0.06888888888888889,-0.6044444444444445,-1.5751431381502687,-5.7247137236994625,64.19370192138818
1590513686.8075414,-0.6360377664974619,-3.20431269035533,8.833450152284264,0.5633333333333334,0.06888888888888889,-0.6044444444444445,-1.4806269035532995,-5.671327411167512,68.32345177664975
1590513686.8175414,-0.6956521827411167,-3.246894416243655,8.867515532994924,0.5633333333333334,0.06888888888888889,-0.6044444444444445,-1.9064441624365482,-5.511645939086295,71.51708121827411
1590513686.8275414,-0.7518202932210771,-3.1927188271156917,8.996359413557846,0.5644457347462138,0.06757423267366655,-0.6044444444444445,-1.875,-6.0341304978951955,76.00612389316301
1590513686.8375413,-0.7692157269352798,-3.123137092258881,8.961568546129442,0.57507627757156,0.05501086388007566,-0.6044444444444445,-1.875,-6.360294880036497,79.64829282707421
1590513686.8475413,-0.771972507843244,-3.2195780062745953,8.91929347333297,0.5755555555555556,0.054444444444444434,-0.6044444444444445,-2.0977061911756705,-6.37236253921622,84.60567864461491
1590513686.8575413,-0.8099986188799116,-3.2500013811200885,8.789991713279468,0.5755555555555556,0.054444444444444434,-0.6044444444444445,-1.8125,-6.56256905600442,87.1253798080243
1590513686.8675413,-0.8,-3.2549548324429334,8.724954832442934,0.5755555555555556,0.054444444444444434,-0.6044444444444445,-1.7652015541525012,-7.046733851384167,90.50564594463332
1590513686.8775413,-0.8055258609653054,-3.238894827806939,8.713315516579184,0.5782570875830382,0.050146552582540284,-0.6067775857409067,-1.6388146524132634,-7.04144395723979,92.64438572205863
1590513686.8875413,-0.8665879388149798,-3.2742345035066127,8.74829396940749,0.6,0.015555555555555557,-0.6255555555555555,-1.7845582058645413,-7.547791029322706,95.59005963195217
1590513686.8975413,-0.9188998885635059,-3.3912714126519297,8.771271412651929,0.6,0.015555555555555557,-0.6255555555555555,-1.875,-8.007946329074558,98.0302627828025
1590513686.9075413,-0.9819570315275836,-3.409785157637918,8.791742189165502,0.6,0.015555555555555557,-0.6255555555555555,-1.9361572352369898,-8.160351576379183,101.4974610346543
1590513686.9175413,-0.9958239615041102,-3.4587359422561654,8.853103913384247,0.6,0.015555555555555557,-0.6255555555555555,-2.2147998195505165,-8.617099639101033,104.93129590981171
1590513686.9275413,-1.0264041339336165,-3.5046062009004246,8.921909301350636,0.6,0.015555555555555557,-0.6255555555555555,-2.358144377813827,-8.903788755627655,108.18043923044675
1590513686.9375412,-1.003858479043456,-3.4309968822319363,8.924855361275393,0.6077777777777778,-0.015555555555555557,-0.6177777777777778,-1.9455384980071997,-8.9214230039856,114.70919580869118
1590513686.9475412,-1.024080419130882,-3.3838123553612753,8.897892774492158,0.6077777777777778,-0.015555555555555557,-0.6177777777777778,-1.9876675398560042,-8.837164920287991,118.7535838261764
1590513686.9575412,-1.1032934791158657,-3.3820239125304807,8.74398804373476,0.6077777777777778,-0.015555555555555557,-0.6177777777777778,-2.5039673955793282,-9.824775820026744,125.3157201290018
1590513686.9675412,-1.2068846324602016,-3.314991437813154,8.794388913553624,0.6077777777777778,-0.015555555555555557,-0.6177777777777778,-2.97267631762542,-10.371127196042368,127.43362719604237
1590513686.9775412,-1.28,-3.2462771983694214,8.898138599184712,0.6107767013135217,-0.019071534873324275,-0.6218108128775713,-3.0610143469744298,-10.572648102069987,127.50135991847107
1590513686.9875412,-1.2839024514162327,-3.215853677124349,8.866341420043186,0.64,-0.05333333333333334,-0.6611111111111111,-2.425304839324273,-10.0625,124.8338387526991
1590513686.9975412,-1.304580217425274,-3.230839565149452,8.793969239011542,0.64,-0.05333333333333334,-0.6611111111111111,-2.375,-9.905055026006206,119.80961615733196
1590513687.0075412,-1.3145865925871776,-3.1873687160367474,8.745413407412823,0.64,-0.05333333333333334,-0.6611111111111111,-2.318610339449765,-9.217108950459341,113.27259089358384
1590513687.0175412,-1.2933874057468921,-3.119837782759323,8.780162217240676,0.64,-0.05333333333333334,-0.6611111111111111,-2.0942569288771145,-8.425900499286733,105.1440238434889
1590513687.0275412,-1.3125275227958892,-3.0710832240553807,8.831444298740507,0.6393982088581216,-0.055379423215719766,-0.6613518275678625,-2.2454865664359125,-8.035419398615474,97.89638353511634
1590513687.0375412,-1.38699575850555,-3.10699575850555,8.8653361609963,0.6233333333333333,-0.11,-0.6677777777777778,-1.8626590560418734,-7.035584559155311,88.46350735493186
1590513687.0475411,-1.4155859841303278,-3.1355859841303277,8.85186199471011,0.6233333333333333,-0.11,-0.6677777777777778,-1.0,-6.031900264494535,81.88280317393442
1590513687.0575411,-1.4497667770769997,-3.163255592359,8.873022369435999,0.6233333333333333,-0.11,-0.6677777777777778,-0.9593050955125005,-5.502915286537502,76.15558073188438
1590513687.0675411,-1.5127826858857842,-3.1693477617618466,8.932543433233292,0.6233333333333333,-0.11,-0.6677777777777778,-0.769972946696538,-4.868342351101154,71.27988808809232
1590513687.077541,-1.6191605021769457,-3.080699581519212,8.870489707063447,0.6233333333333333,-0.11,-0.6677777777777778,-0.9361882846514774,-4.812937238449508,66.8474790759606
1590513687.087541,-1.6339087399782242,-3.026319410076215,8.911954369989113,0.6311111111111111,-0.14666666666666667,-0.6966666666666667,-1.487785187568049,-4.890066688112442,59.79073356923686
1590513687.097541,-1.6517911893771013,-2.9682088106228988,8.882385023080868,0.6311111111111111,-0.14666666666666667,-0.6966666666666667,-1.3591354647518095,-4.25838106228985,53.58105730324272
1590513687.107541,-1.659758933150966,-2.960241066849034,8.715062403829716,0.6311111111111111,-0.14666666666666667,-0.6966666666666667,-1.0105466746452385,-3.461606684903402,48.10323345871089
1590513687.117541,-1.719376573166066,-2.940623426833934,8.800598256176878,0.6311111111111111,-0.14666666666666667,-0.6966666666666667,-0.8360358228791205,-2.8204501520307685,39.887947785989006
1590513687.127541,-1.7109307102152593,-2.949069289784741,8.94417792634059,0.6311111111111111,-0.14666666666666667,-0.6966666666666667,-0.3081693884537162,-2.0814371438352026,33.28961735567145
1590513687.137541,-1.58077216066482,-2.751187939484338,8.80095035158747,0.6222750195326373,-0.16433884982361438,-0.6966666666666667,1.4274767606008951,0.3608932186234819,25.044918961751545
1590513687.147541,-1.844445552838203,-2.9529637018921355,9.071481850946068,0.6222222222222222,-0.16444444444444445,-0.6966666666666667,-1.4861388209550779,-2.550907452696615,15.168727474578453
1590513687.157541,-1.8646909190371992,-2.966460612691466,9.078230306345732,0.6222222222222222,-0.16444444444444445,-0.6966666666666667,-1.992272975929978,-2.213484682713348,10.529164387308533
1590513687.167541,-1.902281619094488,-2.944676222112861,8.810760539698164,0.6222222222222222,-0.16444444444444445,-0.6966666666666667,0.7119730150918635,0.125,4.076243643372703
1590513687.177541,-1.9280831692913385,-2.8844726049868767,8.819361056430447,0.6222222222222222,-0.16444444444444445,-0.6966666666666667,0.2819471784776903,0.125,-0.009001804461941987
1590513687.187541,-1.9365052724077327,-2.8565052724077327,9.005052724077327,0.6077777777777778,-0.14222222222222222,-0.7177777777777777,-0.6893425966608084,0.35131535588752194,-5.927103471001757
1590513687.197541,-1.92,-2.8410649375927592,8.831480499257925,0.6077777777777778,-0.14222222222222222,-0.7177777777777777,0.18084414004525437,1.1715910196832193,-9.5043840174205
1590513687.207541,-1.9209919978711676,-2.8509919978711675,8.764959989355837,0.6077777777777778,-0.14222222222222222,-0.7177777777777777,0.09400006652601167,1.5625,-13.08429914846705
1590513687.217541,-1.9289642850354487,-2.858964285035449,8.804821425177245,0.6077777777777778,-0.14222222222222222,-0.7177777777777777,-0.15513390735777688,1.5625,-16.273214014179544
1590513687.227541,-1.9115817099020893,-2.869209145048955,8.86525487029373,0.6077777777777778,-0.14222222222222222,-0.7177777777777777,0.38807156555970523,2.2531858786716463,-20.02581508024629
1590513687.237541,-1.9370264317180617,-2.8907433920704846,8.857769823788546,0.5788888888888889,-0.13666666666666666,-0.7822222222222223,0.4189151982378855,2.7846227973568283,-23.956979625550662
1590513687.247541,-1.904530077752012,-2.907550129586687,8.834530077752012,0.5788888888888889,-0.13666666666666666,-0.7822222222222223,0.09312338016641658,2.4469376619833585,-27.86932205701814
1590513687.257541,-1.9310314665709736,-2.9520629331419475,8.858968533429026,0.5788888888888889,-0.13666666666666666,-0.7822222222222223,-0.3923733375199049,2.519339998205755,-31.32233330342925
1590513687.267541,-1.94,-2.970804874534264,8.850402437267132,0.5788888888888889,-0.13666666666666666,-0.7822222222222223,0.0,2.7076218633565943,-34.25579211181786
1590513687.277541,-1.94,-2.9880728298235866,8.859036414911793,0.5788888888888889,-0.13666666666666666,-0.7822222222222223,0.0,3.139320745589658,-37.06183484633278
1590513687.287541,-1.932020301524756,-3.0059593969504883,8.89989849237622,0.5407636628405003,-0.14641963146974282,-0.770695991091314,0.04987311547027583,3.436865577351379,-39.91852888898407
1590513687.297541,-1.928309273625978,-3.0006762905496087,8.868309273625977,0.5311111111111111,-0.14888888888888888,-0.7677777777777778,0.0709536318701103,4.2563402239025825,-43.73505167926937
1590513687.307541,-1.8596605453533668,-3.028135781858653,8.799660545353365,0.5311111111111111,-0.14888888888888888,-0.7677777777777778,0.41419727323316635,4.513772954924875,-45.66579716193656
1590513687.317541,-1.8490965207631875,-3.04,8.836837822671155,0.5311111111111111,-0.14888888888888888,-0.7677777777777778,0.38347011784511786,5.162089646464646,-49.48383136924804
1590513687.3275409,-1.8097760958688112,-3.0721791233049514,8.84,0.5311111111111111,-0.14888888888888888,-0.7677777777777778,0.27444023967202774,5.489179280983917,-51.63619520655944
1590513687.3375409,-1.747142918179876,-3.061904721213416,8.808095278786585,0.5188888888888888,-0.17555555555555555,-0.7466666666666667,0.026786477248451186,5.80059549241615,-55.21725592822047
1590513687.3475409,-1.7202621234778892,-3.0798252510147406,8.790174748985258,0.5188888888888888,-0.17555555555555555,-0.7466666666666667,-0.3092234565263833,5.688592181157873,-57.84933374279
1590513687.3575408,-1.6480071972904318,-3.07332133784928,8.705314140558848,0.5188888888888888,-0.17555555555555555,-0.7466666666666667,-1.1958033446232006,6.174820067739204,-61.236645321761216
1590513687.3675408,-1.621371083827265,-3.117714860287892,8.776343776460626,0.5188888888888888,-0.17555555555555555,-0.7466666666666667,-1.306787150719729,6.840722904318374,-64.39968379551227
1590513687.3775408,-1.5785980102401866,-3.1282803979519627,8.829682387711776,0.5188888888888888,-0.17555555555555555,-0.7466666666666667,-1.0019850768013987,7.133762435998834,-67.04661938558881
1590513687.3875408,-1.5777067935839646,-3.1685339679198226,8.886240761503787,0.5539976152158382,-0.18240603874130176,-0.713270561136154,-0.6484952406013318,7.332002379699334,-70.35621267418713
1590513687.3975408,-1.5463569419351888,-3.2321858348388868,8.899070825805566,0.5644444444444444,-0.18444444444444444,-0.7033333333333334,0.35348440322912617,7.754553822581014,-74.67429877421273
1590513687.4075408,-1.4984624832759414,-3.2612300133792465,8.761537516724058,0.5644444444444444,-0.18444444444444444,-0.7033333333333334,0.8769218959050732,7.818265687715219,-77.79704806658917
1590513687.4175408,-1.4524652907244533,-3.2980277674204372,8.807534709275547,0.5644444444444444,-0.18444444444444444,-0.7033333333333334,0.9344183865944333,7.9907551597833,-81.07434803588271
1590513687.4275408,-1.4331722412989105,-3.3336555174021787,8.87731103480436,0.5644444444444444,-0.18444444444444444,-0.7033333333333334,1.2004337297045233,8.0,-83.98451078892704
1590513687.4375408,-1.3556839740389417,-3.376978781827259,8.87482076884673,0.5777777777777777,-0.23555555555555555,-0.7533333333333333,1.662765227159261,8.010790064902647,-87.77336339241138
1590513687.4475408,-1.2616005908419499,-3.318002954209749,8.745061152141801,0.5777777777777777,-0.23555555555555555,-0.7533333333333333,2.496665435745938,8.30001846381093,-91.24923559822747
1590513687.4575408,-1.2801868537666174,-3.410934268833087,8.571589364844904,0.5777777777777777,-0.23555555555555555,-0.7533333333333333,2.4579440546528804,8.880839180206795,-93.4176329394387
1590513687.4675407,-1.240193710691824,-3.4742303683737648,8.72903144654088,0.5777777777777777,-0.23555555555555555,-0.7533333333333333,1.1923427672955975,8.342571877807726,-97.71986298292902
1590513687.4775407,-1.1774253883571315,-3.4959654793660757,8.840643652910718,0.5777777777777777,-0.23555555555555555,-0.7533333333333333,1.3859897222658089,8.532182645535855,-101.06220775145144
1590513687.4875407,-1.1253608786610878,-3.5148797071129705,8.786563807531381,0.5582589493258949,-0.21928986517898652,-0.7072472105997211,2.2439853556485354,9.365978033472803,-104.67439199790795
1590513687.4975407,-1.1037765470231122,-3.557340717861327,8.813351794653318,0.5377777777777778,-0.20222222222222225,-0.6588888888888889,2.1110341889445094,9.399930770050059,-109.20746751517734
1590513687.5075407,-1.024903275828649,-3.645709633649932,8.70103237061446,0.5377777777777778,-0.20222222222222225,-0.6588888888888889,2.46169315758868,9.246169315758868,-114.33265894553207
1590513687.5175407,-0.9925077905491698,-3.6431269476372927,8.786222733077905,0.5377777777777778,-0.20222222222222225,-0.6588888888888889,2.3281736909323114,9.85139208173691,-116.88215517241379
1590513687.5275407,-0.9289168110918544,-3.6618927952463483,8.793512007922752,0.5377777777777778,-0.20222222222222225,-0.6588888888888889,2.523659940579351,9.896950049517207,-120.62848941569696
1590513687.5375407,-0.91,-3.6996878002994613,8.817109750374327,0.5575696446440854,-0.1428466216232994,-0.6382723609031518,2.4394512481283663,10.41553344358281,-123.66603627058797
1590513687.5475407,-0.811063968243639,-3.7990424285807247,8.839893603175636,0.5644444444444444,-0.12222222222222222,-0.6311111111111111,2.7460101190863537,10.501329960304549,-127.34308095269083
1590513687.5575407,-0.7912346124363079,-3.8750615502547685,8.633580736799386,0.5644444444444444,-0.12222222222222222,-0.6311111111111111,3.8055530504576813,11.672836722730757,-129.77931528159806
1590513687.5675406,-0.674911199178042,-3.812864866187191,8.735088800821957,0.5644444444444444,-0.12222222222222222,-0.6311111111111111,2.676158324771271,9.951737487156906,-133.234314606879
1590513687.5775406,-0.5580838873805503,-3.827217863479915,8.765826795219873,0.5644444444444444,-0.12222222222222222,-0.6311111111111111,2.5173883532505292,11.86581546486521,-135.20439799474102
1590513687.5875406,-0.5093594521972783,-3.9132027390136086,8.741281095605444,0.5433333333333333,-0.008888888888888889,-0.5933333333333334,4.1034281008927795,11.75400342376701,-137.68015406951548
1590513687.5975406,-0.5002706509491203,-3.958646745254399,8.75945869810176,0.5433333333333333,-0.008888888888888889,-0.5933333333333334,2.910522937072029,11.810808431567999,-140.23637942055993
1590513687.6075406,-0.46000786202152233,-3.9899941034838586,8.720007862021523,0.5433333333333333,-0.008888888888888889,-0.5933333333333334,2.625049137634514,11.125135128494914,-142.43708233010662
1590513687.6175406,-0.3784267404413513,-4.044382173039099,8.683745217973934,0.5433333333333333,-0.008888888888888889,-0.5933333333333334,3.3614252599044674,11.691480969157283,-143.51381384139884
1590513687.6275406,-0.35961982695571776,-4.0811405191328465,8.737090951743552,0.5433333333333333,-0.008888888888888889,-0.5933333333333334,3.4375,11.782438040763381,-144.2088847337409
1590513687.6375406,-0.32856483931947067,-4.1153587901701325,8.773923629489602,0.5400585171182525,0.012546271791640412,-0.5989898340684731,3.4375,11.862738657844991,-145.00119328922494
1590513687.6475406,-0.226162149568999,-4.217675700862002,8.7826054205172,0.5311111111111111,0.07111111111111111,-0.6144444444444445,3.5470946260775027,12.273986565193756,-145.96148656519375
1590513687.6575406,-0.1447915807851791,-4.23,8.677187371177768,0.5311111111111111,0.07111111111111111,-0.6144444444444445,3.5625,12.194986844976842,-146.17626973253473
1590513687.6675406,-0.09309687494695389,-4.223299553563851,8.730304017925345,0.5311111111111111,0.07111111111111111,-0.6144444444444445,3.8137667413556042,11.936233258644396,-146.01998883909627
1590513687.6775405,-0.025564696590759516,-4.24221765170462,8.76,0.5311111111111111,0.07111111111111111,-0.6144444444444445,3.9837867743846256,12.182794195077005,-145.15062483546137
1590513687.6875405,0.06239989627676815,-4.211999913563973,8.759600017287205,0.5311111111111111,0.16,-0.6088888888888889,4.0625,12.057500216090066,-143.74500291721588
1590513687.6975405,0.1167806901916719,-4.257317241826393,8.750536551634722,0.5311111111111111,0.16,-0.6088888888888889,4.0625,11.944206895434016,-142.21554308835923
1590513687.7075405,0.17462977918272227,-4.26910496319712,8.722685110408639,0.5311111111111111,0.16,-0.6088888888888889,4.176312039964005,11.880593980017998,-140.36091338055792
1590513687.7175405,0.2672871811858232,-4.240904272938059,8.632712818814177,0.5311111111111111,0.16,-0.6088888888888889,4.248116098045711,11.81438390195429,-137.76285607817158
1590513687.7275405,0.3347022640236522,-4.1672099529733915,8.751316745044347,0.5311111111111111,0.16,-0.6088888888888889,3.643416274778261,11.50920813738913,-135.6150056054924
1590513687.7375405,0.3675934649421375,-4.211577127297481,8.876764057181756,0.5096079872929431,0.21864488314045835,-0.6137759624839271,3.7748978897208985,11.052642954390741,-132.37602110279101
1590513687.7475405,0.4216515634678474,-4.039219527862534,8.631742182660762,0.5066666666666667,0.22666666666666666,-0.6144444444444445,3.7586962880543258,10.946196288054326,-128.87938470715088
1590513687.7575405,0.4674851769622567,-4.028742588481129,8.796168473292413,0.5066666666666667,0.22666666666666666,-0.6144444444444445,2.285735274911845,10.058941164947107,-124.74362348178137
1590513687.7675405,0.504174085919267,-4.166696343677068,8.587868441524765,0.5066666666666667,0.22666666666666666,-0.6144444444444445,3.3088371942259487,10.480573083239692,-120.28163626934048
1590513687.7775404,0.5321796588277915,-4.140095767637469,8.694167782380646,0.5066666666666667,0.22666666666666666,-0.6144444444444445,2.8415413785499393,9.800074227794667,-116.75538692960764
1590513687.7875404,0.55,-4.184075284090909,8.894075284090908,0.49948074494949496,0.26115909090909095,-0.6144444444444445,2.272079190340909,9.389604048295455,-110.90254794034091
1590513687.7975404,0.6010478916331515,-4.127904216733697,8.854920180611414,0.4955555555555556,0.28,-0.6144444444444445,2.8349237582965285,8.968251128821338,-103.67318617533124
1590513687.8075404,0.6354605636466806,-4.126973709097787,8.704210327217703,0.4955555555555556,0.28,-0.6144444444444445,2.247943067902402,8.450657272555324,-97.39267306601097
1590513687.8175404,0.653010597214342,-4.149515895821513,8.699515895821513,0.4955555555555556,0.28,-0.6144444444444445,2.287632465179274,8.009076953346634,-92.2497140216337
1590513687.8275404,0.6900486586007365,-4.1059124145186745,8.722019463440295,0.4955555555555556,0.28,-0.6144444444444445,2.2247567069963177,7.436891767490795,-86.05611355865334
1590513687.8375404,0.7248192704393231,-4.050240972747569,8.769518054504863,0.4703079096218938,0.30634536966990794,-0.611151273235706,2.125,6.786144758934997,-80.0105437109065
1590513687.8475404,0.7588435330001947,-4.0441326497501455,8.791156466999805,0.4444444444444444,0.3333333333333333,-0.6077777777777778,2.007227918748783,6.051126776559154,-72.9668375624635
1590513687.8575404,0.8006986176975078,-4.034126727878115,8.71825345575623,0.4444444444444444,0.3333333333333333,-0.6077777777777778,1.8103168196952881,5.3964256886287965,-64.95730123095551
1590513687.8675404,0.8696155509257439,-3.9816482566138607,8.662912064153465,0.4444444444444444,0.3333333333333333,-0.6077777777777778,1.3956032076732576,4.726303608632414,-55.428552124690434
1590513687.8775403,0.9138674453160096,-4.0475691972770305,8.76143664259304,0.4444444444444444,0.3333333333333333,-0.6077777777777778,1.1008284667749404,4.077692517018557,-48.36359670341062
1590513687.8875403,0.93,-4.1074077024174604,8.80036919033016,0.48477526871728155,0.390125718533859,-0.6127162460560843,0.7222111593452547,3.472211159345255,-39.539126906686846
1590513687.8975403,0.9419027864089085,-4.074291640773275,8.784048606795546,0.4988888888888889,0.41,-0.6144444444444445,0.6993924150556778,3.04023413224945,-33.284936134298526
1590513687.9075403,0.9438833453348421,-4.0316500360045255,8.724950108013578,0.4988888888888889,0.41,-0.6144444444444445,0.4441672667421047,2.5066672667421046,-26.28448719267565
1590513687.9175403,0.9666150904033379,-4.013346227399166,8.743230180806675,0.4988888888888889,0.41,-0.6144444444444445,0.0836556849791377,2.0629835274687065,-19.404133888212797
1590513687.9275403,0.9837825783376319,-4.01,8.758652264987104,0.4988888888888889,0.41,-0.6144444444444445,0.09456445844079969,1.6538066246776009,-15.004094112031007
1590513687.9375403,0.9897593228550665,-4.01,8.740722031434801,0.4988888888888889,0.41,-0.6144444444444445,0.24398307137666186,1.2055507858700145,-11.455402054804281
1590513687.9475403,0.9805320619616461,-4.01,8.763192371769877,0.6466666666666666,0.5377777777777778,-0.6444444444444445,0.1875,0.6449523235617313,-3.317190103151253
1590513687.9575403,0.97,-3.9991389161771487,8.694569458088575,0.6466666666666666,0.5377777777777778,-0.6444444444444445,0.017795565267948427,-0.021527095571282517,1.5240394254094909
1590513687.9675403,0.9373592173438778,-3.970415530406327,8.709584469593674,0.6466666666666666,0.5377777777777778,-0.6444444444444445,-0.08419902167984729,-0.3724029349604582,6.3343694607308425
1590513687.9775403,0.9516239146020872,-4.004273480442922,8.77059826336334,0.6466666666666666,0.5377777777777778,-0.6444444444444445,-0.10202989325260894,-0.6351494662630447,10.602562634430017
1590513687.9875402,0.9402114707840589,-4.000211470784059,8.770211470784059,1.0992868189199947,0.776086011505307,-0.838069884348062,-0.3111783075996322,-0.8896337306997242,15.026719190894392
1590513687.9975402,0.9087756763527054,-3.99,8.80244864729459,1.2544444444444445,0.8577777777777778,-0.9044444444444444,-0.6845213865230462,-1.29123872745491,18.874127160571142
1590513688.0075402,0.895053222578417,-3.985053222578417,8.740851561254672,1.2544444444444445,0.8577777777777778,-0.9044444444444444,-0.8125,-1.499334717769788,22.195797763057687
1590513688.0175402,0.8658115712018468,-3.965486942721108,8.713214543355937,1.2544444444444445,0.8577777777777778,-0.9044444444444444,-0.872971071995383,-1.7439132159861492,26.763607343817633
1590513688.0275402,0.8221558961553365,-3.9440519653851123,8.752155896155337,1.2544444444444445,0.8577777777777778,-0.9044444444444444,-0.8259743509708529,-2.2720769470874416,32.137816442071724
1590513688.0375402,0.7805064421482332,-3.9768669473147087,8.754746778925883,1.0815794248132558,0.48173491516775097,-0.7946628679962013,-0.9804184207169282,-2.776502104860314,37.70311104732747
1590513688.0475402,0.7481566626164439,-3.9517741595787768,8.749078331308223,1.02,0.3477777777777778,-0.7555555555555555,-0.9942395706763872,-3.1139115026326447,41.62802652895909
1590513688.0575402,0.7100872300872301,-3.9448909623909625,8.735021807521807,1.02,0.3477777777777778,-0.7555555555555555,-0.968613702988703,-3.436954811954812,46.39493734806235
1590513688.0675402,0.6794146887510197,-3.9488293775020398,8.719414688751021,1.02,0.3477777777777778,-0.7555555555555555,-1.0661581953061263,-3.8602118788775686,51.74556510520424
1590513688.0775402,0.6518996302165875,-3.920949815108294,8.755250924458531,1.02,0.3477777777777778,-0.7555555555555555,-1.2381273111463287,-4.266409138932911,56.8742736397253
1590513688.0875401,0.6086108926663037,-3.897166535599782,8.801444357066522,0.8365289904265163,0.33494431337756003,-0.7251354917920764,-1.3482636158328796,-4.651391073336963,62.71842926421068
1590513688.0975401,0.58,-3.860750674045693,8.81887398893146,0.5911111111111111,0.31777777777777777,-0.6844444444444444,-1.3726541436072088,-5.328501933446857,68.9545906059316
1590513688.1075401,0.5684796221720888,-3.8169592443441775,8.729036032806933,0.5911111111111111,0.31777777777777777,-0.6844444444444444,-1.2934952771511101,-5.89400472284889,74.85359563769002
1590513688.1175401,0.5498949414541584,-3.8757879390938124,8.715787939093811,0.5911111111111111,0.31777777777777777,-0.6844444444444444,-1.503283079557551,-6.12631323182302,79.21048155690285
1590513688.12754,0.5350842676483948,-3.9450842676483946,8.760505605890367,0.5911111111111111,0.31777777777777777,-0.6844444444444444,-1.6896066912098684,-6.403616635987665,83.27984628624704
1590513688.13754,0.5235338087195847,-3.920601426158754,8.807594295364984,0.5271676640047817,0.31203005219518637,-0.678696718861853,-1.6837410865077875,-6.683741086507788,87.35151216613498
1590513688.14754,0.5142153846153846,-3.881076923076923,8.855784615384614,0.4922222222222222,0.3088888888888889,-0.6755555555555556,-1.9307692307692308,-6.966923076923077,90.3076923076923
1590513688.15754,0.5041400741006334,-3.7955408151069676,8.766241185610134,0.4922222222222222,0.3088888888888889,-0.6755555555555556,-1.586381020676467,-7.271498147484164,92.76036064300227
1590513688.16754,0.48908946121275687,-3.7663658081808644,8.727276346968107,0.4922222222222222,0.3088888888888889,-0.6755555555555556,-1.7955269393621567,-7.375,94.10802693936216
1590513688.17754,0.4843529494612802,-3.8104706462289615,8.789176545151522,0.4922222222222222,0.3088888888888889,-0.6755555555555556,-2.2227940658669985,-7.375,94.97058901199502
1590513688.18754,0.47650249031543995,-3.83650249031544,8.848998339789706,0.4897226833917482,0.30788907335669924,-0.6730560167250815,-1.8500622578859989,-7.431239623685667,95.72495849474267
1590513688.19754,0.45630315083881184,-3.8089094525164353,8.856303150838812,0.4866666666666667,0.30666666666666664,-0.67,-1.691658379831685,-7.569315921772278,96.0
1590513688.20754,0.44688156831042847,-3.79,8.778276071139855,0.4866666666666667,0.30666666666666664,-0.67,-1.9300980194017785,-7.5900490097008895,95.84407841552142
1590513688.21754,0.44,-3.79,8.709546632369351,0.4866666666666667,0.30666666666666664,-0.67,-1.735649032550926,-7.316087741862269,94.85196516048495
1590513688.22754,0.4471390299288138,-3.7828609700711864,8.795721940142373,0.4866666666666667,0.30666666666666664,-0.67,-1.8215242517796546,-7.205381062944913,93.67881062944913
1590513688.23754,0.4564611872146119,-3.7876940639269407,8.794771689497717,0.4984627092846271,0.2854337899543379,-0.6825824454591578,-1.4115296803652968,-7.080764840182648,92.056649543379
1590513688.24754,0.4542086769981877,-3.7863305840144985,8.831582646003625,0.52,0.2466666666666667,-0.7055555555555556,-1.276304231238673,-6.8421746125679626,89.11576728187299
1590513688.25754,0.4712415533316226,-3.7231376700025662,8.718826020015397,0.52,0.2466666666666667,-0.7055555555555556,-1.3476298541613208,-6.379091020870756,84.5605206462236
1590513688.26754,0.48,-3.743656700815388,8.701703951494878,0.52,0.2466666666666667,-0.7055555555555556,-1.164645619903826,-5.977145619903826,79.44224336190675
1590513688.27754,0.45959047831645594,-3.739385717474684,8.811228565050632,0.52,0.2466666666666667,-0.7055555555555556,-1.223229143413763,-5.653050611847312,73.2688843172271
1590513688.28754,0.44,-3.692798222737371,8.824128593966321,0.5250968228926308,0.20079526063298883,-0.6883537782929264,-1.079129640361892,-5.034118532470459,65.13619643259602
1590513688.29754,0.44,-3.720796839454014,8.795828119922001,0.5288888888888889,0.16666666666666666,-0.6755555555555556,-0.7396485009749756,-4.2139652563373415,56.72324656727332
1590513688.30754,0.4286173154647947,-3.7556913422676024,8.760160604126781,0.5288888888888889,0.16666666666666666,-0.6755555555555556,-0.7230708891725165,-3.2702948840672197,47.86050840246756
1590513688.31754,0.4103694834714609,-3.7262931921501132,8.744445774792808,0.5288888888888889,0.16666666666666666,-0.6755555555555556,-0.41895099433146876,-2.541641722634838,39.33060001309562
1590513688.32754,-1.4218483521548744,-9.851491126987785,5.13087808250749,0.5288888888888889,0.16666666666666666,-0.6755555555555556,-5.505271952062688,-0.4053785434431898,26.125316893293387
1590513688.33754,-2.4919154890163706,-9.235508045333706,-0.1890776549601232,0.5102568288170639,0.18796044960589525,-0.669167420673787,-70.63666223590317,63.65948474884567,-301.0841839233245
1590513688.34754,-0.22635747373178172,1.6395885587315933,0.2378844198395662,0.49,0.2111111111111111,-0.6622222222222223,-151.19511801867964,75.77967884984747,-511.03229625654353
1590513688.35754,-0.4807664948827757,-0.3824598969296654,-0.2314509690063149,0.49,0.2111111111111111,-0.6622222222222223,-163.73208517819555,-18.686030158960587,-244.36538252159397
1590513688.36754,1.4934474223887986,-1.1603086768969664,6.87480712113712,0.49,0.2111111111111111,-0.6622222222222223,-146.1605382840676,-43.39666682872498,-111.80650789371332
1590513688.3775399,2.447206034000177,-1.1045864883179637,9.230556259391296,0.49,0.2111111111111111,-0.6622222222222223,-138.69299298783181,-25.71116054329572,-103.49820460504993
1590513688.3875399,-0.878013088119147,-1.2314419496784383,7.319703260746926,0.46438238870710946,0.2792164679629421,-0.6466017275314353,-76.10063607130769,56.4889780548347,-97.06696378201512
1590513688.3975399,0.5863645468202303,-1.358592889334001,8.208863294942413,0.4444444444444444,0.3322222222222222,-0.6344444444444445,20.595361792689033,69.4823798197296,-94.87925638457686
1590513688.4075398,1.3093635222554794,-1.2919635029448682,7.447515496765472,0.4444444444444444,0.3322222222222222,-0.6344444444444445,110.51418002317274,25.909147195133727,-95.56660471178913
1590513688.4175398,0.6199108332100044,-2.004928222583987,8.420941616101821,0.4444444444444444,0.3322222222222222,-0.6344444444444445,196.5991471807015,20.380940598638446,-96.89196388929999
1590513688.4275398,4.946724369779731,0.19964639481808355,9.848791454383605,0.4444444444444444,0.3322222222222222,-0.6344444444444445,263.4569582283755,19.620769332752516,-95.0617885755412
1590513688.4375398,3.6821959277480527,0.9632804251804503,5.646618307178512,0.42517151259062413,0.3554826572182122,-0.621817351160907,203.49035353898086,-17.971188548138038,-76.690572593098
1590513688.4475398,0.21,0.26,-0.06,0.4122222222222222,0.3711111111111111,-0.6133333333333333,138.5625,-32.1875,-65.3125
1590513688.4575398,2.4645652937457565,-1.1247837591027232,10.70926873814597,0.4122222222222222,0.3711111111111111,-0.6133333333333333,47.972178155805835,-3.4332091343339535,-39.27627643009343
1590513688.4675398,2.229131510695505,-2.0529721369595735,14.490151569229305,0.4122222222222222,0.3711111111111111,-0.6133333333333333,-56.47041485235682,33.20130957479715,-9.919463975539534
1590513688.4775398,0.577582374348382,-2.090653093341202,10.275101799940986,0.4122222222222222,0.3711111111111111,-0.6133333333333333,-69.79785703747419,23.185139421658306,-3.2071038654470345
1590513688.4875398,0.7932951101646326,-2.8770779752641493,10.813083790646244,0.4078749283315587,0.3557283788826094,-0.6196870705581492,-28.94997542796298,-0.6019611557048079,-3.748187812269637
1590513688.4975398,1.5060595790568254,-3.79384722035008,12.430950491998999,0.3977777777777778,0.32,-0.6344444444444445,30.7888953611523,2.9039193834126054,-1.7987437657661127
1590513688.5075397,0.3026344572605959,-0.6439425391384721,1.3659007144095074,0.3977777777777778,0.32,-0.6344444444444445,60.21829326413896,5.074526775914194,1.633844668887562
1590513688.5175397,0.945083257028521,-3.246395699799912,11.850779326482856,0.3977777777777778,0.32,-0.6344444444444445,-13.514824329365482,-2.927631244277139,9.87712381727541
1590513688.5275397,0.5810502454120754,-2.520147444363407,8.691492578502295,0.3977777777777778,0.32,-0.6344444444444445,-22.440980367033966,3.5493719323490565,17.738225887524393
1590513688.5375397,0.7449430838220076,-2.7550569161779923,8.089555018972058,0.401123759150665,0.32780728987007013,-0.6439247250009582,-6.556571231459124,-0.2559287685408762,29.443126940324248
1590513688.5475397,0.15949405608949807,-2.5988482168268496,8.445683604439871,0.4044444444444445,0.33555555555555555,-0.6533333333333333,-5.0,-1.8125,39.125
1590513688.5575397,-0.40400360144057623,-2.023321328531413,9.74905445511538,0.4044444444444445,0.33555555555555555,-0.6533333333333333,-13.02625737795118,-4.394861069427771,80.44277711084433
1590513688.5675397,-0.6788982657496097,-1.4275610785265203,8.984557998227773,0.4044444444444445,0.33555555555555555,-0.6533333333333333,-20.348345394320436,-8.433066796067344,156.57685450862905
1590513688.5775397,-0.31230736255492453,-2.462023362983603,7.466217983067196,0.4044444444444445,0.33555555555555555,-0.6533333333333333,-4.602614939449149,-12.736041153145429,183.00776979959275
1590513688.5875397,0.5378018818609515,-2.990738555746397,10.098810021656337,0.4044444444444445,0.33167969365826133,-0.6519239290070445,-17.090674240161302,-19.743699126278845,178.30326805317003
1590513688.5975397,0.1307540940306392,-2.975044902271527,9.226732699418912,0.4044444444444445,0.3233333333333333,-0.6488888888888888,1.9104568365909484,-13.896768797323473,176.3517729793978
1590513688.6075397,-0.11607096404973727,-2.89671895322824,8.084420165444046,0.4044444444444445,0.3233333333333333,-0.6488888888888888,-1.8917947817491285,-13.532656339420425,174.07490667759222
1590513688.6175396,0.09353520914835989,-2.916646479085164,8.410363376467048,0.4044444444444445,0.3233333333333333,-0.6488888888888888,-9.6859859313873,-15.263720659043033,171.72104461330125
1590513688.6275396,4.738134716302446,-9.765860208430855,8.20425583286112,0.4044444444444445,0.3233333333333333,-0.6488888888888888,-9.242092993175492,-15.048372095888048,147.18691948557492
1590513688.6375396,8.432167836362545,-15.142623417911343,6.389737268310239,0.42651070721612383,0.29896850152293736,-0.6392348989262792,-10.079861735948654,-5.15205296622878,7.738998485393807
1590513688.6475396,-1.4493886991692702,-1.124270144590569,11.14626365375766,0.4577777777777778,0.2644444444444444,-0.6255555555555555,20.02688518733803,14.862835743176149,-113.63447437574172
1590513688.6575396,-4.047892265665016,-4.898287092368108,10.666803824483523,0.4577777777777778,0.2644444444444444,-0.6255555555555555,28.292932068465085,11.54692301946389,-100.67194436144784
1590513688.6675396,-4.304938235651013,-6.7181431865064924,8.413204708166486,0.4577777777777778,0.2644444444444444,-0.6255555555555555,-4.005930712292198,9.702630141973062,-48.42520931925737
1590513688.6775396,-1.4699472729925183,-3.3334966550653355,10.839984994685617,0.4577777777777778,0.2644444444444444,-0.6255555555555555,-15.249623564595794,3.01318826459371,15.591653554383843
1590513688.6875396,-0.2778766564089682,-2.10618602022232,8.634669346228726,0.47748163034604035,0.25638377748470065,-0.6291380742043305,-1.5876895842491994,-14.336881005463795,39.657975098913525
1590513688.6975396,0.14,-2.93,9.16,0.5066666666666667,0.24444444444444444,-0.6344444444444445,-1.625,-4.375,43.6875
1590513688.7075396,0.15332098024934648,-6.357256544278308,7.970339531296859,0.5066666666666667,0.24444444444444444,-0.6344444444444445,-4.345260218071205,-0.9121128057923824,50.42286239878326
1590513688.7175395,6.667325307398997,-12.907200205646717,8.338717707039116,0.5066666666666667,0.24444444444444444,-0.6344444444444445,-3.502932072319095,-8.099979649543721,41.15725279551005
1590513688.7275395,-0.5761136390152841,-2.663521176058803,9.516633998366585,0.5066666666666667,0.24444444444444444,-0.6344444444444445,6.987705635281764,5.45855209427138,-15.211804340217011
1590513688.7375395,-0.7788482757471207,-3.900901545077254,8.43305231928263,0.5066666666666667,0.24444444444444444,-0.6344444444444445,0.4337841892094598,3.7982253279330633,-5.512000600030003
1590513688.7475395,1.0590478723404255,-5.207898936170213,8.974712765957447,0.4922222222222222,0.2644444444444444,-0.64,-4.404488031914894,-4.759175531914893,8.89375
1590513688.7575395,0.2984330225153514,-4.923326131453264,9.056730725494655,0.4922222222222222,0.2644444444444444,-0.64,1.8660521378212418,-0.2771989424607687,-0.11013190811917217
1590513688.7675395,0.15129778898545504,-4.53,8.793244472463638,0.4922222222222222,0.2644444444444444,-0.64,0.34494472463637593,0.2873333858693205,-0.3741669293466024
1590513688.7775395,0.12634231676596425,-4.478792434723499,8.710738534127714,0.4922222222222222,0.2644444444444444,-0.64,-0.37038416170178734,0.050336878723659495,0.14786052021272342
1590513688.7875395,0.12698898994734323,-4.441252592947183,8.666988989947344,0.4917045192631598,0.25978511781288227,-0.6431062177543748,-0.49821485559278766,-0.15837920855273657,0.14381881282910483
1590513688.7975395,0.13619874866879658,-4.604479499467518,8.698280750798721,0.49,0.24444444444444444,-0.6533333333333333,0.22850938498402557,-0.0625,0.051754692492012776
1590513688.8075395,0.1122839005394881,-4.467160994605119,8.736378534052651,0.49,0.24444444444444444,-0.6533333333333333,0.5767743783718006,-0.03690854054273314,0.1107256216281994
1590513688.8175395,0.13322666666666666,-4.331946666666667,8.75032,0.49,0.24444444444444444,-0.6533333333333333,0.385,0.04033333333333334,-0.02016666666666667
1590513688.8275394,0.14,-4.408205591330296,8.735897204334853,0.49,0.24444444444444444,-0.6533333333333333,-0.3605725812784671,0.125,-0.0625
1590513688.8375394,0.14,-4.426640866873065,8.726679566563467,0.492807089209953,0.24314886480908152,-0.6533333333333333,-0.6128539409184727,0.07641576367389061,-0.026061822755417956
1590513688.8475394,0.13638396759407315,-4.554911416693317,8.68785651849483,0.5044444444444445,0.23777777777777775,-0.6533333333333333,-0.1104959492591408,-0.05719939238887112,0.07979959492591408
1590513688.8575394,0.13,-4.42890563455813,8.75671690367439,0.5044444444444445,0.23777777777777775,-0.6533333333333333,0.6597640863953251,0.048632043197662594,0.0
1590513688.8675394,0.13,-4.390124822013055,8.640374466039168,0.5044444444444445,0.23777777777777775,-0.6533333333333333,0.5628120550326386,0.00015602751631931672,0.0
1590513688.8775394,0.14851114154114278,-4.427022283082286,8.765533424623428,0.5044444444444445,0.23777777777777775,-0.6533333333333333,0.004030250217851347,0.043889269264284825,-0.09708390389642724
1590513688.8875394,0.1397004196077156,-4.413894545099698,8.740898741176853,0.5042447241829215,0.2382105050110775,-0.653200186492318,-0.6818828676446671,-0.0625,0.0625
1590513688.8975394,0.13434935500654863,-4.52477725747708,8.73955451495416,0.4977777777777778,0.25222222222222224,-0.6488888888888888,-0.36408265604535583,-0.0625,0.0625
1590513688.9075394,0.1493996806430199,-4.47210111774943,8.634202235498861,0.4977777777777778,0.25222222222222224,-0.6488888888888888,0.10624002009437172,-0.0625,0.0625
1590513688.9175394,0.10906123877289164,-4.46563256736265,8.70114289047008,0.4977777777777778,0.25222222222222224,-0.6488888888888888,0.6744896768925697,-0.03775516155371515,0.0625
1590513688.9275393,0.13,-4.360960026339233,8.768631134523764,0.4977777777777778,0.25222222222222224,-0.6488888888888888,0.3107775399930278,-0.06677770461323934,0.047944426153309835
1590513688.9375393,0.13,-4.428474609502647,8.825932292007058,0.4977777777777778,0.25284367761003274,-0.6488888888888888,-0.32838948434742826,0.12182210313051435,0.006355793738971309
1590513688.9475393,0.13,-4.401062675642115,8.752833801712306,0.4977777777777778,0.2640115025161754,-0.6488888888888888,-0.6139304620613032,0.06471390758773937,0.12057218482452127
1590513688.9575393,0.13239713392493058,-4.513220062525486,8.663220062525486,0.4977777777777778,0.2644444444444444,-0.6488888888888888,0.04237460921571293,0.032535825938367735,0.0
1590513688.9675393,0.138245746454068,-4.4503516054973735,8.624034028367456,0.4977777777777778,0.2644444444444444,-0.6488888888888888,0.39144612699311254,-0.05153591533792496,0.01096408466207504
1590513688.9775393,0.11750337772630766,-4.364979733642154,8.77,0.4977777777777778,0.2644444444444444,-0.6488888888888888,0.40646110789422896,0.07810388921057711,0.09379222157884579
1590513688.9875393,0.1119120625720607,-4.4128680938580915,8.77,0.4990524861591516,0.2612576734910099,-0.6488888888888888,-0.08640078215075878,0.125,0.017925586613069085
1590513688.9975393,0.13271468493265817,-4.475290904124557,8.748282520538734,0.5111111111111111,0.2311111111111111,-0.6488888888888888,-0.3294667808291135,0.09106643834177294,0.13659965751265943
1590513689.0075393,0.13452133939561406,-4.55173779798538,8.684521339395614,0.5111111111111111,0.2311111111111111,-0.6488888888888888,-0.24944736114948882,-0.022827752518274763,0.011413876259137382
1590513689.0175393,0.10766238285813717,-4.4723376171418625,8.678700937134902,0.5111111111111111,0.2311111111111111,-0.6488888888888888,0.3709404285465709,-0.11038989286335728,0.0625
1590513689.0275393,0.10327650482575702,-4.460340971045459,8.754744271715907,0.5111111111111111,0.2311111111111111,-0.6488888888888888,0.49082645693656524,-0.07273907758049068,0.0625
1590513689.0375392,0.11563722095336329,-4.38617667427982,8.810367494290135,0.5111111111111111,0.2311111111111111,-0.6488888888888888,0.22043579164517796,-0.11136631547926029,0.0625
1590513689.0475392,0.1396468304107985,-4.469293660821597,8.767174643286387,0.5044444444444445,0.23777777777777775,-0.67,-0.43308538013498105,0.12058538013498105,-0.06029269006749052
1590513689.0575392,0.13,-4.467125726817295,8.675014989034867,0.5044444444444445,0.23777777777777775,-0.67,-0.24560262961994245,0.0,-0.013379474076011507
1590513689.0675392,0.13072872649983552,-4.524170188001316,8.627287264998355,0.5044444444444445,0.23777777777777775,-0.67,0.03188178436780446,0.009109081247944132,-0.05339091875205587
1590513689.0775392,0.13657227825187485,-4.44314455650375,8.725712869580208,0.5044444444444445,0.23777777777777775,-0.67,0.4375,0.10357673907421774,0.05535891302473925
1590513689.0875392,0.11067425639381064,-4.390842820492263,8.770337128196905,0.5043320683788094,0.23777777777777775,-0.6696441424588222,0.4259112182313798,-0.061446474384670886,0.0
1590513689.0975392,0.1443012907881023,-4.432876613485128,8.78715064539405,0.4987275626464274,0.23777777777777775,-0.651896540972946,-0.1520534354205083,-0.008904233143590151,0.0
1590513689.1075392,0.12875531973691484,-4.501244680263085,8.716308517106063,0.4977777777777778,0.23777777777777775,-0.6488888888888888,-0.3438829934228707,-0.0625,0.054720748355717684
1590513689.1175392,0.1210280218869176,-4.508971978113082,8.631308240756093,0.4977777777777778,0.23777777777777775,-0.6488888888888888,-0.15070054717293982,-0.0625,0.006425136793234955
1590513689.1275392,0.1241666349918279,-4.443750047512259,8.73041658747957,0.4977777777777778,0.23777777777777775,-0.6488888888888888,0.4375,0.0625,0.026041468698924323
1590513689.1375391,0.14008905023426108,-4.419732849297216,8.770623351639827,0.49789651142345925,0.23790640589393264,-0.6489284667707826,0.4347171801793416,0.06416969189239505,0.12388687207173664
1590513689.1475391,0.14759475709475708,-4.411647186147186,8.8231632996633,0.5111111111111111,0.25222222222222224,-0.6533333333333333,0.049836159211159206,0.1748361592111592,0.030065536315536313
1590513689.1575391,0.1377672454651213,-4.475534490930243,8.73427592744194,0.5111111111111111,0.25222222222222224,-0.6533333333333333,-0.1875,-0.07645471584299195,0.11104528415700805
1590513689.1675391,0.12843043710021324,-4.466278251599147,8.622556503198293,0.5111111111111111,0.25222222222222224,-0.6533333333333333,-0.12864139125799573,-0.09557069562899786,0.05269023187633262
1590513689.177539,0.12159935479868478,-4.487205161610522,8.702794838389478,0.5111111111111111,0.25222222222222224,-0.6533333333333333,0.21748790247533967,0.03251209752466034,-0.009995967491779887
1590513689.187539,0.12810456604007692,-4.435163471679385,8.754836528320615,0.5111111111111111,0.25222222222222224,-0.6533333333333333,0.3394606132514424,-0.08946061325144239,-0.0506535377504808
1590513689.197539,0.12086362656853482,-4.467840933578663,8.797840933578664,0.4977777777777778,0.25222222222222224,-0.6344444444444445,0.16590933578662953,-0.0625,0.0625
1590513689.207539,0.13476884313822998,-4.433077892154425,8.763077892154426,0.4977777777777778,0.25222222222222224,-0.6344444444444445,-0.18172107845574953,-0.0625,0.0625
1590513689.217539,0.14,-4.488958921646146,8.612082156707707,0.4977777777777778,0.25222222222222224,-0.6344444444444445,-0.3125,0.06064093151097556,0.0625
1590513689.227539,0.14711478949262324,-4.494229578985246,8.641639078805325,0.4977777777777778,0.25222222222222224,-0.6344444444444445,0.06311397984886649,-0.15143486865779057,0.15143486865779057
1590513689.237539,0.1320219503418496,-4.464043900683699,8.754835372436128,0.4977777777777778,0.25222222222222224,-0.6344444444444445,0.3932698362720403,0.03722562072688018,-0.03722562072688018
1590513689.247539,0.1457642565749501,-4.4284714868501,8.809410641437376,0.5126662423207863,0.25222222222222224,-0.662469789466578,0.33897339640656193,0.013236698203280967,-0.013236698203280967
1590513689.257539,0.13111041119860017,-4.434441644794401,8.788902187226597,0.5166666666666667,0.25222222222222224,-0.67,-0.06944006999125109,-0.020820209973753282,0.16667979002624672
1590513689.267539,0.13844951881014875,-4.463798075240595,8.649459142607174,0.5166666666666667,0.25222222222222224,-0.67,-0.11530949256342957,-0.15842847769028873,0.029071522309711273
1590513689.277539,0.13,-4.454380830796426,8.714380830796426,0.5166666666666667,0.25222222222222224,-0.67,-0.13273961504468232,0.03511980752234116,0.03650692330354512
1590513689.287539,0.13,-4.479094372974566,8.739094372974566,0.5166666666666667,0.25222222222222224,-0.67,0.17617966218206815,-0.11933983109103408,0.2424531081213788
1590513689.297539,0.1220246432413779,-4.44,8.776963035137932,0.4977777777777778,0.24444444444444444,-0.6488888888888888,0.3496919594827761,0.0625,-0.09969195948277612
1590513689.307539,0.13905283884456895,-4.44,8.751420741733147,0.4977777777777778,0.24444444444444444,-0.6488888888888888,0.13683951444288817,0.0625,0.11316048555711183
1590513689.317539,0.13133221357850072,-4.457993281471004,8.662664427157,0.4977777777777778,0.24444444444444444,-0.6488888888888888,-0.375,-0.01665266973125884,-0.0625
1590513689.327539,0.1387478783592645,-4.502487270155587,8.677495756718528,0.4977777777777778,0.24444444444444444,-0.6488888888888888,-0.375,-0.10934847949080621,-0.0625
1590513689.337539,0.1331838889432007,-4.482735555772803,8.714080555283997,0.4977777777777778,0.24444444444444444,-0.6488888888888888,-0.03419444716003517,-0.0823993058950044,-0.0625
1590513689.347539,0.13990902041871286,-4.44,8.79,0.4977777777777778,0.25222222222222224,-0.6533333333333333,0.37386275523391055,0.0002843111915223572,0.0625
1590513689.357539,0.12,-4.44,8.783060671064879,0.4977777777777778,0.25222222222222224,-0.6533333333333333,0.10331459707775124,0.053825838831100495,0.0625
1590513689.367539,0.12,-4.44,8.698179868053588,0.4977777777777778,0.25222222222222224,-0.6533333333333333,-0.16193791233253735,-0.05227516493301493,0.0625
1590513689.377539,0.14758131903771676,-4.459193773012572,8.694031134937138,0.4977777777777778,0.25222222222222224,-0.6533333333333333,-0.1824610813285766,0.06753891867142339,-0.0050389186714233924
1590513689.387539,0.12357593910372588,-4.4511919797012425,8.73404010149379,0.4977777777777778,0.25222222222222224,-0.6533333333333333,-0.13244987313276227,0.11755012686723773,-0.055050126867237724
1590513689.397539,0.12674648925513618,-4.463492978510272,8.746746489255136,0.4977777777777778,0.2424772932981366,-0.6533333333333333,0.08582778922300555,0.04066888431079779,0.06399667353380331
1590513689.407539,0.13,-4.428509781550955,8.783192174759236,0.4977777777777778,0.23777777777777775,-0.6533333333333333,0.23936277306130666,0.0,0.07313722693869333
1590513689.417539,0.10879758481886143,-4.441202415181139,8.698122867548399,0.4977777777777778,0.23777777777777775,-0.6533333333333333,0.029141508529806404,0.0,0.0625
1590513689.4275389,0.11912775045766179,-4.45,8.717383251372986,0.4977777777777778,0.23777777777777775,-0.6533333333333333,-0.12227422018019311,0.0,0.0625
1590513689.4375389,0.13350957790861598,-4.45,8.713245211045693,0.4977777777777778,0.23777777777777775,-0.6533333333333333,-0.125,-0.042217430964424915,0.020282569035575085
1590513689.4475389,0.14,-4.432410187878311,8.762769436365065,0.5036410484850073,0.23777777777777775,-0.6425840037034125,0.14984081440138353,-0.0625,0.10993632576055341
1590513689.4575388,0.14,-4.437850925907227,8.754298148185544,0.5044444444444445,0.23777777777777775,-0.6411111111111111,0.23656828692017207,-0.11156828692017205,0.125
1590513689.4675388,0.14,-4.423402379806641,8.68,0.5044444444444445,0.23777777777777775,-0.6411111111111111,-0.014176582527669627,-0.10373512620849556,0.1875
1590513689.4775388,0.13944699376397224,-4.45,8.681106012472055,0.5044444444444445,0.23777777777777775,-0.6411111111111111,-0.12845628897517355,0.06077185551241322,0.17885927756206613
1590513689.4875388,0.12299682315566537,-4.45,8.714006353688669,0.5044444444444445,0.23777777777777775,-0.6411111111111111,-0.23126985527709143,0.009365072361454285,-0.07817463819272852
1590513689.4975388,0.14046770389078175,-4.46,8.751870815563127,0.49,0.23777777777777775,-0.6488888888888888,0.01461574658692907,0.0625,-0.05373055204784256
1590513689.5075388,0.1488758714175058,-4.459250580945004,8.786627614252517,0.49,0.23777777777777775,-0.6488888888888888,0.3078161309062742,0.05781613090627421,0.12265806545313711
1590513689.5175388,0.12450929512006197,-4.443006196746708,8.713527885360184,0.49,0.23777777777777775,-0.6488888888888888,0.20628872966692485,-0.04371127033307513,0.07189436483346243
1590513689.5275388,0.1201518942101501,-4.45984810578985,8.73,0.49,0.23777777777777775,-0.6488888888888888,0.05870264474624732,-0.05965198355968549,-0.0625
1590513689.5375388,0.1284798665713605,-4.45152013342864,8.73,0.49,0.23777777777777775,-0.6488888888888888,-0.1494966642840124,0.09649749821300929,-0.0625
1590513689.5475388,0.13,-4.46410668367242,8.72294665816379,0.5048903883208875,0.23777777777777775,-0.65202370748276,-0.05524984057106416,0.125,-0.01841661352368805
1590513689.5575387,0.13986921565124175,-4.450261568697517,8.729869215651242,0.5111111111111111,0.23777777777777775,-0.6533333333333333,0.12336519564052172,0.06331740217973914,0.06168259782026086
1590513689.5675387,0.1267667138787657,-4.4566166430606176,8.703533427757531,0.5111111111111111,0.23777777777777775,-0.6533333333333333,0.20770803825771442,0.02114598087114279,0.02114598087114279
1590513689.5775387,0.14525396825396825,-4.443164021164021,8.723671957671957,0.5111111111111111,0.23777777777777775,-0.6533333333333333,0.03955026455026453,0.05261243386243387,0.10522486772486773
1590513689.5875387,0.14382488479262673,-4.446175115207374,8.73,0.5111111111111111,0.23777777777777775,-0.6533333333333333,-0.11578341013824885,-0.014688940092165897,0.08640552995391705
1590513689.5975387,0.13341659200860062,-4.456583407991399,8.743166815982798,0.5111111111111111,0.24216671643871068,-0.6533333333333333,-0.10520740010750762,-0.0625,-0.01979259989249238
1590513689.6075387,0.11689618922470434,-4.4665519053876475,8.743448094612353,0.5111111111111111,0.24444444444444444,-0.6533333333333333,0.019398817345597896,0.019398817345597896,-0.0625
1590513689.6175387,0.15777325603716358,-4.450890697585135,8.663562790340539,0.5111111111111111,0.24444444444444444,-0.6533333333333333,0.18193314009290898,0.0027834299535455104,0.05693314009290898
1590513689.6275387,0.1386785284840458,-4.435785685656031,8.709750100203893,0.5111111111111111,0.24444444444444444,-0.6533333333333333,0.05424080302528622,0.0,0.018080267675095407
1590513689.6375387,0.13705520447649008,-4.45116561342947,8.74411040895298,0.5111111111111111,0.24444444444444444,-0.6533333333333333,-0.1763801119122519,0.13228508393418892,0.04409502797806297
1590513689.6475387,0.1327202042474179,-4.474559591505164,8.75,0.4868451252691708,0.24444444444444444,-0.6500978685544079,-0.11350382963908551,0.14200127654636185,0.0625
1590513689.6575387,0.13,-4.461434933505329,8.75,0.4777777777777778,0.24444444444444444,-0.6488888888888888,0.05353166559169506,0.125,0.0625
1590513689.6675386,0.14,-4.430036884764478,8.680221308586868,0.4777777777777778,0.24444444444444444,-0.6488888888888888,0.125,0.0002305297779866087,0.0625
1590513689.6775386,0.14,-4.439890755315401,8.7393445318924,0.4777777777777778,0.24444444444444444,-0.6488888888888888,0.125,0.06181722072124985,0.0625
1590513689.6875386,0.12612474283707162,-4.446937628581464,8.746937628581465,0.4777777777777778,0.24444444444444444,-0.6488888888888888,0.08163982136584877,0.019139821365848762,0.0625
1590513689.6975386,0.1283121724756445,-4.474936517426934,8.75,0.5054850193632594,0.23890299612734808,-0.6488888888888888,-0.19725538986389057,0.0,-0.04140215594555623
1590513689.7075386,0.11113464370968562,-4.451701965564529,8.740567321854844,0.5111111111111111,0.23777777777777775,-0.6488888888888888,-0.13209152318553508,0.0,-0.003545761592767538
1590513689.7175386,0.12221026413701916,-4.45610513206851,8.691158943451924,0.5111111111111111,0.23777777777777775,-0.6488888888888888,-0.04868584914363028,0.0,0.03815707542818486
1590513689.7275386,0.13600289121792555,-4.447994217564149,8.690014456089628,0.5111111111111111,0.23777777777777775,-0.6488888888888888,0.15007228044813878,0.037518070112034695,0.0625
1590513689.7375386,0.14501697613593906,-4.434983023864061,8.735084880679695,0.5111111111111111,0.23777777777777775,-0.6488888888888888,0.18728779830076192,0.031143899150380953,0.0625
1590513689.7475386,0.15,-4.43,8.763961541165717,0.5027478575390408,0.24350000390603638,-0.6541709437765122,0.125,-0.049519264571468755,0.012980735428531245
1590513689.7575386,0.1394439826950536,-4.440556017304947,8.77,0.49,0.25222222222222224,-0.6622222222222223,0.02603733776612749,-0.125,-0.029512445922042496
1590513689.7675385,0.12296897764827121,-4.442968977648271,8.727813865889628,0.49,0.25222222222222224,-0.6622222222222223,0.15721944849152483,-0.125,0.0
1590513689.7775385,0.14078765498318652,-4.446929218327729,8.723858436655458,0.49,0.25222222222222224,-0.6622222222222223,0.12007715635508426,-0.038384770903389515,-0.08661522909661049
1590513689.7875385,0.14380653726423734,-4.443806537264238,8.742386925471525,0.49,0.25222222222222224,-0.6622222222222223,0.1399182841970335,0.0,-0.16370914209851675
1590513689.7975385,0.14,-4.44,8.75,0.49454423286529464,0.2476779893569276,-0.649238699749952,0.15098384304673976,0.10954847085978073,-0.11446768609347951
1590513689.8075385,0.1311419159016879,-4.4665742522949365,8.714567663606752,0.4977777777777778,0.24444444444444444,-0.64,-0.09645210245780278,0.07677394877109861,-0.0625
1590513689.8175385,0.1374326702371844,-4.47,8.672836648814078,0.4977777777777778,0.24444444444444444,-0.64,0.014362566947207334,0.0625,-0.10895418898240244
1590513689.8275385,0.12194359152923301,-4.460971795764617,8.696112816941532,0.4977777777777778,0.24444444444444444,-0.64,0.28820510588458736,0.0625,-0.18142627647114684
1590513689.8375385,0.11249874570645671,-4.444997491412914,8.74500752576126,0.4977777777777778,0.24444444444444444,-0.64,0.17185148199606345,0.015617160665354478,-0.09373432133070896
1590513689.8475385,0.1333295783714194,-4.463329578371419,8.752223473876194,0.4822247255301649,0.2504928536518495,-0.6503687014984086,-0.02080986482137112,-0.04860328827379037,-0.11110328827379037
1590513689.8575385,0.13256402324502287,-4.455128046490046,8.764871953509953,0.4777777777777778,0.25222222222222224,-0.6533333333333333,-0.15544970943721415,-0.0625,-0.03205029056278587
1590513689.8675385,0.13,-4.458327569169961,8.670069169960474,0.4777777777777778,0.25222222222222224,-0.6533333333333333,-0.2915946146245059,-0.0625,-0.05204730731225297
1590513689.8775384,0.14537109291257558,-4.4446289070874245,8.71916991810659,0.4777777777777778,0.25222222222222224,-0.6533333333333333,-0.07232667324100675,-0.11053466535179865,-0.014465334648201343
1590513689.8875384,0.1348376523277135,-4.434945884109238,8.755162347672286,0.4777777777777778,0.25222222222222224,-0.6533333333333333,0.06317644863452708,-0.030235327048209387,0.0
1590513689.8975384,0.12456111730065256,-4.439122234601305,8.774561117300651,0.48335247670079756,0.2486746865439369,-0.6513061700885988,0.15350698312907846,0.17652793251631388,0.0
1590513689.9075384,0.12123585753696413,-4.4587641424630355,8.797528284926072,0.49,0.24444444444444444,-0.6488888888888888,-0.03160356157589658,-0.07093123275781904,0.054775890393974146
1590513689.9175384,0.13788268551236751,-4.477882685512368,8.68376254416961,0.49,0.24444444444444444,-0.6488888888888888,-0.0625,-0.013233215547703181,-0.04926678445229682
1590513689.9275384,0.14797856701536102,-4.472021432984639,8.701914268061445,0.49,0.24444444444444444,-0.6488888888888888,-0.012633956153993653,0.04986604384600635,-0.0625
1590513689.9375384,0.137018,-4.450527,8.748946,0.49,0.24444444444444444,-0.6488888888888888,0.0,-0.0186375,-0.02193125
1590513689.9475384,0.1345974975503128,-4.449194995100626,8.774597497550312,0.4935758314280211,0.25057444117819483,-0.6488888888888888,0.028734359689455036,-0.09123435968945504,0.0
1590513689.9575384,0.13522553956834532,-4.46,8.760902158273382,0.4977777777777778,0.2577777777777778,-0.6488888888888888,-0.02702113309352519,-0.09515962230215827,0.0
1590513689.9675384,0.11849348414580405,-4.465753257927098,8.68822067865612,0.4977777777777778,0.2577777777777778,-0.6488888888888888,-0.125,0.00941572408872475,0.07191572408872475
1590513689.9775383,0.125972038263429,-4.4779860191317145,8.697916114790289,0.4977777777777778,0.2577777777777778,-0.6488888888888888,-0.025174760853568803,-0.0373252391464312,0.025174760853568803
1590513689.9875383,0.11707597987100432,-4.467075979871004,8.742310050322489,0.4977777777777778,0.2577777777777778,-0.6488888888888888,0.0,-0.02211243709688851,-0.08077512580622298
1590513689.9975383,0.12352244408208474,-4.4532387779589575,8.780283666123127,0.49251904952363373,0.24425533369569302,-0.6488888888888888,0.08451527551302956,0.0,-0.125
1590513690.0075383,0.1223491305830208,-4.45,8.79765086941698,0.49,0.23777777777777775,-0.6488888888888888,0.07718206614387998,-0.09563586771224003,0.018453801568360018
1590513690.0175383,0.12767787947224535,-4.473033638416736,8.68483180791632,0.49,0.23777777777777775,-0.6488888888888888,-0.08146024010460001,-0.029026506596933316,-0.08146024010460001
1590513690.0275383,0.13,-4.464266503667481,8.689333740831295,0.49,0.23777777777777775,-0.6488888888888888,-0.1741671760391198,0.09833435207823961,-0.0758328239608802
1590513690.0375383,0.13456253605472077,-4.455437463945279,8.718250144218883,0.49,0.23777777777777775,-0.6488888888888888,-0.10195244897398566,0.09648414965799522,0.023047551026014343
1590513690.0475383,0.14,-4.4470838320881665,8.742916167911835,0.49,0.23777777777777775,-0.6480248391372344,0.018226049448961903,0.03819860073471747,0.11892465018367937
1590513690.0575383,0.12533732695328195,-4.449325346093436,8.733343317383206,0.49,0.23777777777777775,-0.64,0.0958582934580122,-0.050037440187018306,0.0625
1590513690.0675383,0.14428621511709439,-4.476190810078063,8.647141354648717,0.49,0.23777777777777775,-0.64,0.011903718506053387,-0.05059628149394661,-0.038692562987893225
1590513690.0775383,0.1317082543978349,-4.461708254397835,8.66658349120433,0.49,0.23777777777777775,-0.64,0.0,-0.0625,0.05182341001353179
1590513690.0875382,0.12499103127994693,-4.459982062559893,8.714955156399734,0.49,0.23777777777777775,-0.64,0.03119394549966828,-0.03130605450033172,0.03141816350099515
1590513690.0975382,0.13433361476299602,-4.456999155711012,8.76166807381498,0.499148742277436,0.24066685428644177,-0.64963025502888,0.08958509226872513,0.027085092268725124,-0.0625
1590513690.1075382,0.1289380353049982,-4.456592947042503,8.79,0.5111111111111111,0.24444444444444444,-0.6622222222222223,0.05586272065623868,0.09706863967188066,0.04120591901564197
1590513690.1175382,0.12,-4.458554934753958,8.71560707590073,0.5111111111111111,0.24444444444444444,-0.6622222222222223,0.03576582889388005,0.01770251331835984,0.01770251331835984
1590513690.1275382,0.14001942021821262,-4.443326859927263,8.700038840436426,0.5111111111111111,0.24444444444444444,-0.6622222222222223,-0.06262137636382895,-0.020792874545390347,-0.0625
1590513690.1375382,0.1376376560926007,-4.4461811719537,8.7261811719537,0.5111111111111111,0.24444444444444444,-0.6622222222222223,0.02952929884249139,0.11589697413186856,-0.023867675289377152
1590513690.1475382,0.13,-4.456382649335476,8.749147948006426,0.502600911997144,0.24444444444444444,-0.653712023108255,0.125,0.06782532495983642,0.0
1590513690.1575382,0.13,-4.46,8.770654387514192,0.4977777777777778,0.24444444444444444,-0.6488888888888888,0.09170503901814839,0.06658992196370321,-0.033294960981851605
1590513690.1675382,0.13,-4.46,8.72551794522878,0.4977777777777778,0.24444444444444444,-0.6488888888888888,-0.10775642116006123,0.125,-0.028448715767987756
