time,acc_x,acc_y,acc_z,mag_x,mag_y,mag_z,gyr_x,gyr_y,gyr_z
1590515734.3071587,0.07,-4.36,8.75,0.43666666666666665,0.26222222222222225,-0.5933333333333334,0.5625,-0.375,0.0
1590515734.3171587,0.05039304725692558,-4.374803476371537,8.743580879956545,0.43,0.2822222222222222,-0.5866666666666667,0.6400108636610538,-0.21997827267789244,0.027565181966322655
1590515734.3271587,0.02,-4.386404641168887,8.654007735281478,0.43,0.2822222222222222,-0.5866666666666667,0.6875,-0.13998066179630425,0.29751933820369575
1590515734.3371587,0.02,-4.36477524709927,8.61795874516545,0.43,0.2822222222222222,-0.5866666666666667,0.6875,-0.2301031370863773,0.2073968629136227
1590515734.3471587,0.030499799315762313,-4.341499971330823,8.668999827984939,0.43,0.2822222222222222,-0.5866666666666667,1.009374820817645,-0.7531237457235145,0.11562517918235507
1590515734.3571587,0.0866151258576862,-4.349516446551098,8.71709867930659,0.43,0.2822222222222222,-0.5866666666666667,1.0594777909443627,-1.1038445366105387,0.06552220905563731
1590515734.3671587,0.11704710394335725,-4.34,8.68,0.43,0.27555555555555555,-0.5866666666666667,0.8913609991149573,-1.0696331989379486,0.053272199822991445
1590515734.3771586,0.1005487265217819,-4.34,8.68,0.43,0.27555555555555555,-0.5866666666666667,0.633573851902842,-0.7602886222834104,0.0017147703805683936
1590515734.3871586,0.06835985739916584,-4.366719714798331,8.653121140806673,0.43,0.27555555555555555,-0.5866666666666667,0.40674732623435933,-0.4179928699582916,0.0625
1590515734.3971586,0.05315011764705882,-4.352283294117647,8.734841411764707,0.43,0.27555555555555555,-0.5866666666666667,0.2571352941176471,0.0,0.05536470588235294
1590515734.4071586,0.005779199999999998,-4.3680736,8.8374784,0.43,0.27555555555555555,-0.5866666666666667,0.30648,0.0,0.0060200000000000045
1590515734.4171586,0.0257412196949554,-4.367129390152522,8.859952865533828,0.4444444444444444,0.2822222222222222,-0.6,0.0625,-0.0625,-0.0625
1590515734.4271586,0.06258021045956283,-4.35,8.775488000634153,0.4444444444444444,0.2822222222222222,-0.6,0.03024736925546461,-0.03831052694159846,-0.054436842313866154
1590515734.4371586,0.07920413784903192,-4.35,8.617560690434196,0.4444444444444444,0.2822222222222222,-0.6,-0.17755172311289907,0.11753879233467429,-0.0024870692217752316
1590515734.4471586,0.10247283449518574,-4.344516299302889,8.636021732403853,0.4444444444444444,0.2822222222222222,-0.6,-0.009408956881017819,0.08131791376203563,-0.043682086237964365
1590515734.4571586,0.06430188747929597,-4.367418867512423,8.666558490016563,0.4444444444444444,0.2822222222222222,-0.6,-0.05712264065088003,0.17674528130176007,0.051745281301760065
1590515734.4671586,0.025521494370522004,-4.341492835209825,8.685971340839304,0.4444444444444444,0.27555555555555555,-0.6,-0.331160440122825,0.40299066018423746,0.14084889969293757
1590515734.4771585,0.004689168059524451,-4.35,8.70749555184127,0.4444444444444444,0.27555555555555555,-0.6,-0.40819269962797217,0.48434719900792583,-0.08592359950396292
1590515734.4871585,0.027303607052353476,-4.35,8.647190381193724,0.4444444444444444,0.27555555555555555,-0.6,-0.2668524559227907,0.10743988246077535,0.10253005876961233
1590515734.4971585,0.056109714570965044,-4.368778057085807,8.694663314970317,0.4444444444444444,0.27555555555555555,-0.6,-0.0625,-0.1875,-0.047225713572587404
1590515734.5071585,0.0934980656433296,-4.361300386871334,8.78439535754399,0.4444444444444444,0.27555555555555555,-0.6,-0.0625,-0.1875,0.046245164108323966
1590515734.5171585,0.0688701957679574,-4.360753202821362,8.778493594357275,0.43666666666666665,0.27555555555555555,-0.5866666666666667,-0.06485375881675544,-0.2429387235497337,0.0
1590515734.5271585,0.04622930761479776,-4.375847128256802,8.748305743486396,0.43666666666666665,0.27555555555555555,-0.5866666666666667,-0.11202227580250468,-0.10143317259248597,0.0
1590515734.5371585,0.05852291079133222,-4.369261455395666,8.65369272302167,0.43666666666666665,0.27555555555555555,-0.5866666666666667,0.07634771133126039,0.07634771133126039,0.004615903777086799
1590515734.5471585,0.042029715340111864,-4.359323428219963,8.703382858900186,0.43666666666666665,0.27555555555555555,-0.5866666666666667,0.25422857362523305,0.25,0.05827142637476695
1590515734.5571585,0.06621504218963231,-4.351261652603456,8.74369173698272,0.43666666666666665,0.27555555555555555,-0.5866666666666667,0.30461467122840064,0.25,0.007885328771599358
1590515734.5671585,0.03384179058715315,-4.359039552353212,8.777118657059635,0.43666666666666665,0.27555555555555555,-0.5987194031376156,0.2560027977924268,-0.20197761766058564,-0.056497202207573205
1590515734.5771585,0.07958340053918293,-4.340208299730408,8.698125302426323,0.43666666666666665,0.27555555555555555,-0.6,0.24609438005483997,-0.3736981266849467,-0.058594380054839974
1590515734.5871584,0.06025438374156086,-4.349872808129219,8.611144726837024,0.43666666666666665,0.27555555555555555,-0.6,0.06488484757713311,-0.3132949491923777,0.12261515242286689
1590515734.5971584,0.05,-4.368421382416291,8.642367926375563,0.43666666666666665,0.27555555555555555,-0.6,-0.05263364010182103,-0.05756682005091052,0.014799539847268454
1590515734.6071584,0.05,-4.351995692187193,8.66700646171921,0.43666666666666665,0.27555555555555555,-0.6,0.05002692383003719,-0.006236538084981404,0.1687903857450558
1590515734.6171584,0.05,-4.369331559937525,8.77,0.4511111111111111,0.2822222222222222,-0.5555555555555556,0.0,-0.004177750390472472,0.125
1590515734.6271584,0.05068181400055193,-4.359318185999449,8.762500045993928,0.4511111111111111,0.2822222222222222,-0.5555555555555556,0.004261337503449545,-0.0625,0.12926133750344954
1590515734.6371584,0.05839830742342011,-4.35160169257658,8.677618618342379,0.4511111111111111,0.2822222222222222,-0.5555555555555556,0.05248942139637568,-0.0625,0.1774894213963757
1590515734.6471584,0.06063181286997835,-4.349368187130021,8.712527251479914,0.4511111111111111,0.2822222222222222,-0.5555555555555556,-0.0039488304373647,0.1171023391252706,0.30460233912527057
1590515734.6571584,0.06866702427249564,-4.3413329757275045,8.744668097089983,0.4511111111111111,0.2822222222222222,-0.5555555555555556,-0.05416890170309776,0.016662196593804482,0.20416219659380447
1590515734.6671584,0.03289990573181474,-4.349420018853636,8.75,0.43,0.2888888888888889,-0.5933333333333334,-0.0036248821647684253,0.12862488216476842,0.3088751178352316
1590515734.6771584,0.0653088442102335,-4.342938231157953,8.75,0.43,0.2888888888888889,-0.5933333333333334,-0.044136055262791886,0.16913605526279188,0.2683639447372081
1590515734.6871583,0.05327713464377283,-4.331092378214591,8.625293295004273,0.43,0.2888888888888889,-0.5933333333333334,-0.11817263615880663,0.02048209152358013,0.25
1590515734.6971583,0.07190821887130487,-4.359210958495074,8.639210958495074,0.43,0.2888888888888889,-0.5933333333333334,-0.2162842452971036,0.22821061324275904,0.4325684905942072
1590515734.7071583,0.06551480661818948,-4.3555148066181895,8.686212983454526,0.43,0.2888888888888889,-0.5933333333333334,-0.20473377068184212,0.22196754136368427,0.40946754136368424
1590515734.7171583,0.04641153489175247,-4.363588465108247,8.733971162770619,0.43,0.2888888888888889,-0.5789899534968498,-0.22996395346327353,0.22996395346327353,0.33253604653672647
1590515734.7271583,0.03,-4.3597528382213815,8.727528382213814,0.43,0.2888888888888889,-0.5722222222222222,-0.12808952223273415,0.12345523888363293,0.24691047776726585
1590515734.7371583,0.03,-4.352666914447898,8.656669144478984,0.43,0.2888888888888889,-0.5722222222222222,-0.21666356940127046,0.07916821529936477,0.15833643059872954
1590515734.7471583,0.059046712931870755,-4.378570069397806,8.671906574136258,0.43,0.2888888888888889,-0.5722222222222222,0.0,-0.125,0.11606293373628834
1590515734.7571583,0.043397507648682936,-4.355096261473024,8.703204984702635,0.43,0.2888888888888889,-0.5722222222222222,0.0,-0.125,-0.030648365793597504
1590515734.7671583,0.04949787406357563,-4.35,8.728995748127153,0.43633191604238375,0.2762250568041214,-0.5986052057321545,0.11872342579469529,-0.006276574205304711,-0.0031382871026523554
1590515734.7771583,0.0899403978443887,-4.35,8.739985099461098,0.43666666666666665,0.27555555555555555,-0.6,-0.06222061489557207,0.062406871631857354,0.0
1590515734.7871583,0.0760196605304004,-4.3430098302652,8.677088472386803,0.43666666666666665,0.27555555555555555,-0.6,-0.018811439157501206,0.1498771216849976,0.043688560842498794
1590515734.7971582,0.013567117375324546,-4.331938159625047,8.706432882624677,0.43666666666666665,0.27555555555555555,-0.6,-0.10077300468692045,-0.06443251171730113,0.3648190140607614
1590515734.8071582,-0.022407949110832524,-4.318796025444583,8.748009936388542,0.43666666666666665,0.27555555555555555,-0.6,-0.05497515902864837,-0.125,0.5775496819427033
1590515734.8171582,-0.05197344545253375,-4.298026554547466,8.764013277273733,0.4413230065648742,0.27555555555555555,-0.5920177030316441,0.07483403407833591,-0.3120850851958398,1.0990871874308474
1590515734.8271582,-0.04186557078633092,-4.29,8.778134429213669,0.4444444444444444,0.27555555555555555,-0.5866666666666667,0.4650205477562953,-0.6641803651708635,2.225051369390738
1590515734.8371582,0.00018528939744471423,-4.322148231517956,8.651407073928176,0.4444444444444444,0.27555555555555555,-0.5866666666666667,0.2990735530127764,-0.6875,3.0659741762020882
1590515734.8471582,0.01,-4.3238407786846444,8.669273770522846,0.4444444444444444,0.27555555555555555,-0.5866666666666667,0.21150486677902552,-0.49502433389512757,3.5194659325468214
1590515734.8571582,0.05901629275231138,-4.334004655072089,8.707002327536046,0.4444444444444444,0.27555555555555555,-0.5866666666666667,0.1875,-0.28747090579944395,3.818793641300834
1590515734.8671582,0.04687486058443007,-4.333374972116886,8.756375195181798,0.4392916449798002,0.2843889260663742,-0.5815138672020225,-0.060938545616774475,-0.12578072719161276,3.9164064242694625
1590515734.8771582,0.02,-4.329297623715787,8.747541683005254,0.43666666666666665,0.2888888888888889,-0.5788888888888889,-0.32347462944082817,-0.05811014822366873,4.017559407105325
1590515734.8871582,0.02,-4.316140067445691,8.701490236059916,0.43666666666666665,0.2888888888888889,-0.5788888888888889,-0.5290614461610854,0.024124578464434165,4.346498313857737
1590515734.8971581,0.003828525988578038,-4.301914262994289,8.720428685028555,0.43666666666666665,0.2888888888888889,-0.5788888888888889,-0.4733924311429191,-0.038571712571387265,5.05589441914263
1590515734.9071581,0.01586587583340549,-4.339664689583514,8.722067062083298,0.43666666666666665,0.2888888888888889,-0.5788888888888889,-0.4375,0.03666172395878431,5.534566033855745
1590515734.9171581,0.08003341440683745,-4.390100243220512,8.77986634237265,0.43666666666666665,0.2677777777777778,-0.6,-0.3743734798717978,-0.12437347987179778,5.998955799786329
1590515734.927158,0.08956743118223354,-4.4187022935467,8.741730275271067,0.43666666666666665,0.2677777777777778,-0.6,-0.19561066533312116,0.05438933466687884,5.701017775555202
1590515734.937158,0.11853748930913237,-4.448537489309133,8.673412524945357,0.43666666666666665,0.2677777777777778,-0.6,-0.1875,0.3597655136367956,4.974062767271691
1590515734.947158,0.009317209646465818,-4.090280931351014,8.494752248606904,0.43666666666666665,0.2677777777777778,-0.6,-0.7063255797821915,0.14441085343013713,3.9574961270780826
1590515734.957158,-0.15624120881462852,-3.9695445633178466,8.570455436682153,0.43666666666666665,0.2677777777777778,-0.6,-3.3711518584033073,0.7417416137419548,5.314063765397894
1590515734.967158,-0.2298458619871947,-3.770693621057624,8.759344913445577,0.4510554501620425,0.2556026532816905,-0.5867180460042685,-7.050457967749585,-0.805997302584776,10.169918632914396
1590515734.977158,-0.4291205258612417,-2.2527850014394013,9.414576576144324,0.4511111111111111,0.25555555555555554,-0.5866666666666667,-8.80079436954227,-3.4945032866327606,17.423146471068037
1590515734.987158,-0.37,-2.44,9.05,0.4511111111111111,0.25555555555555554,-0.5866666666666667,-3.8125,-3.125,29.0625
1590515734.997158,-0.3926573678110387,-2.447552455937013,8.770559130330524,0.4511111111111111,0.25555555555555554,-0.5866666666666667,-1.8299803165341113,-3.006992875984173,33.38156073897926
1590515735.007158,-0.3839477357320099,-2.5814105148883373,8.598873294044665,0.4511111111111111,0.25555555555555554,-0.5866666666666667,-0.31562596929280384,-3.283489066377171,44.39874282723325
1590515735.017158,-0.33199172340141503,-2.7979668936056603,8.838111734080897,0.4384531808540619,0.2522245212773847,-0.6046542517687892,-1.475879388599653,-4.387189627553064,54.7590859030837
1590515735.027158,-0.31507269509698466,-2.879854609806031,8.821400117977722,0.43,0.25,-0.6166666666666667,-1.2481826225753843,-5.258750737360769,63.82693925882231
1590515735.037158,-0.3038864700837786,-2.9450217692459923,8.870567649581107,0.43,0.25,-0.6166666666666667,-1.5660478098819184,-5.757095619763836,68.5152797018273
1590515735.047158,-0.29334383715455103,-3.0265931399181425,8.863375348618204,0.43,0.25,-0.6166666666666667,-1.3130908399434966,-6.374409160056503,73.70367226266796
1590515735.057158,-0.29662474431415436,-3.0764989772566174,8.883123721570772,0.43,0.25,-0.6166666666666667,-1.5804511715981124,-6.728118607853859,77.46475585799057
1590515735.067158,-0.300929824194661,-3.1,8.898372807659344,0.4444444444444444,0.26222222222222225,-0.5788888888888889,-1.5087171018249472,-6.6845942993916845,81.61044406003721
1590515735.077158,-0.3360014214938228,-3.1,8.83699751238581,0.4444444444444444,0.26222222222222225,-0.5788888888888889,-1.8375133265045884,-6.574995557831804,83.41882329577524
1590515735.087158,-0.3485584983878397,-3.168467987102718,8.727298019345925,0.4444444444444444,0.26222222222222225,-0.5788888888888889,-1.7680187701520036,-6.402028155228005,84.85528414325196
1590515735.097158,-0.3568825582965263,-3.193765116593053,8.758177908075684,0.4444444444444444,0.26222222222222225,-0.5788888888888889,-1.663968021293421,-6.461031978706579,85.27757994676645
1590515735.107158,-0.39238368003215757,-3.238860416038589,8.81886041603859,0.4444444444444444,0.26222222222222225,-0.5788888888888889,-1.665479600040197,-6.580959200080394,85.53691840016079
1590515735.117158,-0.4495587735207436,-3.2679117547041487,8.816264735887554,0.48048688254112193,0.2358497065417265,-0.6017450691453186,-1.6380515330990706,-6.773345400702788,85.32830919859443
1590515735.127158,-0.46899193758127433,-3.3059677503250975,8.756048374512353,0.49,0.2288888888888889,-0.6077777777777778,-2.0183972691807543,-6.868699609882965,84.51940507152146
1590515735.137158,-0.4896996774249193,-3.3296996774249195,8.684334408583602,0.49,0.2288888888888889,-0.6077777777777778,-1.939377016094254,-6.957081989270497,83.65772110193028
1590515735.147158,-0.4927391032187922,-3.347260896781208,8.664521793562416,0.49,0.2288888888888889,-0.6077777777777778,-1.8296193951174513,-7.045380604882548,82.25162669258393
1590515735.157158,-0.5447413828185407,-3.3773706914092703,8.758954747080129,0.49,0.2288888888888889,-0.6077777777777778,-1.6414331786920604,-6.720366357384121,80.97689918813332
1590515735.167158,-0.5934756923623603,-3.3958689230905903,8.882164923268261,0.48608738460627327,0.2015005811328018,-0.6077777777777778,-1.7092230772647523,-6.489138461367624,79.79220384436005
1590515735.1771579,-0.631647706195128,-3.3855681958699146,8.896704587609744,0.4833333333333333,0.18222222222222226,-0.6077777777777778,-1.4968042846543836,-6.347301224186967,78.1676146902436
1590515735.1871579,-0.671509614464747,-3.38,8.822232373481297,0.4833333333333333,0.18222222222222226,-0.6077777777777778,-1.6047576054721133,-6.246854969865111,76.83096957811155
1590515735.1971579,-0.7088120856428649,-3.38,8.778812085642864,0.4833333333333333,0.18222222222222226,-0.6077777777777778,-1.674811161830236,-6.0498111618302355,75.36663134441909
1590515735.2071579,-0.7157075525177758,-3.3671226575533275,8.828632027340017,0.4833333333333333,0.18222222222222226,-0.6077777777777778,-1.5536555935278016,-5.794516609708298,73.94546067443028
1590515735.2171578,-0.7124454658203837,-3.332881739257314,8.848208944335012,0.48849598339858785,0.17461410633658392,-0.6113101172961098,-1.4874425476034143,-5.626363354490406,72.69704348143284
1590515735.2271578,-0.7589265989870981,-3.299463299493549,8.759731649746774,0.5044444444444445,0.1511111111111111,-0.6222222222222222,-1.305791243669363,-5.46791140545867,70.46265783623988
1590515735.2371578,-0.8272643549849996,-3.2859195562687504,8.688206935045,0.5044444444444445,0.1511111111111111,-0.6222222222222222,-1.519899445335938,-5.244396672015628,68.52018724272658
1590515735.2471578,-0.8734795649778612,-3.2900877389867165,8.68347956497786,0.5044444444444445,0.1511111111111111,-0.6222222222222222,-1.7092472811116326,-5.208698912444653,67.6021559815544
1590515735.2571578,-0.9366474943955073,-3.3116618735988768,8.764140304793823,0.5044444444444445,0.1511111111111111,-0.6222222222222222,-1.6302832250175494,-5.395773419985961,67.22922658001404
1590515735.2671578,-1.008048938234343,-3.3517074485286193,8.835365958822896,0.5121951540847736,0.13842813169966345,-0.6130622926472877,-1.3414627573569042,-5.618902931982322,67.24390293198232
1590515735.2771578,-1.0540799637814438,-3.345920036218556,8.83394669081237,0.5166666666666667,0.13111111111111112,-0.6077777777777778,-1.4004997736340228,-5.837999773634023,67.66366613847939
1590515735.2871578,-1.0671253336593516,-3.34,8.78724799804389,0.5166666666666667,0.13111111111111112,-0.6077777777777778,-1.4820333353709476,-5.875,68.28440002445137
1590515735.2971578,-1.1122040836955422,-3.34,8.8192380976448,0.5166666666666667,0.13111111111111112,-0.6077777777777778,-1.4120748256342868,-5.74311223845143,69.11547622056
1590515735.3071578,-1.1485517749662202,-3.309080375056299,8.753425050157638,0.5166666666666667,0.13111111111111112,-0.6077777777777778,-1.1817523441018711,-5.610200937640749,69.95474296769439
1590515735.3171577,-1.1800839452545937,-3.310083945254594,8.800419726272969,0.5215760755066785,0.12039967364199447,-0.6220596944032666,-1.388864110387148,-5.6629197262729685,70.71417890509187
1590515735.3271577,-1.2179911602209945,-3.3346725598526703,8.928690239410681,0.5288888888888889,0.10444444444444444,-0.6433333333333333,-1.6918692449355432,-5.695962246777164,71.6621132596685
1590515735.3371577,-1.2606733747583023,-3.3241346749516603,8.828653250483395,0.5288888888888889,0.10444444444444444,-0.6433333333333333,-1.2650251553436334,-5.452525155343634,73.1935178058533
1590515735.3471577,-1.2978343645882913,-3.3143312708234176,8.762165635411709,0.5288888888888889,0.10444444444444444,-0.6433333333333333,-1.3015528319847691,-5.635947168015231,74.53861256544502
1590515735.3571577,-1.2940487436236539,-3.2620853013413944,8.761963442282259,0.5288888888888889,0.10444444444444444,-0.6433333333333333,-1.1625761619119592,-5.725076161911959,75.84855292367277
1590515735.3671577,-1.2867896618985695,-3.22610533159948,8.79831599479844,0.5309239994220488,0.10139177864470451,-0.6421461855223234,-1.201316644993498,-5.830593709362809,76.64835622561769
1590515735.3771577,-1.4047459814619265,-3.251751339512691,8.854632367319802,0.5422222222222223,0.08444444444444445,-0.6355555555555555,-1.8827706402284017,-6.67655412804568,77.40854770425125
1590515735.3871577,-1.4528586870361029,-3.2442862290120345,8.721420335807451,0.5422222222222223,0.08444444444444445,-0.6355555555555555,-1.7945881674713555,-6.642844274699143,78.42864542047992
1590515735.3971577,-1.5086437288198367,-3.2693218644099185,8.707287457639673,0.5422222222222223,0.08444444444444445,-0.6355555555555555,-1.6101657839669636,-6.620761652561989,79.64247537082646
1590515735.4071577,-1.583245245007999,-3.2941556556259997,8.823245245007998,0.5422222222222223,0.08444444444444445,-0.6355555555555555,-1.9326357616875036,-6.7759728476625,80.34820132428749
1590515735.4171576,-1.6390285087273686,-3.3180570174547372,8.865485745636315,0.5482412280404682,0.06438109171695826,-0.6395682261010528,-1.7217859102269726,-6.727857730680918,81.08856907727633
1590515735.4271576,-1.6620120554550935,-3.291951778179626,8.89603616636528,0.5555555555555556,0.04,-0.6444444444444445,-1.725037673297167,-6.5123869801084995,82.40090415913201
1590515735.4371576,-1.7435098881411213,-3.274701977628224,8.787682201345982,0.5555555555555556,0.04,-0.6444444444444445,-1.704056319911799,-6.713162080529205,84.24047936238142
1590515735.4471576,-1.8042601563732228,-3.2731479687253553,8.774260156373222,0.5555555555555556,0.04,-0.6444444444444445,-1.8159755863995855,-6.726849609066943,85.24422754106487
1590515735.4571576,-1.831291553133515,-3.2530626702997276,8.778708446866485,0.5555555555555556,0.04,-0.6444444444444445,-1.769141689373297,-6.7227861035422345,85.88814713896458
1590515735.4671576,-1.8517220543806647,-3.2282779456193356,8.816888217522658,0.5555555555555556,0.03283652232292716,-0.6522591473648875,-1.6875,-6.933157099697885,86.62707703927492
1590515735.4771576,-1.9093095290164814,-3.2309576731147738,8.811648144098292,0.5555555555555556,0.027777777777777776,-0.6577777777777778,-1.584771814548997,-7.028257271516332,87.82781094057536
1590515735.4871576,-1.9716147460250457,-3.2454036865062617,8.74217419445617,0.5555555555555556,0.027777777777777776,-0.6577777777777778,-1.6350921626565358,-7.101319121992402,89.30550689461094
1590515735.4971576,-1.99,-3.25,8.741700121717244,0.5555555555555556,0.027777777777777776,-0.6577777777777778,-1.9151048006106492,-7.319583840488519,90.33375152146556
1590515735.5071576,-2.002245487364621,-3.253061371841155,8.779184115523465,0.5555555555555556,0.027777777777777776,-0.6577777777777778,-2.0625,-7.47576714801444,90.99363718411553
1590515735.5171576,-2.029164380264741,-3.259791095066185,8.799373285198557,0.5555555555555556,0.027777777777777776,-0.6577777777777778,-2.0625,-7.559888688327317,91.66660950661853
1590515735.5271575,-2.0795836379804364,-3.2004163620195634,8.846805454006521,0.5544444444444444,-0.0033333333333333327,-0.6944444444444444,-2.0651022626222706,-7.6875,93.42709094951091
1590515735.5371575,-2.1027499267077103,-3.17725007329229,8.826250366461448,0.5544444444444444,-0.0033333333333333327,-0.6944444444444444,-1.989061125769569,-7.653125916153621,93.7828166226913
1590515735.5471575,-2.11,-3.1456841874245582,8.826473718863163,0.5544444444444444,-0.0033333333333333327,-0.6944444444444444,-1.9730261714034896,-7.486513085701745,92.6911177713157
1590515735.5571575,-2.11,-3.0835082458770615,8.874112943528237,0.5544444444444444,-0.0033333333333333327,-0.6944444444444444,-1.7316029485257372,-7.11744127936032,91.0436031984008
1590515735.5671575,-2.125068231812961,-3.02,8.837397652280558,0.5490031385119862,-0.015471631182663129,-0.7107683622418189,-1.6168676633767447,-6.476455887792248,88.44051495065118
1590515735.5771575,-2.1728414713666524,-3.0428414713666525,8.830455295155538,0.54,-0.03555555555555556,-0.7377777777777778,-1.714138794062368,-6.485086398680526,85.11714884354264
1590515735.5871575,-2.21,-3.048238118689978,8.752952474759912,0.54,-0.03555555555555556,-0.7377777777777778,-1.7051788352622506,-6.165476483624723,80.22006125338586
1590515735.5971575,-2.2587281381199347,-2.9873628791450573,8.698273051794976,0.54,-0.03555555555555556,-0.7377777777777778,-1.5761377158123975,-5.594880278844211,77.08576367840865
1590515735.6071575,-2.2995740238452984,-2.9647870119226494,8.76744414307179,0.54,-0.03555555555555556,-0.7377777777777778,-1.9840258941986848,-5.644269420649014,74.74074701933772
1590515735.6171575,-2.31,-2.9599871782227045,8.835006410888647,0.5299871782227045,-0.04501210945633472,-0.7600284928384347,-2.2185496597297565,-5.562019183351415,72.12331714172996
1590515735.6271574,-2.3244866796621184,-2.9113688542343517,8.86414446610353,0.52,-0.054444444444444434,-0.7822222222222223,-1.7606941737058697,-5.1875,69.45437378167641
1590515735.6371574,-2.367025616698292,-2.865495730550285,8.81342741935484,0.52,-0.054444444444444434,-0.7822222222222223,-1.4375,-4.793376423149905,66.45165737666034
1590515735.6471574,-2.45479444627331,-2.840074746809705,8.734943939892721,0.52,-0.054444444444444434,-0.7822222222222223,-1.4375,-4.187967167560659,62.94357317828857
1590515735.6571574,-2.5278256240763985,-2.835279106351199,8.790744283603198,0.52,-0.054444444444444434,-0.7822222222222223,-1.6603203009549838,-4.142078678912494,60.69178630448255
1590515735.6671574,-2.574478572450066,-2.8752673478143422,8.897379594171579,0.52,-0.054444444444444434,-0.7822222222222223,-2.2434821556258244,-4.350350769866366,59.067263995042346
1590515735.6771574,-2.5980912790187065,-2.8526970930062356,8.882697093006236,0.4866666666666667,-0.08888888888888889,-0.8088888888888889,-2.0744295061330833,-4.120072674844112,56.53993823004186
1590515735.6871574,-2.643735038301947,-2.815920643153527,8.828967044366422,0.4866666666666667,-0.08888888888888889,-0.8088888888888889,-1.8951160030322374,-3.6831960181934247,54.34089605609639
1590515735.6971574,-2.701664313448641,-2.720279738792799,8.739160783621603,0.4866666666666667,-0.08888888888888889,-0.8088888888888889,-1.8125,-3.1875,52.314336613130955
1590515735.7071574,-2.7551494449188727,-2.6748505550811275,8.853134073441502,0.4866666666666667,-0.08888888888888889,-0.8088888888888889,-1.8554120409906063,-3.1445879590093937,49.810151579846284
1590515735.7171574,-2.7485254745254744,-2.6744801864801864,8.830491508491509,0.4544149924149924,-0.10792903392903394,-0.806946016946017,-1.9750707625707626,-2.8282134532134533,46.85692224442224
1590515735.7271574,-2.6990403029869943,-2.715479848506503,8.831919394026011,0.3944444444444444,-0.14333333333333334,-0.8033333333333333,-1.7842490531656425,-2.427243372159497,44.09770928612262
1590515735.7371573,-2.7156767944012974,-2.7156767944012974,8.781616027993513,0.3944444444444444,-0.14333333333333334,-0.8033333333333333,-1.785479965008108,-2.1875,40.46072213450542
1590515735.7471573,-2.7534678021045047,-2.6865321978954952,8.771155934034834,0.3944444444444444,-0.14333333333333334,-0.8033333333333333,-1.7776377061411408,-1.8388770614114076,37.139109894774755
1590515735.7571573,-2.8099092117299826,-2.625818043737163,8.801363722664274,0.3944444444444444,-0.14333333333333334,-0.8033333333333333,-1.75,-1.4556813866786338,34.557381293473945
1590515735.7671573,-2.8467919001061923,-2.6024566992566553,8.865289098831887,0.39266216672566223,-0.16044319943364216,-0.789075111583076,-1.7901012486725987,-1.2322975026548024,31.93262065619393
1590515735.7771573,-2.8151851786377216,-2.6541358035603797,8.919320982198101,0.3888888888888889,-0.19666666666666666,-0.7588888888888888,-1.7199073664857603,-0.8298610497286404,28.412422437109974
1590515735.7871573,-2.773546701982857,-2.66,8.838373615862857,0.3888888888888889,-0.19666666666666666,-0.7588888888888888,-1.1773350991428466,-0.2781678806607071,24.79800794614281
1590515735.7971573,-2.8210157465466033,-2.654453113950309,8.807656404695676,0.3888888888888889,-0.19666666666666666,-0.7588888888888888,-0.74267626467399,0.11816392437886003,19.01122501296497
1590515735.8071573,-2.8283464503694185,-2.659256344362351,8.874628172181176,0.3888888888888889,-0.19666666666666666,-0.7588888888888888,-0.7639435432059107,0.2360564567940893,14.816600746867973
1590515735.8171573,-2.78,-2.6763057152940686,8.873694284705932,0.3937933341176091,-0.20787682718945563,-0.7543347611765059,-0.40485711764828003,0.6148482426456849,11.495026625007785
1590515735.8271573,-2.7973416333376337,-2.672658366662366,8.845548638885305,0.4044444444444445,-0.23222222222222225,-0.7444444444444445,0.06394940975358018,1.180642013933686,8.80670236098568
1590515735.8371572,-2.6795077787606014,-2.7490748738227793,8.918720536968625,0.4044444444444445,-0.23222222222222225,-0.7444444444444445,0.601501118684635,1.4632134866538322,6.7212101305999274
1590515735.8471572,-2.474740880651635,-2.7455346813498154,8.802910602559994,0.4044444444444445,-0.23222222222222225,-0.7444444444444445,1.478569742145471,2.3979469872000267,5.888161500581817
1590515735.8571572,-2.4079661520190023,-2.5779849564528896,8.481977434679335,0.4044444444444445,-0.23222222222222225,-0.7444444444444445,2.387711549881235,3.6632521773555027,6.486230700712589
1590515735.8671572,-2.6990292401473415,-2.7022228379567754,8.9046552791994,0.3749843712082523,-0.2559183680861159,-0.7406018261962455,-0.5121691332268474,-0.6753655018417706,9.944015467614173
1590515735.8771572,-2.865818927394066,-2.694353943877141,8.953061831631421,0.3533333333333333,-0.2733333333333333,-0.7377777777777778,-2.021553630296695,-2.6875,12.645729476561872
1590515735.8871572,-2.900595470660589,-2.64,8.754305284229313,0.3533333333333333,-0.2733333333333333,-0.7377777777777778,-0.6970401321660276,-1.540169850227914,15.047997612329064
1590515735.8971572,-2.913321699222893,-2.6358304248057234,8.73250872558283,0.3533333333333333,-0.2733333333333333,-0.7377777777777778,0.08834170539347075,-0.5156795348926898,14.988965271216182
1590515735.9071572,-2.88663282328578,-2.62663282328578,8.80724200414174,0.3533333333333333,-0.2733333333333333,-0.7377777777777778,-0.41772427231937415,-0.751269126783249,12.48730873216751
1590515735.9171572,-2.895453826217433,-2.630302550811622,8.86848724594189,0.3642082480789342,-0.2767675169372073,-0.7028635778050591,-0.17426340199154278,-0.5170679307052244,7.1346030555176645
1590515735.9271572,-2.9049166088291587,-2.64,8.850500347025049,0.3744444444444445,-0.28,-0.67,0.599483142995352,0.5093815067196669,0.7202702063221658
1590515735.9371572,-2.895658294747673,-2.6617085262616342,8.840924652729058,0.3744444444444445,-0.28,-0.67,0.9103643421729573,1.2795852626163415,-6.6197207801318925
1590515735.9471571,-2.8942278921288356,-2.706911568515342,8.811139460644178,0.3744444444444445,-0.28,-0.67,0.848575674194778,1.9324405612731086,-14.935162354678864
1590515735.9571571,-2.8896421471172964,-2.733452617627568,8.826189529489728,0.3744444444444445,-0.28,-0.67,0.9635520212060967,2.6964463220675943,-22.36551524188204
1590515735.9671571,-2.868276687509028,-2.7520631874368022,8.805169937472916,0.3805717777456774,-0.2792340833373459,-0.6625323125391225,1.2284585938628532,3.21981210920572,-28.865755071297386
1590515735.977157,-2.860634970068168,-2.81,8.829365029931832,0.41,-0.27555555555555555,-0.6266666666666667,1.1130943112218417,3.3869056887781586,-35.58932186234818
1590515735.987157,-2.844675889904688,-2.8317063800816964,8.809146809959152,0.41,-0.27555555555555555,-0.6266666666666667,1.0053324377553006,3.7659973132659017,-44.67597044592492
1590515735.997157,-2.7641853035143766,-2.8727549766527405,8.79550995330548,0.41,-0.27555555555555555,-0.6266666666666667,1.3488418530351438,4.36606045711477,-50.22633017940526
1590515736.007157,-2.6654989938138183,-2.883000670790788,8.809249832302303,0.41,-0.27555555555555555,-0.6266666666666667,1.9546913430722217,5.025005589923231,-54.5953477863904
1590515736.017157,-2.4696406799342,-3.0865271102796505,8.8308983001645,0.4201796600329,-0.2484097954678221,-0.6170525433022611,2.5613771247943746,6.095434312808438,-64.2810695739122
1590515736.027157,-2.45,-3.17,8.88,0.43,-0.2222222222222222,-0.6077777777777778,2.5,6.1875,-67.6875
1590515736.037157,-2.4634337683463343,-3.137424673740249,8.812560168582943,0.43,-0.2222222222222222,-0.6077777777777778,2.4446536840548636,6.8250189470960105,-74.33593894413842
1590515736.047157,-2.6614172713100714,-3.062061817971862,8.686649088704556,0.43,-0.2222222222222222,-0.6077777777777778,2.235181826055159,6.948454550703439,-80.63772156892935
1590515736.057157,-2.8591062150078543,-3.079755508116164,8.956096185604382,0.43,-0.2222222222222222,-0.6077777777777778,1.1377003866757964,6.150400773351593,-83.69055614854796
1590515736.067157,-2.926682643895759,-3.0037320256172717,8.778708059773633,0.43,-0.2222222222222222,-0.6077777777777778,0.7681417911950699,5.41128358239014,-84.64084967978411
1590515736.077157,-3.0346452462830844,-2.985858098513234,8.759793837362487,0.4622222222222222,-0.18777777777777774,-0.6355555555555555,2.1262885164844567,6.931208190046023,-87.3831491984465
1590515736.087157,-3.0670972698262617,-3.002177047630304,8.876129693101683,0.4622222222222222,-0.18777777777777774,-0.6355555555555555,1.3674408068392232,6.301917129574912,-89.05494080683923
1590515736.097157,-2.920971885740042,-3.1125774222021896,8.723225346028885,0.4622222222222222,-0.18777777777777774,-0.6355555555555555,1.4858266662910586,6.298326666291059,-87.94366349277894
1590515736.107157,-2.85699174909035,-3.1720330036386,8.75707425818685,0.4622222222222222,-0.18777777777777774,-0.6355555555555555,2.3467976477220316,7.131095295444063,-85.97737726131297
1590515736.117157,-2.8377749924035247,-3.23554998480705,8.867724855666971,0.469638914210473,-0.17467495526520135,-0.6325888787602553,2.2292188924339107,6.882031487389851,-83.57530955636585
1590515736.127157,-2.8172740140984627,-3.2899929224584548,8.789992922458454,0.4955555555555556,-0.1288888888888889,-0.6222222222222222,2.573843529711519,6.8665034113750245,-78.65360211476941
1590515736.137157,-2.7856202481973806,-3.4443797518026193,8.826126453131897,0.4955555555555556,-0.1288888888888889,-0.6222222222222222,2.6715186148035515,5.95664516603718,-72.20838340609211
1590515736.147157,-2.78,-3.4370326449942072,8.641097934982621,0.4955555555555556,-0.1288888888888889,-0.6222222222222222,2.520153229287353,5.662091937572412,-67.21538142620233
1590515736.157157,-2.7531718994203414,-3.4065859497101707,8.687251864601262,0.4955555555555556,-0.1288888888888889,-0.6222222222222222,2.2881352998199693,5.288135299819969,-63.51414896037351
1590515736.167157,-2.691698932573096,-3.393835112378174,8.857863820194922,0.4995523657981392,-0.11812824592808681,-0.6206849875135362,1.1941755618908705,4.05582443810913,-60.51698103825499
1590515736.177157,-2.657202543720191,-3.4470632750397456,8.808531637519874,0.51,-0.09,-0.6166666666666667,1.6949364069952306,4.08829093799682,-57.531013513513514
1590515736.187157,-2.6193133146574676,-3.483791123561688,8.788969971986202,0.51,-0.09,-0.6166666666666667,2.0819027388697244,4.288805477739449,-56.20475684717431
1590515736.197157,-2.546517769487532,-3.5200446691537404,8.73,0.51,-0.09,-0.6166666666666667,2.062779182210878,4.250558364421756,-56.627791822108776
1590515736.207157,-2.4681759152292555,-3.5547801059634305,8.756604190734176,0.51,-0.09,-0.6166666666666667,2.1135994701828467,4.61085079472573,-58.6694306955344
1590515736.217157,-2.44,-3.5983495700187222,8.82,0.51,-0.08188236248179763,-0.6192179241723874,1.8853151873829848,4.940231015771269,-61.25394876717545
1590515736.2271569,-2.4058987468671678,-3.6470506265664158,8.79726583124478,0.51,-0.05111111111111112,-0.6288888888888889,1.7585442773600668,5.329588554720134,-64.76305346700083
1590515736.2371569,-2.321802506265664,-3.6890987468671677,8.741201670843777,0.51,-0.05111111111111112,-0.6288888888888889,1.9337447786131996,5.679989557226399,-66.953059732665
1590515736.2471569,-2.268381372641066,-3.6876762745282132,8.692323725471786,0.51,-0.05111111111111112,-0.6288888888888889,2.172976715801333,5.741186273589334,-71.09806004131067
1590515736.2571568,-2.2355652051450567,-3.6811130410290116,8.698886958970988,0.51,-0.05111111111111112,-0.6288888888888889,2.131956506431321,6.069347948549432,-73.8464140691015
1590515736.2671568,-2.253242336975817,-3.732252554341394,8.764505108682789,0.5113765609864075,-0.04735685387545423,-0.6281380374417576,2.0484215353662867,6.347696161584284,-78.49807931279341
1590515736.2771568,-2.2036036924533513,-3.7487987691822164,8.797597538364434,0.5214881367224655,-0.01977982914075068,-0.6226226324948169,1.9450076926111484,6.606230768472129,-81.23854614580456
1590515736.2871568,-2.161510213345438,-3.7488688152519294,8.753586019064912,0.5222222222222223,-0.017777777777777778,-0.6222222222222222,2.0790087380844304,6.974052428506582,-84.58370971402633
1590515736.2971568,-2.0924534660242737,-3.72759971566227,8.697546533975725,0.5222222222222223,-0.017777777777777778,-0.6222222222222222,2.2033327409630625,7.234333451807387,-85.90683167469658
1590515736.3071568,-2.04,-3.8427041502015924,8.75,0.5222222222222223,-0.017777777777777778,-0.6222222222222222,2.3529953062002287,7.221301877519909,-86.5963018775199
1590515736.3171568,-2.0382828345097557,-3.855151496470733,8.755151496470733,0.5237485915468839,-0.015869816121950635,-0.6258473493682938,2.157196852942083,7.333964568628056,-86.59090944117375
1590515736.3271568,-2.0266134867312315,-3.890159539806305,8.793546053075072,0.5311111111111111,-0.006666666666666667,-0.6433333333333333,2.2490028762105925,7.310505752421185,-85.55352588589534
1590515736.3371568,-1.9916573784604232,-3.8788231163064655,8.777486067690635,0.5311111111111111,-0.006666666666666667,-0.6433333333333333,2.1427141384622357,7.044785861537765,-83.71122032304834
1590515736.3471568,-1.9251939155837614,-3.818178704543165,8.680387831167524,0.5311111111111111,-0.006666666666666667,-0.6433333333333333,2.1225760552029818,6.8701521104059635,-81.06345069003727
1590515736.3571568,-1.9450009964526287,-3.8900039858105147,8.717501494678944,0.5311111111111111,-0.006666666666666667,-0.6433333333333333,1.8906156582566065,6.359346974769819,-76.99965124157997
1590515736.3671567,-1.9517285476789292,-3.9527571507736905,8.740919050257897,0.5322343947596516,-0.004828566150873155,-0.6408825326456087,1.7557440641118547,5.903035615328871,-71.434076473848
1590515736.3771567,-1.8712717933415748,-3.979576068886142,8.749858689628715,0.5431606206573171,0.013050712590761186,-0.6170434943234295,1.811616810179462,5.5677991389232275,-68.36107544012958
1590515736.3871567,-1.87,-3.98,8.758062814953709,0.5433333333333333,0.013333333333333334,-0.6166666666666667,1.8628925934606821,5.411322219617954,-65.4905147662018
1590515736.3971567,-1.8375560273649447,-3.990610993158764,8.660610993158764,0.5433333333333333,0.013333333333333334,-0.6166666666666667,1.6059064637886293,5.164587756546355,-60.84865239443265
1590515736.4071567,-1.8071112562832308,-3.998222185929192,8.668222185929192,0.5433333333333333,0.013333333333333334,-0.6166666666666667,1.3680566897127406,4.879168027655289,-58.184734924782695
1590515736.4171567,-1.7478663058729205,-4.078719783523752,8.769146522349168,0.5433333333333333,0.012242778557270441,-0.616287343266297,1.3151671176588495,4.796497294046903,-54.34148376428142
1590515736.4271567,-1.7058308278212067,-4.053498496692724,8.752332331128482,0.5433333333333333,-0.009242021335827707,-0.6088143693904368,1.3677114652234916,4.48123120865905,-52.4498872519543
1590515736.4371567,-1.663675741630443,-4.055256806222832,8.770513612445663,0.5433333333333333,-0.012222222222222223,-0.6077777777777778,1.2796449611072982,4.315710077785404,-49.76605038892702
1590515736.4471567,-1.631689926027606,-4.031267444520705,8.72253488904141,0.5433333333333333,-0.012222222222222223,-0.6077777777777778,1.429578471745596,4.015843056508808,-48.26671528254404
1590515736.4571567,-1.5071165605196704,-4.020674840779505,8.71,0.5433333333333333,-0.012222222222222223,-0.6077777777777778,1.2791411225640457,3.919478503247939,-46.83320561282023
1590515736.4671566,-1.5337626860219493,-4.060644029032924,8.71,0.5433333333333333,-0.012222222222222223,-0.6077777777777778,1.1542374092721122,4.086016787637184,-46.20868704636056
1590515736.4771566,-1.4649081254214429,-4.067454062710722,8.767454062710721,0.5877777777777777,-0.1111111111111111,-0.5788888888888889,1.1954560540289954,4.070456054028996,-45.47498340568105
1590515736.4871566,-1.4298408584001445,-4.0506365663994215,8.748408584001448,0.5877777777777777,-0.1111111111111111,-0.5788888888888889,1.25,4.125,-44.87002682500452
1590515736.4971566,-1.4222162600462664,-4.096648780138799,8.6566487801388,0.5877777777777777,-0.1111111111111111,-0.5788888888888889,1.222296749421669,4.0695934988433375,-44.49324187355417
1590515736.5071566,-1.4205869380488,-4.12564783717072,8.68753044956096,0.5877777777777777,-0.1111111111111111,-0.5788888888888889,1.1367663274389996,3.8514673451220007,-44.167635707927005
1590515736.5171566,-1.3810322946175637,-4.151032294617564,8.721548441926346,0.5923657538558388,-0.12711167768334908,-0.5673615989927605,1.1745963172804532,3.75,-43.799596317280454
1590515736.5271566,-1.3914012900604398,-4.15925161257555,8.75214967748489,0.6766666666666666,-0.4211111111111111,-0.3555555555555556,0.9778064528416882,3.75,-43.481887094316626
1590515736.5371566,-1.3497581131900276,-4.12768141510748,8.752318584892521,0.6766666666666666,-0.4211111111111111,-0.3555555555555556,1.0929941037188355,3.814011792562329,-42.995464622313015
1590515736.5471566,-1.317907724187512,-4.143723172562536,8.736276827437464,0.6766666666666666,-0.4211111111111111,-0.3555555555555556,0.9476931046877973,3.895386209375595,-42.4113465523439
1590515736.5571566,-1.3090193751618193,-4.123922499352723,8.756077500647278,0.6766666666666666,-0.4211111111111111,-0.3555555555555556,0.7806445261931475,3.5183867157158883,-42.31862890523863
1590515736.5671566,-1.2998768942169594,-4.160041035261013,8.71987689421696,0.6781940902710607,-0.4206278069258402,-0.3520265231083885,1.0614741184746608,3.6867305888559954,-42.37474352961866
1590515736.5771565,-1.268421136084354,-4.166842272168708,8.707367503072104,1.0488888888888892,-0.3033333333333333,0.5044444444444445,0.8026321005272129,3.490132100527213,-42.194085206326555
1590515736.5871565,-1.260108019185793,-4.150216038371586,8.798811788956277,1.0488888888888892,-0.3033333333333333,0.5044444444444445,0.7506751199112063,3.438175119911206,-41.570601438934474
1590515736.5971565,-1.1953471937530502,-4.077265592972181,8.67877598828697,1.0488888888888892,-0.3033333333333333,0.5044444444444445,0.8510200097608589,3.4880100048804294,-40.60280990727184
1590515736.6071565,-1.13,-4.05,8.728662315177807,1.0488888888888892,-0.3033333333333333,0.5044444444444445,0.8791802650693519,3.5041802650693517,-39.070452578058145
1590515736.6171565,-1.13,-4.05,8.711968916041473,1.0488888888888892,-0.3033333333333333,0.5044444444444445,0.9313471373704005,3.5563471373704005,-37.60978015362878
1590515736.6271565,-1.0957266710625932,-4.027180013187779,8.75,1.0944444444444446,0.5077777777777778,-0.2855555555555556,0.660791694141207,3.2457292353530174,-35.028333882824136
1590515736.6371565,-1.082066632735293,-3.9820666327352927,8.731400305382364,1.0944444444444446,0.5077777777777778,-0.2855555555555556,0.6012493637867413,2.974167090808839,-32.59750763455911
1590515736.6471565,-1.0867594224996426,-3.991080192500119,8.664320770000476,1.0944444444444446,0.5077777777777778,-0.2855555555555556,0.7297463906227665,2.8547463906227666,-30.535700671844474
1590515736.6571565,-1.054367260142601,-4.001877579952466,8.704693949881165,1.0944444444444446,0.5077777777777778,-0.2855555555555556,0.5801023120543718,2.6522953758912564,-28.02703738064462
1590515736.6671565,-1.0019013467873077,-4.019366217737564,8.74841554434391,1.0944444444444446,0.5077777777777778,-0.2855555555555556,0.7440582912896635,2.3243834174206732,-25.950261643664263
1590515736.6771564,-0.9746576902465166,-4.006438460164344,8.751780769917827,0.7911111111111111,0.3622222222222222,-0.5666666666666667,0.8638701880135763,2.3262018801357627,-23.302235452393713
1590515736.6871564,-0.9475050419147126,-3.9924949580852873,8.753762604786782,0.7911111111111111,0.3622222222222222,-0.5666666666666667,0.8125,1.8592804640991374,-21.59419116753736
1590515736.6971564,-0.9164289479111764,-3.9950718427022935,8.715428420835531,0.7911111111111111,0.3622222222222222,-0.5666666666666667,0.7955361848889704,2.1111628320003666,-19.825006588445586
1590515736.7071564,-0.8334484727376534,-3.912069654581787,8.745689409077933,0.7911111111111111,0.3622222222222222,-0.5666666666666667,0.6821117613474165,1.6411647159577505,-18.167017556380245
1590515736.7171564,-0.8676583336731781,-4.031804167856123,8.702927082908527,0.7911111111111111,0.3622222222222222,-0.5666666666666667,0.6286588536356592,1.8015234390930224,-16.7237890481628
1590515736.7271564,-0.8237334208182968,-4.090888597272344,8.809111402727657,0.6322222222222222,0.2677777777777778,-0.6488888888888888,0.4636107465904298,1.4011107465904298,-15.215558653981347
1590515736.7371564,-0.789960894968486,-4.162470671226364,8.721215783097426,0.6322222222222222,0.2677777777777778,-0.6488888888888888,0.5389708475823889,1.4921569491941296,-14.265197288717815
1590515736.7471564,-0.7385041942063212,-4.123878145654741,8.676191169930531,0.6322222222222222,0.2677777777777778,-0.6488888888888888,0.41836920517106535,1.4519564017236886,-13.702389624131639
1590515736.7571564,-0.6905976793402904,-4.129601547106473,8.679601547106472,0.6322222222222222,0.2677777777777778,-0.6488888888888888,0.620019338830913,1.3762451652922718,-13.316235495876816
1590515736.7671564,-0.6724574116450547,-4.208941647597253,8.741399059242308,0.6322222222222222,0.2677777777777778,-0.6488888888888888,0.6798205886092041,1.4298205886092041,-13.641423531655224
1590515736.7771564,-0.6669376543520992,-4.2230623456479,8.732296759235926,0.5688888888888889,0.25555555555555554,-0.67,0.6058603397006199,1.63456983014969,-15.17733796179628
1590515736.7871563,-0.6387515750214203,-4.25124842497858,8.753436318733934,0.5688888888888889,0.25555555555555554,-0.67,0.4296973438838768,1.7226513280580615,-16.23431593669674
1590515736.7971563,-0.6385007475156099,-4.292503737578049,8.622998504968779,0.5688888888888889,0.25555555555555554,-0.67,0.8359258200685955,1.8843703280274382,-18.745221396535044
1590515736.8071563,-0.6237463723507167,-4.218731861753584,8.652507255298566,0.5688888888888889,0.25555555555555554,-0.67,1.066462932020051,1.9765851728080204,-20.543410869756396
1590515736.8171563,-0.5759848655339259,-4.173590919320356,8.73042421514572,0.5688888888888889,0.25555555555555554,-0.67,0.8499054095870373,2.165056754247778,-23.14573780522111
1590515736.8271563,-0.5847894674881293,-4.192184201232194,8.762184201232193,0.5540994214007595,0.24651754764614314,-0.6617836291732615,0.6276316563983833,2.3723683436016167,-25.51726886551819
1590515736.8371563,-0.54,-4.1751331919992625,8.770874734998618,0.5488888888888889,0.2433333333333333,-0.6588888888888889,0.9413021937505761,2.7141153562540326,-30.072714075029957
1590515736.8471563,-0.5394349637034392,-4.098022372962037,8.631977627037964,0.5488888888888889,0.2433333333333333,-0.6588888888888889,0.9947027847197429,3.1338286921337617,-33.21858413661788
1590515736.8571563,-0.520449125916378,-4.031796503665512,8.700224562958189,0.5488888888888889,0.2433333333333333,-0.6588888888888889,0.8139035184886813,3.441710555466044,-36.503465368968016
1590515736.8671563,-0.537343913638927,-4.099375654555708,8.708671956819463,0.5488888888888889,0.2433333333333333,-0.6588888888888889,0.8666997301216467,3.60009919036494,-38.984887315717394
1590515736.8771563,-0.5286584680252987,-4.002683063949402,8.758658468025299,0.5244444444444445,0.25222222222222224,-0.6677777777777778,1.0083845748418834,3.8460382993675335,-42.4893446943078
1590515736.8871562,-0.5192800451056079,-4.021439909788784,8.742080496161686,0.5244444444444445,0.25222222222222224,-0.6677777777777778,1.084998590449755,4.0625,-44.581490978878435
1590515736.8971562,-0.5132163768053086,-4.033567246389382,8.675380144858394,0.5244444444444445,0.25222222222222224,-0.6677777777777778,1.2744882248341067,4.0625,-45.79422463893828
1590515736.9071562,-0.5032620595278823,-4.060213821416354,8.633262059527883,0.5244444444444445,0.25222222222222224,-0.6677777777777778,1.2486636161477933,4.146724255901471,-47.36396681491618
1590515736.9171562,-0.4710332499106185,-4.064206649982124,8.69372685019664,0.5244444444444445,0.25222222222222224,-0.6677777777777778,1.2237084376117269,4.3323337504469075,-48.64529406506972
1590515736.9271562,-0.41838987706888264,-4.047355950827553,8.752644049172448,0.5209322085632092,0.24098306740226944,-0.6677777777777778,1.3290253073277933,4.397987346336103,-50.158791034269626
1590515736.9371562,-0.38097388620395567,-4.071710189660074,8.734631848271942,0.5188888888888888,0.2344444444444445,-0.6677777777777778,1.2957245258498151,4.612826422450555,-51.440617004426755
1590515736.9471562,-0.32345276999688766,-4.080690553999378,8.68276221599751,0.5188888888888888,0.2344444444444445,-0.6677777777777778,1.25,4.633631924992219,-52.68957652505446
1590515736.9571562,-0.2696947794038716,-4.144678140766451,8.68,0.5188888888888888,0.2344444444444445,-0.6677777777777778,1.42966150212903,4.759746126596773,-53.64830751064515
1590515736.9671562,-0.20928405031837244,-4.121140860382047,8.73700232955428,0.5188888888888888,0.2344444444444445,-0.6677777777777778,1.2964202515918621,4.8125,-55.42505823885696
1590515736.9771562,-0.19271845643019114,-4.088155369290574,8.735436912860383,0.4849083522297808,0.2352535048410899,-0.6677777777777778,1.5230578838678328,4.994538589245222,-57.206308713961775
1590515736.9871562,-0.1505510318798683,-4.09669380872079,8.733938649321448,0.4722222222222222,0.23555555555555555,-0.6677777777777778,1.5,5.135331847747531,-59.78393057897696
1590515736.9971561,-0.15728724002248454,-4.0562765598650925,8.659840359752671,0.4722222222222222,0.23555555555555555,-0.6677777777777778,1.5,5.261635750421585,-60.96276700393479
1590515737.0071561,-0.13193891647686967,-4.002585221969159,8.714183250569391,0.4722222222222222,0.23555555555555555,-0.6677777777777778,1.7923029533659411,5.3125,-62.72363299481014
1590515737.0171561,-0.09670158368698892,-3.966701583686989,8.728324604078253,0.4722222222222222,0.23555555555555555,-0.6677777777777778,1.6564136735327606,5.41655755097816,-63.80104673429252
1590515737.027156,-0.010508470968840456,-3.9959322322492765,8.768474587093479,0.4455555555555555,0.3111111111111111,-0.6588888888888889,1.8718220564447472,5.815677943555253,-64.92584709688404
1590515737.037156,-0.019435552528520347,-3.924515579771837,8.74169334241444,0.4455555555555555,0.3111111111111111,-0.6588888888888889,1.8160277966967477,5.871472203303252,-65.81855525285204
1590515737.047156,-0.5321623118825592,-4.8369134890591825,8.390161573261933,0.4455555555555555,0.3111111111111111,-0.6588888888888889,-0.9708158295632905,8.357688579078571,-72.93317791524328
1590515737.057156,-8.113150197306862,-17.872963874537245,4.509284203246409,0.4455555555555555,0.3111111111111111,-0.6588888888888889,-45.9733419612709,46.93401407591229,-174.77950958057036
1590515737.067156,0.01745453805784969,0.39316911435661694,0.37146332533257453,0.4455555555555555,0.3111111111111111,-0.6588888888888889,-118.33188489076929,29.01767625401733,-223.19627964688175
1590515737.077156,-0.33624737536012494,-0.16451657795790808,0.23007275745886033,0.4396879187894374,0.3424051738637412,-0.6530212521227707,-109.52186233458664,-1.939701950778847,-85.49110826944673
1590515737.087156,0.5396793089485761,-0.08015143744095021,-0.009910919152382236,0.4388888888888889,0.3466666666666667,-0.6522222222222223,-106.3126855850992,-11.810718383047645,-57.87735693075989
1590515737.097156,-0.12425615334349804,-0.28758004791984315,0.720681768677848,0.4388888888888889,0.3466666666666667,-0.6522222222222223,-67.07987094314964,-2.004342735787409,-53.30823894576345
1590515737.107156,-0.33777311707680835,-0.7810840790454885,6.018580350484712,0.4388888888888889,0.3466666666666667,-0.6522222222222223,42.72306697427294,10.79101999440716,-47.27113919183445
1590515737.117156,1.2153483595902874,-0.6235730255290386,5.88937867207404,0.4388888888888889,0.3466666666666667,-0.6522222222222223,124.67512543544949,-0.9202168798419397,-38.75712967295794
1590515737.127156,0.8011569022142175,-1.2766585443373237,9.592316982731221,0.4,0.43333333333333335,-0.6,201.05625595931772,-0.028267030405763283,-29.232009481936647
1590515737.137156,0.5078802839283822,0.18083737684076695,-1.3655639368577184,0.4,0.43333333333333335,-0.6,129.18126655366035,-34.632686195571566,-15.068081894268461
1590515737.147156,0.5613047178785401,0.2676814472388645,-0.6110081607449807,0.4,0.43333333333333335,-0.6,56.53671083593399,-13.084103444535305,-0.17020222459571777
1590515737.157156,0.5439575017136407,0.36366799725817506,0.9113519616144511,0.4,0.43333333333333335,-0.6,-20.533085863473246,17.12066801741865,19.574452643038587
1590515737.167156,-0.1515421120326429,-0.6052516964562914,3.6154477314055087,0.4,0.43333333333333335,-0.6,-90.14198951079966,18.147555661507074,29.38718842861578
1590515737.177156,-0.03167722545721555,-2.4133073205717115,9.94169498471679,0.3744444444444445,0.3944444444444444,-0.6444444444444445,-24.356613189665477,4.3908712709823945,26.389876581684057
1590515737.187156,0.23332695821451138,-4.19671385393009,14.88366489643278,0.3744444444444445,0.3944444444444444,-0.6444444444444445,22.91440335718311,-5.322964515633272,27.508982087054523
1590515737.197156,-0.09415931038056904,-1.1751403596662462,1.8365598493616875,0.3744444444444445,0.3944444444444444,-0.6444444444444445,38.67865302226752,-0.09065938811823035,30.86230284865341
1590515737.207156,0.2391414307184687,-2.609782680049061,8.48808333477292,0.3744444444444445,0.3944444444444444,-0.6444444444444445,-8.191763694784662,-8.830746756612019,30.137736020177243
1590515737.217156,0.145766182886653,-2.899897011248627,9.97958804499451,0.3744444444444445,0.3944444444444444,-0.6444444444444445,-21.468162897337727,5.208132994984123,34.18943103908824
1590515737.227156,0.14153168192865734,-2.7884683180713425,7.876270836913559,0.3811244772870482,0.37917579794706446,-0.6368101211957544,11.975695382122602,-5.0741797191466365,34.50731746986473
1590515737.237156,-1.8090089964189013,-9.580755175124466,8.386611232422046,0.38222222222222224,0.37666666666666665,-0.6355555555555555,-3.2107585815355053,0.7536094855445891,38.82750021835968
1590515737.247156,-2.380509389466329,-18.46099205170757,8.12284182024631,0.38222222222222224,0.37666666666666665,-0.6355555555555555,-14.750670364223948,-4.10048039130055,55.129915276443356
1590515737.257156,16.902651285299903,-19.571358316940618,10.543574167305705,0.38222222222222224,0.37666666666666665,-0.6355555555555555,-12.799511552695629,-17.075734338012204,159.7095197212683
1590515737.267156,1.8633223494521793,-3.608163769668012,8.209617760935828,0.38222222222222224,0.37666666666666665,-0.6355555555555555,7.302295287914983,-4.8783826921492714,40.608045349699324
1590515737.2771559,-1.0987722895863052,-0.2884805634807418,5.787726997146933,0.3984404818513235,0.3861273181169758,-0.6456919678237438,25.113248930099857,7.5595365995007135,-8.554724277817403
1590515737.2871559,-0.796528365146493,-1.5960467862993868,7.3451407779936755,0.4088888888888889,0.3922222222222223,-0.6522222222222223,7.828161313673942,-4.831009258200936,-25.508136644187907
1590515737.2971559,-0.7140353869824069,-2.537169041407452,9.965702388119608,0.4088888888888889,0.3922222222222223,-0.6522222222222223,-16.020051508462103,0.20997641982741477,-25.091038698240684
1590515737.3071558,-2.817004905451381,-9.378326212516813,8.398779571168605,0.4088888888888889,0.3922222222222223,-0.6522222222222223,-8.813273894295435,2.7362553406123906,-21.6925933618166
1590515737.3171558,0.5260282212236183,-8.221571750799951,7.985485653337064,0.4088888888888889,0.3922222222222223,-0.6522222222222223,1.714642601108566,0.34839288524418177,5.673747836198004
1590515737.3271558,1.6761852166525062,-4.469649229275397,9.520309503580531,0.419262316084746,0.3757976291621152,-0.6565444835538293,-0.383162398349314,-5.466925597766719,36.10111967471781
1590515737.3371558,0.04360330363288001,-2.6584413772577618,8.755323945757919,0.4222222222222222,0.3711111111111111,-0.6577777777777778,5.981780957607098,0.6936989620342633,5.205214475715692
1590515737.3471558,-0.09012205754141245,-6.334542284219704,9.43151700087184,0.4222222222222222,0.3711111111111111,-0.6577777777777778,-3.741772013949433,1.5066477768090674,-13.752179598953791
1590515737.3571558,0.23341884516911465,-4.496803159951489,8.582427233526479,0.4222222222222222,0.3711111111111111,-0.6577777777777778,-2.5389361693168038,-0.6954893629564749,-1.7110501448591844
1590515737.3671558,0.1170674629253936,-4.244733262851101,8.664848987056034,0.4222222222222222,0.3711111111111111,-0.6577777777777778,0.04762908249278497,-1.1550240020573193,2.2380221876160813
1590515737.3771558,0.01907321594068582,-4.551788693234476,8.778276181649677,0.4257542992482751,0.3675790340850582,-0.6436494696735661,0.50040546802595,-0.3811978683966636,0.5521316033364227
1590515737.3871558,0.03878435632808257,-4.3943128734383485,8.772706137968495,0.42777777777777776,0.3655555555555556,-0.6355555555555555,0.14019554589896793,-0.11740222705051603,0.10220668115154807
1590515737.3971558,0.04,-4.354788299298273,8.673518095087914,0.42777777777777776,0.3655555555555556,-0.6355555555555555,0.267609694078688,-0.172536564692896,0.125
1590515737.4071558,0.023613616366036077,-4.448318301803783,8.64,0.42777777777777776,0.3655555555555556,-0.6355555555555555,-0.3531968351297845,-0.08508510228772546,0.022585102287725464
1590515737.4171557,0.026828966928586596,-4.4904869007857595,8.633171033071415,0.42777777777777776,0.3655555555555556,-0.6355555555555555,-0.2439137401780026,-0.019818956696333767,0.04268104330366623
1590515737.4271557,0.03,-4.43501909854851,8.67332060096766,0.42115935262994086,0.3619455054749173,-0.6397672806496336,0.010376878023936859,-0.033844219505984215,0.028655780494015785
1590515737.4371557,0.0443006820898671,-4.329947612685465,8.78865375149427,0.4155555555555556,0.3588888888888889,-0.6433333333333333,0.3931377891850081,0.07156889459250404,0.044689631530834675
1590515737.4471557,0.03383432065736671,-4.4635739537550165,8.626011847888401,0.4155555555555556,0.3588888888888889,-0.6433333333333333,0.04534026848843875,0.02396450410854195,-0.03853549589145805
1590515737.4571557,0.03,-4.467908219988173,8.628137670017741,0.4155555555555556,0.3588888888888889,-0.6433333333333333,-0.11264340626848018,-0.10028681253696038,-0.012356593731519809
1590515737.4671557,0.035233672531205684,-4.4547663274687945,8.655701017593618,0.4155555555555556,0.3588888888888889,-0.6433333333333333,-0.2558418132801421,-0.19042090664007105,0.09813135996010658
1590515737.4771557,0.031277935642423774,-4.419472774748483,8.700527225251516,0.4184629103414143,0.3671263941154887,-0.6433333333333333,-0.2114612932954458,-0.14097419553029722,0.1057306466477229
1590515737.4871557,0.025487156775907883,-4.385487156775907,8.745487156775908,0.4222222222222222,0.37777777777777777,-0.6433333333333333,0.06858945969884854,0.03429472984942427,-0.03429472984942427
1590515737.4971557,0.03,-4.382193122750899,8.625089964014395,0.4222222222222222,0.37777777777777777,-0.6433333333333333,0.320171931227509,0.013707017193122749,-0.013707017193122749
1590515737.5071557,0.017655792378404915,-4.40468841524319,8.633204726675583,0.4222222222222222,0.37777777777777777,-0.6433333333333333,0.10497045827760754,-0.03857564881748463,-0.07715129763496927
1590515737.5171556,0.020310125063331644,-4.4148449374683345,8.680620250126664,0.4222222222222222,0.37777777777777777,-0.6433333333333333,-0.15915742246873416,-0.030280859177088615,-0.02834257753126583
1590515737.5271556,0.03,-4.429052732809745,8.742868648821926,0.4190467667539314,0.3746023223094869,-0.6502134868479635,-0.2202301049847732,-0.05953979003045359,-0.02680968504568039
1590515737.5371556,0.03,-4.4280585152535314,8.735146288133828,0.4155555555555556,0.3711111111111111,-0.6577777777777778,0.01820141949814319,-0.0564328601672856,-0.0907164300836428
1590515737.5471556,0.037352866436267534,-4.3585299349461275,8.675294267127464,0.4155555555555556,0.3711111111111111,-0.6577777777777778,0.1875,-0.09191083045334417,0.029410830453344167
1590515737.5571556,0.02362158090240798,-4.405513676390368,8.67,0.4155555555555556,0.3711111111111111,-0.6577777777777778,-0.01723023871990026,-0.07381744032002494,0.11368255967997506
1590515737.5671556,0.0396376296185378,-4.413454123460488,8.715821135776588,0.4155555555555556,0.3711111111111111,-0.6577777777777778,-0.2670586418597687,-0.021588271628046274,0.04317654325609255
1590515737.5771556,0.05,-4.4565774340670234,8.677896754577302,0.43108136691123006,0.3667983857345349,-0.6465646917986795,-0.08389103708110252,0.09703632097296581,0.0
1590515737.5871556,0.034318673235103986,-4.399434029557968,8.722725307059584,0.4355555555555555,0.3655555555555556,-0.6433333333333333,0.14701243842090012,0.125,0.04900414614030004
1590515737.5971556,0.03,-4.395260443771585,8.648437337370487,0.4355555555555555,0.3655555555555556,-0.6433333333333333,0.13981111321379572,-0.018066660358612874,0.014811113213795718
1590515737.6071556,0.03,-4.381817405171432,8.692730379314273,0.4355555555555555,0.3655555555555556,-0.6433333333333333,0.125,-0.10038040589285036,0.0
1590515737.6171556,0.02657210325418904,-4.397423173966488,8.719432619525135,0.4355555555555555,0.3655555555555556,-0.6433333333333333,0.06072693601604451,-0.125,0.0
1590515737.6271555,0.02,-4.448441975798453,8.681558024201546,0.43376671295377894,0.3655555555555556,-0.6433333333333333,-0.0722376512596707,-0.12175411624677643,-0.006491767506447133
1590515737.6371555,0.024823724373880737,-4.424823724373881,8.690705102504477,0.4011111111111111,0.3655555555555556,-0.6433333333333333,-0.12940689065298158,-0.002203445326490791,-0.06470344532649079
1590515737.6471555,0.03,-4.3962657263245974,8.66325314526492,0.4011111111111111,0.3655555555555556,-0.6433333333333333,0.12650352628276007,0.020332157905746648,0.04216784209425335
1590515737.6571555,0.03,-4.395303537991524,8.665101179330508,0.4011111111111111,0.3655555555555556,-0.6433333333333333,0.15561762918432379,-0.06376474163135244,0.09438237081567621
1590515737.6671555,0.03,-4.399153240243466,8.698924692684091,0.4011111111111111,0.3655555555555556,-0.6433333333333333,0.07980516768110754,-0.10240258384055377,0.07980516768110754
1590515737.6771555,0.03,-4.408360283967659,8.72163971603234,0.40426225377418434,0.3628545761300642,-0.64018219067026,-0.07596504634194438,-0.0625,-0.05064336422796293
1590515737.6871555,0.03,-4.440034268308161,8.694948597537758,0.4088888888888889,0.3588888888888889,-0.6355555555555555,-0.12521417692600584,0.030928734610991243,-0.03157126538900876
1590515737.6971555,0.01819007988694133,-4.400475199717353,8.662760319547766,0.4088888888888889,0.3588888888888889,-0.6355555555555555,0.011312000706616684,0.01428199894007498,-0.011312000706616684
1590515737.7071555,0.022331090962269668,-4.386165545481135,8.67932436384908,0.4088888888888889,0.3588888888888889,-0.6355555555555555,0.13956931851418544,-0.10103465925709272,0.05310397777127815
1590515737.7171555,0.035830030734390166,-4.39,8.71,0.4088888888888889,0.3588888888888889,-0.6355555555555555,0.1875,-0.015686923730184404,0.16143769208993852
1590515737.7271554,0.04,-4.417087634596449,8.716771908649113,0.4088888888888889,0.3769473119531881,-0.6468420699707426,0.018202283772194516,0.02017557094304863,0.06052671282914587
1590515737.7371554,0.03233884576442794,-4.43,8.666371920350995,0.4088888888888889,0.3855555555555555,-0.6522222222222223,-0.0625,0.14364664191697604,0.09576442794465069
1590515737.7471554,0.02292991535458971,-4.422929915354589,8.63585983070918,0.4088888888888889,0.3855555555555555,-0.6522222222222223,-0.0625,0.010747883864742763,0.125
1590515737.7571554,0.025696348852040817,-4.397214604591837,8.63,0.4088888888888889,0.3855555555555555,-0.6522222222222223,0.07990872130102039,-0.026897819674744902,0.053795639349489804
1590515737.7671554,0.03461637931034483,-4.38,8.676163793103449,0.4088888888888889,0.3855555555555555,-0.6522222222222223,0.15864762931034482,0.028852370689655172,0.028852370689655172
1590515737.7771554,0.03615853529920479,-4.38768292940159,8.722317070598411,0.4088888888888889,0.38256774967715923,-0.6522222222222223,0.05297253686008986,0.038490845620029954,0.0625
1590515737.7871554,0.03,-4.410859674533526,8.706380108488824,0.4088888888888889,0.37777777777777777,-0.6522222222222223,-0.10774864388969356,-0.09049728777938712,0.0625
1590515737.7971554,0.03,-4.440499420532032,8.642253187073822,0.4088888888888889,0.37777777777777777,-0.6522222222222223,-0.08906793251219579,-0.08594655418699296,-0.003121378325202817
1590515737.8071554,0.03865840632343516,-4.43268318735313,8.62463362529374,0.4088888888888889,0.37777777777777777,-0.6522222222222223,0.027057519760734887,0.008384960478530226,-0.008384960478530226
1590515737.8171554,0.03757206208425721,-4.403786031042128,8.688641906873615,0.4088888888888889,0.37777777777777777,-0.6522222222222223,0.10133730598669623,-0.023662694013303773,0.043081347006651886
1590515737.8271554,0.017036350882241848,-4.386481824558879,8.733518175441121,0.4061525302124615,0.3711323352778827,-0.6541767641339561,0.09954561397197689,0.0625,0.043977193014011554
1590515737.8371553,0.03,-4.394189724902895,8.732905137548553,0.4011111111111111,0.3588888888888889,-0.6577777777777778,-0.04771903655948424,0.04771903655948424,0.13978096344051577
1590515737.8471553,0.03,-4.431225499597254,8.670514748187642,0.4011111111111111,0.3588888888888889,-0.6577777777777778,-0.082260941275747,0.02742031375858233,0.105239058724253
1590515737.8571553,0.03,-4.42,8.640634817286562,0.4011111111111111,0.3588888888888889,-0.6577777777777778,-0.05853239195898102,0.030258097989745256,0.0
1590515737.8671553,0.018635942434614874,-4.414317971217307,8.705456230261541,0.4011111111111111,0.3588888888888889,-0.6577777777777778,0.16903803967548553,0.03551267989182851,0.03551267989182851
1590515737.8771553,0.015974488838867006,-4.404025511161133,8.74,0.40974092832280795,0.3628718814481336,-0.6498117926592885,0.17531888951416244,-0.01218111048583756,0.0625
1590515737.8871553,0.029851383640338243,-4.395074308179831,8.720297232719323,0.4155555555555556,0.3655555555555556,-0.6444444444444445,0.03264327837182898,-0.03171442612394299,0.0625
1590515737.8971553,0.04473016123309812,-4.418380967398589,8.652698387669018,0.4155555555555556,0.3655555555555556,-0.6444444444444445,-0.0033729845862735044,0.029563507706863248,0.03293649229313675
1590515737.9071553,0.029470507938788706,-4.429470507938789,8.63421582010202,0.4155555555555556,0.3655555555555556,-0.6444444444444445,-0.02303955025504706,0.10526977512752353,0.0
1590515737.9171553,0.030704555605180886,-4.41464772219741,8.682113666815543,0.4155555555555556,0.3655555555555556,-0.6444444444444445,0.03785520879857078,-0.042258681330951314,0.0
1590515737.9271553,0.032846241409840216,-4.40642312070492,8.73146127577048,0.4179401417522755,0.3699272969162088,-0.647226461673951,0.125,-0.120433513217252,0.0
1590515737.9371552,0.024177925057354065,-4.408355850114709,8.757466224827938,0.4222222222222222,0.37777777777777777,-0.6522222222222223,0.02055187356614835,-0.052224063216925826,0.0
1590515737.9471552,0.03,-4.42,8.672709674631637,0.4222222222222222,0.37777777777777777,-0.6522222222222223,-0.195094088925377,-0.054905911074623004,0.0
1590515737.9571552,0.03,-4.42,8.641688270417635,0.4222222222222222,0.37777777777777777,-0.6522222222222223,-0.15963220659318603,-0.04518389670340699,0.022591948351703493
1590515737.9671552,0.02872109213162631,-4.42,8.685115631473495,0.4222222222222222,0.37777777777777777,-0.6522222222222223,0.007993174177335551,-0.125,0.054506825822664445
1590515737.9771552,0.02,-4.410155876388511,8.724922061805746,0.4189408476850591,0.37777777777777777,-0.6478470561726714,0.0625,-0.032711341142286396,0.0
1590515737.9871552,0.029478719397363465,-4.414218079096045,8.696824482109228,0.4155555555555556,0.37777777777777777,-0.6433333333333333,0.0032580037664783415,0.0625,0.0
1590515737.9971552,0.04,-4.421451498077823,8.651451498077822,0.4155555555555556,0.37777777777777777,-0.6433333333333333,-0.09811875800907185,0.02688124199092814,0.0
1590515738.0071552,0.04258068194777056,-4.402580681947771,8.635161363895541,0.4155555555555556,0.37777777777777777,-0.6433333333333333,-0.1875,-0.030241475652868055,0.016129262173565972
1590515738.0171552,0.04081036779018543,-4.414594816104907,8.677568896629444,0.4155555555555556,0.37777777777777777,-0.6433333333333333,-0.04391199672164736,0.005064798688658945,0.0625
1590515738.0271552,0.03,-4.409732814355456,8.720267185644545,0.42182994678277697,0.37777777777777777,-0.6393405389160106,0.22125486541760125,0.0016699102784008407,-0.0016699102784008407
1590515738.0371552,0.025149233760904856,-4.404850766239095,8.725149233760906,0.42777777777777776,0.37777777777777777,-0.6355555555555555,0.19123084402262147,0.09281728899434463,-0.0018654220113107287
1590515738.0471551,0.02,-4.41,8.677442654953635,0.42777777777777776,0.37777777777777777,-0.6355555555555555,-0.017295021961932652,0.09840165934602245,0.0625
1590515738.0571551,0.024923575917291708,-4.41,8.62,0.42777777777777776,0.37777777777777777,-0.6355555555555555,-0.125,0.09327234948307318,0.0625
1590515738.0671551,0.02634675658733761,-4.417306486825325,8.645572703888636,0.42777777777777776,0.37777777777777777,-0.6355555555555555,-0.05650168601258025,0.125,-0.005998313987419748
1590515738.077155,0.0225582057382216,-4.422325382785335,8.700232822952886,0.42777777777777776,0.37095589580918686,-0.6398192317859249,0.0625,0.109011214136115,-0.09302242827223
1590515738.087155,0.03,-4.401854228821203,8.737416915284813,0.42777777777777776,0.3511111111111111,-0.6522222222222223,0.0625,0.05091106986748074,0.0
1590515738.097155,0.034087316522393676,-4.41,8.716864885208881,0.42777777777777776,0.3511111111111111,-0.6522222222222223,0.03695427173503951,0.10218291305984194,0.025545728264960484
1590515738.107155,0.04456317949025128,-4.414563179490251,8.653689538470754,0.42777777777777776,0.3511111111111111,-0.6522222222222223,0.0285198718140705,0.19296025637185898,0.005460256371858999
1590515738.117155,0.036624060573120676,-4.424458646475626,8.68337593942688,0.42777777777777776,0.3511111111111111,-0.6522222222222223,0.11823308094533051,0.013533838109338975,-0.034633459527334744
1590515738.127155,0.02389697084199257,-4.426103029158007,8.711690912525977,0.42777777777777776,0.36150303335642464,-0.6457272708189012,0.1387878644750929,-0.051931796712639325,0.024356067762453557
1590515738.137155,0.03447683301914872,-4.4110463339617025,8.716569500942553,0.42777777777777776,0.37777777777777777,-0.6355555555555555,0.0625,0.03451979363032047,0.09048020636967953
1590515738.147155,0.04429445425214586,-4.404294454252146,8.665644365982832,0.42777777777777776,0.37777777777777777,-0.6355555555555555,0.0893403390759116,0.026840339075911608,0.0981596609240884
1590515738.157155,0.05871057374586963,-4.41,8.633065860618805,0.42777777777777776,0.37777777777777777,-0.6355555555555555,0.0705589140883148,0.0352794570441574,0.0625
1590515738.167155,0.05954728671254819,-4.412090542657491,8.660452713287452,0.42777777777777776,0.37777777777777777,-0.6355555555555555,-0.02613178321862954,0.0,0.04943410839068523
1590515738.177155,0.02263408022811681,-4.419473183954376,8.697365919771883,0.42777777777777776,0.37777777777777777,-0.6355555555555555,-0.11841479942970799,0.0,0.0032926002851460037
