time,acc_x,acc_y,acc_z,mag_x,mag_y,mag_z,gyr_x,gyr_y,gyr_z
1590514043.8879464,-0.29,-4.13,8.76,0.4577777777777778,0.18222222222222226,-0.6666666666666666,-0.1875,0.3125,0.0
1590514043.8979464,-0.2705680001853182,-4.1008520002779765,8.76971599990734,0.4577777777777778,0.18222222222222226,-0.6666666666666666,-0.005325001737357837,0.3125,0.12144999884176146
1590514043.9079463,-0.27367150816242125,-4.103671508162421,8.634686032649684,0.4577777777777778,0.18222222222222226,-0.6666666666666666,-0.0625,0.15821229593946914,-0.07910614796973457
1590514043.9179463,-0.27611760978700595,-4.113882390212995,8.683294341277964,0.4577777777777778,0.18222222222222226,-0.6666666666666666,-0.13529481649363942,-0.07279481649363942,-0.04852987766242628
1590514043.9279463,-0.2623400577679729,-4.12,8.750639768928108,0.452671149623093,0.18222222222222226,-0.6577300673959683,-0.17818804157474583,-0.2593119584252542,-0.125
1590514043.9379463,-0.24478141402754783,-4.114781414027548,8.789562828055095,0.4444444444444444,0.18222222222222226,-0.6433333333333333,0.06796464931130447,-0.3423838376721739,-0.09238383767217388
1590514043.9479463,-0.26087974093518473,-4.103040086354938,8.738240518129631,0.4444444444444444,0.18222222222222226,-0.6433333333333333,0.1875,-0.18200161915509544,-0.1494989205632697
1590514043.9579463,-0.27,-4.107025915359011,8.762155492154065,0.4444444444444444,0.18222222222222226,-0.6433333333333333,0.14358802900618164,-0.03717605801236329,-0.09967605801236329
1590514043.9679463,-0.2873761265693258,-4.086831831240899,8.814752253138652,0.4444444444444444,0.18222222222222226,-0.6433333333333333,0.125,0.14480105474438193,0.009900527372190965
1590514043.9779463,-0.3,-4.112354758961681,8.894456118665019,0.4444444444444444,0.17482694684796046,-0.6386272490042576,-0.36661773794808405,0.5147172435105067,0.17595024721878863
1590514043.9879463,-0.2928459281181811,-4.118537784354544,8.851305209299992,0.4444444444444444,0.17,-0.6355555555555555,-0.6875,0.7769258985227359,0.25
1590514043.9979463,-0.29,-4.1226281032668135,8.681090864065046,0.4444444444444444,0.17,-0.6355555555555555,-0.5296487091648265,0.69411153187362,0.21053717729120663
1590514044.0079463,-0.28341121751025994,-4.1234112175102595,8.6329439124487,0.4444444444444444,0.17,-0.6355555555555555,-0.355140218878249,0.5838201094391244,0.06396032831737347
1590514044.0179462,-0.28,-4.115152536797961,8.645152536797962,0.4444444444444444,0.17,-0.6355555555555555,-0.221610064961763,0.5625,-0.030296645012745663
1590514044.0279462,-0.28,-4.1141631035970665,8.648326207194133,0.4444444444444444,0.18110160959217564,-0.6387935250199401,-0.09898060251833837,0.3803642176283686,0.015558192444984895
1590514044.0379462,-0.29877940462146974,-4.11374019845951,8.69755880924294,0.4444444444444444,0.19666666666666666,-0.6433333333333333,0.01574751925612379,-0.0706187981403095,0.04675248074387621
1590514044.0479462,-0.29933302982016846,-4.1206669701798315,8.698666059640336,0.4444444444444444,0.19666666666666666,-0.6433333333333333,0.0625,-0.38750569087184156,-0.0666685636239472
1590514044.0579462,-0.27220608025446535,-4.13,8.739313065818449,0.4444444444444444,0.19666666666666666,-0.6433333333333333,0.1737119984095914,-0.5995706661365304,-0.16207066613653046
1590514044.0679462,-0.24945721595405937,-4.12472860797703,8.816899744160791,0.4444444444444444,0.19666666666666666,-0.6433333333333333,0.1841075997128711,-0.5591075997128712,-0.1216075997128711
1590514044.0779462,-0.2537244194229416,-4.124574806474314,8.854574806474313,0.4444444444444444,0.19666666666666666,-0.6433333333333333,0.0678149190710767,-0.44281491907107673,-0.0625
1590514044.0879462,-0.2642082673343212,-4.13,8.865791732665679,0.4444444444444444,0.19666666666666666,-0.6433333333333333,-0.036198329160492565,-0.3388016708395074,-0.0625
1590514044.0979462,-0.26456183397510524,-4.125438166024895,8.810696158323632,0.4444444444444444,0.19666666666666666,-0.6433333333333333,-0.03398853765559237,-0.19845415062236949,-0.03398853765559237
1590514044.1079462,-0.27838541478075096,-4.1116145852192485,8.752578122171126,0.4444444444444444,0.19666666666666666,-0.6433333333333333,-0.026204421189846835,0.19954421189846833,-0.026204421189846835
1590514044.1179461,-0.29,-4.120430616349225,8.759784691825388,0.4444444444444444,0.19666666666666666,-0.6433333333333333,-0.03057716195433574,0.5305771619543358,-0.03057716195433574
1590514044.1279461,-0.2849932776056585,-4.124979832816975,8.75,0.4444444444444444,0.1833154069484227,-0.6394392159155121,-0.03129201496463436,0.5,0.0
1590514044.1379461,-0.26837087455851055,-4.115814562720745,8.744185437279256,0.4444444444444444,0.17,-0.6355555555555555,-0.0625,0.4273179659906907,-0.03634101700465464
1590514044.1479461,-0.26616878286520457,-4.10766243426959,8.641299474156726,0.4444444444444444,0.17,-0.6355555555555555,-0.1781646787225856,0.1436706425548288,-0.10105489290752853
1590514044.157946,-0.27,-4.105617914421817,8.619325400952718,0.4444444444444444,0.17,-0.6355555555555555,-0.21488803486364488,-0.21067179081813078,-0.08988803486364488
1590514044.167946,-0.2662565895642819,-4.113743410435719,8.664973641742872,0.4444444444444444,0.17,-0.6355555555555555,-0.1407073695535234,-0.4685852608929532,-0.039103684776761696
1590514044.177946,-0.26256344993091413,-4.114873100138172,8.72076139917097,0.44615341106505385,0.17512689986182825,-0.6355555555555555,-0.014435313795360331,-0.5929568758635736,-0.04806468620463967
1590514044.187946,-0.27,-4.106977710677121,8.816977710677122,0.4511111111111111,0.19,-0.6355555555555555,0.125,-0.5218053458660044,-0.14388930826799137
1590514044.197946,-0.2693320714883704,-4.119332071488371,8.826660357441853,0.4511111111111111,0.19,-0.6355555555555555,0.104127234011575,-0.558325446802315,-0.0625
1590514044.207946,-0.2647690777735529,-4.119538155547106,8.799076311094211,0.4511111111111111,0.19,-0.6355555555555555,-0.1875,-0.3807730556611776,-0.0625
1590514044.217946,-0.2745615531918928,-4.116315340424322,8.815438446808107,0.4511111111111111,0.19,-0.6355555555555555,-0.1019708776520107,-0.19298058510134047,-0.09100970744932976
1590514044.227946,-0.2769613842099233,-4.1030386157900764,8.803922768419847,0.4467219994143335,0.18763663216327364,-0.637918923392282,0.0,-0.14399134868797983,-0.125
1590514044.237946,-0.27,-4.113654429419942,8.782691141160116,0.43666666666666665,0.18222222222222226,-0.6433333333333333,0.022840183874636676,-0.11897944837608998,-0.125
1590514044.247946,-0.27,-4.12,8.708345673788871,0.43666666666666665,0.18222222222222226,-0.6433333333333333,0.0625,0.04816744235244341,-0.05274883647133488
1590514044.257946,-0.2728083333333334,-4.117191666666667,8.62685,0.43666666666666665,0.18222222222222226,-0.6433333333333333,0.09760416666666666,0.10744791666666667,-0.007708333333333331
1590514044.267946,-0.28,-4.096636746143058,8.665545582047686,0.43666666666666665,0.18222222222222226,-0.6433333333333333,0.2710203366058906,0.006819775596072927,-0.15965988779803647
1590514044.277946,-0.28,-4.088055327936019,8.668055327936019,0.4424844035093469,0.18803995906490253,-0.6527312159253553,0.27430840079976404,-0.163191599200236,-0.09982710019994101
1590514044.287946,-0.26886134197304784,-4.116707987040428,8.70784664506738,0.4511111111111111,0.19666666666666666,-0.6666666666666666,0.09019169366577452,-0.4865415316711274,-0.09730830633422548
1590514044.297946,-0.2657967336683417,-4.124203266331659,8.718406532663318,0.4511111111111111,0.19666666666666666,-0.6666666666666666,0.09872958542713567,-0.6612295854271357,-0.08877041457286433
1590514044.307946,-0.2530323014804845,-4.12,8.738279497532526,0.4511111111111111,0.19666666666666666,-0.6666666666666666,0.1956987438313145,-0.5814518842530283,-0.16854811574697173
1590514044.317946,-0.2567939896604307,-4.124198497415108,8.789389481905754,0.4511111111111111,0.19666666666666666,-0.6666666666666666,0.25,-0.473759391155577,-0.09255634693346226
1590514044.327946,-0.27665369165135617,-4.123307383302713,8.83,0.4511111111111111,0.19666666666666666,-0.66183311016307,0.20817114564195185,-0.3329278641048796,0.08317114564195185
1590514044.337946,-0.27,-4.1151707586761495,8.824829241323851,0.4511111111111111,0.19666666666666666,-0.6522222222222223,0.1573172417259317,0.004268966903726801,0.0
1590514044.347946,-0.27454529090581814,-4.115454709094182,8.77454709094182,0.4511111111111111,0.19666666666666666,-0.6522222222222223,0.15909193183863676,0.23863227264545292,-0.02840806816136323
1590514044.357946,-0.27147588611272516,-4.11,8.707213829169088,0.4511111111111111,0.19666666666666666,-0.6522222222222223,0.17827571179546775,0.2950864323067984,-0.08913785589773388
1590514044.367946,-0.25583214393028847,-4.11,8.698335712139423,0.4511111111111111,0.19666666666666666,-0.6522222222222223,0.17185269869290865,0.1614508995643029,-0.07290179912860577
1590514044.377946,-0.25359482303222397,-4.106405176967776,8.71,0.4555047837060515,0.19427011797851734,-0.6514233726595058,0.0849676439513999,0.1025323560486001,-0.022467643951399895
1590514044.387946,-0.26,-4.105417297479153,8.72625189243746,0.4633333333333333,0.19,-0.65,0.22657432773412156,-0.005216218489414365,-0.09635810924470718
1590514044.397946,-0.26754361663533527,-4.113771808317668,8.706053725140992,0.4633333333333333,0.19,-0.65,0.28892619801457736,-0.22751661389795852,-0.14857380198542264
1590514044.4079459,-0.27656376059932497,-4.116563760599325,8.665463077303038,0.4633333333333333,0.19,-0.65,0.25,-0.48926175187289045,-0.19823824812710958
1590514044.4179459,-0.26387042423382523,-4.1077408484676505,8.759352121169126,0.4633333333333333,0.19,-0.65,0.15323939415437005,-0.485880302922815,-0.17742954561577753
1590514044.4279459,-0.2690172925624676,-4.119017292562468,8.790982707437532,0.4627873847569264,0.19,-0.6493448617083117,0.01842576445373341,-0.5072227066387998,-0.0563580785154222
1590514044.4379458,-0.26343375178050826,-4.113433751780509,8.796566248219492,0.4596854176558379,0.19,-0.6456225011870055,0.12311715411547011,-0.19314853765358964,-0.02146094862817663
1590514044.4479458,-0.2555662630755292,-4.114433736924471,8.768963841528706,0.4577777777777778,0.19,-0.6433333333333333,0.13207828844411498,0.05542171155588502,-0.02771085577794251
1590514044.4579458,-0.25795791329256873,-4.116021043353716,8.726021043353716,0.4577777777777778,0.19,-0.6433333333333333,0.037631520960722746,0.1747369580785545,0.012105437117831755
1590514044.4679458,-0.27457752994423745,-4.107711235027882,8.731443824860595,0.4577777777777778,0.19,-0.6433333333333333,0.0,0.2786095621514841,0.11069521892425796
1590514044.4779458,-0.28742223769730735,-4.102577762302692,8.772577762302692,0.45605926957598264,0.18627656556277727,-0.6433333333333333,-0.03222202878365831,0.35888898560817084,0.0625
1590514044.4879458,-0.27681818181818185,-4.11,8.764090909090909,0.4511111111111111,0.17555555555555555,-0.6433333333333333,-0.10511363636363637,0.21306818181818182,0.04261363636363637
1590514044.4979458,-0.27,-4.1051761231807635,8.667289601349927,0.4511111111111111,0.17555555555555555,-0.6433333333333333,-0.0926492301202278,0.0301492301202278,-0.09044769036068341
1590514044.5079458,-0.27505614544343443,-4.1,8.650561454434344,0.4511111111111111,0.17555555555555555,-0.6433333333333333,-0.03019727293560462,-0.03230272706439538,-0.09269727293560462
1590514044.5179458,-0.27578461826347306,-4.0957846182634725,8.721076908682635,0.4511111111111111,0.17555555555555555,-0.6433333333333333,0.036153864146706585,-0.20403840755988023,0.0
1590514044.5279458,-0.27,-4.098315114964191,8.75831511496419,0.4492633077857352,0.17740335888093145,-0.6374819561363096,0.03464631235079784,-0.2951768438246011,-0.03464631235079784
1590514044.5379457,-0.26631394926016055,-4.116313949260161,8.783686050739838,0.4444444444444444,0.18222222222222226,-0.6222222222222222,0.032848731504013864,-0.22696218287600348,-0.032848731504013864
1590514044.5479457,-0.26270417422867515,-4.112704174228675,8.771070780399274,0.4444444444444444,0.18222222222222226,-0.6222222222222222,-0.0911978221415608,-0.1875,0.057395644283121605
1590514044.5579457,-0.26855968169761274,-4.118559681697612,8.73008222811671,0.4444444444444444,0.18222222222222226,-0.6222222222222222,-0.01800397877984085,-0.1875,-0.0889920424403183
1590514044.5679457,-0.252910435846948,-4.11,8.754850726411581,0.4444444444444444,0.18222222222222226,-0.6222222222222222,0.06856340801447501,0.0625,-0.08069022404342505
1590514044.5779457,-0.2752312277153957,-4.11,8.792052046192326,0.4444444444444444,0.18222222222222226,-0.6222222222222222,0.11506505774040765,0.0625,-0.22019517322122292
1590514044.5879457,-0.28,-4.12,8.772851025467657,0.4577777777777778,0.19,-0.6355555555555555,0.029787393884756968,0.26489369694237846,-0.07739369694237848
1590514044.5979457,-0.27036597296335824,-4.12,8.69219583778015,0.4577777777777778,0.19,-0.6355555555555555,0.09489366551049448,0.2823936655104945,-0.06478733102098896
1590514044.6079457,-0.2632112510987401,-4.12,8.652478757691181,0.4577777777777778,0.19,-0.6355555555555555,0.022359361265748612,0.12957808379724584,0.020070319367125694
1590514044.6179457,-0.2686115792334874,-4.119305789616744,8.703471051916281,0.4577777777777778,0.19,-0.6355555555555555,-0.053822370209296005,-0.138016444686056,0.04948355531394401
1590514044.6279457,-0.25,-4.11,8.756288989983476,0.45865124860881606,0.18685550500826212,-0.6367784147190092,0.07232654684918093,-0.32232654684918094,-0.11517345315081907
1590514044.6379457,-0.2504878048780488,-4.109756097560976,8.790731707317072,0.4633333333333333,0.17,-0.6433333333333333,0.12652439024390244,-0.37347560975609756,-0.06554878048780488
1590514044.6479456,-0.273347764215421,-4.103347764215421,8.793217886276633,0.4633333333333333,0.17,-0.6433333333333333,0.1456529473072375,-0.3125,-0.1875
1590514044.6579456,-0.277202978206685,-4.104405956413371,8.753985108966575,0.4633333333333333,0.17,-0.6433333333333333,0.07998138620821883,-0.3125,-0.15253722758356233
1590514044.6679456,-0.2664100286798039,-4.100769913960589,8.800769913960588,0.4633333333333333,0.17,-0.6433333333333333,0.14743732075122584,-0.1554387547414192,-0.10737464150245166
1590514044.6779456,-0.26,-4.12,8.817896496081143,0.46216472004507964,0.1711686132882537,-0.6433333333333333,0.14805930152143845,0.13814689949285386,-0.1612062010142923
1590514044.6879456,-0.25631130280350123,-4.123688697196499,8.802622605607002,0.4577777777777778,0.17555555555555555,-0.6433333333333333,0.046108714956234934,0.2566630724343524,-0.016391285043765066
1590514044.6979456,-0.25851540476487467,-4.125742297617562,8.747422976175626,0.4577777777777778,0.17555555555555555,-0.6433333333333333,0.07177872021953349,0.375,0.11572127978046651
1590514044.7079456,-0.26577585822061517,-4.12,8.685775858220614,0.4577777777777778,0.17555555555555555,-0.6433333333333333,0.026400886121155306,0.3485991138788447,0.10829734163653408
1590514044.7179456,-0.2668124381625442,-4.113187561837456,8.689083250883392,0.4577777777777778,0.17555555555555555,-0.6433333333333333,0.07669257950530035,0.3125,0.0
1590514044.7279456,-0.2845974558303887,-4.095402544169612,8.712796607773852,0.4577777777777778,0.17555555555555555,-0.6433333333333333,0.1137446996466431,0.3125,0.0
1590514044.7379456,-0.2788360204482894,-4.111163979551711,8.732327959103422,0.4633333333333333,0.18222222222222226,-0.6522222222222223,0.0625,0.2543010224144711,-0.0625
1590514044.7479455,-0.2637886272671547,-4.113788627267154,8.73757725453431,0.4633333333333333,0.18222222222222226,-0.6522222222222223,0.10132107958028341,-0.1875,-0.10132107958028341
1590514044.7579455,-0.2515632387706856,-4.1015632387706855,8.713126477541373,0.4633333333333333,0.18222222222222226,-0.6522222222222223,0.17772975768321514,-0.18261487884160757,-0.16795951536643025
1590514044.7679455,-0.2692696724079703,-4.11926967240797,8.74853934481594,0.4633333333333333,0.18222222222222226,-0.6522222222222223,0.06706454745018574,-0.12728227372509288,0.053370905099628524
1590514044.7779455,-0.28100788677357097,-4.111007886773571,8.812015773547142,0.462773396236905,0.18155029770650827,-0.651998247383651,0.043602122995544335,-0.11870070766518144,-0.006299292334818556
1590514044.7879455,-0.29,-4.115623720462195,8.813953641694715,0.4577777777777778,0.17555555555555555,-0.65,-0.14323449807418717,-0.03514825288871925,-0.053382750962906414
1590514044.7979455,-0.277991683991684,-4.086997920997921,8.701987525987526,0.4577777777777778,0.17555555555555555,-0.65,-0.23123700623700624,0.16252598752598751,-0.03752598752598752
1590514044.8079455,-0.25056146828844483,-4.0811229365768895,8.662245873153779,0.4577777777777778,0.17555555555555555,-0.65,-0.21908259122502172,0.26754588401390095,-0.11447246959165942
1590514044.8179455,-0.26314893448152704,-4.1,8.712595737926108,0.4577777777777778,0.17555555555555555,-0.65,-0.7893616810190881,0.6215425215286321,0.14122336203817612
1590514044.8279455,-0.27676921672448423,-4.072923133102063,8.74,0.4622905889274339,0.18031907843574813,-0.6467407475030261,-0.8891025348426754,0.7217949303146491,0.5381405574828069
1590514044.8379455,-0.3295104988930879,-3.976311187638364,8.751066437084909,0.4777777777777778,0.19666666666666666,-0.6355555555555555,-0.9375,0.625,1.3125
1590514044.8479455,-0.3867898943409299,-3.9666050528295353,8.746235369806746,0.4777777777777778,0.19666666666666666,-0.6355555555555555,-1.0011552594462179,0.5613447405537823,1.8005236557543365
1590514044.8579454,-0.41866623146127013,-3.953777922846243,8.71866623146127,0.4777777777777778,0.19666666666666666,-0.6355555555555555,-1.0861120177890207,0.35972403557804117,3.3722077153756707
1590514044.8679454,-0.4587870963912631,-3.936361289173789,8.766064518043684,0.4777777777777778,0.19666666666666666,-0.6355555555555555,-0.9620967622269706,0.051048344017094016,5.417096984805318
1590514044.8779454,-0.45256336063627733,-3.917690081908832,8.797183196818613,0.4777777777777778,0.19666666666666666,-0.6355555555555555,-0.7676050198836657,-0.6491219284188035,8.840151650047483
1590514044.8879454,-0.47924406183234886,-3.959496041221566,8.810755938167652,0.4444444444444444,0.19,-0.65,-0.7484251288173935,-1.1875,13.013093816765112
1590514044.8979454,-0.4553773027287952,-3.961509210915181,8.80773618362723,0.4444444444444444,0.19,-0.65,-0.6875,-1.2883244261649098,16.525642485961974
1590514044.9079454,-0.467788444187809,-4.026634667436572,8.731057779060956,0.4444444444444444,0.19,-0.65,-0.7013222238261937,-1.5901444476523874,18.49820004330723
1590514044.9179454,-0.4602199646324299,-4.049340106102711,8.76890017683785,0.4444444444444444,0.19,-0.65,-0.7486252210473131,-1.6847504420946262,19.775380968277457
1590514044.9279454,-0.48421632476867926,-4.090843264953736,8.819156735046265,0.44378857170264985,0.1883134700925283,-0.6476575973507338,-0.9533112178825472,-2.073040811921698,20.911892841725944
1590514044.9379454,-0.5235765094498978,-4.098715301889979,8.81128469811002,0.4376658763077937,0.17256939622004092,-0.6257908280833901,-1.1009119104371163,-2.1714412736247444,21.256294457686604
1590514044.9479454,-0.5178844923007417,-4.0939422461503705,8.761826738451113,0.43666666666666665,0.17,-0.6222222222222222,-0.9810695192199089,-2.6117780768796357,21.910909086630774
1590514044.9579453,-0.45471970181845567,-4.062359850909227,8.667079552727683,0.43666666666666665,0.17,-0.6222222222222222,-0.8823745340913369,-2.2169981363653477,22.749816460223634
1590514044.9679453,-0.4618184121086741,-4.009090793945663,8.653636613117731,0.43666666666666665,0.17,-0.6222222222222222,-1.312501319372612,-1.5227275126132023,24.352276445504632
1590514044.9779453,-0.5578594710843778,-3.952508148795322,8.76107026445781,0.43892611385537894,0.1705945913654506,-0.6251951790494752,-1.875,-1.6450674585839578,26.21844442017541
1590514044.9879453,-0.5684874884151992,-3.877338894037689,8.77,0.4577777777777778,0.17555555555555555,-0.65,-2.0530468025949955,-1.6938021316033365,29.610997837503863
1590514044.9979453,-0.6583995459704881,-3.81450056753689,8.753433598183882,0.4577777777777778,0.17555555555555555,-0.65,-2.5114571509648127,-1.5706228717366628,32.895608683314414
1590514045.0079453,-0.7528674300307718,-3.625446819199933,8.711469720123088,0.4577777777777778,0.17555555555555555,-0.65,-2.7858428753846476,-2.0896071884616187,37.6212150153859
1590514045.0179453,-0.7705862571460599,-3.275913014236072,8.70294809998879,0.4577777777777778,0.17555555555555555,-0.65,-3.194793184620558,-2.345582053581437,42.01455133953593
1590514045.0279453,-0.8211059907834101,-2.51110599078341,8.563179723502303,0.45998975934459807,0.17334357398873526,-0.6469278033794164,-5.095334101382488,-2.2580645161290325,46.490207373271886
1590514045.0379453,-0.8297113952333663,-2.520500248262165,8.830904294935452,0.4777777777777778,0.15555555555555556,-0.6222222222222222,-8.374398740069513,-0.3137025198609732,51.44760116683217
1590514045.0479453,-0.5780769815253024,-2.6717067928706335,9.21081735883464,0.4777777777777778,0.15555555555555556,-0.6222222222222222,-6.4699528363328485,-1.9328419772919696,57.93499527820593
1590514045.0579453,-0.22730062439717752,-2.272873749936545,8.819651251332555,0.4777777777777778,0.15555555555555556,-0.6222222222222222,-0.5086171886897812,-5.544175783034672,63.7030195060663
1590514045.0679452,-0.39695925030742485,-2.312617563499131,8.515674002459399,0.4777777777777778,0.15555555555555556,-0.6222222222222222,-0.8181820591103761,-5.247355086290972,71.7939856040368
1590514045.0779452,-0.43479804839689745,-2.4253311648854416,8.785331164885442,0.4781331887701406,0.15454855774386103,-0.6233476903647044,-3.695880768130965,-6.174979670801015,78.29735362976731
1590514045.0879452,-0.5022618579547485,-2.500290953283054,8.860290953283055,0.4831305079966481,0.1403894866020898,-0.6391725345819781,-2.056135396933195,-6.877727687028631,83.35713934660615
1590514045.0979452,-0.5721296922556645,-2.56,8.775111261413594,0.4844444444444445,0.13666666666666666,-0.6433333333333333,-2.107755960432871,-7.472107499154548,91.31540095536016
1590514045.1079452,-0.6075904633074062,-2.56,8.860217111937775,0.4844444444444445,0.13666666666666666,-0.6433333333333333,-2.861297345282381,-8.04834502874535,95.52636751775448
1590514045.1179452,-0.6499341262580055,-2.6298462946020127,8.830131747483989,0.4844444444444445,0.13666666666666666,-0.6433333333333333,-2.127195791399817,-8.374725526075023,102.92446248856359
1590514045.1279452,-0.6601968541928014,-2.5902187268808903,8.870153108816622,0.48442986265238513,0.13663507278387138,-0.6433333333333333,-2.6248632956994435,-8.938183521502783,108.63607304834507
1590514045.1379452,-0.7638644276802553,-2.697922530103003,8.928116204845495,0.4777777777777778,0.12222222222222222,-0.6433333333333333,-2.5377420934281156,-9.274757906571885,114.76446893587698
1590514045.1479452,-0.817107028869868,-2.7283468736399246,8.882479689540114,0.4777777777777778,0.12222222222222222,-0.6433333333333333,-2.4426660198752357,-9.369833980124763,118.90027813542724
1590514045.1579452,-0.8609812331500998,-2.8315687475928715,8.799018766849901,0.4777777777777778,0.12222222222222222,-0.6433333333333333,-2.6384766377227686,-9.716914017366339,123.84808501978222
1590514045.1679451,-0.912380168761598,-2.8389114526802284,8.747619831238403,0.4777777777777778,0.12222222222222222,-0.6433333333333333,-2.4090171037428663,-9.85458973775428,126.64749133433703
1590514045.1779451,-0.9100326432676749,-2.8200652865353493,8.869575637520226,0.4777777777777778,0.12222222222222222,-0.6433333333333333,-2.4372959795770326,-10.311071857039227,129.99041104012053
1590514045.1879451,-0.9857168718320057,-2.8389292179580012,8.841606173062997,0.5145845904738917,0.08015729342666345,-0.6633141745112237,-1.9051157449312093,-10.904038061187546,132.83938269370023
1590514045.197945,-1.0462003742477115,-2.8869754210286755,8.761550093561928,0.5166666666666667,0.07777777777777778,-0.6644444444444444,-2.5246927628584435,-11.029064254286148,135.58282127143073
1590514045.207945,-1.1211497253036395,-2.97,8.782299450607278,0.5166666666666667,0.07777777777777778,-0.6644444444444444,-3.4906421685225335,-11.375,137.55681662702338
1590514045.217945,-1.129978529479866,-2.97,8.799957058959732,0.5166666666666667,0.07777777777777778,-0.6644444444444444,-2.938841907508367,-11.375,139.43293751447155
1590514045.227945,-1.2090123689925407,-2.940370361627797,8.83950618449627,0.5166666666666667,0.07777777777777778,-0.6644444444444444,-2.9375,-11.498456826550845,140.73379667878388
1590514045.237945,-1.2738554012149017,-2.962289197570197,8.951566203644704,0.5222222222222223,0.017777777777777778,-0.6577777777777778,-3.067018712034323,-11.415663098424027,142.15436631833822
1590514045.247945,-1.2908946100708962,-2.9264215597164154,8.983897018723868,0.5222222222222223,0.017777777777777778,-0.6577777777777778,-2.556908687056899,-11.01217818351209,143.07927393882932
1590514045.257945,-1.3034642431220957,-2.8907698318049104,8.82076983180491,0.5222222222222223,0.017777777777777778,-0.6577777777777778,-2.5312744170744748,-10.550520212197227,143.2115084097545
1590514045.267945,-1.3810821647407163,-2.9080182588312704,8.838018258831271,0.5222222222222223,0.017777777777777778,-0.6577777777777778,-3.2319917650203562,-11.682448235802113,142.34908705843648
1590514045.277945,-1.429497818916906,-2.9034170301805156,8.899246728375358,0.5222222222222223,0.017777777777777778,-0.6577777777777778,-3.518217806858886,-11.647925754512892,141.26255452707736
1590514045.287945,-1.44183278700335,-2.87549836101005,8.823826231043551,0.5340193076618277,-0.02215081909473322,-0.6686673951066444,-2.348872969273441,-11.307274593854688,139.57596313173156
1590514045.297945,-1.5249104618284637,-2.84684260131951,8.82315739868049,0.5366666666666666,-0.031111111111111114,-0.6711111111111111,-2.5931903864278985,-10.91228793590952,137.43096135721018
1590514045.307945,-1.6040095693779906,-2.826992822966507,8.760023923444976,0.5366666666666666,-0.031111111111111114,-0.6711111111111111,-2.6624401913875597,-10.89364533492823,133.67422248803828
1590514045.317945,-1.6307674641148324,-2.8069244019138755,8.826918660287081,0.5366666666666666,-0.031111111111111114,-0.6711111111111111,-2.4952033492822965,-10.60098086124402,131.50014354066985
1590514045.327945,-1.6670179982296822,-2.7549700029505293,8.822982001770319,0.5366666666666666,-0.031111111111111114,-0.6711111111111111,-2.156062518440809,-10.274850014752648,127.59790020653706
1590514045.337945,-1.7351187810339792,-2.6989762437932043,8.863071268620388,0.5288888888888889,-0.07111111111111111,-0.6788888888888889,-2.5880939051698957,-9.5625,122.33112951513971
1590514045.347945,-1.7843618670341026,-2.6889095332414743,8.881276265931795,0.5288888888888889,-0.07111111111111111,-0.6788888888888889,-2.7852383310368585,-9.507976662073716,116.96274328281089
1590514045.357945,-1.8211310846293678,-2.679151686527974,8.810565542314684,0.5288888888888889,-0.07111111111111111,-0.6788888888888889,-2.5554307210664513,-9.051896081599677,111.9803196323975
1590514045.367945,-1.9011232031659198,-2.6183151952511206,8.85168480474888,0.5288888888888889,-0.07111111111111111,-0.6788888888888889,-2.0765400395739975,-8.298459960426003,105.90952904033055
1590514045.377945,-1.9173962637490543,-2.5939056043764186,8.876094395623582,0.5288888888888889,-0.07111111111111111,-0.6788888888888889,-2.279953296863179,-8.095046703136822,100.97675755106792
1590514045.387945,-1.9722913385826772,-2.556181102362205,8.92076377952756,0.5022222222222222,-0.14222222222222222,-0.7022222222222222,-1.7790846456692913,-7.577263779527559,93.45536417322835
1590514045.397945,-1.9983644840447576,-2.512725859925404,8.929454828014919,0.5022222222222222,-0.14222222222222222,-0.7022222222222222,-1.3988512743472854,-7.034073249067551,87.96913981558227
1590514045.407945,-2.049939024390244,-2.4900243902439025,8.850097560975609,0.5022222222222222,-0.14222222222222222,-0.7022222222222222,-1.1877286585365854,-6.2509146341463415,81.1953506097561
1590514045.417945,-2.003281814532316,-2.396563629064633,8.784594540345243,0.5022222222222222,-0.14222222222222222,-0.7022222222222222,-0.6619204134885588,-5.198840826977118,75.17253362103573
1590514045.427945,-2.0691438280268892,-2.39,8.751190071655463,0.5022222222222222,-0.14222222222222222,-0.7022222222222222,-0.913099283445372,-5.088987589569329,70.60857280047279
1590514045.437945,-2.2046268180367483,-2.3960447727169107,8.856940227055123,0.5069237121131527,-0.16438638885089438,-0.7022222222222222,-1.7672571011717504,-5.1380596589613825,63.36893892764328
1590514045.4479449,-2.247518337178982,-2.387518337178982,8.840146697431857,0.51,-0.17888888888888888,-0.7022222222222222,-1.2123700921079783,-4.524411662633425,56.84149595737895
1590514045.4579449,-2.304383289855605,-2.404143733695852,8.828287467391704,0.51,-0.17888888888888888,-0.7022222222222222,-1.1279944519969136,-4.225598890399382,49.28105825403241
1590514045.4679449,-2.359450726978998,-2.3836995153473346,8.853150242326333,0.51,-0.17888888888888888,-0.7022222222222222,-1.00343295638126,-3.5924878836833605,43.84945476575121
1590514045.4779449,-2.4060349212374263,-2.37,8.929426456633136,0.51,-0.17888888888888888,-0.7022222222222222,-0.7665211615107231,-2.924563484532169,36.58899459100399
1590514045.4879448,-2.41,-2.3345082405920676,8.925803296236827,0.5170983518815865,-0.21043711947371765,-0.7172076317500159,-0.6169059022202535,-2.520082405920676,31.864041765867523
1590514045.4979448,-2.44,-2.3201795999256825,8.928204000743172,0.52,-0.22333333333333333,-0.7233333333333334,-0.375,-1.929642503251378,24.5909650399455
1590514045.5079448,-2.44,-2.328838174273859,8.84161825726141,0.52,-0.22333333333333333,-0.7233333333333334,-0.375,-1.5508298755186722,19.93698132780083
1590514045.5179448,-2.49820022437096,-2.33,8.83970003739516,0.52,-0.22333333333333333,-0.7233333333333334,-0.43562523371975,-1.07562336396175,14.219980367541002
1590514045.5279448,-2.516595857134145,-2.33,8.898085499969508,0.52,-0.22333333333333333,-0.7233333333333334,-0.17818973227898277,-0.5438794645579655,9.70608750228691
1590514045.5379448,-2.5110229331277703,-2.3110229331277705,8.87795413374446,0.52,-0.1988888888888889,-0.75,0.0031966660242821352,-0.1523366737328965,3.281193389863172
1590514045.5479448,-2.527189053767585,-2.3271890537675852,8.845621892464829,0.52,-0.1988888888888889,-0.75,0.05371579302370399,0.40337372326074394,-1.1644897860859516
1590514045.5579448,-2.5207333119383826,-2.348533376123235,8.812199935815148,0.52,-0.1988888888888889,-0.75,0.0625,0.7895840019255456,-6.860428032734275
1590514045.5679448,-2.529311843793054,-2.359311843793054,8.865871062758325,0.52,-0.1988888888888889,-0.75,0.3534951185329469,1.1616941422395364,-12.255116038766687
1590514045.5779448,-2.521933311296587,-2.351933311296587,8.87,0.52,-0.1988888888888889,-0.75,0.2741663912073382,1.4900008263779854,-16.960845178084455
1590514045.5879447,-2.526729935148085,-2.3769197405923417,8.883459870296171,0.5192522294279904,-0.1906634125967845,-0.7642076408681803,0.3341241893510678,1.8148725680532034,-21.407029668718245
1590514045.5979447,-2.5351290614072997,-2.410516245629199,8.9002581228146,0.5188888888888888,-0.18666666666666668,-0.7711111111111111,0.3108867324087534,2.12983980277374,-25.69114397124111
1590514045.6079447,-2.5336192460834295,-2.4427615078331413,8.846192460834295,0.5188888888888888,-0.18666666666666668,-0.7711111111111111,0.2898797119785658,2.79105654374279,-31.617155230156662
1590514045.6179447,-2.535868306010929,-2.467604918032787,8.845209836065573,0.5188888888888888,-0.18666666666666668,-0.7711111111111111,0.23914617486338796,3.355915300546448,-36.38662226775956
1590514045.6279447,-2.54,-2.504993511549442,8.88249675577472,0.5188888888888888,-0.18666666666666668,-0.7711111111111111,0.5389712561640281,3.835866532572022,-41.46013658188424
1590514045.6379447,-2.521756545760269,-2.5443246056529745,8.89,0.5033481686105996,-0.1765314143112606,-0.8143548544941771,0.9400359816638642,4.228043177996637,-46.04901813595964
1590514045.6479447,-2.50022336844866,-2.56,8.89,0.4933333333333334,-0.17,-0.8422222222222222,0.756980264020632,4.6805197359793675,-52.63971182847401
1590514045.6579447,-2.4862555358357246,-2.6012333924928264,8.800660982932209,0.4933333333333334,-0.17,-0.8422222222222222,0.7070485494866393,5.0311116041068855,-56.05726168952877
1590514045.6679447,-2.4526436781609195,-2.656475095785441,8.805593869731801,0.4933333333333334,-0.17,-0.8422222222222222,0.8584770114942528,5.472461685823755,-62.007902298850574
1590514045.6779447,-2.442488035562281,-2.6675119644377188,8.840047857750875,0.4933333333333334,-0.17,-0.8422222222222222,0.9219497777357419,5.687799110942968,-65.9117835524449
1590514045.6879447,-2.421479575426182,-2.744081698295272,8.85,0.4562924841856974,-0.14530610056824275,-0.8360487473642829,0.8796236732068189,6.213010614345449,-71.69260614345448
1590514045.6979446,-2.392893675213675,-2.7951772079772077,8.822893675213676,0.4533333333333333,-0.14333333333333334,-0.8355555555555556,0.93147150997151,6.70177207977208,-76.12844871794871
1590514045.7079446,-2.3530601199951025,-2.8,8.73688526998898,0.4533333333333333,-0.14333333333333334,-0.8355555555555556,0.8797814374923473,6.980874250030611,-80.89139218807395
1590514045.7179446,-2.278192748797632,-2.839892917334649,8.777871500801577,0.4533333333333333,-0.14333333333333334,-0.8355555555555556,0.7254015599950672,7.54852761335142,-84.98996100012332
1590514045.7279446,-2.2094111821373907,-2.871680921941118,8.9489934275682,0.4533333333333333,-0.14333333333333334,-0.8355555555555556,0.913342936886648,8.184354461150626,-89.1444697037904
1590514045.7379446,-2.154860023724792,-2.8917133254250693,8.734736852510874,0.41754261675673304,-0.15895110056675893,-0.8186363077193445,1.8418952649268485,9.290103548833532,-92.60785265915382
1590514045.7479446,-2.149423088788795,-2.93884617757759,8.61769235515518,0.3922222222222223,-0.17,-0.8066666666666666,1.3449512556302832,8.844951255630283,-97.82932914789906
1590514045.7579446,-2.074937533260688,-2.9754659030435113,8.899721497174426,0.3922222222222223,-0.17,-0.8066666666666666,-1.0382450394059959,8.008345264945136,-103.67897576087783
1590514045.7679446,-2.0079259429270904,-2.9968296228291638,8.734385280391706,0.3922222222222223,-0.17,-0.8066666666666666,0.6989805676688854,9.883425139622064,-107.44212856705684
1590514045.7779446,-2.0,-3.0,8.69739092658102,0.3922222222222223,-0.17,-0.8066666666666666,0.9864201266058462,10.850512784708,-110.75529075901446
1590514045.7879446,-1.9636891461112314,-3.0272331404165764,8.827087988610689,0.4487057727158621,-0.17201726966048714,-0.7804421610803338,-0.02700705642041401,10.097992943579586,-115.09740684287085
1590514045.7979445,-1.9257911718870036,-3.1069698632542417,8.797238964858753,0.4544444444444444,-0.17222222222222222,-0.7777777777777778,0.35606164533901097,10.32070776355934,-117.68245434491539
1590514045.8079445,-1.9056181466788729,-3.0984272200183094,8.696517953412673,0.4544444444444444,-0.17222222222222222,-0.7777777777777778,1.2914225409419184,11.228922540941918,-119.68045849862679
1590514045.8179445,-1.8149383238602008,-3.09,8.71954317329786,0.4544444444444444,-0.17222222222222222,-0.7777777777777778,1.3591822620631273,11.403009357237876,-122.12006061797074
1590514045.8279445,-1.7647163154381615,-3.0758865261752644,8.82173757986078,0.4544444444444444,-0.17222222222222222,-0.7777777777777778,1.1801861828931057,11.110372365786212,-123.80474277677123
1590514045.8379445,-1.6802941659819226,-3.148419063270337,8.807720624486443,0.4776797224504702,-0.14898694421619646,-0.7971405094494659,2.2686113393590794,10.945542317173377,-125.30078060805259
1590514045.8479445,-1.6288025422504695,-3.14626751408349,8.793133757041744,0.4811111111111111,-0.14555555555555555,-0.8,2.5233280369781887,11.452468221869132,-125.69498411093457
1590514045.8579445,-1.5468129084367428,-3.14,8.726812908436743,0.4811111111111111,-0.14555555555555555,-0.8,2.675334092077245,11.123329539613774,-126.15100227623174
1590514045.8679445,-1.5131624242976185,-3.211566868539684,8.836296161376985,0.4811111111111111,-0.14555555555555555,-0.8,2.2402070716269753,10.950676767906744,-125.7961186876736
1590514045.8779445,-1.4886656883111933,-3.2342228744592045,8.885557186148011,0.4811111111111111,-0.14555555555555555,-0.8,2.320839448055042,10.848607034629971,-125.52776758657492
1590514045.8879445,-1.45046897737796,-3.24,8.734626273316575,0.47586115153385955,-0.15999294439299733,-0.7580003233819876,2.928706674163249,11.218551561053049,-124.9207071041143
1590514045.8979445,-1.4074515288897462,-3.2625484711102537,8.792871611845278,0.4722222222222222,-0.17,-0.7288888888888889,2.5139083148451817,10.701408314845182,-123.99878822224366
1590514045.9079444,-1.3721351791530945,-3.3048310260586318,8.585284201954398,0.4722222222222222,-0.17,-0.7288888888888889,2.5112326954397393,11.090581738599349,-122.76756921824104
1590514045.9179444,-1.3439913565994732,-3.3119956782997364,8.718133972708166,0.4722222222222222,-0.17,-0.7288888888888889,3.0752430956398187,10.824702883106887,-121.01179772370719
1590514045.9279444,-1.3254131443726174,-3.288119716558926,8.867521133764296,0.4722222222222222,-0.17,-0.7288888888888889,1.9567340564395823,10.003741142466435,-119.50231798027515
1590514045.9379444,-1.1065241371467562,-3.0418923068175356,8.218519360891568,0.47678367228318896,-0.0988413790489187,-0.6933095784133483,3.860550406550293,9.955265252743503,-115.82957226928981
1590514045.9479444,-1.1114576466908848,-3.170101763418096,8.824712151466308,0.4777777777777778,-0.08333333333333333,-0.6855555555555556,4.321398284696995,9.731991423484976,-111.90889708181972
1590514045.9579444,-1.12,-3.15203488372093,9.133866279069768,0.4777777777777778,-0.08333333333333333,-0.6855555555555556,-0.7837936046511622,9.23782703488372,-109.2765261627907
1590514045.9679444,-1.0852691576947435,-3.192096263457885,8.554844838505383,0.4777777777777778,-0.08333333333333333,-0.6855555555555556,3.6355288157061434,9.179266941101963,-104.4629116529449
1590514045.9779444,-1.029515565531375,-3.2432723724016785,8.827815165414268,0.4777777777777778,-0.08333333333333333,-0.6855555555555556,2.606833707426564,8.64659534497902,-100.88259978530301
1590514045.9879444,-0.9919998698425094,-3.323000455551217,8.780998633346348,0.4807777994706929,0.011667353608977984,-0.6535553241644613,1.31249593257842,7.8187455258362615,-96.43122600221268
1590514045.9979444,-0.9665210431736155,-3.324130260793404,8.765869739206595,0.4811111111111111,0.022222222222222227,-0.65,1.9470315307832862,7.603256519835098,-93.86134779752646
1590514046.0079443,-0.9220663118802405,-3.325586737623952,8.797933688119759,0.4811111111111111,0.022222222222222227,-0.65,2.1581631188024044,7.639668440598798,-90.35714183161683
1590514046.0179443,-0.8563936130176878,-3.33,8.770942814644899,0.4811111111111111,0.022222222222222227,-0.65,2.1759724288095197,7.579662550850343,-87.10912550850344
1590514046.0279443,-0.8107081930415264,-3.3392918069584736,8.869377104377104,0.4811111111111111,0.022222222222222227,-0.65,1.8813727553310886,7.1471310325476995,-84.52602413019079
1590514046.0379443,-0.7542152094300756,-3.3042152094300756,8.971133840695812,0.4731169413290608,0.07164072632944228,-0.65,2.497999041542687,6.321948672465095,-81.38881179903868
1590514046.0479443,-0.7226612090370479,-3.3533879096295203,8.866612090370479,0.4688888888888889,0.09777777777777777,-0.65,3.4002046611107013,8.493474506477863,-77.63958594537453
1590514046.0579443,-0.7272963023752023,-3.3289258833735844,8.942148233252832,0.4688888888888889,0.09777777777777777,-0.65,0.946294168679219,5.179626134258717,-75.84976787263476
1590514046.0679443,-0.7005766253869968,-3.3394233746130033,8.70783378482972,0.4688888888888889,0.09777777777777777,-0.65,1.4711687306501549,5.831753095975232,-72.52821449303406
1590514046.0779443,-0.6595463026612982,-3.3317277815967787,8.676998134145144,0.4688888888888889,0.09777777777777777,-0.65,2.190335608366886,6.130127418246096,-69.30574118629087
1590514046.0879443,-0.6255751546290539,-3.4209739175966227,8.77048695879831,0.4648819873969594,0.14586059568093146,-0.6540069014919295,1.5461800896684883,5.451878865726347,-65.32299677651602
1590514046.0979443,-0.6343058914164652,-3.481458837124698,8.825764728541163,0.4633333333333333,0.16444444444444445,-0.6555555555555556,2.1888241242055253,5.3125,-61.630145359412786
1590514046.1079443,-0.6015291273004074,-3.4258818788340126,8.743822818251019,0.4633333333333333,0.16444444444444445,-0.6555555555555556,2.241909394170062,4.9919093941700625,-58.318365759190435
1590514046.1179442,-0.5387127608730286,-3.396881206521162,8.738168445648133,0.4633333333333333,0.16444444444444445,-0.6555555555555556,2.3635527853008336,4.59746229621369,-54.611070176836066
1590514046.1279442,-0.5254362971897673,-3.4108725943795344,8.79805408032837,0.4633333333333333,0.16444444444444445,-0.6555555555555556,2.3640925702558193,4.398069427691865,-51.665249698453565
1590514046.1379442,-0.49848672465529686,-3.4073946898621186,8.836302655068941,0.4570306782643927,0.19385683476616739,-0.6464517204559747,2.446957970904395,4.233716811638242,-47.997853914232536
1590514046.1479442,-0.4646784321187328,-3.415321567881267,8.763392160593664,0.4533333333333333,0.2111111111111111,-0.6411111111111111,2.3709804014841596,3.852340702597279,-43.97296582152031
1590514046.1579442,-0.41392644828010333,-3.400254192120044,8.693926448280104,0.4533333333333333,0.2111111111111111,-0.6411111111111111,1.818854803001107,3.544314501250461,-40.61563691525563
1590514046.1679442,-0.3722651904619866,-3.39,8.718770726229536,0.4533333333333333,0.2111111111111111,-0.6411111111111111,1.673342559612584,3.29894680048427,-37.59444032600495
1590514046.1779442,-0.3439582594300579,-3.371874778290174,8.776979129715029,0.4533333333333333,0.2111111111111111,-0.6411111111111111,1.6992173643135864,3.0872391214378623,-34.342434521698
1590514046.1879442,-0.3218773674766852,-3.358429213831602,8.798429213831602,0.45694339223258434,0.2192337436344259,-0.6447211700103621,1.3867335467292825,2.8730838668232064,-30.517955441596705
1590514046.1979442,-0.28238421955403087,-3.372384219554031,8.801337907375643,0.4622222222222222,0.2311111111111111,-0.65,1.2089408233276158,2.514901372212693,-26.968053173241852
1590514046.2079442,-0.25344249254226053,-3.3434424925422603,8.76344249254226,0.4622222222222222,0.2311111111111111,-0.65,1.0020467351673847,2.375,-23.821685449121645
1590514046.2179441,-0.25,-3.379841825554744,8.706877565927007,0.4622222222222222,0.2311111111111111,-0.65,1.1450095080976248,2.167490491902375,-21.214923935219
1590514046.2279441,-0.2279591993989713,-3.394489799849743,8.70204080060103,0.4622222222222222,0.2311111111111111,-0.65,1.0778062453044635,2.0280612490608925,-18.9630112114966
1590514046.2379441,-0.19923925282212662,-3.379239252822127,8.784564483067241,0.46700477652349925,0.24545877401494226,-0.656576012164256,1.038382004792563,1.899117995207437,-16.70279794728181
1590514046.247944,-0.1577426574817836,-3.3829029370072865,8.781936783467211,0.4711111111111111,0.2577777777777778,-0.6622222222222223,1.0040349655566885,1.570569931113377,-14.701636368157967
1590514046.257944,-0.12109914627205465,-3.402600569151964,8.831903699487764,0.4711111111111111,0.2577777777777778,-0.6622222222222223,0.7799928856004553,1.1618625498007968,-13.061826977803074
1590514046.267944,-0.11655826419910657,-3.4231165283982135,8.847208679004467,0.4711111111111111,0.2577777777777778,-0.6622222222222223,1.0564023611997446,1.2049457562220804,-11.49474952137843
1590514046.277944,-0.12,-3.437273284861805,8.793633575690976,0.4711111111111111,0.2577777777777778,-0.6622222222222223,0.999980832875452,1.2897709848068593,-10.772709848068592
1590514046.287944,-0.12,-3.447992307594015,8.740038462029927,0.4711111111111111,0.2577777777777778,-0.6622222222222223,0.6315144264557431,1.256274038768704,-10.43774038768704
1590514046.297944,-0.08182631794033511,-3.421826317940335,8.788084184715979,0.5311111111111111,0.26222222222222225,-0.6344444444444445,0.5793420514916224,0.9831579485083776,-9.829901409889661
1590514046.307944,-0.09208986828410437,-3.4320898682841046,8.694876359329577,0.5311111111111111,0.26222222222222225,-0.6344444444444445,0.37935389225855076,1.1787922154828985,-10.222331138068407
1590514046.317944,-0.09620525768602406,-3.464758948462795,8.745723154611614,0.5311111111111111,0.26222222222222225,-0.6344444444444445,0.37801314421506016,1.2409605673548196,-10.836217139462349
1590514046.327944,-0.06006399378462923,-3.494840015538427,8.734968003107685,0.5311111111111111,0.26222222222222225,-0.6344444444444445,0.40565005826910105,1.4375,-11.24840015538427
1590514046.337944,-0.011092403017241383,-3.3682603717672412,8.66607556573276,0.5851494402538314,0.24449765026340997,-0.637038284243295,0.5,1.4618172481142242,-11.743172481142242
1590514046.347944,0.011831962168815192,-3.3065271749692298,8.812405260089395,0.67,0.21666666666666667,-0.6411111111111111,0.41054366133316056,1.738550236444905,-12.393369016000518
1590514046.357944,-0.016867619112257363,-3.495622539704086,8.889881905796118,0.67,0.21666666666666667,-0.6411111111111111,0.25778174630107237,1.507535716709651,-13.316759917537668
1590514046.367944,0.010261808576755748,-3.4694763828464885,8.695253262896209,0.67,0.21666666666666667,-0.6411111111111111,0.5081815180236171,1.195681518023617,-14.424302750155377
1590514046.377944,0.01607791099068334,-3.4532034816821944,8.812155821981367,0.67,0.21666666666666667,-0.6411111111111111,0.6609303663561115,1.783495647897257,-15.986147971493263
1590514046.387944,0.004603622013952505,-3.4293601578465225,8.789207244027905,0.9155265074108003,0.1598886618279191,-0.552107752174696,0.3551811006976252,1.8075452751744063,-18.0457244027905
1590514046.397944,0.01503450623002893,-3.395172531150145,8.810069012460058,1.2033333333333334,0.09333333333333334,-0.4477777777777778,0.4991373442492768,2.063793983626085,-20.194832573881147
1590514046.407944,0.02971952769082964,-3.3811218892366814,8.751963306164193,1.2033333333333334,0.09333333333333334,-0.4477777777777778,0.375,2.2803735240338425,-22.31307334118449
1590514046.417944,0.06157950725501043,-3.350789753627505,8.755528275392537,1.2033333333333334,0.09333333333333334,-0.4477777777777778,0.5098719203438151,2.4473719203438153,-24.617629303008382
1590514046.427944,0.07661491252939313,-3.36,8.786149125293932,1.2033333333333334,0.09333333333333334,-0.4477777777777778,0.5192160165435352,2.647127186765172,-26.238547104047495
1590514046.437944,0.07182986585267893,-3.36,8.729149329263395,1.1925574566453352,0.11691827099008399,-0.46648307316071796,0.3353733231584866,2.818218330789622,-27.597613262109405
1590514046.447944,0.09969567726234978,-3.3357608068441253,8.8006086454753,1.0855555555555556,0.3511111111111111,-0.6522222222222223,0.6533969743345293,2.753804034220628,-29.88437680323139
1590514046.457944,0.10556634840420023,-3.3144336515957997,8.757831742021,1.0855555555555556,0.3511111111111111,-0.6522222222222223,0.8608412898949941,2.791261934842491,-31.096075482053724
1590514046.467944,0.11354864816258019,-3.3019351357832263,8.73,1.0855555555555556,0.3511111111111111,-0.6522222222222223,1.0,3.028226350338709,-32.167347955758046
1590514046.477944,0.13930510742110647,-3.2939576611316594,8.753262768552766,1.0855555555555556,0.3511111111111111,-0.6522222222222223,1.0872353820728733,3.0625,-33.21525537105532
1590514046.487944,0.16101524610142512,-3.3173434974009504,8.80203049220285,0.8991123159869896,0.32908061890826085,-0.6722128540359197,1.118654711866093,3.177242146889845,-34.07127801129157
1590514046.4979439,0.19339059625581645,-3.3344635320852722,8.817682339573638,0.5777777777777777,0.2911111111111111,-0.7066666666666667,0.972102924467049,3.375,-34.87607367979656
1590514046.5079439,0.21365365314280854,-3.3290390405715744,8.768078081143148,0.5777777777777777,0.2911111111111111,-0.7066666666666667,0.9831706642851068,3.30649400357234,-35.301676660712765
1590514046.5179439,0.2146055387479637,-3.301009231246606,8.683248002482353,0.5777777777777777,0.2911111111111111,-0.7066666666666667,1.1524076875339384,3.232453843766969,-35.58990768753394
1590514046.5279438,0.20084777884030253,-3.2491522211596973,8.68333965052595,0.5777777777777777,0.2911111111111111,-0.7066666666666667,1.4269027644962184,3.4149004607493696,-36.11299769625315
1590514046.5379438,0.2224241440103925,-3.22030342395843,8.992123967709011,0.5505734949944842,0.2991915911457528,-0.7123230026909159,0.9450855989607497,3.253792799480375,-36.46400900064953
1590514046.5479438,0.2254767959313414,-3.1945232040686586,8.843324856961221,0.4655555555555556,0.3244444444444444,-0.73,1.0638707883026064,3.129430228862047,-37.05058010171646
1590514046.5579438,0.22651388723328167,-3.1869722255334367,8.84183335320062,0.4655555555555556,0.3244444444444444,-0.73,1.3718317886518059,3.4171441023959948,-37.207855897604006
1590514046.5679438,0.2624401124561444,-3.1914161574386024,8.671023955017542,0.4655555555555556,0.3244444444444444,-0.73,0.5698537953948745,3.4030501405701807,-37.025598875438554
1590514046.5779438,0.2865097791314675,-3.2265097791314674,8.733294638239181,0.4655555555555556,0.3244444444444444,-0.73,1.2600473152883933,3.5465694021416394,-36.53186119571672
1590514046.5879438,0.28412392498186717,-3.2138141125271993,8.878247849963733,0.4602860958565031,0.3226115888969479,-0.7286253583393776,0.9155981245466791,3.7113382032949955,-35.94457828204331
1590514046.5979438,0.2966621370122005,-3.183324274024401,8.876621370122006,0.44,0.31555555555555553,-0.7233333333333334,1.0621602759150395,3.416468494283773,-34.87449041387256
1590514046.6079438,0.30138704562804625,-3.1927740912560925,8.783430226867893,0.44,0.31555555555555553,-0.7233333333333334,0.7522840938007712,3.1487230117250964,-33.88776988274903
1590514046.6179438,0.326609262125903,-3.210172213622291,8.773046310629516,0.44,0.31555555555555553,-0.7233333333333334,1.0418460558565532,3.1875,-33.314114502708975
1590514046.6279438,0.3235664688312192,-3.1576748516234145,8.819458086039024,0.44,0.31555555555555553,-0.7233333333333334,0.92296782264634,3.23885478490244,-32.60369389813414
1590514046.6379437,0.3,-3.126826865586653,8.806466418016683,0.4319497511918433,0.3140918739540725,-0.7178445273277719,0.956581157645987,3.2713339549582896,-32.08383395495829
1590514046.6479437,0.30851959966638864,-3.112779399499583,8.848519599666389,0.4155555555555556,0.3111111111111111,-0.7066666666666667,0.9837625104253545,3.1608762510425352,-32.106494995829856
1590514046.6579437,0.3284359335583003,-3.1328119778527665,8.826256265766798,0.4155555555555556,0.3111111111111111,-0.7066666666666667,0.7304491694787537,3.195299446319169,-32.267574861579796
1590514046.6679437,0.34904809487927135,-3.1396826982930905,8.743807620482915,0.4155555555555556,0.3111111111111111,-0.7066666666666667,0.9881011859908921,3.3670674573272614,-32.31051686433182
1590514046.6779437,0.2552326811211,-3.033953816322933,8.799186497444033,0.4155555555555556,0.3111111111111111,-0.7066666666666667,0.9375,3.084302838004583,-32.88880993301604
1590514046.6879437,0.2774130089899524,-3.09310135730654,8.880514366296493,0.4155555555555556,0.3111111111111111,-0.7066666666666667,0.9375,3.1767208707914683,-33.21227304777014
1590514046.6979437,-0.15517049682643905,-13.986282775224335,-5.731221273801707,0.35,0.3411111111111111,-0.67,-64.73298041146859,-38.32470453053185,199.42560735390677
1590514046.7079437,-0.5844236299052774,-1.8160385656292286,-1.4267582882273344,0.35,0.3411111111111111,-0.67,-192.15414887094045,-124.92473464986469,753.5125327723275
1590514046.7179437,-0.19481905264372745,-0.27713072725174354,0.0725627751306613,0.35,0.3411111111111111,-0.67,-248.21622281667848,-13.920673750680095,304.4712287520815
1590514046.7279437,0.07057344806392132,-0.43517701290719113,-0.11748740012292563,0.35,0.3411111111111111,-0.67,-250.77223801475108,61.04532114320836,149.26686385986477
1590514046.7379436,-0.1949632662611137,-0.5473104819840898,2.6046941974730933,0.3813275360058233,0.3400054333697291,-0.6751598294597827,-195.82895560364997,15.814642313991577,158.94992834581188
1590514046.7479436,-1.5474023351768937,-1.2310552190325694,6.726545518391713,0.4444444444444444,0.3377777777777778,-0.6855555555555556,-95.125,-87.5625,170.9375
1590514046.7579436,0.07788194853200853,-1.0480856073270077,7.094807053893062,0.4444444444444444,0.3377777777777778,-0.6855555555555556,-57.404271537211876,-109.16166299766911,175.3258025686907
1590514046.7679436,-0.26416763678696153,-1.5680093131548312,8.228293364377183,0.4444444444444444,0.3377777777777778,-0.6855555555555556,78.74403376018626,-93.94032305005821,191.81233993015135
1590514046.7779436,-0.6420941369078073,-1.7363976261127596,6.688401309730891,0.4444444444444444,0.3377777777777778,-0.6855555555555556,214.9774058630922,-53.57397165660493,207.58425509055562
1590514046.7879436,0.03278615867422782,-1.889038154489897,7.3453019875571215,0.44172716817461627,0.34515324193874,-0.6739100858277206,287.068910697572,-45.28614318945108,213.34998520343555
1590514046.7979436,-1.7268573424944684,0.32896541283335257,4.5166826598346335,0.43666666666666665,0.3588888888888889,-0.6522222222222223,318.0477858972866,-27.516060614882964,208.7804806684523
1590514046.8079436,-1.7712005729951348,2.049689051347279,1.5534658796216254,0.43666666666666665,0.3588888888888889,-0.6522222222222223,193.40201350984216,-28.462249005902837,179.97607529205465
1590514046.8179436,0.520127929544838,0.6689485986184445,-1.133026274599829,0.43666666666666665,0.3588888888888889,-0.6522222222222223,42.280093703695975,-12.938139125988688,151.88754643445958
1590514046.8279436,-3.7244193611542,2.8919233144079155,0.2353110645924008,0.43666666666666665,0.3588888888888889,-0.6522222222222223,-6.451462515624765,25.625318142799053,118.39621579494285
1590514046.8379436,-16.16184756253671,8.962196804264995,2.5471946205629434,0.43666666666666665,0.3588888888888889,-0.6522222222222223,-62.62991709462206,37.50846278670502,26.686763941808096
1590514046.8479435,-0.15604462180301107,-4.262440776346817,14.059962633774715,0.4777777777777778,0.16333333333333333,-0.6822222222222222,-23.43785824415019,-30.966932704516598,-53.166624342463265
1590514046.8579435,0.039712518882175224,-0.7090757175226586,3.089938160876133,0.4777777777777778,0.16333333333333333,-0.6822222222222222,17.171407371129156,0.6071474933912384,-45.813079741786254
1590514046.8679435,-0.2559295593706725,-1.5303185010928142,5.752876353504513,0.4777777777777778,0.16333333333333333,-0.6822222222222222,-16.149010627825884,21.879279493468143,-42.0592903798989
1590514046.8779435,-0.8286757990867579,-2.32310502283105,10.064748858447489,0.4777777777777778,0.16333333333333333,-0.6822222222222222,-38.615867579908674,20.989155251141554,-41.448344748858446
1590514046.8879435,-0.3922626968177472,-1.7126269681774726,7.326334653581254,0.4759787719743235,0.15568755866865247,-0.6864948610054262,3.6400771662146605,-2.627833980449925,-42.29906664000156
1590514046.8979435,-0.4745107152078492,-2.5558880159344914,9.898662535502194,0.4688888888888889,0.12555555555555556,-0.7033333333333334,24.416825734941536,12.659391022094352,-37.966886134779244
1590514046.9079435,-0.49862440254215035,-2.22091916592258,7.58776222490677,0.4688888888888889,0.12555555555555556,-0.7033333333333334,-5.063094175114239,0.3107765638951625,-43.18492469404906
1590514046.9179435,-1.340233772926378,-5.146361528190954,9.113693518540208,0.4688888888888889,0.12555555555555556,-0.7033333333333334,-4.2670659506687585,4.641118736970322,-45.823933908786394
1590514046.9279435,-5.967072915455285,-11.254893592278172,6.214731945575067,0.4688888888888889,0.12555555555555556,-0.7033333333333334,0.4133184091173385,12.648309396441446,-70.40922636353065
1590514046.9379435,-13.916799246881618,-18.32658507884208,6.313631442692398,0.4693206244606574,0.12651865798488535,-0.7033997541905285,-11.60331842786538,15.328665568369027,-123.40005001176748
1590514046.9479434,2.177491573894393,-0.6130554590950873,9.781227249514862,0.4833333333333333,0.15777777777777774,-0.7055555555555556,18.35694643039526,3.5142184148707996,-165.99949954039423
1590514046.9579434,0.9545047489823608,-1.7789416553595658,7.215549525101764,0.4833333333333333,0.15777777777777774,-0.7055555555555556,12.300542740841248,11.165959972862957,-163.48787313432837
1590514046.9679434,0.1660053764655387,-2.3563168952041025,9.155978494137845,0.4833333333333333,0.15777777777777774,-0.7055555555555556,-5.7034529107461545,14.190631565274359,-160.1234342173628
1590514046.9779434,-0.28907511504424777,-2.762627398230088,10.748481132743363,0.4833333333333333,0.15777777777777774,-0.7055555555555556,-2.388825663716814,16.04161150442478,-158.47257610619468
1590514046.9879434,-0.09309366371681421,-2.5488294513274337,9.335039150442478,0.4833333333333333,0.15777777777777774,-0.7055555555555556,5.517244247787611,13.220666371681416,-157.87869292035398
1590514046.9979434,-0.23729587004563327,-2.37,8.38756364262549,0.4488888888888889,0.2088888888888889,-0.7088888888888889,2.9617354992394453,14.316487529776426,-154.91725203053699
1590514047.0079434,-0.32912630068173665,-2.5167949407965557,9.026113652673125,0.4488888888888889,0.2088888888888889,-0.7088888888888889,2.6941631907068535,11.509704655543596,-152.5479430166846
1590514047.0179434,-0.2884572134800167,-3.938956969781368,9.755740147611753,0.4488888888888889,0.2088888888888889,-0.7088888888888889,5.995666733393678,12.78224546546442,-150.3557151685002
1590514047.0279434,-0.23734995126027017,-8.494804344798776,8.762799053056677,0.4488888888888889,0.2088888888888889,-0.7088888888888889,3.485935106531124,12.371562108341458,-149.7168743907534
1590514047.0379434,-0.14968304484785502,-6.890508232390478,8.722602214789076,0.4488888888888889,0.21959781624250824,-0.7035344252120792,2.5157949858734128,14.551762981846524,-193.6773373818725
1590514047.0479434,0.018080313014827022,-2.339721993410214,8.880401565074136,0.4488888888888889,0.2488888888888889,-0.6888888888888889,5.765473126029654,19.669874897034596,-210.678011738056
1590514047.0579433,-0.28432380329449025,-2.838722309241441,8.663740984904557,0.4488888888888889,0.2488888888888889,-0.6888888888888889,2.7100560269893452,13.709589135411466,-205.37205772242973
1590514047.0679433,-1.0207105358280117,-3.5895479973148356,9.234079728729538,0.4488888888888889,0.2488888888888889,-0.6888888888888889,2.168595194244109,17.680301908876533,-197.5659973836859
1590514047.0779433,-9.427922683295698,-21.085825478050094,8.62553999461352,0.4488888888888889,0.2488888888888889,-0.6888888888888889,-11.586033479044522,7.027728718224948,-37.82099276968655
1590514047.0879433,2.2544664833726107,0.2132148468185389,5.504713930348259,0.438284382182654,0.2594933955951238,-0.6888888888888889,-0.3186779916208433,-22.02337408352972,100.39875867373658
1590514047.0979433,-0.20627117191250088,-0.014845367894123274,5.567606802441198,0.37666666666666665,0.3211111111111111,-0.6888888888888889,27.212116634094492,1.3794872454227525,48.340482068161556
1590514047.1079433,-0.32850785160803675,-0.8201693753000066,8.731379688678597,0.37666666666666665,0.3211111111111111,-0.6888888888888889,2.180561269971882,-4.5525869162723716,18.85987108276761
1590514047.1179433,0.5839229509364097,-4.20203375347148,9.460508438367869,0.37666666666666665,0.3211111111111111,-0.6888888888888889,-11.368996119062878,-0.9587739443138932,-5.592603966388948
1590514047.1279433,-0.04121118541551305,-2.922170635089662,8.945387400434466,0.37666666666666665,0.3211111111111111,-0.6888888888888889,-0.6992482003663161,5.317464965711122,-22.366765877241555
1590514047.1379433,0.1378245865180603,-3.3311112247245585,8.47782458651806,0.37786744719104953,0.3215113712859054,-0.6924912304620375,0.6269731460415655,2.3586987780873745,-29.3706878371124
1590514047.1479433,0.2887353226327696,-4.001018528492945,8.626077237961866,0.38333333333333336,0.3233333333333333,-0.7088888888888889,-1.9162009856727351,2.548229963373909,-37.07816707960789
1590514047.1579432,-0.24671901921802517,-5.444726750607466,8.670261541859952,0.38333333333333336,0.3233333333333333,-0.7088888888888889,0.25683537662911426,4.184111994698476,-41.657364148442674
1590514047.1679432,-0.6999112773917692,-7.593238909673971,8.893931587386424,0.38333333333333336,0.3233333333333333,-0.7088888888888889,-0.7631703189025476,2.9077543203278102,-25.03003518617495
1590514047.1779432,1.2952394441475146,-2.100970069481561,8.871514163548904,0.38333333333333336,0.3233333333333333,-0.7088888888888889,3.113175886335293,-2.7433046053803674,10.184001425262785
1590514047.1879432,-0.09256107649037666,-3.5248149782165115,8.157350135112777,0.38333333333333336,0.32421539611635014,-0.7103001893417158,2.8250599735289255,1.0861860971709039,1.1396418132686263
1590514047.1979432,-0.42012291308003363,-4.525303078832526,9.044701125035033,0.38333333333333336,0.3288888888888889,-0.7177777777777777,-3.204085258437763,-1.0512133662969934,-2.877278346078392
1590514047.2079432,-0.051156209900722636,-4.238843790099278,8.671500641588437,0.38333333333333336,0.3288888888888889,-0.7177777777777777,-0.3125,0.21386844060241778,0.040821064361450665
1590514047.2179432,-0.06,-4.23,8.53,0.38333333333333336,0.3288888888888889,-0.7177777777777777,-0.3125,-0.0625,-0.125
1590514047.2279432,-0.02524264731535429,-4.181339706241496,8.634272058053936,0.38333333333333336,0.3288888888888889,-0.7177777777777777,0.12196690855807141,-0.019053309144192856,-0.03810661828838571
1590514047.2379432,-0.04660243832535991,-4.123397561674641,8.82640975330144,0.38333333333333336,0.3288888888888889,-0.7177777777777777,0.5870182874401992,0.09150609581339976,-0.09150609581339976
1590514047.2479432,-0.03,-4.247782073536373,8.793715875019727,0.38333333333333336,0.3566666666666667,-0.7088888888888889,-0.19674136026510966,0.060189659933722585,-0.004620680132554836
1590514047.2579432,-0.03,-4.198141470727474,8.65306750039451,0.38333333333333336,0.3566666666666667,-0.7088888888888889,-0.40357720530219343,0.008480698674451635,-0.10803860265109673
1590514047.2679431,-0.037316511118792486,-4.213291277796981,8.629392211084225,0.38333333333333336,0.3566666666666667,-0.7088888888888889,0.050315416522640856,0.07088590275377347,-0.2164563889849061
1590514047.2779431,-0.021207512386219613,-4.173018780965549,8.68577370664823,0.38333333333333336,0.3566666666666667,-0.7088888888888889,0.3523591427583823,0.12122652379306371,-0.015093904827745142
1590514047.2879431,-0.03206361544680057,-4.17,8.738254461787202,0.38333333333333336,0.3566666666666667,-0.7088888888888889,0.48809639481375533,0.04960240345749643,-0.037698798271251784
1590514047.297943,-0.04,-4.1568698016634675,8.809390595009598,0.3658264022179569,0.3530193893509632,-0.7052416115731855,0.2752769113883557,0.04103186980166346,-0.021468130198336537
1590514047.307943,-0.04560535213294008,-4.201719060978827,8.645351173776467,0.3566666666666667,0.3511111111111111,-0.7033333333333334,-0.7408444836102919,-0.0883779344411673,-0.125
1590514047.317943,-0.026065730390751888,-4.260901404413872,8.572131460781504,0.3566666666666667,0.3511111111111111,-0.7033333333333334,-0.5453344439667527,0.14395540747109964,-0.14395540747109964
1590514047.327943,-0.054791316157541604,-4.207395658078771,8.650417367684918,0.3566666666666667,0.3511111111111111,-0.7033333333333334,0.282554274015365,0.24186143149615877,-0.2093071574807938
1590514047.337943,-0.02078324853546308,-4.190391624267732,8.718433502929074,0.3566666666666667,0.3511111111111111,-0.7033333333333334,0.49510469665335577,0.18872382583666106,0.056380870816694684
1590514047.347943,-0.04345535993332639,-4.181727679966663,8.813089280133347,0.3688888888888889,0.34444444444444444,-0.7033333333333334,0.4437220022919054,0.0,-0.0625
1590514047.357943,-0.05809787992867049,-4.19190212007133,8.769221319595799,0.3688888888888889,0.34444444444444444,-0.7033333333333334,-0.14877650089161878,0.0,-0.07835100059441252
1590514047.367943,-0.03178753129290156,-4.223575062585803,8.604637406121295,0.3688888888888889,0.34444444444444444,-0.7033333333333334,-0.43296757651619155,0.011172070580634741,-0.2901558588387305
1590514047.377943,-0.04,-4.239215811877505,8.584705128734967,0.3688888888888889,0.34444444444444444,-0.7033333333333334,-0.1119301979584246,0.06086627474480307,-0.18259882423440923
1590514047.387943,-0.04,-4.213214861346448,8.740710831921312,0.3688888888888889,0.34444444444444444,-0.7033333333333334,0.32141897755920157,0.006697627805099804,-0.02009288341529944
1590514047.397943,-0.03,-4.154578961528115,8.791144740382029,0.3688888888888889,0.34444444444444444,-0.6944444444444444,0.33207223567393057,-0.055345372612321767,0.0625
1590514047.407943,-0.03,-4.18278921172989,8.798197302932472,0.3688888888888889,0.34444444444444444,-0.6944444444444444,0.06760114003228412,-0.011266856672047354,0.0625
1590514047.417943,-0.02,-4.21940493604891,8.582380255804358,0.3688888888888889,0.34444444444444444,-0.6944444444444444,-0.30134255091706985,-0.05506170061137992,-0.05134255091706988
1590514047.427943,-0.02,-4.211538952027306,8.613844191890776,0.3688888888888889,0.34444444444444444,-0.6944444444444444,-0.1538553505119838,0.04326309965867747,0.09614464948801621
1590514047.437943,-0.05685693996831813,-4.219214234992079,8.675285409952476,0.3688888888888889,0.34444444444444444,-0.6944444444444444,0.2781227809034795,-0.11026690610149123,-0.04776690610149123
1590514047.447943,-0.033741261874887976,-4.193741261874888,8.767529127083707,0.3688888888888889,0.33180134831013125,-0.7148679074306427,0.4766171132819502,-0.015588591145366565,-0.0625
1590514047.457943,-0.05791469415358783,-4.18,8.749573470767938,0.3688888888888889,0.33,-0.7177777777777777,-0.026066323080152047,0.0625,-0.006516580770038012
1590514047.467943,-0.03909454368384633,-4.186338194213075,8.655472718419231,0.3688888888888889,0.33,-0.7177777777777777,-0.26131820395192085,0.05684089802403957,-0.05684089802403957
1590514047.477943,-0.03242016491754123,-4.246369752623688,8.624520989505246,0.3688888888888889,0.33,-0.7177777777777777,-0.3220588924287856,-0.015126030734632683,0.007563015367316342
1590514047.487943,-0.048140929535232385,-4.2227886056971515,8.718845577211395,0.3688888888888889,0.33,-0.7177777777777777,0.021832833583208366,-0.11338080959520239,0.05669040479760119
1590514047.497943,-0.03943436370935367,-4.189717181854677,8.78,0.3644444444444445,0.3511111111111111,-0.7033333333333334,0.5536619329586512,0.11969715977519069,0.11792954636692092
1590514047.507943,-0.022596547571256523,-4.181298273785628,8.78,0.3644444444444445,0.3511111111111111,-0.7033333333333334,0.29057105580088316,-0.038157366519470076,-0.09254315535929344
1590514047.517943,-0.031186062311947975,-4.191779093467923,8.688220906532077,0.3644444444444445,0.3511111111111111,-0.7033333333333334,-0.011119334174512278,-0.17638066582548773,-0.011119334174512278
1590514047.527943,-0.04746986314665631,-4.216204794719984,8.663795205280016,0.3644444444444445,0.3511111111111111,-0.7033333333333334,-0.16377996699990294,-0.023720033000097063,-0.16377996699990294
1590514047.537943,-0.03879827986909298,-4.214399139934546,8.665600860065453,0.3644444444444445,0.3511111111111111,-0.7033333333333334,-0.2575107508181689,-0.03500537540908444,-0.11748924918183112
1590514047.5479429,-0.035857848222065475,-4.21,8.705147089332392,0.3755092688639015,0.3472058789630674,-0.7117946696540945,0.05361551387909219,-0.02588844861209079,0.010723102775818422
1590514047.5579429,-0.05412378195638244,-4.195876218043618,8.72293810902181,0.38333333333333336,0.34444444444444444,-0.7177777777777777,0.2683631813863049,-0.04413681861369512,-0.025773637227390234
1590514047.5679429,-0.03091772533742437,-4.190917725337425,8.650458862668712,0.38333333333333336,0.34444444444444444,-0.7177777777777777,-0.07683945839725578,0.17889632496164654,-0.05963210832054884
1590514047.5779428,-0.04537758778204885,-4.205377587782049,8.657688793891024,0.38333333333333336,0.34444444444444444,-0.7177777777777777,-0.30277480909451326,0.04333511454329203,-0.014445038181097339
1590514047.5879428,-0.041951996841155234,-4.218048003158844,8.676096006317689,0.38333333333333336,0.34444444444444444,-0.7177777777777777,-0.27439996051444043,-0.15090005922833935,0.15090005922833935
1590514047.5979428,-0.032971562744586486,-4.205943125489173,8.729199060787895,0.36459083398556397,0.34444444444444444,-0.7177777777777777,0.05749412992434122,0.07606639707800678,0.011789068614662168
1590514047.6079428,-0.03,-4.170376623849205,8.769748917433862,0.3566666666666667,0.34444444444444444,-0.7177777777777777,0.43436146792329244,0.0023538990575306673,-0.12421536698082311
1590514047.6179428,-0.0383164397528939,-4.17,8.711784921729741,0.3566666666666667,0.34444444444444444,-0.7177777777777777,0.3335445030888262,-0.05197774845558688,-0.07302225154441312
1590514047.6279428,-0.03923016465595159,-4.171283058906747,8.671283058906747,0.3566666666666667,0.34444444444444444,-0.7177777777777777,-0.1314152945337368,-0.1266038236334342,-0.1201885290996974
1590514047.6379428,-0.014506425118874528,-4.212489291468542,8.712489291468543,0.3566666666666667,0.34444444444444444,-0.7177777777777777,-0.3374464573427123,-0.17811161433567807,0.03433484300703424
1590514047.6479428,-0.030293853136176354,-4.209706146863824,8.72088155940853,0.3644444444444445,0.34444444444444444,-0.7033333333333334,-0.3547975968878757,0.06066341789889779,-0.12132683579779557
1590514047.6579428,-0.039066153556564114,-4.200933846443436,8.747198460669692,0.3644444444444445,0.34444444444444444,-0.7033333333333334,0.24829805701378282,0.005836540271474282,-0.011673080542948563
1590514047.6679428,-0.04000835679099226,-4.199991643209008,8.68,0.3644444444444445,0.34444444444444444,-0.7033333333333334,0.31236942514074595,0.06257834491555243,-0.18744777005629837
1590514047.6779428,-0.05845619282195637,-4.181543807178043,8.68,0.3644444444444445,0.34444444444444444,-0.7033333333333334,0.024121987156931757,0.23552680770584097,-0.0721487948627727
1590514047.6879427,-0.027107003016881702,-4.212892996983118,8.70466974773734,0.3644444444444445,0.34444444444444444,-0.7033333333333334,-0.05139530778612234,0.04441876885551063,-0.0625
1590514047.6979427,-0.027208305654959606,-4.22,8.73162491696488,0.3644444444444445,0.34924998154775083,-0.7073379475860887,-0.19765573103049267,-0.045051910343497543,0.027603820686995087
1590514047.7079427,-0.03,-4.203081408956155,8.723081408956157,0.3644444444444445,0.3511111111111111,-0.7088888888888889,-0.10901174130129507,0.04324119402402872,0.027252935325323767
1590514047.7179427,-0.036742168674698795,-4.169773493975904,8.689773493975904,0.3644444444444445,0.3511111111111111,-0.7088888888888889,0.16855421686746988,0.125,-0.04213855421686747
1590514047.7279427,-0.027143648814471757,-4.172856351185528,8.699284526778293,0.3644444444444445,0.3511111111111111,-0.7088888888888889,0.08929561018089696,0.004471707635672714,-0.0625
1590514047.7379427,-0.027027408540171743,-4.208109634160687,8.71,0.3644444444444445,0.3511111111111111,-0.7088888888888889,-0.219606516880367,-0.1503426067521468,0.025342606752146807
1590514047.7479427,-0.03980594486369937,-4.22,8.7296118897274,0.36880264216164416,0.33040967195441245,-0.6947247463079897,-0.12863853380563683,-0.12621284460187895,-0.060074310796242106
1590514047.7579427,-0.04,-4.22,8.720809325710219,0.3688888888888889,0.33,-0.6944444444444444,0.04732514293341636,-0.010116571377722414,0.052383428622277586
1590514047.7679427,-0.058825871135793975,-4.182348257728412,8.635283579888927,0.3688888888888889,0.33,-0.6944444444444444,0.2389925418980685,0.05883084729935617,0.0625
1590514047.7779427,-0.040387760628215544,-4.18,8.730387760628217,0.3688888888888889,0.33,-0.6944444444444444,0.24394124018413213,0.18144124018413213,0.06371175196317357
1590514047.7879426,-0.05553100460330355,-4.18,8.745531004603304,0.3688888888888889,0.33,-0.6944444444444444,0.0073280530733820515,-0.05517194692661795,0.11103438938532359
1590514047.7979426,-0.05080289927207118,-4.207591302183786,8.722408697816213,0.3688888888888889,0.3371533005661669,-0.7097729456576591,-0.3499093977477758,-0.06751812045044485,-0.04744563864866547
1590514047.8079426,-0.03175615860582605,-4.200878079302913,8.683512317211651,0.3688888888888889,0.3377777777777778,-0.7111111111111111,-0.08993997821603206,-0.005487995643206414,-0.005487995643206414
1590514047.8179426,-0.03,-4.2,8.64031206116399,0.3688888888888889,0.3377777777777778,-0.7111111111111111,0.24756202215634265,0.12402480886253706,0.0
1590514047.8279426,-0.04,-4.180465695247858,8.70077615874643,0.3688888888888889,0.3377777777777778,-0.7111111111111111,0.249029801566962,0.185559603133924,-0.186529801566962
1590514047.8379426,-0.04,-4.203499487442337,8.739165812403895,0.3688888888888889,0.3377777777777778,-0.7111111111111111,0.20104273449513071,0.0895854689902614,-0.13854273449513071
1590514047.8479426,-0.021944344488425097,-4.203981448162809,8.743981448162808,0.35752051319641576,0.3417901456692389,-0.7010801913824584,-0.0005797449122386111,0.10011594898244772,-0.08738405101755228
1590514047.8579426,-0.014178824154351084,-4.208357648308702,8.731642351691299,0.35,0.34444444444444444,-0.6944444444444444,-0.07276469807061145,0.07276469807061145,-0.036382349035305725
1590514047.8679426,-0.028630893062476046,-4.215684553468762,8.67684553468762,0.35,0.34444444444444444,-0.6944444444444444,0.10788616328095055,0.0,-0.08091462246071292
1590514047.8779426,-0.048211278696468594,-4.177154885214126,8.661056393482342,0.35,0.34444444444444444,-0.6944444444444444,0.25,-0.0513204918529287,0.01778196741171481
1590514047.8879426,-0.04240990753806946,-4.17,8.730720739695444,0.35,0.34444444444444444,-0.6944444444444444,0.20256192211293414,-0.15737615577413172,-0.07981423366119758
1590514047.8979425,-0.04829146958081879,-4.186582939161638,8.758291469580819,0.3619765671722939,0.3389167980572319,-0.7018146396273945,-0.01978673952046975,-0.1875,-0.125
1590514047.9079425,-0.04101971944493414,-4.216940841665197,8.742039438889869,0.3644444444444445,0.3377777777777778,-0.7033333333333334,-0.39926052081496965,0.09313376734580803,-0.18112675346916163
1590514047.9179425,-0.010089784320303097,-4.212522446080076,8.665224460800758,0.3644444444444445,0.3377777777777778,-0.7033333333333334,-0.11035701600331516,0.03153057600094718,-0.047295864001420745
1590514047.9279425,-0.03652762119503946,-4.21,8.71305524239008,0.3644444444444445,0.3377777777777778,-0.7033333333333334,0.17122322435174744,0.0,-0.05707440811724916
1590514047.9379425,-0.05412127329752334,-4.202939363351239,8.748242546595046,0.3644444444444445,0.3377777777777778,-0.7033333333333334,0.23162897905476046,0.13238693716428135,-0.15075795810952092
1590514047.9479425,-0.04180101515635538,-4.190900507578178,8.787298477265466,0.3684886632985877,0.3438441060589926,-0.7225433728905137,0.07938451709083166,0.13062817236361055,-0.0737563447272211
1590514047.9579425,-0.02774174482447545,-4.202258255175525,8.722579596534615,0.3688888888888889,0.34444444444444444,-0.7244444444444444,-0.052421142270542676,0.08669295257648578,-0.0625
1590514047.9679425,-0.033744862599726005,-4.216872431299863,8.645637843500685,0.3688888888888889,0.34444444444444444,-0.7244444444444444,0.046810782496575054,-0.023405391248287527,-0.10545269562414376
1590514047.9779425,-0.04,-4.210856049864905,8.64828790027019,0.3688888888888889,0.34444444444444444,-0.7244444444444444,0.125,-0.005350311655653944,-0.125
1590514047.9879425,-0.04,-4.18074399199562,8.745082026014234,0.3688888888888889,0.34444444444444444,-0.7244444444444444,0.17071251250684336,0.0,-0.033574974986313275
1590514047.9979424,-0.04,-4.188142838439382,8.773952387186872,0.37762432961896175,0.34847618631986266,-0.7116772618389534,0.11190483983590818,0.07559516016409182,0.11339274024613774
1590514048.0079424,-0.03219405136268344,-4.184388102725367,8.74658215408805,0.38333333333333336,0.3511111111111111,-0.7033333333333334,-0.08386153694968554,0.27136153694968557,0.04113846305031446
1590514048.0179424,-0.021010763109569473,-4.206967710671291,8.641118394205265,0.38333333333333336,0.3511111111111111,-0.7033333333333334,-0.23736546113038154,0.14395180830442766,-0.056182730565190776
1590514048.0279424,-0.03697581906762616,-4.193024180932374,8.697903276270505,0.38333333333333336,0.3511111111111111,-0.7033333333333334,-0.09085169624100481,0.01890113082733652,-0.00945056541366826
1590514048.0379424,-0.033213396870719426,-4.176426793741439,8.730359809387842,0.38333333333333336,0.3511111111111111,-0.7033333333333334,0.06474880867401075,0.0,-0.08483253911600719
1590514048.0479424,-0.0458877858758482,-4.177943892937924,8.771775571751697,0.36832820222836565,0.34051925386054566,-0.6918588213118874,0.17464933086202564,0.04964933086202563,-0.02570133827594874
1590514048.0579424,-0.0428114211445514,-4.18,8.772811421144551,0.3644444444444445,0.3377777777777778,-0.6888888888888889,0.007785528613784981,0.1523572356931075,-0.044928617846553755
1590514048.0679424,-0.04,-4.190671654545109,8.695298418184235,0.3644444444444445,0.3377777777777778,-0.6888888888888889,-0.12919784090693304,0.12080215909306698,-0.0625
1590514048.0779424,-0.04,-4.2,8.661944495497151,0.3644444444444445,0.3377777777777778,-0.6888888888888889,-0.027777522514243702,-0.01736123874287815,-0.0625
1590514048.0879424,-0.033548717536706366,-4.1870974350734125,8.699353847389881,0.3644444444444445,0.3377777777777778,-0.6888888888888889,0.10282051539558519,-0.0625,-0.10282051539558519
1590514048.0979424,-0.04552854629777707,-4.195528546297777,8.75658563889333,0.3644444444444445,0.3481301419762958,-0.7164951934182704,0.17352670718055332,-0.013973292819446669,-0.027946585638893337
1590514048.1079423,-0.03778102113229973,-4.2,8.7455620422646,0.3644444444444445,0.3511111111111111,-0.7244444444444444,0.11113138207687333,0.038184308961563336,0.0
1590514048.1179423,-0.03,-4.2,8.662026933701657,0.3644444444444445,0.3511111111111111,-0.7244444444444444,-0.07911055478821363,-0.07911055478821363,0.0
1590514048.1279423,-0.03,-4.2081906955320125,8.64,0.3644444444444445,0.3511111111111111,-0.7244444444444444,-0.07380815292491939,-0.07380815292491939,0.0
1590514048.1379423,-0.03,-4.19066753629764,8.710885700241985,0.3644444444444445,0.3511111111111111,-0.7244444444444444,-0.10277596604658198,-0.0625,0.0
1590514048.1479423,-0.03731093764813703,-4.187310937648137,8.757310937648137,0.3676937500658387,0.3462371526790198,-0.6984499994732906,0.05777344120342573,-0.0625,0.0
1590514048.1579423,-0.04,-4.198680548343546,8.76,0.3688888888888889,0.34444444444444444,-0.6888888888888889,0.01649314570568075,0.04600685429431925,-0.054253427147159625
1590514048.1679423,-0.024582470669427193,-4.207708764665286,8.659786059351278,0.3688888888888889,0.34444444444444444,-0.6888888888888889,0.0,0.11067977915804003,0.17839889579020013
1590514048.1779423,-0.011910877907432062,-4.193821755814865,8.67044561046284,0.3688888888888889,0.34444444444444444,-0.6888888888888889,0.0,0.125,0.047771947685801536
1590514048.1879423,-0.02300980723706459,-4.196504903618533,8.699514710855597,0.3688888888888889,0.34444444444444444,-0.6888888888888889,0.0,0.0436887047683463,-0.04065564761582685
1590514048.1979423,-0.045017372281559644,-4.1849826277184405,8.74003474456312,0.36555169504854235,0.33359856446331804,-0.7105806488511417,0.046929288379873896,-0.09385857675974779,-0.015570711620126104
1590514048.2079422,-0.02530044778275314,-4.188233184072416,8.725300447782754,0.3644444444444445,0.33,-0.7177777777777777,-0.04041480090519525,-0.022085199094804747,0.0
1590514048.2179422,-0.03542892812555734,-4.197714464062779,8.642855359372213,0.3644444444444445,0.33,-0.7177777777777777,-0.0625,0.09643080078473337,-0.09643080078473337
1590514048.2279422,-0.04,-4.2,8.660626014870523,0.3644444444444445,0.33,-0.7177777777777777,-0.18945629647038714,-0.0442750619605162,-0.08268123450987094
1590514048.2379422,-0.03188641587032781,-4.2,8.704340752389017,0.3644444444444445,0.33,-0.7177777777777777,-0.19929009918954882,-0.0742900991895488,-0.0371450495947744
1590514048.2479422,-0.021051477331632044,-4.198948522668368,8.743154431994896,0.3629256438543093,0.33151880059013517,-0.7177777777777777,-0.1052848000318992,0.013143466645400535,0.006571733322700267
1590514048.2579422,-0.025915251042081228,-4.177745753126244,8.765915251042081,0.35,0.34444444444444444,-0.7177777777777777,0.08802968098699232,0.07394063802601537,-0.03961872394796925
1590514048.2679422,-0.030873670845897476,-4.170873670845897,8.705631645770513,0.35,0.34444444444444444,-0.7177777777777777,0.09101977860657039,0.06796044278685923,-0.08555933581971115
1590514048.2779422,-0.04,-4.190994853273137,8.670994853273138,0.35,0.34444444444444444,-0.7177777777777777,0.02814108352144469,0.05628216704288938,0.03435891647855531
1590514048.2879422,-0.04454545454545455,-4.1909090909090905,8.693636363636363,0.35,0.34444444444444444,-0.7177777777777777,-0.08522727272727273,0.028409090909090908,0.0625
1590514048.2979422,-0.05958296243546378,-4.194374443653196,8.724374443653197,0.36277728324728503,0.3412501236326232,-0.7039357209265523,-0.12760648477835143,-0.05728703044329714,0.002606484778351431
1590514048.3079422,-0.04366293731131238,-4.1902472029834845,8.753168531344343,0.37666666666666665,0.3377777777777778,-0.6888888888888889,-0.021348339548925586,-0.10519667909785117,-0.021348339548925586
1590514048.3179421,-0.035553722983884824,-4.19110744596777,8.698909047177267,0.37666666666666665,0.3377777777777778,-0.6888888888888889,-0.06942153729856028,-0.13192153729856027,0.06942153729856028
1590514048.3279421,-0.02903773971200437,-4.194518869856003,8.655481130143999,0.37666666666666665,0.3377777777777778,-0.6888888888888889,-0.22777119019995906,-0.11898587320002729,0.05648587320002729
1590514048.3379421,-0.037042418004394215,-4.195680806001465,8.688404030007325,0.37666666666666665,0.3377777777777778,-0.6888888888888889,-0.3125,0.008510075018309221,0.03550503750915461
1590514048.347942,-0.03787319954197553,-4.193936599770988,8.73425360091605,0.37666666666666665,0.3377777777777778,-0.6976471336641288,-0.1988112457060206,-0.051188754293979385,0.10039625143132647
1590514048.357942,-0.03,-4.175557972645213,8.757221013677393,0.37666666666666665,0.3377777777777778,-0.7033333333333334,0.1457880129022579,0.010394006451128951,0.07986866451629035
1590514048.367942,-0.04511855429958561,-4.1926778314493784,8.684407228502073,0.37666666666666665,0.3377777777777778,-0.7033333333333334,0.25,0.10974548218620503,-0.03199096437241007
1590514048.377942,-0.019774649218122553,-4.184887324609061,8.675112675390938,0.37666666666666665,0.3377777777777778,-0.7033333333333334,0.06109155761326593,0.17222711059668352,-0.0625
1590514048.387942,-0.03100232635427052,-4.195751744765703,8.70100232635427,0.37666666666666665,0.3377777777777778,-0.7033333333333334,-0.13126453971419078,0.08905159521435693,0.06876453971419078
1590514048.397942,-0.05,-4.205178448991376,8.72964310201725,0.3670235646494172,0.3377777777777778,-0.71351216324043,-0.15959591858828626,0.03013469380390459,0.1875
1590514048.407942,-0.03681275090804818,-4.191208500605366,8.735604250302684,0.3566666666666667,0.3377777777777778,-0.7244444444444444,0.01992030682469892,0.007553128783534063,0.10507969317530108
1590514048.417942,-0.03253614055897398,-4.185014456223589,8.714956631329231,0.3566666666666667,0.3377777777777778,-0.7244444444444444,0.09365964860256505,0.00018070279486989693,0.0
1590514048.427942,-0.05212536674984233,-4.2,8.699791055416929,0.3566666666666667,0.3377777777777778,-0.7244444444444444,-0.03723881927116181,0.03854472291535277,0.07447763854232362
1590514048.437942,-0.034766238263814066,-4.205233761736186,8.714766238263815,0.3566666666666667,0.3377777777777778,-0.7244444444444444,-0.0625,0.002922021702324154,0.059577978297675846
1590514048.447942,-0.03363194077207826,-4.199104177683765,8.713631940772078,0.3542453728186145,0.34463811034725894,-0.7220231505963922,-0.0625,0.017100740349021683,0.0
1590514048.457942,-0.04,-4.183240712858277,8.716759287141723,0.35,0.3566666666666667,-0.7177777777777777,-0.0625,-0.10300891072846231,-0.04050891072846231
1590514048.467942,-0.04,-4.186327642726383,8.684293499084678,0.35,0.3566666666666667,-0.7177777777777777,-0.03954776703989101,-0.07273883519945507,-0.07909553407978202
1590514048.477942,-0.04,-4.184849555414417,8.654548666243253,0.35,0.3566666666666667,-0.7177777777777777,-0.06061944268021594,0.06438055731978407,0.03030972134010797
1590514048.487942,-0.03491012598176164,-4.19,8.70053924410943,0.35,0.3566666666666667,-0.7177777777777777,-0.06137657477202045,0.031811712613989775,-0.0011234252279795492
1590514048.497942,-0.035146134333296566,-4.195146134333297,8.735146134333297,0.3597204759628935,0.34294364177787584,-0.7212085339999754,-0.03216333958310356,0.0625,-0.0625
1590514048.507942,-0.026954745585765515,-4.2,8.726954745585767,0.3688888888888889,0.33,-0.7244444444444444,-0.10326642004448278,0.10326642004448278,-0.021733579955517224
1590514048.517942,-0.02,-4.193776650458201,8.688883252291005,0.3688888888888889,0.33,-0.7244444444444444,-0.125,0.16389593463624463,0.038895934636244626
1590514048.527942,-0.040007758553805575,-4.19,8.703346264256343,0.3688888888888889,0.33,-0.7244444444444444,-0.08331716967957173,-0.020914151602141384,0.0625
1590514048.537942,-0.046152654779397166,-4.182305309558795,8.731542035661809,0.3688888888888889,0.33,-0.7244444444444444,-0.038454092371232276,-0.125,0.0625
1590514048.547942,-0.04060045272229062,-4.171200905444581,8.748198641833127,0.3688888888888889,0.33,-0.7244444444444444,-0.0037528295143163526,-0.125,0.0625
1590514048.557942,-0.04,-4.2,8.748007509974185,0.3688888888888889,0.34444444444444444,-0.6944444444444444,-0.15002346866932645,-0.16247653133067355,0.0625
1590514048.567942,-0.03432795001768242,-4.2,8.686263350229872,0.3688888888888889,0.34444444444444444,-0.6944444444444444,-0.15204968761051516,-0.01864906283154545,0.027049687610515148
1590514048.577942,-0.018383855795513313,-4.194191927897757,8.682272648920192,0.3688888888888889,0.34444444444444444,-0.6944444444444444,-0.0886995493609791,0.1351009012780418,-0.10890135191706271
1590514048.587942,-0.019382883391693966,-4.199382883391694,8.72,0.3688888888888889,0.34444444444444444,-0.6944444444444444,-0.033178489400956364,0.1288569788019127,-0.09953546820286908
1590514048.5979419,-0.027303262767564597,-4.21,8.728090211697307,0.3688888888888889,0.34444444444444444,-0.6944444444444444,-0.016854607702721264,0.07935460770272126,0.016854607702721264
1590514048.6079419,-0.023882033563672262,-4.211941016781836,8.75,0.3688888888888889,0.34444444444444444,-0.6944444444444444,-0.0625,0.08860593534057257,0.07463135488647582
1590514048.6179419,-0.035975945697772814,-4.211951891395546,8.709759456977729,0.3688888888888889,0.34444444444444444,-0.6944444444444444,0.06325169694459948,-0.0373496606110801,0.09984966061108011
1590514048.6279418,-0.03360312885961301,-4.196396871140387,8.657206257719226,0.3688888888888889,0.34444444444444444,-0.6944444444444444,0.18244133388225608,0.0,0.03998044462741869
1590514048.6379418,-0.04,-4.19,8.693126441479578,0.3688888888888889,0.34444444444444444,-0.6944444444444444,0.1106800864157884,0.0,0.0
1590514048.6479418,-0.04,-4.19,8.729861617960472,0.3688888888888889,0.34444444444444444,-0.6944444444444444,0.18721170408431378,0.0,0.0
1590514048.6579418,-0.03,-4.205809649122807,8.754190350877193,0.3688888888888889,0.34444444444444444,-0.7033333333333334,-0.08868969298245614,0.08868969298245614,-0.07856907894736842
1590514048.6679418,-0.03555614286793023,-4.2055561428679304,8.693326285584838,0.3688888888888889,0.34444444444444444,-0.7033333333333334,-0.02082232122630824,0.09027410707543608,-0.08332232122630824
