time,acc_x,acc_y,acc_z,mag_x,mag_y,mag_z,gyr_x,gyr_y,gyr_z
1590512478.4339285,-3.83,-0.48,9.0,0.2822222222222222,-0.33,-0.6911111111111111,-0.125,-0.0625,0.0
1590512478.4439285,-3.8325889702714346,-0.49741102972856527,8.93517794054287,0.2822222222222222,-0.33,-0.6911111111111111,0.14815946790176648,-0.22684053209823352,0.0625
1590512478.4539285,-3.8293686264403783,-0.5193686264403785,8.947474505761514,0.2822222222222222,-0.33,-0.6911111111111111,0.21677695762618268,-0.12894608474763466,0.003946084747634658
1590512478.4639285,-3.82815503875969,-0.5122325581395349,9.043302325581395,0.2822222222222222,-0.33,-0.6911111111111111,0.25,-0.099515503875969,-0.136531007751938
1590512478.4739285,-3.827992149234029,-0.5079921492340292,9.08,0.2822222222222222,-0.33976818239714685,-0.6742387960614938,0.2000490672873172,-0.0750490672873172,0.012303730850731248
1590512478.4839284,-3.824099401178064,-0.49229820353419157,9.068198802356129,0.2822222222222222,-0.3422222222222222,-0.67,0.07686377208869744,0.048136227911302565,-0.0112574852742017
1590512478.4939284,-3.827132739609839,-0.48,8.988672603901612,0.2822222222222222,-0.3422222222222222,-0.67,-0.08915924512298558,0.08042037743850722,-0.0625
1590512478.5039284,-3.83,-0.49342798801549587,8.973427988015496,0.2822222222222222,-0.3422222222222222,-0.67,-0.2089249250968493,0.0625,0.02142492509684929
1590512478.5139284,-3.841068630523347,-0.4944656847383265,8.991068630523348,0.2822222222222222,-0.3422222222222222,-0.67,-0.1808210592290818,0.1316789407709182,0.1316789407709182
1590512478.5239284,-3.85,-0.4947878524001306,9.014363557200392,0.2854141238223093,-0.3305185830219029,-0.67,-0.06515184499836726,0.1875,0.15757592249918362
1590512478.5339284,-3.8354631349430672,-0.49273156747153357,9.022731567471533,0.2888888888888889,-0.31777777777777777,-0.67,0.04542770330291529,0.1420722966970847,0.125
1590512478.5439284,-3.821884372260416,-0.5062312554791676,8.930728094864579,0.2888888888888889,-0.31777777777777777,-0.67,0.2653906934895953,0.125,0.023554653255202326
1590512478.5539284,-3.8286145331190857,-0.51,8.978916264952687,0.2888888888888889,-0.31777777777777777,-0.67,0.20481833601142652,0.01731833601142653,0.0
1590512478.5639284,-3.8367998286586955,-0.5032001713413045,8.996799828658695,0.2888888888888889,-0.31777777777777777,-0.67,0.22999892911684733,-0.042498929116847314,0.042498929116847314
1590512478.5739284,-3.84,-0.5,9.090538440442453,0.2838589755309748,-0.3269992856006203,-0.6641317677491003,0.014222811347777087,0.07896631319133376,0.015344562269555412
1590512478.5839283,-3.8318088423698904,-0.5,9.103617684739781,0.2822222222222222,-0.33,-0.6622222222222223,-0.01130526481181561,0.02261052962363122,-0.05119473518818439
1590512478.5939283,-3.8369227369520673,-0.47923178914379844,9.016927156575195,0.2822222222222222,-0.33,-0.6622222222222223,-0.1298013178512596,0.0,-0.0625
1590512478.6039283,-3.8176885474860334,-0.4848743016759776,8.972562849162012,0.2822222222222222,-0.33,-0.6622222222222223,-0.14101780726256982,0.0,0.030464385474860342
1590512478.6139283,-3.8222843914600086,-0.5022843914600086,9.000710978650021,0.2822222222222222,-0.33,-0.6622222222222223,-0.009833830062419169,-0.03838872331252695,0.02411127668747305
1590512478.6239283,-3.8162905917083814,-0.5031452958541908,9.01314529585419,0.2776524194583494,-0.33,-0.6622222222222223,0.1053419009113079,-0.1053419009113079,0.08568380182261583
1590512478.6339283,-3.820483381714994,-0.494758309142503,9.020483381714994,0.27555555555555555,-0.33,-0.6622222222222223,0.02671829642193156,-0.05947886428128771,0.02671829642193156
1590512478.6439283,-3.8350660740505575,-0.4849339259494424,8.959074963292194,0.27555555555555555,-0.33,-0.6622222222222223,0.06415185126393905,0.0,-0.0625
1590512478.6539283,-3.84,-0.48742539378994515,8.934552362739671,0.27555555555555555,-0.33,-0.6622222222222223,0.04827386643852849,0.0,-0.0625
1590512478.6639283,-3.827472692436842,-0.483736346218421,8.981318268907895,0.27555555555555555,-0.33,-0.6622222222222223,-0.03914783613486874,0.03914783613486874,-0.1407956722697375
1590512478.6739283,-3.8296870135879852,-0.4848435067939927,9.014530520381978,0.2728647184477819,-0.32677099547067157,-0.6622222222222223,-0.183587669849817,0.0019561650750914983,-0.1269561650750915
1590512478.6839283,-3.8267699081454487,-0.516460183709102,9.023384954072725,0.27,-0.3233333333333333,-0.6622222222222223,-0.3125,-0.0211559629545282,-0.1451880740909436
1590512478.6939282,-3.8255323818139177,-0.5134028545582471,8.981273327302576,0.27,-0.3233333333333333,-0.6622222222222223,-0.4162321590109559,0.0,-0.11834522732602941
1590512478.7039282,-3.806217983651226,-0.5118910081743869,8.991618528610354,0.27,-0.3233333333333333,-0.6622222222222223,-0.38852179836512263,-0.03715940054495913,-0.0625
1590512478.7139282,-3.8136529372045915,-0.5140867656988521,9.04956617150574,0.27,-0.3233333333333333,-0.6622222222222223,-0.3125,0.04837314314652262,-0.0625
1590512478.7239282,-3.83,-0.5030782704262114,9.07,0.27845989170129704,-0.33333138716213895,-0.6722202760510279,-0.18271757049146548,-0.09130404918089088,-0.14902161967235633
1590512478.7339282,-3.8219881449810513,-0.5080118550189486,9.07,0.2822222222222222,-0.3377777777777778,-0.6766666666666666,-0.02485181226314255,-0.08735181226314255,-0.13742590613157127
1590512478.7439282,-3.82,-0.5020379716981133,8.966493632075471,0.2822222222222222,-0.3377777777777778,-0.6766666666666666,0.2985760613207547,-0.11226267688679245,-0.125
1590512478.7539282,-3.812268474450352,-0.5077315255496483,8.955463051099297,0.2822222222222222,-0.3377777777777778,-0.6766666666666666,0.1817118612587932,0.0199661040559051,-0.07667796531469831
1590512478.7639282,-3.815486918852543,-0.4990261622949142,8.981947675410172,0.2822222222222222,-0.3377777777777778,-0.6766666666666666,0.19358648565678616,0.028206757171606922,-0.028206757171606922
1590512478.7739282,-3.814643808601183,-0.4953561913988167,8.994643808601184,0.2756757660681129,-0.3336118511342537,-0.6689299457572647,0.1495714112721863,0.1339047849704183,0.0
1590512478.7839282,-3.824640418869668,-0.5073202094348339,9.019280837739336,0.27,-0.33,-0.6622222222222223,0.15400261793542425,0.15849738206457575,-0.04575130896771213
1590512478.7939281,-3.8428934820423617,-0.51,8.965532589788191,0.27,-0.33,-0.6622222222222223,-0.013960656911900127,0.04441573723523995,-0.022207868617619975
1590512478.8039281,-3.85,-0.51,8.966931860866952,0.27,-0.33,-0.6622222222222223,-0.24041206520922545,0.03847068840307515,-0.0769413768061503
1590512478.8139281,-3.834496832121895,-0.4996645547479302,9.02100633575621,0.27,-0.33,-0.6622222222222223,-0.34479826641271816,-0.0020965328254363147,-0.028105200761845528
1590512478.823928,-3.82,-0.49,9.068640312581856,0.2720711458424285,-0.32751462498908585,-0.6572514722003939,-0.3283992185453593,-0.08580039072732035,0.10910078145464071
1590512478.833928,-3.8252562470157567,-0.4952562470157568,9.089487505968487,0.27555555555555555,-0.3233333333333333,-0.6488888888888888,-0.25,-0.09214845615151998,0.12179691230303995
1590512478.843928,-3.82498915075444,-0.5050108492455602,9.029891507544399,0.27555555555555555,-0.3233333333333333,-0.6488888888888888,-0.18736438443049808,-0.0625,-0.00013561556950193732
1590512478.853928,-3.82,-0.5198419827691805,8.99476297415377,0.27555555555555555,-0.3233333333333333,-0.6488888888888888,-0.032731411538932664,-0.0625,-0.0932561961536891
1590512478.863928,-3.830873643282289,-0.5082527134354211,9.004563178358856,0.27555555555555555,-0.3233333333333333,-0.6488888888888888,0.13046027051430886,0.03944040577146332,0.044900676285772184
1590512478.873928,-3.829554008451646,-0.49,8.994777004225822,0.27903755273834013,-0.3233333333333333,-0.6599152133010401,0.25278744717721097,0.09235627641139452,0.056925105645578095
1590512478.883928,-3.8266009009235726,-0.4966009009235725,9.036206306465008,0.2822222222222222,-0.3233333333333333,-0.67,0.2712443692276719,0.18626689231698418,-0.021244369227671943
1590512478.893928,-3.8432959274325524,-0.5,8.980224435404685,0.2822222222222222,-0.3233333333333333,-0.67,0.25,0.04225113386636742,-0.04154977322672651
1590512478.903928,-3.83011692396341,-0.4933723079878034,8.973138460060984,0.2822222222222222,-0.3233333333333333,-0.67,0.16715384984754267,-0.10392307507622867,0.10319230030491466
1590512478.913928,-3.825402521447799,-0.5008050428955981,9.011610085791196,0.2822222222222222,-0.3233333333333333,-0.67,0.125,-0.15876575904874413,0.05243696380502355
1590512478.923928,-3.83,-0.51,9.052255776989853,0.2851896591542025,-0.3233333333333333,-0.6635705533140428,0.04154083628805477,-0.15968027876268492,-0.034680278762684924
1590512478.933928,-3.83,-0.5218705102512718,9.05032372437182,0.2888888888888889,-0.3233333333333333,-0.6555555555555556,-0.0625,-0.08790465546477572,0.03709534453522429
1590512478.943928,-3.8242636880422856,-0.5127910641268575,8.984109504338287,0.2888888888888889,-0.3233333333333333,-0.6555555555555556,-0.0625,-0.13420389947142713,0.0625
1590512478.953928,-3.831984034494814,-0.505992017247407,8.979960086237035,0.2888888888888889,-0.3233333333333333,-0.6555555555555556,-0.025049892203705862,-0.11259978440741172,-0.012400215592588276
1590512478.963928,-3.8299159242960896,-0.5049579621480448,9.005042037851956,0.2888888888888889,-0.3233333333333333,-0.6555555555555556,0.0630254731494401,-0.0625,0.0005254731494400977
1590512478.973928,-3.8231622582796176,-0.5031622582796177,9.019486774838853,0.28467254451606533,-0.3215765231779901,-0.6576637277419674,0.14476411424761057,-0.042735885752389416,0.042735885752389416
1590512478.983928,-3.8079851921865155,-0.5055970384373031,9.013582230623818,0.27555555555555555,-0.31777777777777777,-0.6622222222222223,0.2425370195337114,-0.05503701953371141,0.0
1590512478.993928,-3.784673711531331,-0.5140211345939933,8.956631442343344,0.27555555555555555,-0.31777777777777777,-0.6622222222222223,0.2540786058583612,-0.125,-0.11684278828327771
1590512479.003928,-3.801901929938994,-0.5141307600813414,8.949836549898324,0.27555555555555555,-0.31777777777777777,-0.6622222222222223,0.08831725050838353,-0.1497956873729041,-0.5475482484748494
1590512479.013928,-3.8739765319426334,-0.4989960886571056,9.038474576271186,0.27555555555555555,-0.31777777777777777,-0.6622222222222223,-0.11872555410691003,-0.10316166883963494,-1.2249022164276402
1590512479.023928,-3.9013136423557917,-0.5240677664160759,9.07834752556383,0.28024481102758086,-0.3220762619604676,-0.6547975677248489,-0.20948088502511847,-0.0659426550753554,-1.368114689849289
1590512479.033928,-3.8356474589169776,-0.5556474589169779,9.031294917833955,0.2888888888888889,-0.33,-0.6411111111111111,-0.25,-0.08161014530666603,-0.8426270541511094
1590512479.043928,-3.8280013195960003,-0.5000065979800031,8.986005938182002,0.2888888888888889,-0.33,-0.6411111111111111,-0.2125041237375019,0.11248762878749428,-0.8499752575749886
1590512479.053928,-3.7970529453015427,-0.4255794179523142,8.972947054698457,0.2888888888888889,-0.33,-0.6411111111111111,-0.1516452270336606,0.07993568110098177,-0.9641452270336606
1590512479.063928,-3.793297134297765,-0.40886475619851,9.012161890496275,0.2888888888888889,-0.33,-0.6411111111111111,-0.014190547518625099,0.08310708936103117,-0.743583458157594
1590512479.0739279,-3.81,-0.4460422659091449,9.053021132954571,0.28454851123736474,-0.33,-0.6552173384785646,0.125,0.12646343927544157,-0.4186179190339221
1590512479.0839279,-3.8189769457215625,-0.5044884728607812,9.053069162835312,0.27555555555555555,-0.33,-0.6844444444444444,0.18110591075976581,0.056105910759765815,-0.16584113386035126
1590512479.0939279,-3.8245846364765863,-0.5154153635234138,8.965846364765863,0.27555555555555555,-0.33,-0.6844444444444444,0.21615397797866415,0.125,-0.028653977978664154
1590512479.1039279,-3.82,-0.5142793884200852,8.937161834739744,0.27555555555555555,-0.33,-0.6844444444444444,0.1875,0.16075382237446736,0.0
1590512479.1139278,-3.82,-0.5005810430067513,8.978256870979745,0.27555555555555555,-0.33,-0.6844444444444444,0.040328796980490134,0.15806575939609802,0.029434240603901974
1590512479.1239278,-3.8231429091476414,-0.49,9.016285818295282,0.27555555555555555,-0.33244448489261014,-0.6753649291290355,-0.1053568178272401,0.125,0.0821431821727599
1590512479.1339278,-3.8255378531721016,-0.4810757063442031,9.03,0.27555555555555555,-0.3377777777777778,-0.6555555555555556,-0.2856073413949224,0.2365536706974612,0.0971115823256347
1590512479.1439278,-3.80610621371748,-0.47,8.97095140829929,0.27555555555555555,-0.3377777777777778,-0.6555555555555556,-0.6493361642657494,0.44012712319931196,0.0625
1590512479.1539278,-3.780340326197131,-0.47,8.861446386337807,0.27555555555555555,-0.3377777777777778,-0.6555555555555556,-0.8103729612679301,0.5609047209509476,0.0625
1590512479.1639278,-3.79,-0.4323614243616548,8.907084273084966,0.27555555555555555,-0.3377777777777778,-0.6555555555555556,-1.9349369474671978,1.9983382858930248,0.5486424361654841
1590512479.1739278,-3.79,-0.4392664175295919,8.927799252588775,0.27555555555555555,-0.3377777777777778,-0.6555555555555556,-2.8412173007589354,3.6382741632780733,1.2391417529591888
1590512479.1839278,-3.81,-0.5204676996319235,9.022792312269953,0.2822222222222222,-0.3233333333333333,-0.6622222222222223,-4.799432732362082,7.213721319785766,3.412827026073924
1590512479.1939278,-3.815406119886326,-0.5881091798294891,9.070812239772652,0.2822222222222222,-0.3233333333333333,-0.6622222222222223,-5.175682373934307,8.5625,4.1655293767761545
1590512479.2039278,-3.8959497930179534,-0.5968100413964094,9.108793305735727,0.2822222222222222,-0.3233333333333333,-0.6622222222222223,-4.653002069820468,7.820564828548027,3.717667356606823
1590512479.2139277,-3.929941090471276,-0.5621218180254558,9.080667999656002,0.2822222222222222,-0.3233333333333333,-0.6622222222222223,-3.0750249935500515,5.377702259631923,3.5715863648090815
1590512479.2239277,-3.832585747653977,-0.5250571651026513,9.014942834897349,0.27920160089606466,-0.3249809449657829,-0.6641444357934134,-1.4565191779699218,2.1005383559398436,4.229551694463796
1590512479.2339277,-3.814545176378022,-0.5168177645670324,9.034545176378021,0.27,-0.33,-0.67,-0.6619257332692223,0.3835183809065874,5.627833085631857
1590512479.2439277,-3.8258196227065207,-0.5274588681195624,9.016556981652167,0.27,-0.33,-0.67,-1.1828915065897148,0.8862735808424498,6.611174519769144
1590512479.2539277,-3.837073833925957,-0.49861744404936204,8.981382555950638,0.27,-0.33,-0.67,-1.4197147563271282,1.0721475632712822,7.908557310186153
1590512479.2639277,-3.851201382886776,-0.4782281763180639,9.001771823681937,0.27,-0.33,-0.67,-1.2464347450302506,0.4707216940363008,10.329948141745895
1590512479.2739277,-3.7769273052528867,-0.5010242315823711,8.99,0.27449135360763266,-0.33,-0.6622422074049981,-0.924697105220361,-0.0026386404293380905,13.069291754756872
1590512479.2839277,-3.6597801105183656,-0.5286028413545192,8.99,0.2822222222222222,-0.33,-0.6488888888888888,-0.5261967246027649,-0.6256871546301077,16.469193961643626
1590512479.2939277,-3.5295008319467556,-0.5760708343237462,8.946714998811505,0.2822222222222222,-0.33,-0.6488888888888888,-0.15469009983361065,-1.010265628714048,19.039049500831947
1590512479.3039277,-3.42551824369033,-0.6544817563096701,8.908618016825786,0.2822222222222222,-0.33,-0.6488888888888888,0.3965329308063144,-1.310340651290292,20.920225210322336
1590512479.3139277,-3.4256059827862604,-0.663757606885496,8.959363589671757,0.2822222222222222,-0.33,-0.6488888888888888,0.8435598278626013,-1.355492521517175,21.593559827862602
1590512479.3239276,-3.4582459416974056,-0.6507016233210379,8.978947565018444,0.2822222222222222,-0.33,-0.6488888888888888,1.1699594169740548,-1.314692572878243,21.919959416974056
1590512479.3339276,-3.0587523329600597,-0.5137579320642031,9.211243934303845,0.2822222222222222,-0.3377777777777778,-0.6622222222222223,0.31243001119820824,-0.4452512597984322,22.062453340798804
1590512479.3439276,-2.624752191752516,-0.5618440239690645,8.924217315582844,0.2822222222222222,-0.3377777777777778,-0.6622222222222223,0.5213437583020928,-0.01643445405437316,21.10198475366768
1590512479.3539276,-2.026297443051326,-0.501851278474337,8.737157244687909,0.2822222222222222,-0.3377777777777778,-0.6622222222222223,1.5671475476769705,0.21601474115785713,19.82334427791293
1590512479.3639276,-2.017002477790536,-0.5103562579319514,8.863144980963316,0.2822222222222222,-0.3377777777777778,-0.6622222222222223,0.7589064482987853,0.9749690276182994,17.161930788058257
1590512479.3739276,-2.1471393207433938,-0.4728565534572323,8.982852427657859,0.27650911530775757,-0.3377777777777778,-0.6561917204791762,-0.32141383643080845,-0.49106037732310637,9.384377988860342
1590512479.3839276,-2.185739880557399,-0.47289980092899797,9.021539482415394,0.26222222222222225,-0.3377777777777778,-0.6411111111111111,-0.38462176509621765,-0.45637027206370273,2.8724701393497014
1590512479.3939276,-2.240726217569413,-0.434248748293127,8.918497496586253,0.26222222222222225,-0.3377777777777778,-0.6411111111111111,0.47182806099226215,0.8546014451524806,-6.828725250341375
1590512479.4039276,-2.3811597047004955,-0.43610503691243807,8.941684889262685,0.26222222222222225,-0.3377777777777778,-0.6411111111111111,0.6144694421082142,1.4934351929726195,-14.341626950752266
1590512479.4139276,-2.444485570316079,-0.43,8.97448557031608,0.26222222222222225,-0.3377777777777778,-0.6411111111111111,0.6448557031607879,2.0379626660558863,-21.45087036188731
1590512479.4239275,-2.486320833499026,-0.4325283333996103,9.01505666679922,0.26320546298873737,-0.33862055557764786,-0.6420943518776262,1.0,2.5086093768640394,-27.98763023422277
1590512479.4339275,-2.56228692821022,-0.46844967326298287,9.036162745052764,0.27,-0.34444444444444444,-0.6488888888888888,0.9711723855265892,3.1729656868404645,-38.387124194702935
1590512479.4439275,-2.6144248953650595,-0.4996165969100398,8.967108716994781,0.27,-0.34444444444444444,-0.6488888888888888,0.9675518653438744,3.7656742494703663,-46.10862011057717
1590512479.4539275,-2.6347169566907036,-0.5241508700721103,8.91,0.27,-0.34444444444444444,-0.6488888888888888,1.0884429379506888,4.452828813852066,-53.26885066280927
1590512479.4639275,-2.6518412849010575,-0.5548016061263216,8.912960321225265,0.27,-0.34444444444444444,-0.6488888888888888,1.2060020076579019,4.879514053605313,-59.07222485768501
1590512479.4739275,-2.6802187683120797,-0.5901093841560399,8.920218768312079,0.26991492343419127,-0.3442135223372492,-0.6490347344302753,1.2527346039009961,5.192285556826743,-64.0724670033764
1590512479.4839275,-2.706866381359962,-0.6034331906799809,8.94,0.26222222222222225,-0.3233333333333333,-0.6622222222222223,1.5429148834997621,5.689372325249644,-71.69787208749406
1590512479.4939275,-2.7459474186843438,-0.6378422560530307,8.916210325262625,0.26222222222222225,-0.3233333333333333,-0.6622222222222223,1.7871713667771474,6.204442517274311,-78.60346855513735
1590512479.5039275,-2.78071970624235,-0.7076262749898001,8.877266421868624,0.26222222222222225,-0.3233333333333333,-0.6622222222222223,1.9613321093431253,6.903330273357813,-84.5436403508772
1590512479.5139275,-2.834024201749034,-0.7660103721781574,8.914006914785439,0.26222222222222225,-0.3233333333333333,-0.6622222222222223,2.150043217408989,7.400151260931462,-89.05170708765507
1590512479.5239275,-2.8932469219823056,-0.7943292293097404,8.934870382973457,0.2647476059862375,-0.3230326924090458,-0.6630038886253699,2.2466177896017654,7.773675472787643,-93.4498339829652
1590512479.5339274,-2.945146940543216,-0.8635292540576214,9.012720410814824,0.305114287089168,-0.3182271351348874,-0.6754983375381816,2.1925552702674835,8.152113108127617,-100.64014905442471
1590512479.5439274,-2.991683303173584,-0.9662874321405639,8.974950090479249,0.3088888888888889,-0.31777777777777777,-0.6766666666666666,2.169244838791275,8.351796450878524,-103.26580224933356
1590512479.5539274,-3.01802934193274,-1.035911974201779,8.89197065806726,0.3088888888888889,-0.31777777777777777,-0.6766666666666666,2.125,8.836216290442609,-108.56656419433715
1590512479.5639274,-3.013074580702761,-1.0815220649193291,8.903074580702762,0.3088888888888889,-0.31777777777777777,-0.6766666666666666,2.1634322587845163,9.206716129392259,-111.7012935638671
1590512479.5739274,-3.0197614948026272,-1.1283304636183915,8.909761494802627,0.3088888888888889,-0.31777777777777777,-0.6766666666666666,2.247018685032842,9.24850934251642,-113.4984017282061
1590512479.5839274,-3.02,-1.2491893975903614,8.906351325301205,0.3477777777777778,-0.2966666666666667,-0.6766666666666666,2.7162168674698797,9.56841265060241,-116.6216265060241
1590512479.5939274,-3.028019450447669,-1.324058351343007,8.86391247298549,0.3477777777777778,-0.2966666666666667,-0.6766666666666666,2.849939217351034,9.737621565297932,-118.61444504476691
1590512479.6039274,-3.0500775891555203,-1.3801551783110408,8.816718392770348,0.3477777777777778,-0.2966666666666667,-0.6766666666666666,2.896479909629336,9.854489954814667,-120.42135434481268
1590512479.6139274,-3.07756281143849,-1.4298316548700376,8.833781405719245,0.3477777777777778,-0.2966666666666667,-0.6766666666666666,3.0483197285528303,9.932773242850944,-121.74316892872642
1590512479.6239274,-3.140326365091954,-1.51142427461954,8.865163182545977,0.3477777777777778,-0.2966666666666667,-0.6766666666666666,2.9306380654525865,9.893546021817528,-122.72384945456177
1590512479.6339273,-3.1897041657384717,-1.5992604143461797,8.909556248607707,0.4079849508675528,-0.2583530110640826,-0.6766666666666666,2.6902734462018265,9.875,-124.41901035865449
1590512479.6439273,-3.1439517720419925,-1.6643890599100164,8.898536980029995,0.4088888888888889,-0.2577777777777778,-0.6766666666666666,2.380184900149972,9.89451367511248,-125.6862740745126
1590512479.6539273,-3.091864056341668,-1.7824854084555577,8.861864056341668,0.4088888888888889,-0.2577777777777778,-0.6766666666666666,2.2146841549826624,9.78883450711809,-126.33968415498266
1590512479.6639273,-3.1189642695612845,-1.8186190260817128,8.888964269561285,0.4088888888888889,-0.2577777777777778,-0.6766666666666666,2.609895597768732,10.35342228252676,-126.73489559776873
1590512479.6739273,-3.077952057830668,-1.8254611791182187,8.846383537354656,0.4099507848285426,-0.2556539858984705,-0.6771976146364934,2.771332730930542,10.318264738977733,-127.3792665461861
1590512479.6839273,-3.0352587632608605,-1.9088447420434835,8.940277116695576,0.4244444444444445,-0.22666666666666666,-0.6844444444444444,3.117779637771772,10.936748719293291,-127.47435309184785
1590512479.6939273,-3.005742299991772,-1.9548832999643455,8.695079399906751,0.4244444444444445,-0.22666666666666666,-0.6844444444444444,2.891106250514248,9.936274375359973,-127.63427874989715
1590512479.7039273,-3.0359732042278837,-2.0689598063418257,8.952080387316348,0.4244444444444445,-0.22666666666666666,-0.6844444444444444,1.9349878963641158,9.34165658030343,-127.63883978860581
1590512479.7139273,-3.042075200499948,-2.1137743985001562,8.888867201333195,0.4244444444444445,-0.22666666666666666,-0.6844444444444444,3.266509998958442,10.52004999479221,-126.75589001145714
1590512479.7239273,-3.0092012268737562,-2.1972780370019906,8.849437791627238,0.4359631357791048,-0.21682778448497766,-0.6827646352914731,3.17751533592195,10.56102147029073,-126.19600613436879
1590512479.7339272,-2.9529880509614626,-2.26,8.911494025480732,0.4777777777777778,-0.1811111111111111,-0.6766666666666666,2.6697792197515233,9.963603901242383,-125.7696298567698
1590512479.7439272,-2.9131592941362667,-2.26,8.891579647068134,0.4777777777777778,-0.1811111111111111,-0.6766666666666666,2.6282909313919443,10.171045343040278,-125.23028210809528
1590512479.7539272,-2.807022940563087,-2.2976590198123046,8.775530066041014,0.4777777777777778,-0.1811111111111111,-0.6766666666666666,2.7313933785192908,9.825805961070559,-124.38830596107056
1590512479.7639272,-2.742378752886836,-2.34378752886836,8.854757505773671,0.4777777777777778,-0.1811111111111111,-0.6766666666666666,2.2827655889145495,9.5,-123.85435912240185
1590512479.7739272,-2.747100068612445,-2.4228999313875548,8.869033356204147,0.4791740410384523,-0.175955677533236,-0.6787073591245756,2.217707618620362,9.536249142344435,-123.09687714413892
1590512479.7839272,-2.72,-2.4639385489284793,8.863982442550993,0.4922222222222222,-0.12777777777777774,-0.6977777777777778,2.549780531887426,9.924780531887425,-122.162884069197
1590512479.7939272,-2.6844748455428067,-2.53522506619594,8.84193733451015,0.4922222222222222,-0.12777777777777774,-0.6977777777777778,2.75,9.998124448367166,-121.66976500441307
1590512479.8039272,-2.5705334233625927,-2.589466576637407,8.737573261309926,0.4922222222222222,-0.12777777777777774,-0.6977777777777778,2.797332883187036,9.660499662390277,-121.20266711681296
1590512479.8139272,-2.530075238738304,-2.629924761261696,8.769939809009356,0.4922222222222222,-0.12777777777777774,-0.6977777777777778,2.999623806308479,9.81221785473136,-121.00037619369152
1590512479.8239272,-2.4913910389185654,-2.716898506486428,8.806202987027145,0.4968170274275147,-0.1211153102301036,-0.6977777777777778,2.8362313310803446,10.004346996620516,-121.15084577927978
1590512479.8339272,-2.297362242755145,-2.7190113397732043,8.856373582528349,0.5366666666666666,-0.06333333333333334,-0.6977777777777778,2.522665109197816,9.522665109197815,-121.44299532759345
1590512479.8439271,-2.242662257131046,-2.793960314179413,8.799417114510128,0.5366666666666666,-0.06333333333333334,-0.6977777777777778,2.662334642414221,9.71225196362133,-121.54586089293096
1590512479.8539271,-2.23106884401167,-2.861893115598833,8.663786231197665,0.5366666666666666,-0.06333333333333334,-0.6977777777777778,2.9020040825218807,10.077672110029175,-121.65381564240518
1590512479.8639271,-2.1516102754518243,-2.8698389724548177,8.679677944909635,0.5366666666666666,-0.06333333333333334,-0.6977777777777778,2.7530192664721707,9.87902568862956,-122.29941651195392
1590512479.873927,-2.0872396618389146,-2.912070253620814,8.78,0.5376634554470585,-0.059806234571946615,-0.6993112989783807,2.5452478864932173,9.366373943246609,-123.25650845402713
1590512479.883927,-2.027889077717498,-2.9289445388587487,8.78,0.5511111111111111,-0.012222222222222223,-0.72,2.3539579792796914,9.277638652853128,-124.42242854925159
1590512479.893927,-1.9593502843323092,-2.8946751421661547,8.78,0.5511111111111111,-0.012222222222222223,-0.72,2.48246821687692,9.363312144584613,-125.15065322896922
1590512479.903927,-1.9679332594011494,-3.062011123433142,8.70206674059885,0.5511111111111111,-0.012222222222222223,-0.72,2.7629171287428167,10.212291435628591,-125.72555617165709
1590512479.913927,-1.9256477467486641,-3.0690587088752226,8.744352253251336,0.5511111111111111,-0.012222222222222223,-0.72,3.0272015828208487,10.080149208589576,-126.07793544376113
1590512479.923927,-1.8697015478346781,-3.0204178330314506,8.800238761732258,0.5511111111111111,-0.011811021461112027,-0.7199535741076165,2.688619195619957,10.25,-126.5625
1590512479.933927,-1.82653610242055,-3.08084945661123,8.83477111806356,0.5511111111111111,0.04766136999835335,-0.7132389492654189,2.8504896159229376,10.25,-126.5625
1590512479.943927,-1.7072563551650048,-3.1121239408058323,8.750884532747508,0.5511111111111111,0.05666666666666665,-0.7122222222222222,2.5586268498177343,10.259401479854187,-126.375
1590512479.953927,-1.66,-3.137084708470847,8.690250825082508,0.5511111111111111,0.05666666666666665,-0.7122222222222222,2.355211771177118,10.105211771177117,-126.23618674367437
1590512479.963927,-1.66,-3.2139878987898793,8.736392739273928,0.5511111111111111,0.05666666666666665,-0.7122222222222222,2.5474697469746976,10.297469746974697,-125.61134832233223
1590512479.973927,-1.6500033611707214,-3.2999731106342267,8.68002016702433,0.5511111111111111,0.05666666666666665,-0.7122222222222222,2.6874579853659797,10.3125,-124.81275208780413
1590512479.983927,-1.5752334611030565,-3.3347665388969436,8.76,0.56,0.11666666666666667,-0.7644444444444445,2.3898954340529484,10.014895434052947,-123.5353232805704
1590512479.993927,-1.5520001979659004,-3.336666996609834,8.744000395931801,0.56,0.11666666666666667,-0.7644444444444445,2.476387926554651,10.045833745762293,-122.12222538417758
1590512480.003927,-1.46408701003962,-3.2088694849405703,8.60562295649498,0.56,0.11666666666666667,-0.7644444444444445,2.7764501673269995,9.85036254183175,-120.65851588644844
1590512480.013927,-1.415685656037235,-3.2814715159441477,8.81536215717198,0.56,0.11666666666666667,-0.7644444444444445,1.9697609339539177,9.64869023348848,-119.398063959303
1590512480.023927,-1.3956502103079993,-3.3258744742300013,8.725201682463995,0.56,0.11666666666666667,-0.7644444444444445,2.457960206237522,9.804372371150007,-117.23206082456242
1590512480.033927,-1.365565819861432,-3.288891454965358,8.789260969976905,0.5455555555555556,0.16666666666666666,-0.7777777777777778,1.9884526558891455,9.254618937644342,-113.7016454965358
1590512480.043927,-1.2761510037306805,-3.26653775093267,8.77435850062178,0.5455555555555556,0.16666666666666666,-0.7777777777777778,1.7556015722153135,9.347759371113874,-111.46627509326701
1590512480.053927,-1.1837792196848402,-3.203227268896941,8.62094480492121,0.5455555555555556,0.16666666666666666,-0.7777777777777778,1.726379876969748,9.300689938484874,-107.25543840060672
1590512480.063927,-1.2120546052077188,-3.3021911182270163,8.62801365130193,0.5455555555555556,0.16666666666666666,-0.7777777777777778,1.549658717451757,9.212329358725878,-104.95806332687285
1590512480.073927,-1.1399843749999998,-3.2944375,8.798921875,0.5455555555555556,0.16666666666666666,-0.7777777777777778,1.6111328125,8.076171875,-101.47861328125
1590512480.083927,-1.1138072820578069,-3.3466745127976756,8.828096358971097,0.5293628376133624,0.19365452990365517,-0.7822757549839425,1.4225910257225862,8.291715704985474,-98.03826314226944
1590512480.093927,-1.0039549289757557,-3.3063729573854532,8.693954928975755,0.5255555555555556,0.2,-0.7833333333333333,1.3028943714621382,7.844774644878778,-93.33645065684075
1590512480.103927,-0.9278309331668821,-3.2840211333541394,8.633915466583442,0.5255555555555556,0.2,-0.7833333333333333,1.5492735409514469,7.54960374960988,-89.08333937090374
1590512480.113927,-0.8111633577858609,-3.308682611611225,8.607211192619536,0.5255555555555556,0.2,-0.7833333333333333,0.914724350246896,7.288761658978683,-85.40258910609417
1590512480.1239269,-0.8878712076568247,-3.3683442726219748,8.862904025522749,0.5255555555555556,0.2,-0.7833333333333333,0.3287616081770336,7.55510835991953,-81.72700463311048
1590512480.1339269,-0.8808996893630979,-3.3426990680892934,8.65809720426788,0.5111111111111111,0.20777777777777776,-0.7833333333333333,1.2737849466514886,6.648138590364468,-77.02637037179957
1590512480.1439269,-0.8889922630187733,-3.36697678905632,8.730930367168959,0.5111111111111111,0.20777777777777776,-0.7833333333333333,0.36337041038800666,6.294088492928669,-73.89049808022536
1590512480.1539268,-0.86,-3.4611614512202364,8.575032955287691,0.5111111111111111,0.20777777777777776,-0.7833333333333333,0.2979818597470459,6.415722789620569,-68.52296107713319
1590512480.1639268,-0.86,-3.4860667418799363,8.682955881479721,0.5111111111111111,0.20777777777777776,-0.7833333333333333,-0.013334273499198412,5.948748589751203,-64.99471156700909
1590512480.1739268,-0.8514153419862913,-3.472830683972583,8.734338632054834,0.5111111111111111,0.20777777777777776,-0.7833333333333333,-0.33077056292839435,5.499421211900248,-60.681712119002476
1590512480.1839268,-0.8092564447864564,-3.4892564447864567,8.647769334359369,0.5244444444444445,0.21444444444444444,-0.7422222222222222,-0.6043249807618315,5.067147220084648,-55.572930694497884
1590512480.1939268,-0.8025322239322817,-3.4825322239322816,8.627596671796844,0.5244444444444445,0.21444444444444444,-0.7422222222222222,-0.9825624038091574,5.109173600423239,-52.84121597248942
1590512480.2039268,-0.7503078677309007,-3.4104310148232613,8.560369441277082,0.5244444444444445,0.21444444444444444,-0.7422222222222222,-1.311345496009122,4.628078677309008,-47.34020809578107
1590512480.2139268,-0.7294330861118403,-3.4305669138881596,8.57371127592544,0.5244444444444445,0.21444444444444444,-0.7422222222222222,-1.6552818981359938,4.5821522627330005,-44.27031065404306
1590512480.2239268,-0.7665524992847509,-3.3562055012874485,9.66001798340622,0.5244444444444445,0.21444444444444444,-0.7422222222222222,0.1659812196019128,0.14001256794866546,-39.325371929537745
1590512480.2339268,-0.6152913691619976,-3.1627211310908394,8.030062501264183,0.5660619708687025,0.27234708990428164,-0.7928870369995797,4.99447172272902,-0.645518972875665,-34.17696428932624
1590512480.2439268,-0.5629083319780994,-3.2375616631430586,9.290111671274463,0.5755555555555556,0.2855555555555556,-0.8044444444444444,-10.218531468531468,13.541646338157966,-25.783416680219005
1590512480.2539268,-0.6008033826638478,-3.3360887949260043,9.161268498942919,0.5755555555555556,0.2855555555555556,-0.8044444444444444,-4.107954545454546,-0.5742600422832975,-25.404466173361524
1590512480.2639267,-0.6329884865676623,-3.4970115134323376,8.63593859502753,0.5755555555555556,0.2855555555555556,-0.8044444444444444,0.8881716168863674,5.276343233772735,-19.031609794760556
1590512480.2739267,-0.6854784748873686,-3.4445215251126315,8.915885199399298,0.5755555555555556,0.2855555555555556,-0.8044444444444444,-2.1737443684298348,-0.8474887368596695,-17.39129765976973
1590512480.2839267,-0.6109210205650226,-3.4990789794349775,8.65263183547982,0.56,0.16,-0.8488888888888889,0.061679836154696965,2.134872429372176,-12.337181073430441
1590512480.2939267,-0.6187839079166901,-3.49121609208331,8.58972873666648,0.56,0.16,-0.8488888888888889,-0.47889366927244437,1.1520115104137376,-9.880028776034344
1590512480.3039267,-0.6644220253828615,-3.6555779746171386,8.503215633260023,0.56,0.16,-0.8488888888888889,0.0003152680535098151,1.0417717560178366,-6.348623413571155
1590512480.3139267,-0.6982736425818687,-3.6217263574181313,8.68093662355481,0.56,0.16,-0.8488888888888889,-0.47572309880753016,0.88309230039749,-4.232897338633199
1590512480.3239267,-0.7081936639288581,-3.6855493114308655,8.788323967146297,0.56,0.16,-0.8488888888888889,-0.44878960044463656,0.6701584017785462,-2.33263601556228
1590512480.3339267,-0.724135998465702,-3.6787960023014468,8.746388006904342,0.5293720033243123,0.1411520020457306,-0.7577902321099201,-0.3049750143840433,0.5366500095893623,-0.47972515822447637
1590512480.3439267,-0.7185607598019319,-3.721476580891306,8.731439240198068,0.5166666666666667,0.13333333333333333,-0.72,-0.21425237438103742,0.3212618719051871,1.2689240198068026
1590512480.3539267,-0.6591474461709985,-3.6074423385129952,8.616500940700996,0.5166666666666667,0.13333333333333333,-0.72,-0.09669186816249739,-0.08492439551250786,3.5325260434812904
1590512480.3639266,-0.6626373190561174,-3.616010906206623,8.566439420979576,0.5166666666666667,0.13333333333333333,-0.72,0.1361268094388261,-0.07438156851080706,6.036058645647432
1590512480.3739266,-0.5794665873488003,-3.4579865159627206,8.30029307951616,0.5166666666666667,0.13333333333333333,-0.72,0.9678341265119969,0.49741721197699784,7.855418401744993
1590512480.3839266,-0.608969385615433,-3.391288267980709,9.000675980289369,0.4787797639849957,0.21127210456419934,-0.6572159898418024,-0.6424106206751938,-1.3250796157475362,9.036734640385825
1590512480.3939266,-0.6608262155398839,-3.39,8.757397886377268,0.4777777777777778,0.21333333333333332,-0.6555555555555556,-1.058107821644986,-0.7926162802721651,10.544931286579944
1590512480.4039266,-0.6970555990602976,-3.5455696945967112,8.743819498825372,0.4777777777777778,0.21333333333333332,-0.6555555555555556,-0.15268940877055592,-1.0679693617854347,12.292103073610024
1590512480.4139266,-0.6043286459514629,-3.264559990927648,9.586157858924926,0.4777777777777778,0.21333333333333332,-0.6555555555555556,-0.34794596280335677,-0.829716205488773,14.681135178044908
1590512480.4239266,-0.4661173052924449,-2.7981459053620017,8.55730611075878,0.4777777777777778,0.21333333333333332,-0.6555555555555556,3.861132137231235,7.136784998261083,17.9924715124486
1590512480.4339266,-0.47,-3.03,7.33,0.4844444444444445,0.2644444444444444,-0.6488888888888888,6.4375,8.8125,19.5625
1590512480.4439266,-0.5402191835188426,-3.0570073782764777,7.786424692872477,0.4844444444444445,0.2644444444444444,-0.6488888888888888,1.6605699673479695,5.048346652715891,18.43156603467249
1590512480.4539266,-0.7295061193183713,-3.137655150565245,8.997528428985893,0.4844444444444445,0.2644444444444444,-0.6488888888888888,-10.797790500883716,-5.0154202237636305,15.469146004935473
1590512480.4639266,-0.7155190582585786,-3.3544545969920296,8.361117150765331,0.4844444444444445,0.2644444444444444,-0.6488888888888888,2.0091122819888625,-1.912041051122153,18.135429519458434
1590512480.4739265,-0.6795828467043992,-3.409582846704399,8.49021441619501,0.4844444444444445,0.2644444444444444,-0.6488888888888888,0.8364889348066962,-0.544919593926871,19.61524121821939
1590512480.4839265,-0.7229154603358425,-3.536068326577881,8.625118702953099,0.49032394003731583,0.27536350768834844,-0.6539284565399215,-0.4635567458019687,-2.3898378691372324,19.891737840185293
1590512480.4939265,-0.7100917017922069,-3.3507030470735866,8.560213970848483,0.4922222222222222,0.2788888888888889,-0.6555555555555556,0.24847163679655077,-1.2553492712120724,21.183679091991376
1590512480.5039265,-0.7787062576226663,-3.5463035932076177,8.88390092879257,0.4922222222222222,0.2788888888888889,-0.6555555555555556,-0.05672436438690309,-2.2315179660380897,21.800948728773808
1590512480.5139265,-0.78,-3.475337888912406,8.746897620415444,0.4922222222222222,0.2788888888888889,-0.6555555555555556,0.20970561334018684,-1.7833618057025369,22.55134380763765
1590512480.5239265,-0.7746875587590097,-3.477811971168913,8.734374177373864,0.4922222222222222,0.2788888888888889,-0.6555555555555556,0.5410137887809464,-1.6992165465371356,23.46483860858665
1590512480.5339265,-0.7612754607177498,-3.4938263821532494,8.721479146459748,0.49706918849013904,0.2837358551568057,-0.6371370837374717,0.523914888457808,-1.984056741028128,24.638397187196897
1590512480.5439265,-0.7906237911025146,-3.551247582205029,8.794215425531915,0.4977777777777778,0.28444444444444444,-0.6344444444444445,0.6913986943907157,-2.0,25.27634640957447
1590512480.5539265,-0.7398069628423332,-3.3111699402220323,8.681556014537366,0.4977777777777778,0.28444444444444444,-0.6344444444444445,0.8628619446706254,-1.9247587035529163,25.813706482235418
1590512480.5639265,-0.7985382991242947,-3.3370765982485895,8.453562355058668,0.4977777777777778,0.28444444444444444,-0.6344444444444445,1.695486916340729,-2.6803610986120243,26.725738551798138
1590512480.5739264,-0.8438914944356121,-3.4833489666136725,8.93787678855326,0.4977777777777778,0.28444444444444444,-0.6344444444444445,-1.2314971681240063,-1.5049396363275038,27.849129322337042
1590512480.5839264,-0.8772451385803629,-3.5563268514404838,8.861221762755887,0.5018140946044982,0.2965533949246057,-0.6273808899976837,0.8941637332968799,-2.294017634393903,28.874367759133317
1590512480.5939264,-0.8929089115422558,-3.5470910884577442,8.77190989805985,0.5022222222222222,0.2977777777777777,-0.6266666666666667,-0.08123150279513314,-2.5585210457086487,28.89715965143045
1590512480.6039264,-0.9170073023158773,-3.514489046526184,8.569926976841225,0.5022222222222222,0.2977777777777777,-0.6266666666666667,0.19730857500521592,-2.199817442103067,29.30018255789693
1590512480.6139264,-0.8578517695530403,-3.3590685832002407,8.70868805407032,0.5022222222222222,0.2977777777777777,-0.6266666666666667,-0.06891593176399785,-2.4579369488229985,29.763426440293497
1590512480.6239264,-0.9296352601381679,-3.412395691034698,8.802395691034699,0.5022222222222222,0.2977777777777777,-0.6266666666666667,-0.125,-2.3642580793099413,30.129231148276805
1590512480.6339264,-0.9658117120695783,-3.44,8.742824318956325,0.5067424427207832,0.2900288283516733,-0.643456057089893,0.1292624030440509,-2.6030856034789154,30.540585603478917
1590512480.6439264,-0.8933916083916084,-3.501286713286713,8.817895104895104,0.51,0.28444444444444444,-0.6555555555555556,0.02521853146853148,-2.5730987762237763,31.516083916083915
1590512480.6539264,-0.9869615801464245,-3.395240981177147,8.563697330295724,0.51,0.28444444444444444,-0.6555555555555556,-0.0625,-2.5,32.3835418924598
1590512480.6639264,-0.9639098629656537,-3.4401287671919234,8.423909862965655,0.51,0.28444444444444444,-0.6555555555555556,-0.21274143848485608,-2.299678082020192,32.86298287696971
1590512480.6739264,-1.0052160237027417,-3.3978819733344157,8.72059013332792,0.51,0.28444444444444444,-0.6555555555555556,-0.07744992592893238,-2.336275037035534,32.8080874444467
1590512480.6839263,-1.0210892511189793,-3.3789107488810206,8.72633876678469,0.5466330787330854,0.2963254429524721,-0.6555555555555556,-0.5012296245574186,-2.5420765415191395,32.91707654151914
1590512480.6939263,-1.0604268216211696,-3.509365829187743,8.774682914593871,0.5511111111111111,0.2977777777777777,-0.6555555555555556,-0.3603658918941516,-2.3603658918941517,33.089100581079386
1590512480.7039263,-1.07,-3.392042243986099,8.597654917181929,0.5511111111111111,0.2977777777777777,-0.6555555555555556,-0.497447195017376,-2.4974471950173758,33.217473597508686
1590512480.7139263,-1.0860379696769942,-3.4041518787079763,8.714436651285432,0.5511111111111111,0.2977777777777777,-0.6555555555555556,-0.5123813447593936,-2.5123813447593935,33.80130520764667
1590512480.7239263,-1.11049313274705,-3.4148767168132377,8.729260300879425,0.5511111111111111,0.2977777777777777,-0.6555555555555556,-0.5640410398345312,-2.4679794800827346,34.38578727884172
1590512480.7339263,-1.1110089881124963,-3.4441838213975067,8.726587416642504,0.5933133597500081,0.2927135079411101,-0.663573982796946,-0.6012612351406205,-2.484977529718759,35.35849159176573
1590512480.7439263,-1.1053415518764211,-3.4594535169977263,8.744658448123579,0.6622222222222223,0.28444444444444444,-0.6766666666666666,-0.6258538796910529,-2.6892077593821058,36.851861857065
1590512480.7539263,-1.148246619920195,-3.426082206640065,8.74432882656026,0.6622222222222223,0.28444444444444444,-0.6766666666666666,-0.7635275830008136,-2.964555166001627,38.349830996009764
1590512480.7639263,-1.1717601418754156,-3.424119929062292,8.701199290622922,0.6622222222222223,0.28444444444444444,-0.6766666666666666,-0.5919973398359566,-3.099250443360674,40.076763744180894
1590512480.7739263,-1.1908456887269112,-3.3983086225461774,8.735919821088379,0.6622222222222223,0.28444444444444444,-0.6766666666666666,-0.5391783318147934,-3.158892777271598,41.586748322703556
1590512480.7839262,-1.2,-3.3955299087736486,8.748233637421173,0.8566336727960434,0.28789553528303297,-0.7244067566004748,-0.8191238596706055,-3.122792046776465,42.41397783628237
1590512480.7939262,-1.2141164225134926,-3.381767154973015,8.75646569005397,1.0377777777777777,0.2911111111111111,-0.7688888888888888,-0.779430898226677,-3.1507276407093294,42.44854471858134
1590512480.8039262,-1.212597834059628,-3.3403913362385125,8.668967510894422,1.0377777777777777,0.2911111111111111,-0.7688888888888888,-0.7337635371273245,-3.0487093886180263,41.912364628726756
1590512480.8139262,-1.1945416946699063,-3.35318745799514,8.699562373985422,1.0377777777777777,0.2911111111111111,-0.7688888888888888,-0.8949216124696273,-2.758463979217288,40.832163121025694
1590512480.8239262,-1.170107189281072,-3.36,8.700107189281072,1.0377777777777777,0.2911111111111111,-0.7688888888888888,-0.8131699330066993,-2.5631699330066993,39.73363288671133
1590512480.8339262,-1.1754194955608122,-3.475646216706092,8.743968234462843,1.3307481934332108,-0.07810014370611584,-1.0464398089835096,-0.75,-2.5,38.3005956038217
1590512480.8439262,-1.1432041652441105,-3.4364083304882214,8.701126664390577,1.4177777777777778,-0.18777777777777774,-1.1288888888888888,-0.6580104131102765,-2.3160208262205533,36.712145783543875
1590512480.8539262,-1.0984106498002093,-3.3278676894805446,8.68,1.4177777777777778,-0.18777777777777774,-1.1288888888888888,-0.3485931857518323,-2.4869201264984295,34.946939304258635
1590512480.8639262,-1.102559912356781,-3.370239649427124,8.646160131464828,1.4177777777777778,-0.18777777777777774,-1.1288888888888888,-0.15225013694252978,-2.3782509585977083,32.77750547770119
1590512480.8739262,-1.1084681409673838,-3.3900286108586624,8.646907671076104,1.4177777777777778,-0.18777777777777774,-1.1288888888888888,-0.22109882527180313,-2.0914011747281966,30.318091739876806
1590512480.8839262,-1.1012587089733905,-3.312251741794678,8.703510450768068,1.2649095292724102,-0.13798926476211792,-1.0468254101495098,-0.3046330689163099,-1.853059682699572,27.168009737261816
1590512480.8939261,-1.14,-3.307392440403751,8.758405039730832,0.7388888888888889,0.03333333333333333,-0.7644444444444445,-0.08876574915885174,-1.457437003364593,22.06266330803923
1590512480.9039261,-1.1334101652807012,-3.2801152479210516,8.730460991684208,0.7388888888888889,0.03333333333333333,-0.7644444444444445,-0.02203383251095546,-1.2095338325109555,18.05919395465995
1590512480.9139261,-1.1245323856886866,-3.28719431413212,8.69079147119818,0.7388888888888889,0.03333333333333333,-0.7644444444444445,0.24415482110858316,-0.8017081261199589,12.762134566210964
1590512480.923926,-1.117041451231268,-3.2854438699500483,8.727041451231269,0.7388888888888889,0.03333333333333333,-0.7644444444444445,0.28550302339847516,-0.3735211637893261,7.848747918674963
1590512480.933926,-1.108621522189009,-3.2917291331340537,8.718621522189009,0.6708746582867071,0.1037424312102399,-0.7328321964180783,0.3847112842032651,0.09053805472522417,2.8629462232697174
1590512480.943926,-1.0882296721615115,-3.423540655676977,8.72546138173736,0.5811111111111111,0.19666666666666666,-0.6911111111111111,0.39230181515095386,0.5168318207075384,-2.0024773106130764
1590512480.953926,-1.0210909960498114,-3.4710909960498113,8.667000159424655,0.5811111111111111,0.19666666666666666,-0.6911111111111111,0.4886354578144651,0.9886354578144652,-6.7909023878270425
1590512480.963926,-0.9852051688959419,-3.4591793244162323,8.63397415552029,0.5811111111111111,0.19666666666666666,-0.6911111111111111,0.7825323055996373,1.5222738608025392,-11.644850940829745
1590512480.973926,-0.9443152408014045,-3.5054891137132826,8.726271695654534,0.5811111111111111,0.19666666666666666,-0.6911111111111111,0.6225544314335874,1.718138607858397,-17.53050060630192
1590512480.983926,-0.8356747404844291,-3.424705882352941,8.721868512110726,0.5776701268742792,0.21800076893502499,-0.7131334102268359,0.8871107266435987,2.1520328719723185,-25.541306228373703
1590512480.993926,-0.7974767015289266,-3.38243010458678,8.80710392599175,0.5755555555555556,0.2311111111111111,-0.7266666666666667,0.938082461776836,2.811335076446328,-35.712095837036024
1590512481.003926,-0.7797496227941659,-3.403500251470556,8.654246353676937,0.5755555555555556,0.2311111111111111,-0.7266666666666667,1.2125062867639018,3.6547008593732917,-45.170443736196454
1590512481.013926,-0.77,-3.4383772738703997,8.667833640707519,0.5755555555555556,0.2311111111111111,-0.7266666666666667,1.4459431846759996,4.5675454774079975,-54.84097184382597
1590512481.023926,-0.742940074609096,-3.463382490673863,8.746617509326137,0.5755555555555556,0.2311111111111111,-0.7266666666666667,1.690265100404794,5.3382490673863,-63.36688030796095
1590512481.033926,-0.690101858114829,-3.4713241554927787,8.739388851311025,0.575340521757583,0.2309639827230246,-0.7269609234428397,2.0644098396530457,6.008912585047547,-70.78999472804679
1590512481.043926,-0.7063085908620435,-3.603154295431022,8.708388658879196,0.5544444444444444,0.21666666666666667,-0.7555555555555555,2.230285653556114,7.269286928877717,-83.86486673813397
1590512481.053926,-0.7182610082961072,-3.6239119336311423,8.730003190810466,0.5544444444444444,0.21666666666666667,-0.7555555555555555,2.24184349074665,8.17934349074665,-92.15748643905552
1590512481.063926,-0.6891604717455704,-3.6743703538091776,8.649407523335755,0.5544444444444444,0.21666666666666667,-0.7555555555555555,2.662808814487731,8.991049969258286,-103.34491154770555
1590512481.073926,-0.6918446837087434,-3.654538829072814,8.733616487218443,0.5544444444444444,0.21666666666666667,-0.7555555555555555,2.6759707268203536,9.329338408525443,-110.79445196732502
1590512481.083926,-0.6275627101611718,-3.559318981177289,8.847777799250183,0.5251334080573055,0.22445241070700042,-0.7317403384910052,2.794354877671704,9.573924796119506,-116.65345026668729
1590512481.093926,-0.4628492534260585,-3.3545588054816937,8.869687461648597,0.4833333333333333,0.23555555555555555,-0.6977777777777778,3.8322611986091224,9.889246267130293,-123.38442166087134
1590512481.103926,1.9394568656215208,-9.825908022411143,0.19502059067852073,0.4833333333333333,0.23555555555555555,-0.6977777777777778,4.9135522897188,9.36850907580551,-129.79745245585818
1590512481.113926,1.6898052751286858,-10.739397869199156,-5.711311998723116,0.4833333333333333,0.23555555555555555,-0.6977777777777778,-63.77856280675152,70.91457344080445,-439.11433103228126
1590512481.123926,-1.3410665130273347,-2.7814016388195384,-4.510358491773895,0.4833333333333333,0.23555555555555555,-0.6977777777777778,-130.70161561359708,106.0841995550861,-881.4425772997888
1590512481.133926,-1.5525557728201935,0.8008781441649631,-2.6308861434539152,0.4737972920925547,0.30177806417207365,-0.6977777777777778,-146.05009832459336,91.68268376144343,-796.2165029775131
1590512481.143926,-0.424521319388576,0.23291230893000803,-0.11613032984714401,0.4633333333333333,0.3744444444444445,-0.6977777777777778,-125.68734915526952,14.746731697506036,-225.8794247787611
1590512481.153926,-0.5065131056393963,0.21840349483717236,-0.11,0.4633333333333333,0.3744444444444445,-0.6977777777777778,-121.35742652899127,-10.82481135822081,-108.77621127879269
1590512481.163926,-0.9574544475361277,-0.28610896687909526,2.8847901893905394,0.4633333333333333,0.3744444444444445,-0.6977777777777778,-108.84170799299883,6.17834883538282,-96.7753427654609
1590512481.1739259,-0.40832187216802607,-0.5201764486379871,4.0986171970787355,0.4633333333333333,0.3744444444444445,-0.6977777777777778,-31.916203555626637,33.75114944826483,-89.50256543525774
1590512481.1839259,0.3489096919358871,-0.4915161532264785,5.091450040278897,0.4054172801096327,0.45454111379637097,-0.6735434008969385,67.50536820467235,36.25103301480597,-82.76947970776966
1590512481.1939259,0.20347831282112558,-0.7878061895089019,6.490138606763054,0.30666666666666664,0.5911111111111111,-0.6322222222222222,161.46922422033697,9.752591408770463,-73.518035308878
1590512481.2039258,-0.022172889828879064,-0.7230178042684099,4.221402345702749,0.30666666666666664,0.5911111111111111,-0.6322222222222222,207.7400129782734,5.833427225533551,-67.11985387425496
1590512481.2139258,-0.22217027494712555,-0.258507748509902,1.5149861180542201,0.30666666666666664,0.5911111111111111,-0.6322222222222222,223.70754614497213,-6.807536531436259,-62.09975821957316
1590512481.2239258,-0.422167660065372,0.2060023072486059,-1.1914301095943092,0.30666666666666664,0.5911111111111111,-0.6322222222222222,239.67507931167083,-19.448500288406073,-57.079662564891365
1590512481.2339258,2.475956331126966,-1.5514295538554117,10.076088713143644,0.30966235899787004,0.586617572614306,-0.6524431454578451,76.7474909739534,-24.915746153184905,-23.19555359752428
1590512481.2439258,3.544554708988018,-2.2845382694192407,15.37491321804559,0.3111111111111111,0.5844444444444444,-0.6622222222222223,-10.840170639562455,-17.520916980177674,-5.326874743131738
1590512481.2539258,0.5320742325855962,-0.5432445395513577,7.669088449429359,0.3111111111111111,0.5844444444444444,-0.6622222222222223,-35.939636830972056,56.04341456365604,15.03904558982684
1590512481.2639258,0.279488437042335,-0.7729988760600797,5.5573359218010285,0.3111111111111111,0.5844444444444444,-0.6622222222222223,-8.67886609788495,33.3995670276898,18.74308819522496
1590512481.2739258,0.8310768386603695,-1.4632305159811088,7.51985126104764,0.3111111111111111,0.5844444444444444,-0.6622222222222223,-0.1269449724666365,-41.57198480275922,20.67593304787474
1590512481.2839258,0.5395373129742849,-1.3250400933976465,5.5366008172294086,0.31372952232702145,0.570697785560915,-0.6615676194182446,9.220388875234264,-22.198911640910623,34.660279501674395
1590512481.2939258,0.8643903606072469,-3.0244416895036754,11.974182000086998,0.31555555555555553,0.5611111111111111,-0.6611111111111111,-5.83696550524164,14.685624102831788,53.45857801557266
1590512481.3039258,0.9049155649659162,-3.4077860979136543,13.317054327618262,0.31555555555555553,0.5611111111111111,-0.6611111111111111,-17.010123489464988,-1.5656275821111336,63.93234061919025
1590512481.3139257,0.4899234850030606,-2.522875943684962,9.087195470312182,0.31555555555555553,0.5611111111111111,-0.6611111111111111,-5.437672158743114,-8.587412007753521,71.90155070393797
1590512481.3239257,0.24230892570817744,-2.142159273115981,6.788321753073223,0.31555555555555553,0.5611111111111111,-0.6611111111111111,7.218282335649385,1.0346739711384287,81.72897180652058
1590512481.3339257,0.261352587448124,-2.172439230964682,6.915421783687643,0.31915906759643525,0.5561562820549015,-0.6669668181775407,-0.24641367409163983,-4.3139715846531725,91.03203343355636
1590512481.3439257,0.30043091205098893,-2.408976064290415,7.7560999688246905,0.3244444444444444,0.5488888888888889,-0.6755555555555556,-8.468941598254183,-12.073655997783089,99.42386080224462
1590512481.3539257,0.3439016810283938,-2.982194048123558,9.087554974808118,0.3244444444444444,0.5488888888888889,-0.6755555555555556,-0.6493531336817822,-8.896361597683288,109.00766498328389
1590512481.3639257,-0.5783639670687346,-14.079645797434422,6.926399578786138,0.3244444444444444,0.5488888888888889,-0.6755555555555556,-2.1335200076584337,-9.31209912885315,115.8049313134214
1590512481.3739257,-0.041110347130817404,-10.498135276899202,8.119111643714515,0.3244444444444444,0.5488888888888889,-0.6755555555555556,-3.206328703612754,-19.376942419896665,212.47121977093687
1590512481.3839257,-0.3179043600562589,-2.332850445382091,9.057633380215659,0.34645163306766685,0.5360513621920091,-0.6792234203260926,11.229403031723708,-20.644145569620253,301.6728297390217
1590512481.3939257,-0.48643748030077893,-3.1975946688279526,7.023520194515737,0.3644444444444445,0.5255555555555556,-0.6822222222222222,-2.0179291053176627,-20.984332083839885,289.9126691318835
1590512481.4039257,4.545739946051986,-10.65730443845022,8.765048430603237,0.3644444444444445,0.5255555555555556,-0.6822222222222222,-21.823098025993133,-25.30294032000981,177.6041602807749
1590512481.4139256,10.910265486725663,-21.27575221238938,13.089823008849558,0.3644444444444445,0.5255555555555556,-0.6822222222222222,-26.974004424778762,-22.07466814159292,5.797566371681416
1590512481.4239256,-2.1840255173799474,-0.3020742080235751,15.553676076619116,0.3644444444444445,0.5255555555555556,-0.6822222222222222,23.530489208693325,21.881068540285312,-78.22360043701025
1590512481.4339256,-1.9733413703033955,1.411490188199049,3.9168883530908865,0.3644444444444445,0.5255555555555556,-0.6822222222222222,47.0129931016007,13.05866988145469,-69.13784659433394
1590512481.4439256,-0.719212864552334,-1.3500144545531843,6.855266346399116,0.4222222222222222,0.4722222222222222,-0.6755555555555556,-18.51269423305841,-0.4472262668990732,-53.92734461355327
1590512481.4539256,-1.0560565951620267,-2.0884208124144226,9.63807698159136,0.4222222222222222,0.4722222222222222,-0.6755555555555556,-16.17559523809524,8.217718317358893,-43.1749296363913
1590512481.4639256,-0.43936430401953874,-2.2279260762628783,8.137659998968026,0.4222222222222222,0.4722222222222222,-0.6755555555555556,8.74436391702929,2.3043291309059013,-32.26924524001995
1590512481.4739256,-1.793388854434305,-5.35013201027731,7.730002657925047,0.4222222222222222,0.4722222222222222,-0.6755555555555556,1.3123117303092053,7.499889253123062,-12.172984775995983
1590512481.4839256,-4.141145382580341,-11.596667213551813,9.037844793995202,0.42079968280661456,0.47613420561514325,-0.6730661115782421,-6.841001261253871,-6.571186501507352,56.59679995283116
1590512481.4939256,2.5425125174114367,-5.572058125964687,9.331817565786997,0.4177777777777778,0.4844444444444445,-0.6677777777777778,5.741771919587396,-14.028592402966533,82.48706377291721
1590512481.5039256,3.280089074570393,-5.858818579536497,7.715299936938358,0.4177777777777778,0.4844444444444445,-0.6677777777777778,1.1217680908087655,0.44786698920069323,11.931871255714967
1590512481.5139256,-1.383208959766267,-1.404889524621097,9.038808813683122,0.4177777777777778,0.4844444444444445,-0.6677777777777778,1.5664107675451946,9.449483383042182,-32.154231846125754
1590512481.5239255,-2.132940922604776,-5.5260755730315525,8.351973242543398,0.4177777777777778,0.4844444444444445,-0.6677777777777778,0.09361513378728326,5.791598734055817,-23.222142634506568
1590512481.5339255,-2.287801260989255,-8.597950448450403,9.589617263120505,0.4177777777777778,0.4812919713070677,-0.6686604702562433,-4.979125965722405,-3.3515729064914304,-5.377186750732617
1590512481.5439255,1.6924940302467497,-4.093044574157601,8.208999734677633,0.4177777777777778,0.4566666666666666,-0.6755555555555556,-1.1650719686919606,-5.391259286282834,17.26737032369329
1590512481.5539255,0.058736643978858506,-3.217972546484657,9.211046427620822,0.4177777777777778,0.4566666666666666,-0.6755555555555556,1.5458905281569641,0.6353485398684361,-4.133304735921518
1590512481.5639255,-0.2363108863454884,-4.701184455682725,8.445517700292786,0.4177777777777778,0.4566666666666666,-0.6755555555555556,-1.5441342826723452,0.6851876497205217,-5.678317141336173
1590512481.5739255,-0.027832318869035932,-4.2307225603769885,8.809393284900844,0.4177777777777778,0.4566666666666666,-0.6755555555555556,-0.04187119575888475,-0.4304192028274102,1.1707736108384057
1590512481.5839255,-0.12285640924949781,-4.199047863583501,8.39762222658551,0.4177777777777778,0.4566666666666666,-0.6755555555555556,-0.39821153468561676,-0.19285897687625547,0.260126078025646
1590512481.5939255,-0.1130707037710039,-4.2361616202862455,8.91929296228996,0.4188888888888889,0.4633333333333333,-0.6677777777777778,1.3031567100185795,0.11060607607341923,0.0
1590512481.6039255,-0.14732456767185936,-4.1933442904101765,8.576754323281406,0.4188888888888889,0.4633333333333333,-0.6677777777777778,-0.19544983564384721,-0.0499589109618408,0.0
1590512481.6139255,-0.13740279414240028,-4.215194411715199,8.655847500420803,0.4188888888888889,0.4633333333333333,-0.6677777777777778,-0.058418195589968025,0.125,-0.016232536609998318
1590512481.6239254,-0.1306427288070997,-4.224858169543203,8.544140033756193,0.4188888888888889,0.4633333333333333,-0.6677777777777778,-0.8290395138019273,0.11294883486688082,-0.05848294495562694
1590512481.6339254,-0.1369188815173593,-4.174648947861126,8.722269933656234,0.4219700073715296,0.4611080810958706,-0.668975990521027,0.6248295616427205,-0.0625,0.0
1590512481.6439254,-0.12013514000504522,-4.307972899924321,8.57310822011604,0.4388888888888889,0.4488888888888889,-0.6755555555555556,-0.05405374968467332,-0.0625,0.0008446250315326679
1590512481.6539254,-0.12404325782974895,-4.162978371085126,8.755324433723118,0.4388888888888889,0.4488888888888889,-0.6755555555555556,0.26466289148744787,-0.0625,0.0625
1590512481.6639254,-0.11459000543839507,-4.172295002719197,8.670655024472778,0.4388888888888889,0.4488888888888889,-0.6755555555555556,-0.2940623300501541,-0.033812466010030816,0.0625
1590512481.6739254,-0.12706604564841087,-4.2064055891643015,8.666651141210272,0.4388888888888889,0.4488888888888889,-0.6755555555555556,-0.03254657636918462,0.0625,0.044162785302567946
1590512481.6839254,-0.12255108695652174,-4.267448913043478,8.508707971014493,0.4388888888888889,0.45077858293075684,-0.6761224637681159,-0.4721490036231884,0.046555706521739126,0.005314764492753623
1590512481.6939254,-0.14095850337679222,-4.230958503376792,8.67383401350717,0.4388888888888889,0.4711111111111111,-0.6822222222222222,0.3304719383148543,-0.08732709740330094,0.024827097403300948
1590512481.7039254,-0.11880686191855137,-4.2076137238371025,8.603124518895935,0.4388888888888889,0.4711111111111111,-0.6822222222222222,0.004614017081485275,0.007457113009053921,-0.05504288699094608
1590512481.7139254,-0.12043323822279159,-4.2143442225198475,8.626967332440458,0.4388888888888889,0.4711111111111111,-0.6822222222222222,0.13048947960946444,0.10597182592829829,-0.02173591296414915
1590512481.7239254,-0.13876152578360482,-4.252569154701629,8.5160079585443,0.4388888888888889,0.4711111111111111,-0.6822222222222222,-0.47735489762283034,0.1565381445901201,-0.04701907229506006
1590512481.7339253,-0.13253381638925596,-4.215202898335536,8.646789855825624,0.4388888888888889,0.4711111111111111,-0.6822222222222222,-0.04919987676134763,0.0008454097313991271,0.030827295134300436
1590512481.7439253,-0.13052921719955898,-4.236295479603087,8.582701212789416,0.4311111111111111,0.4633333333333333,-0.6822222222222222,-0.14780871003307608,-0.0625,0.0033076074972436605
1590512481.7539253,-0.13339616509587263,-4.194214061315134,8.748364207561478,0.4311111111111111,0.4633333333333333,-0.6822222222222222,0.4111621167804138,-0.04874201061640126,0.04874201061640126
1590512481.7639253,-0.11114472671285604,-4.275421093148576,8.54717090069284,0.4311111111111111,0.4633333333333333,-0.6822222222222222,-0.11784545804464973,0.00715454195535027,0.0
1590512481.7739253,-0.11921689761354888,-4.2431324095458045,8.668253464203232,0.4311111111111111,0.4633333333333333,-0.6822222222222222,-0.06739438991531947,0.05760561008468053,0.0
1590512481.7839253,-0.13056263875673962,-4.255498889946083,8.589564858864573,0.4311111111111111,0.46295824082884024,-0.6825973147267153,-0.45780209324452903,0.0070329844592451635,0.0
1590512481.7939253,-0.13943101807802094,-4.184551855375832,8.740327307326355,0.4311111111111111,0.457045987947986,-0.6885095676075695,0.2073263558515699,0.11788772597526165,0.0
1590512481.8039253,-0.13770329010785154,-4.243923030754961,8.636890129676447,0.4311111111111111,0.4566666666666666,-0.6888888888888889,0.1004810577814961,0.07685443682592802,0.07685443682592802
1590512481.8139253,-0.13007493225178693,-4.190524525762509,8.659775203244639,0.4311111111111111,0.4566666666666666,-0.6888888888888889,0.4342217139843224,0.12453167342633178,0.12453167342633178
1590512481.8239253,-0.1379120073327223,-4.229560036663612,8.612967919340054,0.4311111111111111,0.4566666666666666,-0.6888888888888889,-0.125,-0.1119500458295142,-0.023350137488542623
1590512481.8339252,-0.13022309807516042,-4.191115490375802,8.697545921173235,0.4311111111111111,0.4566666666666666,-0.6888888888888889,-0.125,-0.06389436296975252,0.12081691109074244
1590512481.8439252,-0.12795046921989928,-4.253603753759194,8.630247653900502,0.4188888888888889,0.4633333333333333,-0.6755555555555556,-0.18440432624370448,0.10092870212688865,0.07530956737562955
1590512481.8539252,-0.12035182434146165,-4.1928145947316935,8.668240878292691,0.4188888888888889,0.4633333333333333,-0.6755555555555556,0.29051097865864706,0.2434032935975941,0.12280109786586471
1590512481.8639252,-0.1326543852017174,-4.224073688789696,8.565124548429194,0.4188888888888889,0.4633333333333333,-0.6755555555555556,0.0625,0.15432018497853267,0.0625
1590512481.8739252,-0.13857591527016805,-4.184272254189495,8.68643978817542,0.4188888888888889,0.4633333333333333,-0.6755555555555556,0.035798411315650716,0.05804973521927512,0.05804973521927512
1590512481.8839252,-0.12029851370278236,-4.239402972594435,8.641791082216695,0.41948591629445364,0.4629021468737588,-0.675953573825932,-0.3031714467880511,0.0,0.0
1590512481.8939252,-0.1290664130275728,-4.221867173944855,8.694398478165436,0.43702171494403447,0.45023740340461704,-0.687644106258986,-0.029174592888350004,0.0,0.0
1590512481.9039252,-0.14,-4.237141752452757,8.612858247547242,0.4388888888888889,0.4488888888888889,-0.6888888888888889,0.06254833019187087,-0.017864047170267267,0.026771905659465467
1590512481.9139252,-0.14,-4.226313401080181,8.627373197839638,0.4388888888888889,0.4488888888888889,-0.6888888888888889,0.3173968918778176,-0.03945875675112705,-0.03945875675112705
1590512481.9239252,-0.14,-4.2138324083855325,8.652335183228935,0.4388888888888889,0.4488888888888889,-0.6888888888888889,0.12238138102393953,0.038547447590424194,0.038547447590424194
1590512481.9339252,-0.13,-4.2013048704965215,8.688368911879348,0.43823645364062835,0.4488888888888889,-0.688671410472802,-0.06861658045244254,0.05638341954755747,-0.06046113984918582
1590512481.9439251,-0.13,-4.231863320097629,8.650170849877965,0.42295722884007464,0.4488888888888889,-0.6835783355392842,-0.2118593129576336,-0.0868593129576336,-0.012713562347455465
1590512481.9539251,-0.12349495623604302,-4.236505043763957,8.584757565645935,0.4188888888888889,0.4488888888888889,-0.6822222222222222,0.0,0.010921738237634437,-0.021843476475268873
1590512481.9639251,-0.14,-4.215134772563536,8.589191364618786,0.4188888888888889,0.4488888888888889,-0.6822222222222222,0.07601917869475568,0.047296164261048865,-0.10979616426104886
1590512481.973925,-0.1380540632149818,-4.201945936785019,8.672216252859927,0.4188888888888889,0.4488888888888889,-0.6822222222222222,0.23952737056181678,0.0,-0.0625
1590512481.983925,-0.1309456825692738,-4.209054317430726,8.643782730277096,0.4188888888888889,0.4488888888888889,-0.6822222222222222,-0.02703690365223288,0.0,-0.0625
1590512481.993925,-0.11196433811471873,-4.238035661885282,8.676071323770563,0.4122222222222222,0.4566666666666666,-0.6755555555555556,-0.11272288678300796,0.05022288678300796,0.024554226433984087
1590512482.003925,-0.1192042531890287,-4.230795746810972,8.661591493621943,0.4122222222222222,0.4566666666666666,-0.6755555555555556,-0.06747341756857059,0.004973417568570587,0.11505316486285883
1590512482.013925,-0.14574585736519272,-4.213618786047789,8.604889499221825,0.4122222222222222,0.4566666666666666,-0.6755555555555556,0.1875,-0.07579419573377277,0.04920580426622723
1590512482.023925,-0.1303863407488785,-4.190579511123318,8.658647807378925,0.4122222222222222,0.4566666666666666,-0.6755555555555556,0.1875,-0.12379268515975464,0.0012073148402453535
1590512482.033925,-0.12003543031351707,-4.220017715156758,8.709911424216209,0.4122812727447507,0.4566784767711723,-0.6755673656600613,-0.00011071972974086434,-0.06238928027025913,0.0
1590512482.043925,-0.13731512380010713,-4.228657561900054,8.666712190499732,0.44108076188906736,0.4624383746000357,-0.6813272634889246,-0.054109761875334735,-0.008390238124665265,0.0
1590512482.053925,-0.11374361106355922,-4.22,8.659410139150424,0.4455555555555555,0.4633333333333333,-0.6822222222222222,-0.050801215426377444,0.0625,-0.0625
1590512482.063925,-0.12821832023575638,-4.218218320235756,8.587816797642436,0.4455555555555555,0.4633333333333333,-0.6822222222222222,0.03340649557956778,0.0625,-0.0625
1590512482.073925,-0.12,-4.211161580009111,8.66806403331815,0.4455555555555555,0.4633333333333333,-0.6822222222222222,0.1875,0.0649199583523134,-0.0576600832953732
1590512482.083925,-0.12,-4.2384557818702415,8.622573696882931,0.4455555555555555,0.4633333333333333,-0.6822222222222222,0.1875,0.1217828788963363,0.0560657577926726
1590512482.093925,-0.12747195891083501,-4.217584123267495,8.687247630197515,0.43476272601768273,0.45254050379546057,-0.6772409162816656,-0.09269845915631258,0.125,-0.07759922957815629
1590512482.103925,-0.1408951901417782,-4.238209619716444,8.631048098582218,0.4311111111111111,0.4488888888888889,-0.6755555555555556,-0.16512024645554524,0.22762024645554524,0.005594938386113688
1590512482.113925,-0.14702387257498184,-4.222976127425018,8.547440318562545,0.4311111111111111,0.4488888888888889,-0.6755555555555556,0.0625,0.009300398203181702,0.043899203593636596
1590512482.123925,-0.1305688616881461,-4.239431138311854,8.588577845779634,0.4311111111111111,0.4488888888888889,-0.6755555555555556,0.0625,0.06072230722454344,-0.058944614449086885
1590512482.133925,-0.13,-4.2025004051582435,8.674374088393952,0.4311111111111111,0.4488888888888889,-0.6755555555555556,0.1796862338804899,-0.054686233880489904,0.11327935082073484
1590512482.143925,-0.11238010597057878,-4.222380105970578,8.682380105970578,0.4311111111111111,0.4566666666666666,-0.6677777777777778,-0.11012433768388265,0.014875662316117347,0.0
1590512482.153925,-0.12658050209063362,-4.236580502090634,8.696580502090633,0.4311111111111111,0.4566666666666666,-0.6677777777777778,-0.021371861933539862,0.10362813806646014,0.0
1590512482.163925,-0.13642965740928442,-4.236429657409285,8.568330799378337,0.4311111111111111,0.4566666666666666,-0.6677777777777778,-0.05506178626934252,-0.06993821373065748,0.014876427461314953
1590512482.173925,-0.11517332252179202,-4.215173322521792,8.617928914115819,0.4311111111111111,0.4566666666666666,-0.6677777777777778,-0.01077775525373336,-0.11422224474626663,0.10344448949253328
1590512482.183925,-0.1353981592637055,-4.226932106175804,8.663864212351607,0.4311111111111111,0.4566666666666666,-0.6677777777777778,0.15873849539815926,-0.17791283179938644,-0.0866513271975457
1590512482.193925,-0.12491046674032227,-4.23,8.700179066519356,0.4420091073542116,0.4566666666666666,-0.6786757740208783,0.04603562569052136,-0.1875,-0.03069041712701423
1590512482.203925,-0.1375232648086074,-4.221238367595696,8.613808162021519,0.4455555555555555,0.4566666666666666,-0.6822222222222222,-0.125,-0.1095204050537962,-0.09404081010759241
1590512482.213925,-0.12105884535986824,-4.232117690719737,8.575294226799342,0.4455555555555555,0.4566666666666666,-0.6822222222222222,-0.09852886600329366,-0.006617783499176582,0.11176443300164683
1590512482.2239249,-0.1293100154458987,-4.248620030891797,8.621379969108203,0.4455555555555555,0.4566666666666666,-0.6822222222222222,0.12068759653686692,-0.0625,-0.004312403463133079
1590512482.2339249,-0.12078570847898544,-4.231571416957971,8.63842858304203,0.4455555555555555,0.4566666666666666,-0.6822222222222222,0.06741067799365905,-0.0625,-0.057589322006340954
1590512482.2439249,-0.10913829472646625,-4.2,8.688276589452933,0.4311111111111111,0.4633333333333333,-0.6755555555555556,0.11961434204041399,0.057114342040414,0.005385657959586003
1590512482.2539248,-0.10086959093149335,-4.2,8.671739181862987,0.4311111111111111,0.4633333333333333,-0.6755555555555556,0.06793494332183342,0.005434943321833419,0.05706505667816658
1590512482.2639248,-0.12,-4.231224018038161,8.554896072152642,0.4311111111111111,0.4633333333333333,-0.6755555555555556,-0.17219977452299298,0.015300225477007028,0.125
1590512482.2739248,-0.12,-4.239171229891809,8.586684919567235,0.4311111111111111,0.4633333333333333,-0.6755555555555556,-0.07285962635238835,0.11464037364761165,0.125
1590512482.2839248,-0.13253825487676674,-4.227461745123233,8.64642214694545,0.4311111111111111,0.4633333333333333,-0.6755555555555556,-0.0625,0.08581795351010396,0.007453860530311884
1590512482.2939248,-0.13218506843302344,-4.204370136866047,8.70344479470093,0.42155952808480646,0.4520450988477005,-0.6694772754479071,0.181716611468018,-0.181716611468018,0.08402996688081082
1590512482.3039248,-0.13,-4.214847220243064,8.702576389878468,0.4188888888888889,0.4488888888888889,-0.6677777777777778,0.15720487348085418,-0.15720487348085418,0.125
1590512482.3139248,-0.12055872984599218,-4.24,8.564469838767938,0.4188888888888889,0.4488888888888889,-0.6677777777777778,-0.0625,-0.18051587692509768,0.05551587692509769
1590512482.3239248,-0.12744524348996816,-4.24,8.619561947919745,0.4188888888888889,0.4488888888888889,-0.6677777777777778,-0.0625,-0.09443445637539816,-0.030565543624601843
1590512482.3339248,-0.13,-4.2319426459809435,8.66417206205717,0.4188888888888889,0.4488888888888889,-0.6677777777777778,-0.012141537380894206,0.08857538785731736,-0.0625
1590512482.3439248,-0.11552370878170834,-4.222761854390854,8.67,0.42773551130006715,0.4488888888888889,-0.6629523473716805,0.09047682011432291,-0.010715230171484375,0.11845364022864582
1590512482.3539248,-0.12984191382204813,-4.22,8.679920956911024,0.4311111111111111,0.4488888888888889,-0.6611111111111111,0.125,-0.0004940193060996023,-0.06052392277560159
1590512482.3639247,-0.12904550966368877,-4.229045509663689,8.574772451681556,0.4311111111111111,0.4488888888888889,-0.6611111111111111,-0.06846556460194511,0.05056887079610978,0.0
1590512482.3739247,-0.123790272968555,-4.219052431757861,8.624737841210694,0.4311111111111111,0.4488888888888889,-0.6611111111111111,-0.1190776984866328,-0.050655396973265605,0.011844603026734395
1590512482.3839247,-0.1532793137995887,-4.211680171550102,8.661599142249486,0.4311111111111111,0.4488888888888889,-0.6611111111111111,-0.07300107218814267,0.04149785562371468,0.10399785562371468
1590512482.3939247,-0.14961634047840944,-4.22038365952159,8.67076731904318,0.4188888888888889,0.4633333333333333,-0.6611111111111111,0.18270425598011805,0.0,0.185102127990059
1590512482.4039247,-0.14147270114942528,-4.228527298850575,8.687054597701149,0.4188888888888889,0.4633333333333333,-0.6611111111111111,0.08090876436781609,0.0,0.13420438218390804
1590512482.4139247,-0.11064632169822508,-4.220646321698225,8.600969482547338,0.4188888888888889,0.4633333333333333,-0.6611111111111111,0.17942097877218643,0.004039510613906788,-0.0625
1590512482.4239247,-0.1272265486026011,-4.237226548602601,8.625839822903902,0.4188888888888889,0.4633333333333333,-0.6611111111111111,-0.027831857532513743,0.10766592876625687,-0.0625
1590512482.4339247,-0.13,-4.216383654886404,8.66148846015146,0.4188888888888889,0.4633333333333333,-0.6611111111111111,-0.11170071898665705,0.125,-0.11170071898665705
1590512482.4439247,-0.13099989104549628,-4.199500054477252,8.678000217909007,0.4388888888888889,0.4633333333333333,-0.6888888888888889,0.1281246595171759,0.0656246595171759,-0.0593753404828241
1590512482.4539247,-0.14405668747178857,-4.192971656264106,8.651886625056424,0.4388888888888889,0.4633333333333333,-0.6888888888888889,0.16892714834933928,0.10642714834933928,-0.018572851650660728
1590512482.4639246,-0.14125789050843568,-4.2074842189831285,8.57880523355905,0.4388888888888889,0.4633333333333333,-0.6888888888888889,-0.031052737289108234,0.07036181567772294,-0.16391455296683116
1590512482.4739246,-0.1339288518925711,-4.216071148107429,8.582142296214858,0.4388888888888889,0.4633333333333333,-0.6888888888888889,-0.10044467567143081,0.10044467567143081,-0.07366597298570757
1590512482.4839246,-0.13,-4.2263039511414,8.621519755706998,0.4388888888888889,0.4633333333333333,-0.6888888888888889,-0.046200610732506614,0.1643996946337467,-0.03939969463374669
1590512482.4939246,-0.12345636623748212,-4.236543633762518,8.672718168812589,0.4432513113972341,0.4633333333333333,-0.6801640438721984,-0.08179542203147354,0.10570457796852646,0.01929542203147354
1590512482.5039246,-0.1288888494318182,-4.213333451704545,8.681111150568182,0.4455555555555555,0.4633333333333333,-0.6755555555555556,0.09722123579545452,0.2291659268465909,-0.15972123579545452
1590512482.5139246,-0.14852829558202257,-4.228528295582023,8.587358522089888,0.4455555555555555,0.4633333333333333,-0.6755555555555556,0.18290092369382055,0.07629722891853832,-0.12959907630617945
1590512482.5239246,-0.14843683124795157,-4.22,8.61195396094006,0.4455555555555555,0.4633333333333333,-0.6755555555555556,0.0625,0.0024424511750756714,-0.11767264647477299
1590512482.5339246,-0.11609149973972893,-4.22,8.652385625325339,0.4455555555555555,0.4633333333333333,-0.6755555555555556,0.0625,0.05298203165667354,0.03394609497002063
1590512482.5439246,-0.12889129349092726,-4.201108706509073,8.66,0.4455555555555555,0.44549155614745756,-0.6881497512161737,0.0625,0.1805705843182953,0.0625
1590512482.5539246,-0.12192508288186302,-4.2161498342362735,8.68422475135441,0.4455555555555555,0.4444444444444444,-0.6888888888888889,0.012031768011643892,0.08656353602328778,-0.038436463976712215
1590512482.5639246,-0.14798446266724213,-4.229328154222414,8.587390303553446,0.4455555555555555,0.4444444444444444,-0.6888888888888889,0.05830096389008776,0.004199036109912242,-0.0625
1590512482.5739245,-0.13066346083433006,-4.23,8.628341347914176,0.4455555555555555,0.4444444444444444,-0.6888888888888889,0.12292668489271853,0.06042668489271853,-0.12292668489271853
1590512482.5839245,-0.11382806896368515,-4.224609356321229,8.646171931036315,0.4455555555555555,0.4444444444444444,-0.6888888888888889,-0.00976609196929043,0.12988304598464523,-0.19238304598464523
1590512482.5939245,-0.10605004804277897,-4.223025024021389,8.66,0.44118607641354846,0.4481416960261427,-0.6848555235270363,-0.125,0.16859359986631575,-0.19328079959894723
1590512482.6039245,-0.12,-4.235240141137401,8.6547598588626,0.4311111111111111,0.4566666666666666,-0.6755555555555556,-0.09224911789124118,0.05949823578248235,-0.029749117891241177
1590512482.6139245,-0.13557494572119128,-4.232212527139405,8.595487689975831,0.4311111111111111,0.4566666666666666,-0.6755555555555556,0.13218682151489083,-0.04867170537872271,-0.09734341075744542
1590512482.6239245,-0.14,-4.211525160942398,8.610791398429338,0.4311111111111111,0.4566666666666666,-0.6755555555555556,0.033543007853314905,0.05296774411001383,-0.04802150392665745
1590512482.6339245,-0.14,-4.218163162055336,8.660271936758894,0.4311111111111111,0.4566666666666666,-0.6755555555555556,-0.1003399209486166,0.011480237154150197,0.0
1590512482.6439245,-0.11505608465608466,-4.223764021164021,8.692471957671957,0.4269537918871253,0.45181646090534977,-0.6797128747795415,-0.125,-0.0625,-0.038974867724867725
1590512482.6539245,-0.13354811831690044,-4.23677405915845,8.683225940841549,0.4244444444444445,0.4488888888888889,-0.6822222222222222,-0.020162130259686162,-0.0625,-0.16733786974031384
1590512482.6639245,-0.13325831932469318,-4.233258319324693,8.626066554597545,0.4244444444444445,0.4488888888888889,-0.6822222222222222,0.04213550422066772,0.06390651266200315,-0.061093487337996855
1590512482.6739244,-0.12150222064309824,-4.213004441286197,8.633991117427607,0.4244444444444445,0.4488888888888889,-0.6822222222222222,0.009388879019364013,0.07188887901936401,0.05311112098063599
1590512482.6839244,-0.13702273308559135,-4.227022733085591,8.657022733085592,0.4244444444444445,0.4488888888888889,-0.6822222222222222,0.035464027261648635,-0.04389208178494591,0.027035972738351365
1590512482.6939244,-0.14535069787114058,-4.235350697871141,8.67464930212886,0.43425963782759214,0.45250501276689065,-0.6791226874696492,0.033441861694628504,-0.008767446778514015,-0.029058138305371496
1590512482.7039244,-0.14,-4.224086137935607,8.632689103484852,0.4455555555555555,0.4566666666666666,-0.6755555555555556,0.0,0.1619616379024595,-0.0625
1590512482.7139244,-0.12225685644032533,-4.2288715717798375,8.591128428220163,0.4455555555555555,0.4566666666666666,-0.6755555555555556,0.05544732362398335,0.021158029128049927,-0.11794732362398336
1590512482.7239244,-0.12,-4.220580953992698,8.646514276043808,0.4455555555555555,0.4566666666666666,-0.6755555555555556,0.003630962454367434,0.058869037545632566,-0.06613096245436743
1590512482.7339244,-0.1346108935038061,-4.22,8.65,0.4455555555555555,0.4566666666666666,-0.6755555555555556,0.04565904219939398,0.0625,-0.016840957800606023
1590512482.7439244,-0.12263729057370114,-4.225787569808767,8.6673627094263,0.43333735262593787,0.45216522348207067,-0.6794139354280664,0.0625,-0.009844622609578607,0.0
1590512482.7539244,-0.11828849843861695,-4.23,8.663423003122766,0.4244444444444445,0.4488888888888889,-0.6822222222222222,-0.09290934572406787,-0.21790934572406787,0.0
1590512482.7639244,-0.12934569629111267,-4.23,8.566543037088874,0.4244444444444445,0.4488888888888889,-0.6822222222222222,-0.008178796361091673,0.04205300909727083,-0.1752318054583625
1590512482.7739244,-0.1241077314953551,-4.235892268504645,8.577676805513935,0.4244444444444445,0.4488888888888889,-0.6822222222222222,0.07365335630806114,0.0625,-0.11384664369193886
1590512482.7839243,-0.12,-4.229845530160062,8.620463409519816,0.4244444444444445,0.4488888888888889,-0.6822222222222222,0.029801845250576636,-0.0009654364996155712,-0.030767281750192214
1590512482.7939243,-0.13839352921756357,-4.210803235391218,8.695983823043909,0.4132039543670445,0.4488888888888889,-0.6689380066762041,-0.0625,0.16741911521954442,0.057479778804886104
