time,acc_x,acc_y,acc_z,mag_x,mag_y,mag_z,gyr_x,gyr_y,gyr_z
1590514821.586074,-0.04,-4.33,8.65,0.4311111111111111,0.2611111111111111,-0.59,-0.0625,-0.3125,2.875
1590514821.596074,-0.05954792254095495,-4.300678116188568,8.718417728893343,0.4311111111111111,0.2611111111111111,-0.59,0.12076177382145273,-0.5568490317619369,2.5695637102975786
1590514821.606074,-0.07,-4.29,8.784741581584122,0.4382586791243015,0.263860175731569,-0.586151309531359,0.125,-0.4387920920793963,2.561853953960302
1590514821.616074,-0.07,-4.333378520036213,8.816196931433746,0.4455555555555555,0.26666666666666666,-0.5822222222222222,-0.029923285843617475,-0.35123082146090434,2.8186541073045217
1590514821.626074,-0.05783907131322115,-4.36,8.789597678283053,0.4455555555555555,0.26666666666666666,-0.5822222222222222,-0.0869970978538161,-0.4510058042923678,2.8614941957076323
1590514821.636074,-0.05,-4.372038797840317,8.776019398920159,0.4455555555555555,0.26666666666666666,-0.5822222222222222,0.012742486501982897,-0.4247575134980171,2.662015026996034
1590514821.646074,-0.045657155618160895,-4.3756571556181605,8.788685688763678,0.4455555555555555,0.26666666666666666,-0.5822222222222222,0.11678555477298885,-0.375,2.345357780908045
1590514821.656074,-0.03730136863226618,-4.361904105896799,8.783808211793598,0.4488538827827857,0.26306849150968825,-0.5843211577304596,0.2718322302416819,-0.3075342158066545,1.9107019855649725
1590514821.666074,-0.040057455905932654,-4.34,8.729942544094067,0.4577777777777778,0.2533333333333333,-0.59,0.4580939337252806,-0.020234834313201486,1.3323757349011225
1590514821.676074,-0.057180320076057674,-4.337180320076057,8.678983520836635,0.4577777777777778,0.2533333333333333,-0.59,0.4278689985739186,0.24036899857391855,0.9118850023768024
1590514821.686074,-0.06648691679357607,-4.321756541603212,8.64121729198394,0.4577777777777778,0.2533333333333333,-0.59,0.6655432299598505,0.3492391925100374,0.6359783850200748
1590514821.696074,-0.09232611041441861,-4.312326110414419,8.718608883315348,0.4577777777777778,0.2533333333333333,-0.59,0.7688854297296509,0.29796180990988363,0.5043472396395345
1590514821.706074,-0.10446826758147514,-4.32,8.802341337907375,0.45579188107489993,0.2513474366304555,-0.583545835715647,0.48536663807890223,0.11036663807890223,0.3683533447684391
1590514821.716074,-0.09272045889101338,-4.314240152963671,8.847279541108986,0.4533333333333333,0.2488888888888889,-0.5755555555555556,0.3125,-0.17049713193116633,0.2935038240917782
1590514821.726074,-0.0716026077003467,-4.31,8.801218253902427,0.4533333333333333,0.2488888888888889,-0.5755555555555556,0.33874185093641657,-0.35496740374566627,0.13501629812716687
1590514821.736074,-0.05755025302220973,-4.31,8.72244974697779,0.4533333333333333,0.2488888888888889,-0.5755555555555556,0.34437816277762157,-0.4387563255552432,0.10843275583356761
1590514821.746074,-0.05406218974623724,-4.305937810253763,8.734062189746238,0.4533333333333333,0.2488888888888889,-0.5755555555555556,0.14844525634406897,-0.22461131408601723,0.27538868591398274
1590514821.756074,-0.06379013978088402,-4.3,8.75895069890442,0.4533333333333333,0.2505733954581707,-0.5835569617596441,0.02368837363052512,-0.14012325273894977,0.3361883736305251
1590514821.766074,-0.07465210745618628,-4.3,8.77604367763144,0.4533333333333333,0.2533333333333333,-0.5966666666666667,0.09157567160116417,0.024727014803492542,0.46222701480349254
1590514821.776074,-0.08895085814074054,-4.308950858140741,8.715245709296298,0.4533333333333333,0.2533333333333333,-0.5966666666666667,0.1529714316898142,0.125,0.5904714316898142
1590514821.786074,-0.10534753031647442,-4.309304939367051,8.681390121265897,0.4533333333333333,0.2533333333333333,-0.5966666666666667,0.020389677610174517,-0.07553238686779057,0.5581558710440698
1590514821.796074,-0.10625754429229671,-4.3,8.714969822830813,0.4533333333333333,0.2533333333333333,-0.5966666666666667,-0.26534208903887335,-0.48390348173145564,0.40643860730741777
1590514821.806074,-0.09752485053002238,-4.301237574734989,8.748663023144921,0.4538833665488839,0.2527833001177827,-0.592266400942262,-0.50773484209368,-0.9523484209368008,0.22679547371895975
1590514821.816074,-0.08879938913439044,-4.31,8.80120061086561,0.4577777777777778,0.2488888888888889,-0.5611111111111111,-0.4341755751234728,-1.5916603034832337,0.13582824278658695
1590514821.826074,-0.10924210423706784,-4.31,8.780757895762932,0.4577777777777778,0.2488888888888889,-0.5611111111111111,-0.13605264654276056,-1.8046052524694567,0.30618420197556534
1590514821.8360739,-0.07227617576381738,-4.277723824236182,8.67820940611054,0.4577777777777778,0.2488888888888889,-0.5611111111111111,0.6676782955715757,-2.0198217044284243,0.6478565911431514
1590514821.8460739,-0.07947545485753518,-4.2705245451424645,8.73580363886028,0.4577777777777778,0.2488888888888889,-0.5611111111111111,0.8026647785787848,-1.8848352214212152,0.9178295571575695
1590514821.8560739,-0.10215678966331222,-4.297843210336688,8.830783948316562,0.4551417015226184,0.2527231816236662,-0.5642264739581176,0.6740200646042986,-1.415439806187104,1.5673996769785066
1590514821.8660738,-0.10150789671596891,-4.29,8.86490473802958,0.4455555555555555,0.26666666666666666,-0.5755555555555556,0.6037697417899223,-1.5625,1.897421032840311
1590514821.8760738,-0.067285749649311,-4.308214374123278,8.807214126578101,0.4455555555555555,0.26666666666666666,-0.5755555555555556,0.4772320323459031,-1.4941960970377093,2.3580359353081937
1590514821.8860738,-0.0728598255644118,-4.338571965112882,8.748571965112882,0.4455555555555555,0.26666666666666666,-0.5755555555555556,0.46427565413345573,-1.339299127822059,2.4375
1590514821.8960738,-0.017744139879361687,-4.3422558601206385,8.735914713293122,0.4455555555555555,0.26666666666666666,-0.5755555555555556,0.522867832328014,-0.9973347904100176,2.4119669580820036
1590514821.9060738,0.027247746347528752,-4.370217904880324,8.723188063413119,0.4482046420060097,0.26666666666666666,-0.5853950195143854,0.48143650917003417,-0.6847761889959589,2.2898507926639726
1590514821.9160738,0.053070927513639905,-4.374611958579223,8.721541031065584,0.4533333333333333,0.26666666666666666,-0.6044444444444445,0.7115438147199644,-0.1970618528003563,1.8364742233604276
1590514821.9260738,-0.009870457115167179,-4.3414840898077856,8.728645453077048,0.4533333333333333,0.26666666666666666,-0.6044444444444445,0.8209659182684542,0.3649147956711355,1.1266192860604103
1590514821.9360738,-0.08807818822916913,-4.296601509809026,8.723398490190974,0.4533333333333333,0.26666666666666666,-0.6044444444444445,1.0877443382161536,0.9587405636935893,0.35375943630641077
1590514821.9460738,-0.11618606200760397,-4.266186062007604,8.738558186022813,0.4533333333333333,0.26666666666666666,-0.6044444444444445,1.2113371124524752,1.0773257750950496,0.1875
1590514821.9560738,-0.09851832388328033,-4.26574083805836,8.7343520951459,0.4568416232578866,0.26283944129442677,-0.5980657354907113,1.1244191674733786,0.8026586917438805,0.1336796432028765
1590514821.9660738,-0.07,-4.28,8.789437764524816,0.4655555555555556,0.2533333333333333,-0.5822222222222222,0.6181223547518276,0.19101397171989226,0.02429720565602155
1590514821.9760737,-0.06337980489954531,-4.283310097550228,8.79682931714841,0.4655555555555556,0.2533333333333333,-0.5822222222222222,0.29181189031107907,-0.08275243875568376,0.12456432906676282
1590514821.9860737,-0.054952905376032465,-4.29,8.75,0.4655555555555556,0.2533333333333333,-0.5822222222222222,0.26547782930010144,-0.1571330241993914,0.2035665120996957
1590514821.9960737,-0.06372809857358684,-4.286864049286794,8.759407852139619,0.4655555555555556,0.2533333333333333,-0.5822222222222222,0.25370092412737655,0.16419938391508232,0.0625
1590514822.0060737,-0.052815983813859387,-4.28281598381386,8.784223975720789,0.46446045073905473,0.2544284381498342,-0.5842559883100096,0.09860015174506828,0.24120005058168942,0.07129994941831057
1590514822.0160737,-0.06978836621143147,-4.299788366211431,8.809682549317147,0.45786007980666554,0.26102880908222337,-0.5965138200415894,-0.060515933232169944,0.18816135558927669,0.12433864441072331
1590514822.0260737,-0.06720840397825593,-4.317208403978256,8.790917655695583,0.4577777777777778,0.2611111111111111,-0.5966666666666667,0.06978990054360176,0.17734242540770132,-0.02760504972819912
1590514822.0360737,-0.06,-4.309254296018668,8.690994271975107,0.4577777777777778,0.2611111111111111,-0.5966666666666667,0.246892900077788,0.30939290007778797,0.05939290007778799
1590514822.0460737,-0.06,-4.274275808476299,8.718551616952597,0.4577777777777778,0.2611111111111111,-0.5966666666666667,0.10711190148843326,0.1875,-0.04461190148843326
1590514822.0560737,-0.061935912441084366,-4.258064087558916,8.697743649764337,0.455411662572008,0.25960540143471217,-0.5953760583726104,0.12299726378388637,0.12700273621611363,0.02419890551355455
1590514822.0660737,-0.07956636361874116,-4.2563775757458275,8.723622424254174,0.4455555555555555,0.2533333333333333,-0.59,0.31521022738286775,-0.06521022738286777,0.10507007579428926
1590514822.0760736,-0.1,-4.274380229115716,8.701239541768569,0.4455555555555555,0.2533333333333333,-0.59,0.17381178401338654,0.007747136053546141,0.0625
1590514822.0860736,-0.09190722593644107,-4.281907225936441,8.698324709222456,0.4455555555555555,0.2533333333333333,-0.59,0.049130243154135,-0.1875,0.0625
1590514822.0960736,-0.08,-4.27,8.759008248037365,0.4455555555555555,0.2533333333333333,-0.59,-0.12190077511676439,-0.2073002583722548,0.022899483255490412
1590514822.1060736,-0.07685799099080398,-4.273142009009196,8.804713013513794,0.4455555555555555,0.2533333333333333,-0.59,-0.26963755630747516,-0.29909389076868786,-0.05268122184626243
1590514822.1160736,-0.05949075131308518,-4.290509248686915,8.824907513130851,0.4455555555555555,0.2533333333333333,-0.59,-0.3845484128796529,-0.5784140214660881,-0.0031828042932176294
1590514822.1260736,-0.05,-4.303711130992646,8.718866607022061,0.4455555555555555,0.2533333333333333,-0.59,-0.6088891374080783,-0.9909728435201955,-0.1320837061121173
1590514822.1360736,-0.05674617658398664,-4.31,8.723611618043952,0.4455555555555555,0.2533333333333333,-0.59,-0.7507454054748747,-1.3139908109497493,-0.20783639635008355
1590514822.1460736,-0.07,-4.306829746748534,8.773170253251466,0.4455555555555555,0.2533333333333333,-0.59,-0.7957436687133413,-1.5228718343566707,-0.14481408282166466
1590514822.1560736,-0.07,-4.292905398679364,8.78,0.44739489663868326,0.2564864894758381,-0.5881606589168722,-0.5658783223280353,-1.3340370640740618,-0.15793916116401766
1590514822.1660736,-0.0655802227046712,-4.283259331885986,8.784419777295328,0.4533333333333333,0.26666666666666666,-0.5822222222222222,-0.2645055676167799,-0.6685167028503396,-0.007252783808389944
1590514822.1760736,-0.05447808252724379,-4.3027609587363775,8.773434247581731,0.4533333333333333,0.26666666666666666,-0.5822222222222222,-0.15951198420472634,-0.23274400789763683,0.11426797630708951
1590514822.1860735,-0.041638912697440925,-4.309180543651279,8.734916738092323,0.4533333333333333,0.26666666666666666,-0.5822222222222222,-0.23975679564099425,-0.19262160217950286,0.23463519346149136
1590514822.1960735,-0.07377051714011933,-4.273770517140119,8.78,0.4533333333333333,0.26666666666666666,-0.5822222222222222,0.011782866062872863,-0.2617828660628729,0.16034859818861857
1590514822.2060735,-0.08673549503879324,-4.286735495038793,8.78,0.4533333333333333,0.26666666666666666,-0.5822222222222222,0.05229842199622886,-0.30229842199622886,0.2818952659886866
1590514822.2160735,-0.11695914425791115,-4.27,8.795438716386867,0.4455555555555555,0.2611111111111111,-0.59,0.08698930322388947,-0.2880106967761105,0.5040187193581934
1590514822.2260735,-0.08949094520082579,-4.273503018266391,8.741975853868869,0.4455555555555555,0.2611111111111111,-0.59,-0.037424543340214805,-0.5656815924948388,0.9844693208247315
1590514822.2360735,-0.062175267413362656,-4.28,8.709561831466592,0.4455555555555555,0.2611111111111111,-0.59,0.17390457866648343,-0.7608568679997252,1.2608568679997252
1590514822.2460735,-0.04089499466677202,-4.286070003555485,8.764280014221942,0.4455555555555555,0.2611111111111111,-0.59,0.25,-0.875,1.431906283332675
1590514822.2560735,-0.021353974590180545,-4.301353974590181,8.82,0.4446529058287685,0.2611111111111111,-0.590902649726787,0.2330753176227432,-0.8580753176227432,1.5540376588113716
1590514822.2660735,-0.029852890518935783,-4.309852890518935,8.82,0.438986961876265,0.2611111111111111,-0.5965685936792905,0.12683886851330267,-0.7518388685133026,1.5009194342566514
1590514822.2760735,-0.06,-4.31,8.737142463298643,0.4388888888888889,0.2611111111111111,-0.5966666666666667,0.01686453235922531,-0.6021822661796127,1.2271822661796126
1590514822.2860734,-0.06344356993284714,-4.303112860134306,8.693774279731388,0.4388888888888889,0.2611111111111111,-0.5966666666666667,-0.0625,-0.5840223120802946,1.0798884395985269
1590514822.2960734,-0.06703664140599808,-4.29,8.743706868752016,0.4388888888888889,0.2611111111111111,-0.5966666666666667,-0.08102099121251209,-0.5694370263624637,0.9676049560625605
1590514822.3060734,-0.06212264863069537,-4.292122648630695,8.802122648630696,0.4403039879760191,0.2585167627847057,-0.5891194715353053,-0.07193378423261572,-0.4109668921163079,1.2272996618255383
1590514822.3160734,-0.06292295330774039,-4.30353852334613,8.81707704669226,0.4455555555555555,0.2488888888888889,-0.5611111111111111,0.125,-0.35673154182662264,1.3971157709133113
1590514822.3260734,-0.04399847571537449,-4.306999237857687,8.793990854292247,0.4455555555555555,0.2488888888888889,-0.5611111111111111,0.10624523661054527,-0.3624809464421811,1.493764290168364
1590514822.3360734,-0.0346155676747645,-4.302307783837382,8.723846703024295,0.4455555555555555,0.2488888888888889,-0.5611111111111111,0.09134729796727814,-0.20192364898363907,1.653847297967278
1590514822.3460734,-0.04893001882217286,-4.3094650094110865,8.771069981177826,0.4455555555555555,0.2488888888888889,-0.5611111111111111,0.18081261763858036,-0.23662523527716073,1.7332815440964509
1590514822.3560734,-0.034705543214691464,-4.302352771607345,8.785294456785309,0.4455555555555555,0.2488888888888889,-0.5611111111111111,0.09190964509182169,-0.058819290183643375,1.5110241127295543
1590514822.3660734,-0.04109282858211317,-4.311092828582113,8.792350199925208,0.4455555555555555,0.2488888888888889,-0.5688888888888889,-0.04883964272358542,0.4091508931910364,0.9375
1590514822.3760734,-0.05,-4.32,8.720102767511044,0.4455555555555555,0.2488888888888889,-0.5688888888888889,0.0625,0.7184288515279906,0.8292490196520328
1590514822.3860734,-0.05166374781085815,-4.315008756567426,8.701646234676007,0.4455555555555555,0.2488888888888889,-0.5688888888888889,0.0832968476357268,0.7917031523642732,0.4376094570928196
1590514822.3960733,-0.05982545242265032,-4.290523642732049,8.758778166958551,0.4455555555555555,0.2488888888888889,-0.5688888888888889,0.185318155283129,0.689681844716871,0.13154553415061299
1590514822.4060733,-0.08990158420364179,-4.309967194734547,8.800032805265454,0.4455555555555555,0.2488888888888889,-0.568958144449289,0.4387301974544775,0.7504100658181592,0.18729496709092042
1590514822.4160733,-0.06377592757926209,-4.30125864252642,8.80874135747358,0.4455555555555555,0.2488888888888889,-0.5873428657775562,0.7653009052592239,0.8592669684197413,0.13286651579012934
1590514822.4260733,-0.07221874347735338,-4.3,8.755593821749112,0.4455555555555555,0.2488888888888889,-0.59,0.9513671467334586,0.9445314130661657,0.125
1590514822.4360733,-0.08595001963864886,-4.291074970542026,8.684875049096622,0.4455555555555555,0.2488888888888889,-0.59,0.9070309431461115,0.6570309431461115,0.10640618862922231
1590514822.4460733,-0.09506544963063081,-4.27,8.727401825554054,0.4455555555555555,0.2488888888888889,-0.59,0.5949771805743275,0.3295567106700487,0.0008181203828849723
1590514822.4560733,-0.08039272000749227,-4.270392720007492,8.75157088002997,0.4458610044502717,0.2488888888888889,-0.5894327377669556,0.30022749976586643,-0.004909000093653419,-0.17522749976586646
1590514822.4660733,-0.09,-4.28,8.79208226125219,0.4533333333333333,0.2488888888888889,-0.5755555555555556,0.026028265652384683,-0.13801413282619235,0.13801413282619235
1590514822.4760733,-0.09,-4.28,8.799902487228252,0.4533333333333333,0.2488888888888889,-0.5755555555555556,0.12378109035313421,-0.1868905451765671,0.1868905451765671
1590514822.4860733,-0.07760586319218242,-4.267182410423453,8.739576547231271,0.4533333333333333,0.2488888888888889,-0.5755555555555556,-0.029926710097719873,-0.08010993485342019,0.047536644951140065
1590514822.4960732,-0.06866583037748364,-4.29,8.771334169622516,0.4533333333333333,0.2488888888888889,-0.5755555555555556,-0.09164575943709087,0.02914575943709087,0.0
1590514822.5060732,-0.06261816189405081,-4.29,8.77738183810595,0.4533333333333333,0.2488888888888889,-0.5755555555555556,0.059545952648729694,-0.1220459526487297,0.0
1590514822.5160732,-0.08987312045402655,-4.299746240908053,8.769619361362079,0.4455555555555555,0.2533333333333333,-0.5688888888888889,-0.06408599432466812,-0.18908599432466813,0.060121008512997814
1590514822.5260732,-0.08,-4.28,8.71514091005892,0.4455555555555555,0.2533333333333333,-0.5688888888888889,-0.2565530276141123,-0.3297632569035281,-0.10773674309647192
1590514822.5360732,-0.08182864964973026,-4.28,8.664629197197842,0.4455555555555555,0.2533333333333333,-0.5688888888888889,-0.4375,-0.3521418793783718,-0.0625
1590514822.5460732,-0.08858329978259119,-4.28,8.71866639826073,0.4455555555555555,0.2533333333333333,-0.5688888888888889,-0.4375,-0.2677087527176101,-0.0625
1590514822.5560732,-0.05145029511819266,-4.289637426220452,8.807099409763616,0.4455555555555555,0.2533333333333333,-0.5688888888888889,-0.31703217224435204,0.05116956938911993,0.05796782775564795
1590514822.5660732,-0.06756939947329793,-4.272430600526702,8.836354099209947,0.45238809979517136,0.2601658775729492,-0.5874343661107033,-0.037978133229719824,0.0625,0.0625
1590514822.5760732,-0.08347103282475134,-4.28,8.805702770226741,0.4533333333333333,0.2611111111111111,-0.59,0.027377201803868573,-0.13584697757734793,0.040806044845304125
1590514822.5860732,-0.09665215819990258,-4.28,8.71343489260068,0.4533333333333333,0.2611111111111111,-0.59,-0.34334194937226004,-0.17703799437469556,-0.04157598874939113
1590514822.5960732,-0.07200327766505385,-4.27300491649758,8.75,0.4533333333333333,0.2611111111111111,-0.59,-0.6312602427032933,-0.5125204854065866,-0.0625
1590514822.6060731,-0.08836936163571094,-4.297554042453566,8.75,0.4533333333333333,0.2611111111111111,-0.59,-0.6824042551115967,-0.6148085102231934,-0.0625
1590514822.6160731,-0.06803040905910046,-4.293939181881799,8.7721216362364,0.4455555555555555,0.2488888888888889,-0.6044444444444445,-0.7253801132387556,-0.5880701698581334,-0.012309943380622176
1590514822.6260731,-0.06099467747448606,-4.309005322525514,8.737015967576543,0.4455555555555555,0.2488888888888889,-0.6044444444444445,-0.5876995947067728,-0.4188497973533864,-0.05628326578446213
1590514822.636073,-0.07,-4.3,8.715565354503951,0.4455555555555555,0.2488888888888889,-0.6044444444444445,-0.22681102290020352,-0.23840551145010175,0.0
1590514822.646073,-0.07,-4.3,8.761706422691185,0.4455555555555555,0.2488888888888889,-0.6044444444444445,-0.03455657212005647,-0.14227828606002824,0.0
1590514822.656073,-0.07,-4.3,8.78168951633454,0.4455555555555555,0.2488888888888889,-0.6044444444444445,0.14611895418174403,-0.015410784363691962,0.07305947709087202
1590514822.666073,-0.07,-4.3,8.796878319367403,0.4455555555555555,0.25194591971884545,-0.5845737440497266,0.20701050395373538,0.0625,0.125
1590514822.676073,-0.06,-4.298497323108088,8.753989292432355,0.4455555555555555,0.2533333333333333,-0.5755555555555556,0.1531751917233396,0.0906751917233396,0.08128346114889307
1590514822.686073,-0.06120109581192143,-4.292402191623843,8.729608766495373,0.4455555555555555,0.2533333333333333,-0.5755555555555556,0.3125,0.2650136976490179,0.17999315117549106
1590514822.696073,-0.06871116761266988,-4.30742233522534,8.78968934090136,0.4455555555555555,0.2533333333333333,-0.5755555555555556,0.3125,0.3588895951583735,0.13305520242081326
1590514822.706073,-0.07,-4.283267593352483,8.80891080221584,0.4455555555555555,0.2533333333333333,-0.5755555555555556,0.5909625692449734,0.6534625692449734,0.23638502769798933
1590514822.716073,-0.07,-4.28,8.80720853858785,0.4266666666666667,0.2488888888888889,-0.5755555555555556,0.7587233169129721,1.0625,0.08866995073891626
1590514822.726073,-0.07027321000342583,-4.279453579993149,8.786448269955464,0.4266666666666667,0.2488888888888889,-0.5755555555555556,0.8022546248715313,1.047131937307297,0.24487731243576566
1590514822.736073,-0.0774576909900651,-4.26508461801987,8.693050017129154,0.4266666666666667,0.2488888888888889,-0.5755555555555556,0.5328365878725592,0.6430048818088386,0.11016829393627955
1590514822.746073,-0.1149140491404914,-4.242979929799298,8.685257852578525,0.4266666666666667,0.2488888888888889,-0.5755555555555556,-0.1305069300693007,-0.054844298442984434,0.12061245612456124
1590514822.756073,-0.2470358203582036,-4.054234542345423,8.288892538925388,0.4266666666666667,0.2488888888888889,-0.5755555555555556,-1.9589778710287102,-1.5294176379263793,0.002646588965889665
1590514822.766073,0.05545274681791203,-4.494781375717206,9.12473059420959,0.4577777777777778,0.2611111111111111,-0.59,-2.1808885115082766,-1.682986546197982,0.1713504913275737
1590514822.776073,-0.032141726571258994,-4.3334231352634704,8.820455055068258,0.4577777777777778,0.2611111111111111,-0.59,-0.5961200784805119,-0.3287298852469829,0.11372254830838224
1590514822.786073,-0.10688473103909121,-4.198307383895757,8.570768459739392,0.4577777777777778,0.2611111111111111,-0.59,0.6762069829602406,0.7127464082860007,0.0625
1590514822.796073,-0.08074212307959379,-4.269628938460203,8.749628938460203,0.4577777777777778,0.2611111111111111,-0.59,-0.5347870193559587,-0.6967765384949223,0.0625
1590514822.806073,-0.09894497005468275,-4.260527514972658,8.740527514972658,0.4577777777777778,0.2611111111111111,-0.59,-1.388045471313254,-0.9243121256835344,0.0625
1590514822.816073,0.08,-4.49,9.18,0.4388888888888889,0.2411111111111111,-0.5966666666666667,-2.125,-1.75,0.125
1590514822.826073,-0.06950434782608693,-4.298966666666667,8.880991304347827,0.4388888888888889,0.2411111111111111,-0.5966666666666667,0.2110054347826087,0.3783605072463767,0.28073369565217393
1590514822.836073,-0.1228997173405432,-4.2218338044324275,8.644435500389168,0.4388888888888889,0.2411111111111111,-0.5966666666666667,0.16271481094588502,0.43083804432428,0.16937676662160503
1590514822.846073,-0.1530414413710984,-4.136526576743641,8.703922973315896,0.4388888888888889,0.2411111111111111,-0.5966666666666667,-1.5380546175018057,-0.1657545042846825,0.6766638525054168
1590514822.856073,-0.08754260282262,-4.292086318296277,9.023229811239728,0.4388888888888889,0.2411111111111111,-0.5966666666666667,-1.8962513908137968,0.0389293661793125,1.7512541724413906
1590514822.866073,-0.28124161073825504,-4.088624161073826,8.640973154362415,0.4577777777777778,0.2488888888888889,-0.5666666666666667,-0.694001677852349,1.5413171140939597,3.889261744966443
1590514822.876073,-0.2894725067702814,-4.212087601554221,8.912592723419285,0.4577777777777778,0.2488888888888889,-0.5666666666666667,-1.98007918285647,-0.6707361945131285,5.226782350170729
1590514822.8860729,-0.30968454258675077,-4.070525762355416,8.581156677181914,0.4577777777777778,0.2488888888888889,-0.5666666666666667,-0.5019716088328076,-0.0694006309148265,8.011172450052577
1590514822.8960729,-0.25879519534093665,-4.155341341098439,8.767750950416566,0.4577777777777778,0.2488888888888889,-0.5666666666666667,-0.8200300291191458,-1.1826051019170105,9.813503498341827
1590514822.9060729,-0.22538676188899662,-4.055138222148651,8.69334263485232,0.4577777777777778,0.2488888888888889,-0.5666666666666667,-0.875,-0.5545587296332206,12.48376865230449
1590514822.9160728,-0.28220691117235536,-3.9677930888276447,8.858675853296587,0.4655555555555556,0.2488888888888889,-0.5822222222222222,-2.1553450286198856,0.394310472758109,16.462415200339198
1590514822.9260728,-0.32666631333474666,-3.9233336866652535,8.832000211999151,0.4655555555555556,0.2488888888888889,-0.5822222222222222,-2.7666618083527665,0.7833302416790333,20.741632658469367
1590514822.9360728,-0.3995618394938169,-3.8599842241861886,8.765007887906906,0.4655555555555556,0.2488888888888889,-0.5822222222222222,-3.7261348407999866,0.2545970382181812,26.83470382181812
1590514822.9460728,-0.49205543587046874,-3.37617156621601,9.006914216891996,0.4655555555555556,0.2488888888888889,-0.5822222222222222,-4.704432494783804,0.2990651133992638,31.28151133992638
1590514822.9560728,-0.47717107573451945,-3.2043026454407117,9.071434215146905,0.4655555555555556,0.2488888888888889,-0.5822222222222222,-4.946463844668149,-0.8652954173007141,37.014964737211756
1590514822.9660728,-0.45,-3.16,8.65,0.4577777777777778,0.2533333333333333,-0.59,-0.8125,-3.125,43.0
1590514822.9760728,-0.45,-3.210456159519257,8.822992546923167,0.4577777777777778,0.2533333333333333,-0.59,-1.8937034182697936,-3.125,46.73916182151637
1590514822.9860728,-0.2702810590631365,-2.740327902240326,8.750327902240326,0.4577777777777778,0.2533333333333333,-0.59,-2.0601578411405295,-3.5677698574338086,54.46619144602851
1590514822.9960728,-0.33,-2.8116950464396284,8.817739938080496,0.4577777777777778,0.2533333333333333,-0.59,-1.548374613003096,-4.726344814241486,60.86619582043344
1590514823.0060728,-0.33,-2.8366670635865683,8.784443915217908,0.4577777777777778,0.2533333333333333,-0.59,-1.3402744701119313,-5.298620207192188,65.34034889259347
1590514823.0160728,-0.37,-2.86,8.9,0.4533333333333333,0.2344444444444445,-0.5966666666666667,-1.625,-6.0625,71.1875
1590514823.0260727,-0.37252750973421367,-2.8612637548671067,8.897788428982564,0.4533333333333333,0.2344444444444445,-0.5966666666666667,-1.628949233959709,-6.078296935838836,71.48764178093786
1590514823.0360727,-0.44353309632639243,-2.896766548163196,8.835658540714407,0.4533333333333333,0.2344444444444445,-0.5966666666666667,-1.739895463009988,-6.522081852039952,79.91955518875909
1590514823.0460727,-0.47226940825982827,-2.9445388165196564,8.852269408259827,0.4533333333333333,0.2344444444444445,-0.5966666666666667,-2.121156804330471,-6.794473002706544,83.93512203789162
1590514823.0560727,-0.5161902480839048,-2.9961902480839044,8.874476099233563,0.4533333333333333,0.2344444444444445,-0.5966666666666667,-2.159524379790238,-7.191664670734167,87.59581736587333
1590514823.0660727,-0.5374929877164136,-3.024985975432827,8.909971950865655,0.4733146339104362,0.21446314386734155,-0.591671341522391,-2.078168826772415,-7.21883765354483,91.51286391333785
1590514823.0760727,-0.5775334323922734,-3.0425111441307577,8.91374442793462,0.48,0.20777777777777776,-0.59,-2.2579866270430906,-7.382986627043091,94.650352897474
1590514823.0860727,-0.6249716432467579,-3.0832955243290106,8.826761189177475,0.48,0.20777777777777776,-0.59,-2.270951486471842,-7.9161940541126325,98.38264006791171
1590514823.0960727,-0.6625761942188455,-3.096515238843769,8.790454283468693,0.48,0.20777777777777776,-0.59,-2.25,-7.918559514452887,101.03317286699851
1590514823.1060727,-0.700135205249504,-3.1,8.800135205249504,0.48,0.20777777777777776,-0.59,-2.1241549671906,-8.2525350984282,103.9493304593316
1590514823.1160727,-0.7412159801397572,-3.10085118609783,8.810486392055903,0.4844444444444445,0.17333333333333334,-0.5755555555555556,-2.189779962762045,-8.750759987587347,107.33833957796985
1590514823.1260726,-0.8376278043398308,-3.1683394630378814,8.849051121735933,0.4844444444444445,0.17333333333333334,-0.5755555555555556,-2.3705521331371826,-8.811017377712394,109.38709084222141
1590514823.1360726,-0.9054710683340573,-3.1887060195240164,8.70035184380787,0.4844444444444445,0.17333333333333334,-0.5755555555555556,-1.965805822912142,-8.929412622025103,111.36655826341419
1590514823.1460726,-0.9555724372567753,-3.2173434623540653,8.835831799221681,0.4844444444444445,0.17333333333333334,-0.5755555555555556,-2.564121012280661,-9.222327732854845,113.32289749027102
1590514823.1560726,-0.9756673717935552,-3.1886652564128894,8.88133474358711,0.4844444444444445,0.17333333333333334,-0.5755555555555556,-2.4781183894354193,-9.39688161056458,115.11569771621039
1590514823.1660726,-1.0389227063717976,-3.209461353185899,8.958743157433764,0.4986295404228402,0.12968688416903876,-0.5897406515339513,-2.4375,-9.621633457411868,117.46521239325597
1590514823.1760726,-1.081909634282241,-3.1848542194306555,8.91809036571776,0.4988888888888889,0.1288888888888889,-0.59,-2.4375,-9.467838871441597,119.12399832843684
1590514823.1860726,-1.09,-3.1112385146935986,8.789667400713798,0.4988888888888889,0.1288888888888889,-0.59,-2.1151805376262436,-9.491219910395627,120.94165749107754
1590514823.1960726,-1.1265296207817237,-3.078082227530966,8.864977014032482,0.4988888888888889,0.1288888888888889,-0.59,-2.6561063377030094,-9.910958233794391,121.82676836368016
1590514823.2060726,-1.1837402238920411,-3.0962441343352247,8.886877932832387,0.4988888888888889,0.1288888888888889,-0.59,-2.9843505597301028,-10.0625,122.60925279865052
1590514823.2160726,-1.2500732109318102,-3.134029284372724,8.865970715627276,0.5053805137116111,0.12083032014344061,-0.59,-3.0494509180114227,-9.974359404346659,123.56433027329525
1590514823.2260725,-1.315577027927546,-3.137211486036227,8.856394256981886,0.5311111111111111,0.08888888888888889,-0.59,-2.6700717877264193,-9.904748742957533,125.16196159205185
1590514823.2360725,-1.3816869868738015,-3.107848434196942,8.778777592055455,0.5311111111111111,0.08888888888888889,-0.59,-2.4865527137308883,-10.247096381692149,126.05378914507645
1590514823.2460725,-1.4112266857962696,-3.0887733142037304,8.811746771879482,0.5311111111111111,0.08888888888888889,-0.59,-2.6129169655667144,-10.242333213773314,126.25
1590514823.2560725,-1.4084218543046356,-3.0684218543046358,8.842632781456954,0.5311111111111111,0.08888888888888889,-0.59,-2.5329097682119204,-10.07895488410596,125.56254759933775
1590514823.2660725,-1.421668149466192,-3.06,8.857085186832741,0.5232865015816528,0.06180370205614868,-0.605047326018189,-2.510425934163701,-10.067712967081851,124.24994439501779
1590514823.2760725,-1.5241717122334624,-3.0470505058102364,8.892949494189764,0.5166666666666667,0.03888888888888889,-0.6177777777777778,-2.7464015080290323,-10.125,122.30801775036666
1590514823.2860725,-1.6126694740782332,-3.04,8.893904360845967,0.5166666666666667,0.03888888888888889,-0.6177777777777778,-2.6220112764364587,-9.972609021149168,120.48206765861876
1590514823.2960725,-1.6237254901960785,-2.958627450980392,8.914411764705882,0.5166666666666667,0.03888888888888889,-0.6177777777777778,-1.940563725490196,-9.315563725490197,118.47855392156863
1590514823.3060725,-1.722523034428332,-2.998584591101904,9.007876886652856,0.5166666666666667,0.03888888888888889,-0.6177777777777778,-1.9955768471934499,-9.1875,116.95173128144421
1590514823.3160725,-1.777354740061162,-2.985290519877676,9.022645259938837,0.5234157322460076,-0.023781005776418604,-0.6380249745158002,-3.1471712538226297,-10.055237003058105,114.7645259938838
1590514823.3260725,-1.7736822128545757,-2.942093277127454,8.792559662764724,0.5244444444444445,-0.03333333333333333,-0.6411111111111111,-2.0094564012562346,-9.279318097845255,113.71027660682196
1590514823.3360724,-1.8374410421501834,-2.9349868982555964,8.81736243168376,0.5244444444444445,-0.03333333333333333,-0.6411111111111111,-2.467685483267201,-8.796834057048738,111.70447611739164
1590514823.3460724,-1.9181897725865698,-2.9181788352800364,8.789989062693467,0.5244444444444445,-0.03333333333333333,-0.6411111111111111,-2.1021670828346197,-8.721578480333484,109.73275568533576
1590514823.3560724,-1.9523437802075054,-2.897656219792495,8.858750241660044,0.5244444444444445,-0.03333333333333333,-0.6411111111111111,-1.9282229394453634,-8.648925686851545,108.41601373703091
1590514823.3660724,-1.948726720411263,-2.8843633602056316,8.903090080616895,0.5319599641702691,-0.05212213264789501,-0.6523843906998481,-1.8943130038555906,-8.51931300385559,107.51475201542236
1590514823.3760724,-2.0195722966041507,-2.843274324644238,8.883879054107373,0.5377777777777778,-0.06666666666666668,-0.6611111111111111,-1.9655236473156745,-8.667035470973511,106.38412585159271
1590514823.3860724,-2.1554023808844103,-2.8044722943846527,8.887763852807675,0.5377777777777778,-0.06666666666666668,-0.6611111111111111,-2.402168560335722,-8.71545183990408,105.24418695937652
1590514823.3960724,-2.1978380922497647,-2.7821619077502353,8.836485723250707,0.5377777777777778,-0.06666666666666668,-0.6611111111111111,-2.128373078129903,-8.576011923438971,104.80236115469093
1590514823.4060724,-2.239270699539488,-2.7817082798157955,8.89952037843426,0.5377777777777778,-0.06666666666666668,-0.6611111111111111,-2.094530246546161,-8.46341162557564,104.51523487672692
1590514823.4160724,-2.328333843381278,-2.7021422013669287,8.950476044748205,0.5366931135971226,-0.11005323389287482,-0.6611111111111111,-2.0669629195144346,-8.498512360161856,105.47471012275153
1590514823.4260724,-2.3799340153762336,-2.6667106564158445,8.933355328207922,0.5366666666666666,-0.1111111111111111,-0.6611111111111111,-2.010485400649757,-8.34395620194927,106.54029198700486
1590514823.4360723,-2.3841300401466223,-2.630650200733112,8.847820562052714,0.5366666666666666,-0.1111111111111111,-0.6611111111111111,-1.9266255018327807,-8.45924899633444,107.48374498167219
1590514823.4460723,-2.5436838678170277,-2.490957187042162,8.909042812957837,0.5366666666666666,-0.1111111111111111,-0.6611111111111111,-2.2470087904932443,-8.795005494058278,109.06952527266807
1590514823.4560723,-2.5270332773934756,-2.5667467561704393,8.928109983218043,0.5366666666666666,-0.1111111111111111,-0.6611111111111111,-2.329395798370922,-9.011812604887233,110.44079243583971
1590514823.4660723,-2.4697862832207353,-2.61,8.897339712415553,0.5215598082770344,-0.15055679690626195,-0.6720216199480677,-1.9820374727267946,-8.779246405194396,111.048544662338
1590514823.4760723,-2.510434245093494,-2.530746186281652,8.918819568624853,0.5166666666666667,-0.16333333333333333,-0.6755555555555556,-1.8299694240236661,-8.417316544141997,110.08929675254431
1590514823.4860723,-2.3600316830725325,-2.507082013205311,8.788359735893778,0.5166666666666667,-0.16333333333333333,-0.6755555555555556,-1.7239748349336106,-7.958399339734442,108.44814768907055
1590514823.4960723,-2.4119510204081633,-2.4329783029001075,8.742836949516649,0.5166666666666667,-0.16333333333333333,-0.6755555555555556,-1.4468071965628357,-7.9328464017185825,106.29276584317938
1590514823.5060723,-2.586437232604021,-2.3731941211677863,8.906854869100663,0.5166666666666667,-0.16333333333333333,-0.6755555555555556,-2.3628674270133674,-8.45515921837246,103.3793018886746
1590514823.5160723,-2.679344494472277,-2.369344494472277,9.067377977889107,0.5135518351759077,-0.18150318369609386,-0.6843809114460392,-3.07069381909654,-8.637290728644809,100.67363973619126
1590514823.5260723,-2.672817696571546,-2.3284530897146376,8.966814138096215,0.51,-0.20222222222222225,-0.6944444444444444,-2.042588363101348,-7.542588363101348,97.72836258810648
1590514823.5360723,-2.7441665584331245,-2.2746969893757956,8.898257526560512,0.51,-0.20222222222222225,-0.6944444444444444,-1.805397173805751,-7.161931449203834,93.96543886536614
1590514823.5460722,-2.8119347438185063,-2.236452204945195,8.96870864134591,0.51,-0.20222222222222225,-0.6944444444444444,-2.2520105786387967,-7.25,89.6754652052001
1590514823.5560722,-2.672440869706195,-2.262078071803001,8.947921928197,0.51,-0.20222222222222225,-0.6944444444444444,-1.550645794678724,-6.728731333201232,86.31346148649865
1590514823.5660722,-2.6843055052815163,-2.0913889894369673,8.900982921451842,0.51,-0.210282521818933,-0.7371640323070117,-1.3063567409259929,-5.7574122215275265,80.91333007009115
1590514823.5760722,-2.808408727113255,-2.0273673939261045,8.948939151408837,0.51,-0.21333333333333332,-0.7533333333333333,-1.6512772722289222,-5.361861363885539,75.93798788510031
1590514823.5860722,-2.833555421608938,-2.03,8.93777710804469,0.51,-0.21333333333333332,-0.7533333333333333,-1.75,-5.111106925279315,71.46521080446904
1590514823.5960722,-2.892527972457888,-1.9362080413131684,8.974711975900652,0.51,-0.21333333333333332,-0.7533333333333333,-1.408050150620927,-4.609200172138203,64.7536521732448
1590514823.6060722,-2.915078277601236,-1.8795303343925833,9.020469665607417,0.51,-0.21333333333333332,-0.7533333333333333,-1.5981531150695316,-4.4047822949768225,59.693248739103815
1590514823.6160722,-2.8614135063074535,-1.8369807791794341,9.020706753153728,0.49191774886032513,-0.21767307360685528,-0.7743087446553562,-1.6308896096143897,-4.007362012017987,53.76526622627243
1590514823.6260722,-2.890796979559001,-1.8785440816177277,9.042252897941275,0.4544444444444444,-0.22666666666666666,-0.8177777777777778,-1.0964399659926134,-2.8894794218744284,45.81907636120964
1590514823.6360722,-3.1402301900322693,-1.8853804230907134,9.025875941197562,0.4544444444444444,-0.22666666666666666,-0.8177777777777778,-1.5563060236643957,-2.4496683399067765,39.49900053782718
1590514823.6460721,-3.045485455473335,-1.991288594029089,9.008601046185252,0.4544444444444444,-0.22666666666666666,-0.8177777777777778,-1.313851588415412,-1.7862975248787958,33.47650070170962
1590514823.6560721,-2.90502225800341,-1.9440874218602007,8.853864841826104,0.4544444444444444,-0.22666666666666666,-0.8177777777777778,0.09694958799014963,-0.37166129948853954,28.86359277325251
1590514823.6660721,-2.968503914988814,-1.9220121799652001,9.21754132488193,0.3988296116772999,-0.23027801944375398,-0.841612706106554,-1.3001413745960724,-1.2094810309470545,22.290355844519016
1590514823.6760721,-3.016431459711325,-1.913195511876389,9.106350587794232,0.3688888888888889,-0.23222222222222225,-0.8544444444444445,-2.5915449347936694,-1.7030618188147713,15.092865463406795
1590514823.686072,-3.02,-1.89,9.01,0.3688888888888889,-0.23222222222222225,-0.8544444444444445,-2.625,-1.625,14.0
1590514823.696072,-3.2179546574667324,-1.8422178413011336,9.003173977328734,0.3688888888888889,-0.23222222222222225,-0.8544444444444445,-2.2410362247412516,0.03884302612124202,2.6517373090192216
1590514823.706072,-3.3973606011808912,-1.8075199141170155,8.925119484702094,0.3688888888888889,-0.23222222222222225,-0.8544444444444445,-1.945499194847021,1.0465016103059581,-6.252024959742351
1590514823.716072,-3.43643061456858,-1.8135693854314199,8.83250715099003,0.3296884420870091,-0.2563455741003021,-0.8242902545968447,-0.26363548001888426,2.5444385431419922,-11.06656842733761
1590514823.726072,-3.4447869491112737,-1.8865412710007303,8.950476016557097,0.3111111111111111,-0.2677777777777778,-0.81,-0.7476488312636962,2.8640354881908934,-15.454726686145605
1590514823.736072,-3.4706700780801976,-1.9720102342405927,8.951769817812872,0.3111111111111111,-0.2677777777777778,-0.81,-1.2736253253341567,2.5777493493316865,-19.060134434690546
1590514823.746072,-3.48,-2.0161602306144557,8.908453025847392,0.3111111111111111,-0.2677777777777778,-0.81,-1.0431628230924006,2.9040057653613993,-21.668854472991796
1590514823.756072,-3.471860580166404,-2.0177908702496063,8.91034854958399,0.3111111111111111,-0.2677777777777778,-0.81,-0.5327074432201484,3.402614121879919,-23.954927479199462
1590514823.766072,-3.485186826695998,-1.9949626346608003,8.975261557374397,0.3071931602917336,-0.28512870283502095,-0.7848131733040018,-0.09351646663000227,3.373131733040018,-26.57090720131992
1590514823.776072,-3.5569783756883018,-2.007083045704837,8.984375431442745,0.3033333333333333,-0.3022222222222222,-0.76,0.09765355348284666,3.338538071310462,-28.194652919362348
1590514823.786072,-3.62238758683869,-2.03477517367738,8.926124131613099,0.3033333333333333,-0.3022222222222222,-0.76,0.4468017596763112,3.6846896709672494,-28.81531032903275
1590514823.796072,-3.6425480056275905,-2.0667306741701204,8.88346134834024,0.3033333333333333,-0.3022222222222222,-0.76,0.9272833567816267,3.9272833567816265,-28.180591467356173
1590514823.806072,-3.6503501559398925,-2.10286645874681,8.939649844060108,0.3033333333333333,-0.3022222222222222,-0.76,1.1005192089594555,3.959792316416218,-26.999592429827047
1590514823.816072,-3.5418034692691283,-2.1685859821947564,9.026147398048154,0.31497037558254554,-0.3071220294850484,-0.7563251445528804,1.2780482301832532,3.6682893810995196,-24.296622128063145
1590514823.826072,-3.2683065261601034,-2.2288133534056995,8.957543248025777,0.3244444444444444,-0.3111111111111111,-0.7533333333333333,1.7452295116604601,3.770125188178433,-19.956060335948024
1590514823.836072,-2.867291916243441,-2.605030455396764,9.312062530581942,0.3244444444444444,-0.3111111111111111,-0.7533333333333333,2.664915762566015,4.337900939814737,-15.93953000826767
1590514823.846072,-2.770011850347046,-2.326712375148129,8.957455561198579,0.3244444444444444,-0.3111111111111111,-0.7533333333333333,5.539201371254444,7.51110970035551,-10.52794354156086
1590514823.856072,-2.7225245458520493,-2.1013864928250587,8.716478514926264,0.3244444444444444,-0.3111111111111111,-0.7533333333333333,3.467906546885559,6.523025400484955,-6.261579778987956
1590514823.866072,-2.7039625769777356,-2.3655092373282804,8.996037423022264,0.3135765040265277,-0.33556397705142377,-0.7275219748407811,-1.7712280909521554,-2.932555660824254,-4.777593557555661
1590514823.876072,-3.144359122978834,-2.17043071572762,8.98783083165111,0.30666666666666664,-0.3511111111111111,-0.7111111111111111,-2.9945835748406053,-4.532531029520516,-3.7146470829252696
1590514823.886072,-3.282022448609275,-2.07680897944371,8.890269590688753,0.30666666666666664,-0.3511111111111111,-0.7111111111111111,-2.0442410633278896,-2.027948972185499,-3.902247453145657
1590514823.896072,-3.252682109413504,-2.0917052735337602,8.931208477082306,0.30666666666666664,-0.3511111111111111,-0.7111111111111111,-0.4908945293247905,-0.5930261212419912,-6.871790290783637
1590514823.906072,-3.2969122830918036,-2.0869298230676225,8.997701752294672,0.30666666666666664,-0.3511111111111111,-0.7111111111111111,0.24989037515113333,0.47094302913679476,-10.821381741396046
1590514823.916072,-3.3199221411192212,-2.044941605839416,8.954980535279805,0.30861868072452014,-0.34776480129764803,-0.6943795620437957,0.797300790754258,1.594844890510949,-15.39701186131387
1590514823.926072,-3.253508261577845,-2.0,8.970294779303389,0.3144444444444445,-0.3377777777777778,-0.6444444444444445,0.8680353541230316,2.153486444030719,-21.773141144984873
1590514823.9360719,-3.226269417475728,-2.0031088187702264,9.071917071197412,0.3144444444444445,-0.3377777777777778,-0.6444444444444445,-0.06638602346278318,1.148316140776699,-27.43944427588997
1590514823.9460719,-3.204726125368111,-2.078412284392091,8.95315692048801,0.3144444444444445,-0.3377777777777778,-0.6444444444444445,0.2893458140513252,2.1313840976020195,-35.21645982330669
1590514823.9560719,-3.273569919162781,-2.1374279676651127,8.953569919162781,0.3144444444444445,-0.3377777777777778,-0.6444444444444445,1.2276880052326167,3.5643008083721868,-40.082220843256295
1590514823.9660718,-3.1272040454592847,-2.0827959545407153,8.85753122719216,0.33339480299818125,-0.3281472676930919,-0.6385418737473789,1.862879261807945,4.772828693566885,-49.78918778021061
1590514823.9760718,-3.1230271774721676,-2.114217419777341,8.995135887360838,0.38222222222222224,-0.3033333333333333,-0.6233333333333333,0.7334233791748527,3.9604616895874263,-57.54164620170268
1590514823.9860718,-3.1983507135016467,-2.199293162929277,8.88841637917516,0.38222222222222224,-0.3033333333333333,-0.6233333333333333,0.35880165046259993,4.169829073231927,-63.18561701230986
1590514823.9960718,-3.332258046396675,-2.2833640397685784,8.775576026512386,0.38222222222222224,-0.3033333333333333,-0.6233333333333333,1.8129318092456328,5.521169184968826,-65.43101935067124
1590514824.0060718,-3.441326981691932,-2.381326981691932,8.882653963383865,0.38222222222222224,-0.3033333333333333,-0.6233333333333333,2.274501170747462,6.194058961264408,-67.33255661976948
1590514824.0160718,-3.443374069303509,-2.4245782413370613,8.964578241337062,0.39748302667909347,-0.2855290614669836,-0.6167203180686891,1.515815949860199,5.781631899720399,-68.98116615877603
1590514824.0260718,-3.245966832265342,-2.4477730578155374,8.928529531763747,0.4155555555555556,-0.2644444444444444,-0.6088888888888889,1.5346632226942185,5.523108815129479,-69.5139183886529
1590514824.0360718,-3.111388780633181,-2.557278145847184,8.87138878063318,0.4155555555555556,-0.2644444444444444,-0.6088888888888889,1.9020841452511406,5.803820121042617,-69.15138780633181
1590514824.0460718,-2.9915846496106786,-2.7076963292547274,8.912157063403782,0.4155555555555556,-0.2644444444444444,-0.6088888888888889,2.4509816462736373,6.390728587319243,-68.41952447163516
1590514824.0560718,-2.8216274536165633,-2.7493324818499594,8.935924979833288,0.4155555555555556,-0.2644444444444444,-0.6088888888888889,3.4727035157300348,7.17454708927131,-67.23470270906158
1590514824.0660717,-2.6611918569285047,-2.69,8.838070481365829,0.41824693260517914,-0.26150839675394605,-0.6088888888888889,4.832576341295267,8.03327132081593,-65.57222008191735
1590514824.0760717,-2.6540087482996824,-2.7166703117915345,8.590668124716613,0.44,-0.23777777777777775,-0.6088888888888889,4.499863307817459,8.245687528338623,-62.791621102605816
1590514824.0860717,-2.8848126079961864,-2.735144094222328,8.716541738664125,0.44,-0.23777777777777775,-0.6088888888888889,1.2880953444954217,4.3382577111759915,-63.289084688871675
1590514824.0960717,-3.07,-2.8094063094276707,9.019709016073149,0.44,-0.23777777777777775,-0.6088888888888889,-2.153958371323625,0.5867285799880168,-65.35266333654623
1590514824.1060717,-2.974161369193154,-2.8800672371638143,8.994463936430318,0.44,-0.23777777777777775,-0.6088888888888889,-1.4284879278728608,2.0211758863080687,-67.56165953545232
1590514824.1160717,-2.826914659206259,-2.792231932856329,8.573829318412518,0.4444566033687372,-0.22577923024656207,-0.6157452017638693,3.037336597261766,6.440235757965883,-69.39236927780941
1590514824.1260717,-2.887974777448071,-2.8659495548961424,8.791913946587538,0.4544444444444444,-0.1988888888888889,-0.6311111111111111,4.238176928783383,7.487945103857567,-74.76140578635015
1590514824.1360717,-2.9865091158007213,-3.0560364632028847,9.05621877921731,0.4544444444444444,-0.1988888888888889,-0.6311111111111111,0.9327313176172031,5.142049343862695,-81.1511223620943
1590514824.1460717,-2.9741746807504335,-3.03,8.876698723001734,0.4544444444444444,-0.1988888888888889,-0.6311111111111111,0.2609274002837774,4.474519154973987,-85.19842740028378
1590514824.1560717,-2.7917016438662543,-2.9826874044805605,8.750952025944011,0.4544444444444444,-0.1988888888888889,-0.6311111111111111,3.5286966023036492,7.420703721996496,-89.30781488798598
1590514824.1660717,-2.5762693255657627,-2.9846456046007916,8.98010306968407,0.46028207234794727,-0.1842948191301317,-0.6246248578849968,4.033787064007767,7.153068750466801,-92.4330700575099
1590514824.1760716,-2.5311657731724413,-3.1943533690731023,9.067504593760065,0.4744444444444445,-0.14888888888888888,-0.6088888888888889,2.424863607948626,6.365550824982478,-96.3332192786376
1590514824.1860716,-2.477572541119163,-3.196351144120035,8.758244279399825,0.4744444444444445,-0.14888888888888888,-0.6088888888888889,1.42318722374237,7.766889301500436,-99.77290119373365
1590514824.1960716,-2.5328395436197764,-3.2337222053711003,8.809432091276044,0.4744444444444445,-0.14888888888888888,-0.6088888888888889,2.205247147623603,8.082214354044659,-106.36315447163956
1590514824.2060716,-2.254823987930601,-3.3383920040231327,8.809145712848881,0.4744444444444445,-0.14888888888888888,-0.6088888888888889,2.057789319839075,8.5,-113.44598236736233
1590514824.2160716,-2.0223342939481266,-3.4940057636887607,8.833448607108549,0.4904333440068311,-0.1292453837122425,-0.6034069804674992,3.315321805955812,9.73342939481268,-126.01729106628243
1590514824.2260716,-2.04,-3.6469165026167953,8.842231718442406,0.5133333333333333,-0.10111111111111112,-0.5955555555555555,4.125,11.5,-137.5
1590514824.2360716,-2.076776743075454,-3.7425382043935054,8.758984718242598,0.5133333333333333,-0.10111111111111112,-0.5955555555555555,4.0264908667621775,12.123891177172874,-143.2792024832856
1590514824.2460716,-2.1002578366445914,-3.7218048565121413,8.735128918322296,0.5133333333333333,-0.10111111111111112,-0.5955555555555555,3.5417246136865344,12.535278697571744,-153.6146357615894
1590514824.2560716,-1.984634558424763,-3.564146677234992,8.722195152475908,0.5133333333333333,-0.10111111111111112,-0.5955555555555555,3.0274394059488547,12.545731039589503,-162.51218138584122
1590514824.2660716,-1.8351848223459417,-3.548441614298344,8.810219827483214,0.5052347614154978,-0.08761349124805196,-0.6083782944254618,3.3495256983106736,13.628684201094359,-170.84715418986403
1590514824.2760715,-1.8079716427806396,-3.868969755699495,8.899620033661447,0.4866666666666667,-0.05666666666666665,-0.6377777777777778,4.743560973121844,15.459191870250422,-178.3747991788647
1590514824.2860715,-1.6852784339048719,-3.99639216952436,8.64958825428654,0.4866666666666667,-0.05666666666666665,-0.6377777777777778,4.896641927370979,15.2430391523782,-181.5591672047853
1590514824.2960715,-1.6995333661868914,-4.067666830934457,8.756500246401686,0.4866666666666667,-0.05666666666666665,-0.6377777777777778,3.604788689312964,14.886665845327714,-184.58834031471443
1590514824.3060715,-1.6960652663756834,-4.0363627625545595,8.786065266375683,0.4866666666666667,-0.05666666666666665,-0.6377777777777778,3.498080574507981,15.0,-187.26133632983
1590514824.3160715,-1.5903205017096576,-4.056189905929439,8.680320501709657,0.4866666666666667,-0.05666666666666665,-0.6377777777777778,4.07637225627531,15.0,-187.88093456029497
1590514824.3260715,-1.5611026975863702,-4.029002997318189,8.782598201609087,0.5288888888888889,0.01,-0.64,3.825623126676132,15.036253746647736,-188.7268693800284
1590514824.3360715,-1.483287814236944,-4.030546229156674,8.783014699658606,0.5288888888888889,0.01,-0.64,3.7701220974522474,14.95847558050955,-188.51841513133763
1590514824.3460715,-1.4492723052306582,-4.260474162215762,8.694145538953867,0.5288888888888889,0.01,-0.64,3.7697769476934173,14.896361526153292,-187.44976534153653
1590514824.3560715,-1.37971909757995,-4.34657303252665,8.733567418683375,0.5288888888888889,0.01,-0.64,3.8736832699060155,14.854898183385547,-186.5388869031349
1590514824.3660715,-1.2828578528827037,-4.326428305168986,8.78714338966203,0.5288888888888889,0.022142354208084827,-0.6380953169869671,3.754453746272366,14.982146185387673,-185.50893855616303
1590514824.3760715,-1.2004712443360055,-4.340235622168002,8.72744579993029,0.5288888888888889,0.06666666666666668,-0.6311111111111111,4.530572499128616,14.6875,-184.46807249912862
1590514824.3860714,-0.9972739476459872,-4.321363026177006,8.678954118323905,0.5288888888888889,0.06666666666666668,-0.6311111111111111,3.743463239524403,14.765055674081887,-182.7761470419024
1590514824.3960714,-0.8482873404231197,-4.39585632978844,8.723964082447111,0.5288888888888889,0.06666666666666668,-0.6311111111111111,3.8513469082333733,14.850224484705562,-180.957183510578
1590514824.4060714,-0.7744849834537016,-4.416810622931712,8.768272524819448,0.5288888888888889,0.06666666666666668,-0.6311111111111111,3.625,14.593230326555249,-178.91278851957458
1590514824.4160714,-0.6377939116036173,-4.442295249012864,8.820640682715577,0.5363918255282413,0.07677932039796771,-0.6206722427433164,3.551601706788944,14.21674786651382,-176.2075213348618
1590514824.4260714,-0.4075656598818122,-4.473665228402589,8.726832614201294,0.5544444444444444,0.10111111111111112,-0.5955555555555555,3.6066738579870554,14.350622303254854,-172.66787531657442
1590514824.4360714,-0.37,-4.42,8.7,0.5544444444444444,0.10111111111111112,-0.5955555555555555,3.875,14.25,-171.125
1590514824.4460714,-0.3078593207617975,-4.348982080870625,8.566841401632423,0.5544444444444444,0.10111111111111112,-0.5955555555555555,3.6530690027207053,14.08355175204053,-168.295379784689
1590514824.4560714,-0.20125028623769178,-4.361369033988682,8.781785796067911,0.5544444444444444,0.10111111111111112,-0.5955555555555555,3.1566210867218425,14.220983676273349,-163.8392898033956
1590514824.4660714,-0.05718227616212501,-4.368229415420851,8.740623507474893,0.5544444444444444,0.10111111111111112,-0.5955555555555555,3.6282723101835193,13.449190765154242,-161.78117537374465
1590514824.4760714,0.061300088863171384,-4.32208993779578,8.767739982227365,0.6522222222222223,0.05333333333333334,-0.5522222222222222,2.9798753332368926,13.048374888921035,-157.89793522288124
1590514824.4860713,0.14797887949740643,-4.261414784351815,8.750404224100519,0.6522222222222223,0.05333333333333334,-0.5522222222222222,3.304920798115274,12.940026400628241,-155.67679121287895
1590514824.4960713,0.23245482654465516,-4.287183785812585,8.704548265446551,0.6522222222222223,0.05333333333333334,-0.5522222222222222,2.6073986613286624,12.40568533180819,-152.9476640274526
1590514824.5060713,0.23995120730639308,-4.339658451144752,8.77951207306393,0.6522222222222223,0.05333333333333334,-0.5522222222222222,2.935365319654698,12.499390091329914,-151.26097835606154
1590514824.5160713,0.29711030100201197,-4.299886053507041,8.730227892985917,0.6921963916943896,0.03406867334674662,-0.5098399702517314,2.7854090718938624,12.044439381262574,-148.12975731588278
1590514824.5260713,0.2803996095539752,-4.241398633438913,8.847202733122174,0.9233609567255654,-0.07733593630683214,-0.2647498290138582,2.6287463395685173,11.939997559712344,-145.98869997410307
1590514824.5360713,0.429978841870824,-4.126567928730513,8.64677951002227,0.9288888888888888,-0.08,-0.2588888888888889,2.771318207126949,11.854739699331848,-141.8146158129176
1590514824.5460713,0.4641326663048352,-4.214346933478065,8.61631639804611,0.9288888888888888,-0.08,-0.2588888888888889,2.153507504070604,11.3125,-138.9292083559478
1590514824.5560713,0.5190798091027415,-4.183305167035101,8.790920190897259,0.9288888888888888,-0.08,-0.2588888888888889,2.0034037146457866,11.178345092246348,-135.86766445261657
1590514824.5660713,0.5915545454545454,-4.139903896103896,8.751458441558443,0.96538658008658,0.02619177489177489,-0.18681053391053393,2.647435064935065,10.75,-132.6103733766234
1590514824.5760713,0.6686674591609786,-4.174443784032518,8.803997622517064,1.15,0.5633333333333334,0.17777777777777778,1.9680621596748216,10.574992570365826,-127.9749405629266
1590514824.5860713,0.71,-4.130315100112727,8.676771700037575,1.15,0.5633333333333334,0.17777777777777778,2.2721462504696976,10.157234687852274,-124.09819032154168
1590514824.5960712,0.7315723042180821,-4.069213847890959,8.677257843374466,1.15,0.5633333333333334,0.17777777777777778,2.1164307605452053,9.865173098636987,-118.74119636664247
1590514824.6060712,0.8089574384337618,-4.013840295723307,8.743127684698715,1.15,0.5633333333333334,0.17777777777777778,2.3320480293669674,9.332645936371572,-113.60518350076156
1590514824.6160712,0.7946015094210463,-3.7913233960262183,8.786195471736862,1.15,0.5633333333333334,0.17777777777777778,2.6012216983553813,8.749436320230007,-109.02923112795851
1590514824.6260712,0.8981121578048935,-3.8870405260163112,8.6608411835367,0.7111111111111111,0.78,-0.4711111111111111,1.5151478630587343,8.768496712398052,-99.3863307675286
1590514824.6360712,0.9671546181590089,-4.019972557628979,8.898467539595421,0.7111111111111111,0.78,-0.4711111111111111,1.2592348478908577,7.508806060843657,-91.00751969970206
1590514824.6460712,1.013007309622518,-3.916992690377482,8.546063350061821,0.7111111111111111,0.78,-0.4711111111111111,2.2434302040148375,7.012378172958034,-85.17955964979271
1590514824.6560712,1.0358869735980798,-3.89411302640192,8.744353771183357,0.7111111111111111,0.78,-0.4711111111111111,1.242444905084006,6.631050440032002,-79.88863735544403
1590514824.6660712,1.080758474657103,-3.886586864043036,8.741516949314207,0.7010402531640204,0.7721202910623182,-0.4765468461536831,1.7334083668758704,6.038797666965529,-71.79466363671048
1590514824.6760712,1.0967608401213256,-3.8145762194540356,8.77352168024265,0.48856440061129014,0.6058734942951192,-0.5912304653139433,1.3833566223460063,5.53872374620858,-66.14382833215696
1590514824.6860712,1.14872782757963,-3.87872782757963,8.75254434484074,0.4455555555555555,0.5722222222222222,-0.6144444444444445,1.0840883082204844,5.010216002288766,-56.27717909593744
1590514824.6960711,1.1805590754429192,-3.908043235949783,8.688602311392701,0.4455555555555555,0.5722222222222222,-0.6144444444444445,0.9340057784817553,4.362770224686144,-50.80082937346005
1590514824.7060711,1.207105587054337,-3.8524347773450898,8.661316761163011,0.4455555555555555,0.5722222222222222,-0.6144444444444445,0.779192560682795,3.826475202275983,-42.731444583442624
1590514824.7160711,1.24,-3.9085891869386784,8.761058109795991,0.44175419814032785,0.5707722199091972,-0.6156985004989526,0.618386813775055,3.28604725510022,-37.2170604591685
1590514824.7260711,1.2441186668400295,-3.8658813331599706,8.796178000260044,0.3377777777777778,0.5311111111111111,-0.65,0.4117583322498158,2.4724041628743554,-29.96477078186625
1590514824.736071,1.2651548898507028,-3.8512887224626757,8.804535330447893,0.3377777777777778,0.5311111111111111,-0.65,0.30444548460827703,2.100836453824831,-24.50093006856976
1590514824.746071,1.3,-3.851449140301011,8.708550859698988,0.3377777777777778,0.5311111111111111,-0.65,0.21437141792087974,1.8395213992824193,-18.609135466660454
1590514824.756071,1.3,-3.795734860747935,8.753602291121902,0.3377777777777778,0.5311111111111111,-0.65,0.02665712032540572,1.2233428796745942,-13.031879072759722
1590514824.766071,1.3,-3.760917278877682,8.701375918316522,0.3377777777777778,0.5311111111111111,-0.65,0.24426700701448553,1.0057329929855146,-8.190059093927697
1590514824.776071,1.3171145988307524,-3.8113437964922574,8.845474090061396,0.29594209174704955,0.5130457012342058,-0.6547540552307646,-0.23134809211491314,0.6256181505772898,-3.2490190788508686
1590514824.786071,1.2522370494903856,-3.6806844593884627,8.731552590101924,0.2888888888888889,0.51,-0.6555555555555556,0.3404631186298203,0.2779631186298203,3.613628244194599
1590514824.796071,1.2127943025675028,-3.6311975582432154,8.736407325270354,0.2888888888888889,0.51,-0.6555555555555556,-0.18999491300669882,-0.2674643910468918,8.527062518576098
1590514824.806071,1.2799199798806558,-3.6599657056631383,8.650102883010586,0.2888888888888889,0.51,-0.6555555555555556,-0.24992855346487117,-0.6869998742540981,13.681355597978921
1590514824.816071,1.3285513293002342,-3.815364253760749,8.795653987900703,0.2888888888888889,0.51,-0.6555555555555556,-0.7962024546276337,-1.1123241313770484,18.664011253273998
1590514824.826071,1.3528938189183108,-3.8581563648638513,8.78473745405446,0.2838013735737087,0.4947374540544595,-0.6665785054051125,-0.8125,-1.3157818243192558,22.43735466206586
1590514824.836071,1.329123675165998,-3.7995618375829987,8.930720853651952,0.2822222222222222,0.49,-0.67,-0.4292844546812301,-2.0191696057437967,28.691696057437966
1590514824.846071,1.314028934914437,-3.7920144674572183,8.59863656811761,0.2822222222222222,0.49,-0.67,-0.28777126482284565,-2.3493670487466938,31.993670487466936
1590514824.856071,1.280806003832996,-3.78403001916498,8.71403001916498,0.2822222222222222,0.49,-0.67,-1.0221998083501997,-2.4778001916498003,35.81138838638033
1590514824.866071,1.2883184968924075,-3.821592484462037,8.751592484462037,0.2822222222222222,0.49,-0.67,-0.6465751553796277,-2.8534248446203723,37.54865240636922
1590514824.876071,1.3079915615860382,-3.8569873423790573,8.823974684758115,0.28444444444444444,0.4888888888888889,-0.67,-0.8687236299563695,-2.9126582202617826,40.22568562113439
1590514824.886071,1.2849280187357932,-3.8340575850113656,8.75579845246022,0.28444444444444444,0.4888888888888889,-0.67,-0.8125,-3.211960140518449,41.81429953160517
1590514824.896071,1.238447703987617,-3.8689651359917447,8.637244048057788,0.28444444444444444,0.4888888888888889,-0.67,-0.8060320999484042,-2.904105550232181,42.99247715043857
1590514824.906071,1.2152611115206013,-3.853507407680401,8.745448146237193,0.28444444444444444,0.4888888888888889,-0.67,-0.7094212980025061,-3.3388541589887226,43.813668966978696
1590514824.916071,1.21,-3.83234679248707,8.74646238998276,0.28444444444444444,0.4888888888888889,-0.67,-0.7242775156519372,-3.3639449686961256,44.62521776608293
1590514824.926071,1.1110697637670854,-3.736289800110611,8.828930236232914,0.28444444444444444,0.4601399313511188,-0.6632355394028776,-0.8451252271470333,-3.3600626135735165,45.96618965789681
1590514824.936071,1.0807277457631241,-3.792183237289372,8.76,0.28444444444444444,0.4511111111111111,-0.6611111111111111,-0.7193388771366742,-3.6340968220390497,47.581871398351446
1590514824.946071,1.078589830000749,-3.805024151875983,8.757147457500187,0.28444444444444444,0.4511111111111111,-0.6611111111111111,-1.1205429023440425,-3.7544570976559575,48.69631356249532
1590514824.956071,0.9529461544222273,-3.640116827679173,8.725736538605558,0.28444444444444444,0.4511111111111111,-0.6611111111111111,-1.0714633415711825,-3.8035366584288175,49.48158653486108
1590514824.966071,1.2010948141723847,-3.8810948141723847,8.676275029972196,0.28444444444444444,0.4511111111111111,-0.6611111111111111,-0.4066254495829401,-3.5938751498609802,50.77278046322986
1590514824.976071,1.20470773278426,-3.9411753603294444,8.832344429192405,0.28444444444444444,0.429935750781667,-0.6360143877576959,-1.0624606783344772,-3.871307338137726,52.966805364905056
1590514824.9860709,1.0275370823145884,-3.7597537082314587,8.732462917685412,0.28444444444444444,0.4211111111111111,-0.6255555555555555,-0.4073257946210269,-4.609606764466178,55.45597188264059
1590514824.9960709,0.9591703341483293,-3.7529170334148327,8.800829665851671,0.28444444444444444,0.4211111111111111,-0.6255555555555555,-1.3046393643031786,-4.182314588427058,55.96872249388753
1590514825.0060709,0.93,-3.731147740190506,8.773443220571517,0.28444444444444444,0.4211111111111111,-0.6255555555555555,-0.3914071380972912,-4.176739935714005,57.89598604523539
1590514825.0160708,0.93,-3.7080128913110393,8.726025782622079,0.28444444444444444,0.4211111111111111,-0.6255555555555555,-0.3583064764353352,-4.095887047129329,60.01548496315475
1590514825.0260708,6.9372938386011365,-15.888887969551547,-7.426984389651939,0.27111111111111114,0.4477777777777778,-0.6177777777777778,-66.74749020905732,-31.539994621876552,249.0549982072922
1590514825.0360708,0.5826443819295051,-7.236076452093332,3.416021843455237,0.27111111111111114,0.4477777777777778,-0.6177777777777778,-95.76371421479398,-22.864047244745986,537.433849081582
1590514825.0460708,2.186249411436444,-4.418436077638073,7.42906039098059,0.27111111111111114,0.4477777777777778,-0.6177777777777778,-65.5858430845962,-85.02686029681043,600.3691176342361
1590514825.0560708,1.8351579094222485,-3.569964947770434,6.170982508763057,0.27111111111111114,0.4477777777777778,-0.6177777777777778,-9.264914636485713,-87.90690777427062,586.6546058368066
1590514825.0660708,-2.0514761695998,-1.9995791319596667,-3.035926598609631,0.27111111111111114,0.4477777777777778,-0.6177777777777778,68.5928673200977,-48.0559924375274,504.5468153065698
1590514825.0760708,-5.2,4.3,21.78,0.37666666666666665,0.4155555555555556,-0.6255555555555555,87.1875,-4.375,88.25
1590514825.0860708,-1.1258144984503744,1.840399123138559,6.969581223070527,0.37666666666666665,0.4155555555555556,-0.6255555555555555,70.63612139995465,-15.550717174389598,33.125892924635274
1590514825.0960708,-0.22011914415819356,1.4232665876530888,4.899200715280809,0.37666666666666665,0.4155555555555556,-0.6255555555555555,21.487589150188178,-12.600105524712536,15.371762782525524
1590514825.1060708,-2.940766469454231,-0.9620777105630527,14.439483813069202,0.37666666666666665,0.4155555555555556,-0.6255555555555555,-36.11905454364156,27.422927192049457,14.88975146247424
1590514825.1160707,-1.0601091808006593,0.1286307766256951,4.901706379180112,0.37666666666666665,0.4155555555555556,-0.6255555555555555,-6.871266222618967,9.068113541165967,26.178714893909223
1590514825.1260707,-2.4853678107801533,0.06862832416082007,10.775487123471832,0.4633333333333333,0.27,-0.6555555555555556,-0.5325536697054993,-13.982108347687266,32.993414695626605
1590514825.1360707,-2.300348485485023,-0.9181414107465447,10.29091270007982,0.4633333333333333,0.27,-0.6555555555555556,-11.105086543712977,-3.5197060244507004,31.066130057135656
1590514825.1460707,-2.2444343255302246,-1.4776364525395758,9.450911313489396,0.4633333333333333,0.27,-0.6555555555555556,0.6729035511276817,-2.7384634191064117,29.660839801968095
1590514825.1560707,-1.2959036733695983,-1.3665472770613045,6.673681926532608,0.4633333333333333,0.27,-0.6555555555555556,-1.1429772018825255,-0.3885000916814376,28.859715940345943
1590514825.1660707,-1.8412338156892614,-2.1883665905052045,9.656456968773801,0.4633333333333333,0.27,-0.6555555555555556,-0.748971820258949,-1.0432946179233307,30.566098629093677
1590514825.1760707,-1.5773509449298924,-2.418500304816094,9.795227392806341,0.4633333333333333,0.2629416785206259,-0.6535388922757344,0.06718654744970531,-3.876402154033733,35.63468045112782
1590514825.1860707,-1.3969746228084579,-2.5881564592341233,9.642763213106381,0.4633333333333333,0.26222222222222225,-0.6533333333333333,-2.0008061500009124,-4.034540163829749,36.78617868936201
1590514825.1960707,-1.06112645450722,-16.79146081592598,6.1603609981774845,0.4633333333333333,0.26222222222222225,-0.6533333333333333,-1.3054465161923454,-0.5879538763493621,32.11665848871443
1590514825.2060707,-1.8475944553483807,-10.764322865554465,8.696169038272817,0.4633333333333333,0.26222222222222225,-0.6533333333333333,-9.023123159960745,-1.2310935966633956,-32.84045326300294
1590514825.2160707,-0.3215687440532826,-2.537740842055186,6.3596360608943865,0.4633333333333333,0.26222222222222225,-0.6533333333333333,15.123539337535679,13.594478472882969,-94.23149827545194
1590514825.2260706,-0.4652876986150488,-2.1954918718257286,8.244017378179372,0.46917027578907766,0.25555143084422866,-0.6591702757890776,9.149579568401085,5.665291574030636,-98.2323158667673
1590514825.2360706,-0.9759875833524948,-2.428022533915843,9.917679926419867,0.4711111111111111,0.2533333333333333,-0.6611111111111111,-12.964661416417567,5.606992986893538,-92.94526040469073
1590514825.2460706,-0.1516009704366965,-2.3824230903906756,7.200471212045421,0.4711111111111111,0.2533333333333333,-0.6611111111111111,7.608773948276725,6.6875,-87.04194700115052
1590514825.2560706,-0.5153932503418004,-2.954588040584299,9.578136648197452,0.4711111111111111,0.2533333333333333,-0.6611111111111111,3.560685309779089,6.680301953659063,-82.14694493415845
1590514825.2660706,-0.42484924803914514,-3.241310714542707,8.951873965604086,0.4711111111111111,0.2533333333333333,-0.6611111111111111,-2.617056513995826,6.538826950061164,-78.89301985140678
1590514825.2760706,0.4,-10.47,8.38,0.4777777777777778,0.2877777777777778,-0.6466666666666666,3.0,5.5,-84.0
1590514825.2860706,0.37558172682031216,-10.164571435473741,8.400415277576462,0.4777777777777778,0.2877777777777778,-0.6466666666666666,3.0425318282842926,5.85776773203846,-86.03402214088999
1590514825.2960706,-0.21284369964550434,-2.832890750886239,8.883364700827157,0.4777777777777778,0.2877777777777778,-0.6466666666666666,3.8610712751101084,14.129432538403695,-134.5133190997959
1590514825.3060706,-0.26691137608765714,-2.6977215597808573,8.7572067891288,0.4777777777777778,0.2877777777777778,-0.6466666666666666,0.03127752712428844,8.272100923837147,-128.82494897411107
1590514825.3160706,-0.22926517242800049,-2.9344089654319974,9.075878620575997,0.4777777777777778,0.2877777777777778,-0.6466666666666666,1.9001599130649747,9.974241378599976,-121.67691638169008
1590514825.3260705,-9.286896418697358,-20.813089221800723,8.119028911892668,0.44874738945207665,0.31523895592371126,-0.6568665328351562,1.1392469834329926,10.172695782164213,-118.49204065667931
1590514825.3360705,-4.954083502632779,-11.848440233840538,8.550339151706124,0.43666666666666665,0.32666666666666666,-0.6611111111111111,-6.1787024752269994,9.623551453211162,-67.77236566607239
1590514825.3460705,0.79,0.7709644004735328,10.439936580416031,0.43666666666666665,0.32666666666666666,-0.6611111111111111,18.67968882124133,-14.280533887197699,41.48094505750042
1590514825.3560705,1.009483499768534,-1.6906877851993918,9.163239865088288,0.43666666666666665,0.32666666666666666,-0.6611111111111111,16.676840156074334,-6.10690843859533,38.27112955492362
1590514825.3660705,0.5885272592990467,-2.9918413455082584,9.496543238888144,0.43666666666666665,0.32666666666666666,-0.6611111111111111,-6.3402838391298495,-4.839232660803008,-0.10408553780045082
1590514825.3760705,0.15006831951188074,-3.6979830705108925,9.327430069178877,0.4132389941610928,0.34443938373986066,-0.6611111111111111,-11.353062024663773,7.836897907446398,-20.520514652172047
1590514825.3860705,-1.773292109819441,-6.097972863149712,8.590545563760998,0.4044444444444445,0.3511111111111111,-0.6611111111111111,1.2963035758453765,0.75,-31.64328998975301
1590514825.3960705,0.0421976255255998,-3.704490477368291,8.649826861241651,0.4044444444444445,0.3511111111111111,-0.6611111111111111,-0.463609943111551,0.75,-13.256825068018799
1590514825.4060705,-0.07810631506229306,-4.124078706019676,8.760874008432788,0.4044444444444445,0.3511111111111111,-0.661337705889982,2.8947100038114297,-0.9247540436885109,7.081890647704805
1590514825.4160705,-0.01316205721908574,-4.2639586459896615,8.790848281283498,0.4044444444444445,0.3511111111111111,-0.6691088136660923,1.4272195621620334,-0.48762923128230784,3.4599993449105506
1590514825.4260705,0.05,-4.4,8.82,0.4044444444444445,0.3511111111111111,-0.6766666666666666,0.0,-0.0625,-0.0625
1590514825.4360704,0.05,-4.4,8.82,0.4044444444444445,0.3511111111111111,-0.6766666666666666,0.0,-0.0625,-0.0625
1590514825.4460704,0.030374619148739727,-4.417003046810082,8.775129951066383,0.4044444444444445,0.3511111111111111,-0.6766666666666666,0.11329315160188348,0.0023413696796233036,-0.060158630320376695
1590514825.4560704,0.04,-4.339905039697592,8.650348187775496,0.4044444444444445,0.3511111111111111,-0.6766666666666666,-0.18730216603664998,0.06269783396335003,0.00019783396335003206
1590514825.4660704,0.04,-4.32344669273933,8.71069545995579,0.4044444444444445,0.3511111111111111,-0.6766666666666666,-0.1530139432069376,0.09698605679306241,0.03448605679306241
1590514825.4760704,0.04631999341238471,-4.332119976943346,8.73472002635046,0.4069022196603719,0.3535688863270385,-0.6812311063533889,-0.14474997941370224,0.0262501029314888,0.0625
1590514825.4860704,0.06,-4.354151082991045,8.796320126540296,0.4122222222222222,0.3588888888888889,-0.6911111111111111,0.014444664132459123,-0.2278889328264918,0.10288893282649182
1590514825.4960704,0.04043120672831188,-4.353045862181125,8.736064309279309,0.4122222222222222,0.3588888888888889,-0.6911111111111111,0.04346336136796618,-0.2092316806839831,0.04346336136796618
1590514825.5060704,0.04485381297604845,-4.335243645039919,8.709610167936129,0.4122222222222222,0.3588888888888889,-0.6911111111111111,0.15472721850050472,-0.12560911259979812,0.030945443700100946
1590514825.5160704,0.06,-4.339552666598424,8.735223666700788,0.4122222222222222,0.3588888888888889,-0.6911111111111111,0.06622777834647015,-0.0009319445866175363,0.0009319445866175363
1590514825.5260704,0.06,-4.340113161720058,8.764830257419913,0.4050272426363103,0.35280082923927114,-0.6656519525763458,-0.09410363037518171,0.0625,-0.03136787679172723
1590514825.5360703,0.0484288588221372,-4.333142282355725,8.757929864699618,0.3977777777777778,0.3466666666666667,-0.64,-0.18079908090410635,-0.1544588970849276,0.036159816180821265
1590514825.5460703,0.04,-4.368122910426128,8.671672238863659,0.3977777777777778,0.3466666666666667,-0.64,-0.16147574644893226,-0.12371968306116532,0.1757681901633008
1590514825.5560703,0.04,-4.37201332539269,8.687920047643862,0.3977777777777778,0.3466666666666667,-0.64,0.037333432591379445,0.04991671629568972,0.0004164185215514149
1590514825.5660703,0.04695594227180991,-4.34913217318457,8.762603480446288,0.3977777777777778,0.3466666666666667,-0.64,0.19292391759643576,0.0625,0.024449278397623855
1590514825.5760703,0.032685700943931154,-4.34,8.772685700943931,0.39296825026220317,0.3466666666666667,-0.6457714330186896,-0.020535922751075686,-0.15392873820086053,0.008392815449784867
1590514825.5860703,0.04221611869130274,-4.346108059345651,8.763891940654348,0.3922222222222223,0.3466666666666667,-0.6466666666666666,-0.10067537091032105,-0.11114925817935789,0.038175370910321055
1590514825.5960703,0.05,-4.357168830121745,8.652467548173828,0.3922222222222223,0.3466666666666667,-0.6466666666666666,-0.21461037652180925,-0.0625,-0.02711037652180924
1590514825.6060703,0.05864527629233511,-4.34270944741533,8.696452762923352,0.3922222222222223,0.3466666666666667,-0.6466666666666666,0.02016488413547235,-0.17056595365418895,0.045565953654188945
1590514825.6160703,0.053241229777061215,-4.34,8.77082893200645,0.3922222222222223,0.3466666666666667,-0.6466666666666666,0.14698462778673488,0.023711569466837168,-0.06422694168010229
1590514825.6260703,0.038825827678387825,-4.36793543080403,8.788825827678387,0.3922222222222223,0.3534953275298741,-0.6503913907738706,0.15258071149496197,0.09008071149496197,-0.05516142298992392
1590514825.6360703,0.038120066025549015,-4.357519735897804,8.747519735897804,0.3922222222222223,0.3588888888888889,-0.6533333333333333,-0.12875206329840677,-0.14050165063872544,0.0
1590514825.6460702,0.04852075401615749,-4.3585207540161575,8.646271705822269,0.3922222222222223,0.3588888888888889,-0.6533333333333333,0.025518850403937227,-0.08099057479803139,-0.05325471260098431
1590514825.6560702,0.04151778901182755,-4.36,8.714822109881725,0.3922222222222223,0.3588888888888889,-0.6533333333333333,-0.043527637352155674,-0.11551381867607784,0.043527637352155674
1590514825.6660702,0.033432642965260086,-4.34029792889578,8.75626942813896,0.3922222222222223,0.3588888888888889,-0.6533333333333333,0.019591962934248905,-0.0018620555986266496,0.021454018532875548
1590514825.6760702,0.03763847538033699,-4.345276950760674,8.785276950760673,0.40749917298289623,0.35294785248196014,-0.6550307723067416,-0.0807214133813185,0.014759528872893835,-0.1432214133813185
1590514825.6860702,0.04,-4.365059195975541,8.744822412073377,0.4122222222222222,0.3511111111111111,-0.6555555555555556,-0.07794001257643438,-0.23529993711782818,-0.09338002515286874
1590514825.6960702,0.04,-4.37,8.684877302555229,0.4122222222222222,0.3511111111111111,-0.6555555555555556,-0.0625,-0.2722118772814551,0.09865249087417974
1590514825.7060702,0.04792823525695695,-4.377928235256957,8.68378470577087,0.4122222222222222,0.3511111111111111,-0.6555555555555556,0.08615441106794278,-0.15089705928803815,0.03884558893205722
1590514825.7160702,0.039939295716580656,-4.3649089435748705,8.730242817133677,0.4122222222222222,0.3511111111111111,-0.6555555555555556,0.062120598228629115,-0.125,0.03143970088568544
1590514825.7260702,0.032607397454559026,-4.344785205090882,8.77,0.40845598145452583,0.35313908690910145,-0.6587423746666833,0.016296234090993917,-0.10870376590900609,0.046203765909006086
1590514825.7360702,0.03576368820928942,-4.3384726235814215,8.77,0.3977777777777778,0.3588888888888889,-0.6677777777777778,-0.01693084607582339,-0.03602305130805887,0.026476948691941133
1590514825.7460701,0.02575352795432511,-4.354246472045674,8.7190423354519,0.3977777777777778,0.3588888888888889,-0.6677777777777778,-0.17808090057093612,-0.02654045028546806,0.03595954971453194
1590514825.7560701,0.03399870382372003,-4.36,8.69899546338302,0.3977777777777778,0.3588888888888889,-0.6677777777777778,-0.25,-0.018754050550874916,0.0
1590514825.7660701,0.04,-4.36,8.731962518915145,0.3977777777777778,0.3588888888888889,-0.6677777777777778,-0.1378513851705273,0.0,0.07476574321964846
1590514825.77607,0.03526878844610858,-4.355268788446109,8.758924846215566,0.38831535466999495,0.3531062969896883,-0.6646236367418502,-0.0625,-0.05914014442364269,0.03628978336453598
1590514825.78607,0.04215661530286929,-4.368234922954303,8.743530154091392,0.37777777777777777,0.3466666666666667,-0.6611111111111111,-0.0625,-0.08701057717853347,0.013478845642933043
1590514825.79607,0.04280193005923944,-4.365603860118479,8.662415440473916,0.37777777777777777,0.3466666666666667,-0.6611111111111111,-0.19746381138926045,-0.0625,0.017512062870246516
1590514825.80607,0.04,-4.375713839912623,8.694998439694182,0.37777777777777777,0.3466666666666667,-0.6611111111111111,-0.10268275081916056,0.03571149945389296,0.0
1590514825.81607,0.04,-4.367504819813139,8.722495180186861,0.37777777777777777,0.3466666666666667,-0.6611111111111111,-0.1405948761678778,0.023452561916061106,0.039047438083938894
1590514825.82607,0.0334489524844533,-4.34034685745336,8.74965314254664,0.39087987280887115,0.3466666666666667,-0.6611111111111111,-0.023723812111332482,0.0,0.0625
1590514825.83607,0.03,-4.349537772087068,8.773025181391379,0.3977777777777778,0.3466666666666667,-0.6611111111111111,0.0625,0.0814073836961161,0.10320369184805805
1590514825.84607,0.03605095842492141,-4.366050958424921,8.707388498900944,0.3977777777777778,0.3466666666666667,-0.6611111111111111,0.02468150984424118,-0.10191094093455291,0.08718150984424118
1590514825.85607,0.04,-4.3630654025831275,8.70854218191811,0.3977777777777778,0.3466666666666667,-0.6611111111111111,-0.1300237015663644,-0.1633175322890904,0.0625
1590514825.86607,0.05122216147257153,-4.354388919263714,8.741222161472571,0.3977777777777778,0.3466666666666667,-0.6611111111111111,-0.15243074539821397,-0.16006925460178603,0.0625
1590514825.87607,0.0543424136838771,-4.355657586316123,8.761315172632246,0.390862950058072,0.3491811494738324,-0.6648828353218598,-0.018920256572695596,-0.11678017104846374,0.13321982895153628
1590514825.88607,0.05439994389814396,-4.36,8.783199831694432,0.3855555555555555,0.3511111111111111,-0.6677777777777778,0.0625,-0.08999964936339977,0.13250070127320046
1590514825.89607,0.0577530947305434,-4.36,8.770790231497065,0.3855555555555555,0.3511111111111111,-0.6677777777777778,0.04845684206589626,-0.09691368413179252,0.020370526197688768
1590514825.90607,0.05629641722817537,-4.366296417228176,8.676296417228174,0.3855555555555555,0.3511111111111111,-0.6677777777777778,-0.11805782302828817,-0.03935260767609605,-0.00694217697171183
1590514825.91607,0.04837587281549568,-4.364187936407748,8.70324825436901,0.3855555555555555,0.3511111111111111,-0.6677777777777778,-0.15117460254842402,0.010150794903151988,0.026174602548424006
1590514825.92607,0.0357044488229804,-4.36,8.73288665353106,0.3908056736608017,0.3511111111111111,-0.6625276596725316,-0.125,-0.018041584569117503,-0.0268471948563725
1590514825.93607,0.03,-4.355091780542525,8.74018356108505,0.3977777777777778,0.3511111111111111,-0.6555555555555556,-0.0636472567815623,-0.0636472567815623,-0.09317637160921885
1590514825.94607,0.036335972930422726,-4.362671945860845,8.691984162417464,0.3977777777777778,0.3511111111111111,-0.6555555555555556,0.0791996616302841,-0.11879949244542613,-0.04580033836971591
1590514825.95607,0.04643955130868301,-4.3635604486913175,8.682879102617365,0.3977777777777778,0.3511111111111111,-0.6555555555555556,0.004258412962193606,-0.1875,0.0402471956792688
1590514825.96607,0.04448760546930063,-4.36,8.723074367184196,0.3977777777777778,0.3511111111111111,-0.6555555555555556,-0.0625,-0.1875,0.02804753418312894
1590514825.97607,0.04,-4.348632723277532,8.761367276722467,0.3977777777777778,0.3441644420029362,-0.6587131324229077,-0.0625,-0.0809317807268627,0.0
1590514825.98607,0.033003367003367,-4.333003367003367,8.776996632996632,0.3977777777777778,0.3388888888888889,-0.6611111111111111,-0.01877104377104377,0.0,0.08745791245791246
1590514825.99607,0.03,-4.350033226977666,8.733255803718782,0.3977777777777778,0.3388888888888889,-0.6611111111111111,0.0,0.0,0.04152822092639455
1590514826.00607,0.043720579591628124,-4.366860289795814,8.71,0.3977777777777778,0.3388888888888889,-0.6611111111111111,-0.08575362244767576,-0.08575362244767576,0.0
1590514826.01607,0.03965663963728311,-4.359656639637283,8.720343360362717,0.3977777777777778,0.3388888888888889,-0.6611111111111111,-0.1573230011334903,-0.09267699886650972,0.0
1590514826.0260699,0.03838751434203171,-4.345806242828984,8.73,0.3977777777777778,0.3472764032309206,-0.6676347333771357,-0.1875,-0.0625,0.0
1590514826.0360699,0.04615895528841996,-4.34384104471158,8.722317910576841,0.3977777777777778,0.3588888888888889,-0.6766666666666666,-0.09147388221049901,-0.0625,-0.04801305889475049
1590514826.0460699,0.037652921344151755,-4.352347078655848,8.700611685376607,0.3977777777777778,0.3588888888888889,-0.6766666666666666,0.07716924159905153,-0.033161516801896926,-0.0809922752028454
1590514826.0560699,0.03782293925250818,-4.36,8.685645878505017,0.3977777777777778,0.3588888888888889,-0.6766666666666666,0.10055331483591194,-0.03528674065635222,0.08694668516408806
1590514826.0660698,0.05,-4.36,8.71527693736333,0.3977777777777778,0.3588888888888889,-0.6766666666666666,-0.003461717041607998,-0.1875,0.092019141479196
1590514826.0760698,0.05,-4.356393013644577,8.748034931777118,0.3977777777777778,0.3588888888888889,-0.6710557990026744,-0.21004366472139727,-0.09732534111441092,-0.04508732944279454
1590514826.0860698,0.041112172978138815,-4.354443913510931,8.757780432445347,0.3977777777777778,0.3588888888888889,-0.6611111111111111,-0.11112770278341896,-0.04859783777326483,-0.06945108111336759
1590514826.0960698,0.03,-4.355286212297277,8.701717273783661,0.3977777777777778,0.3588888888888889,-0.6611111111111111,0.003577653715960187,-0.06965530743192037,-0.029461173142019906
1590514826.1060698,0.034002123544803003,-4.345997876455197,8.694012741268818,0.3977777777777778,0.3588888888888889,-0.6611111111111111,-0.0625,0.0625,-0.012473455689962457
1590514826.1160698,0.04,-4.3448948926443585,8.744684677933076,0.3977777777777778,0.3588888888888889,-0.6611111111111111,-0.1542792370817252,-0.029279237081725182,0.0625
1590514826.1260698,0.04,-4.3588184109457515,8.76,0.4041466301274871,0.3534998599775964,-0.6576817290766522,-0.19488493158905426,-0.15255753420547288,0.09005753420547287
1590514826.1360698,0.04579749794811849,-4.3642025020518815,8.777392493844355,0.4122222222222222,0.3466666666666667,-0.6533333333333333,-0.125,-0.1875,0.125
1590514826.1460698,0.05608577329607581,-4.347828453407849,8.71697072044709,0.4122222222222222,0.3466666666666667,-0.6533333333333333,-0.08696391689952618,-0.1875,0.04892783379905237
1590514826.1560698,0.05409481576300631,-4.34,8.69952592118497,0.4122222222222222,0.3466666666666667,-0.6533333333333333,-0.02559259851878943,-0.03987039407515772,0.0
1590514826.1660697,0.059403776538499174,-4.349403776538499,8.72470188826925,0.4122222222222222,0.3466666666666667,-0.6533333333333333,-0.029386801682809903,0.0625,0.029386801682809903
1590514826.1760697,0.061368439386902,-4.36,8.751578901532746,0.40598831733498475,0.3485847912473551,-0.6634034873819477,-0.008552746168137483,0.008552746168137483,0.008552746168137483
1590514826.1860697,0.05,-4.36,8.757000334267568,0.3977777777777778,0.3511111111111111,-0.6766666666666666,0.13437395541384897,-0.026563022293075514,0.009373955413848972
1590514826.1960697,0.03977776883937011,-4.365111115580315,8.69911107535748,0.3977777777777778,0.3511111111111111,-0.6766666666666666,0.1236110552460632,0.0,-0.001388944753936805
1590514826.2060697,0.038998545658663536,-4.3655007271706685,8.686995636975992,0.3977777777777778,0.3511111111111111,-0.6766666666666666,0.03437954481667645,0.05624091036664711,-0.006259089633352893
1590514826.2160697,0.045899169131108294,-4.347697507393325,8.736403323475567,0.3977777777777778,0.3511111111111111,-0.6766666666666666,-0.05126038586114631,0.125,0.036869807069426844
1590514826.2260697,0.04527294378172854,-4.335272943781728,8.762636471890865,0.406566017413992,0.35491934828680394,-0.6705148989213167,-0.09204410136419663,0.07556615204629494,0.04943384795370506
1590514826.2360697,0.06,-4.35,8.77,0.4311111111111111,0.3655555555555556,-0.6533333333333333,0.015789473684210527,0.0006578947368421073,0.15592105263157896
1590514826.2460697,0.052454875492151144,-4.3537725622539245,8.728501815206831,0.4311111111111111,0.3655555555555556,-0.6533333333333333,0.08607851408702766,0.11676445773891701,0.0625
1590514826.2560697,0.043887111270897,-4.36,8.671661333812692,0.4311111111111111,0.3655555555555556,-0.6533333333333333,0.11285277727844688,-0.03644166816465936,0.038205554556893756
1590514826.2660697,0.05627156817834784,-4.3525431363566955,8.723728431821653,0.4311111111111111,0.3655555555555556,-0.6533333333333333,0.0625,-0.07098650557336998,-0.039197301114673996
1590514826.2760696,0.05329023612921918,-4.343290236129219,8.73329023612922,0.42708971139762103,0.36080299225779455,-0.6657631142659391,0.02137204838476025,0.06330807257714037,-0.04112795161523975
1590514826.2860696,0.04969547614856539,-4.355152261925717,8.729695476148565,0.4188888888888889,0.3511111111111111,-0.6911111111111111,0.0019032740714662877,0.0019032740714662877,-0.02839508889280057
1590514826.2960696,0.04968386751617139,-4.369683867516171,8.681264529935316,0.4188888888888889,0.3511111111111111,-0.6911111111111111,0.0927620859880356,0.032237914011964394,0.0625
1590514826.3060696,0.050334281318476386,-4.360668562636953,8.673830015385333,0.4188888888888889,0.3511111111111111,-0.6911111111111111,0.125,0.030205370879761294,0.0625
1590514826.3160696,0.036436383948681914,-4.343563616051318,8.720690848153955,0.4188888888888889,0.3511111111111111,-0.6911111111111111,0.10272739967926195,0.12931780096221418,0.017954799358523885
1590514826.3260696,0.03452532451005345,-4.35,8.751313311275133,0.4141121574616103,0.3511111111111111,-0.6863343796838325,0.048358360906082976,0.1934334436243319,-0.005933443624331888
1590514826.3360696,0.04507871484030772,-4.359842570319384,8.780157429680616,0.3977777777777778,0.3511111111111111,-0.67,0.030758032248076786,0.030758032248076786,0.1875
1590514826.3460696,0.044519926344863875,-4.360960147310272,8.72480073655136,0.3977777777777778,0.3511111111111111,-0.67,0.0625,0.006000920689201626,0.10275138103380244
1590514826.3560696,0.059229763590805104,-4.35,8.702304172567818,0.3977777777777778,0.3511111111111111,-0.67,0.09134301122126594,-0.004813977557468131,0.0
1590514826.3660696,0.06154133760634849,-4.345770668803174,8.748458662393652,0.3977777777777778,0.3511111111111111,-0.67,0.151433319980161,0.088933319980161,-0.026433319980161
1590514826.3760695,0.0468850406287465,-4.346229918742507,8.76934487811376,0.3998544173586135,0.3535338572887527,-0.6720766395808356,0.12909451178899695,0.125,-0.004094511788996932
1590514826.3860695,0.04,-4.36,8.778767703076673,0.4044444444444445,0.3588888888888889,-0.6766666666666666,-0.02340061859026534,0.05479814422920398,0.10159938140973465
1590514826.3960695,0.0374212682793026,-4.357421268279302,8.731633951072329,0.4044444444444445,0.3588888888888889,-0.6766666666666666,-0.030265853491282503,-0.0625,0.04638292674564125
1590514826.4060695,0.030230752087226344,-4.350230752087226,8.65253827295949,0.4044444444444445,0.3588888888888889,-0.6766666666666666,0.05961559890967068,-0.0625,0.001442200545164661
1590514826.4160695,0.03526612335244995,-4.352633061676225,8.707899185028674,0.4044444444444445,0.3588888888888889,-0.6766666666666666,0.04936990642921823,-0.04604336452359392,-0.04604336452359392
1590514826.4260695,0.04813217988231998,-4.36,8.73747128047072,0.40216155318950225,0.3574361399084711,-0.673761168705831,0.16415224852899973,-0.02334775147100028,0.03502162720650042
1590514826.4360695,0.044773973126641345,-4.36,8.750904107493435,0.3922222222222223,0.3511111111111111,-0.6611111111111111,0.0028253359169832515,-0.125,0.1875
1590514826.4460695,0.0458507942035715,-4.364149205796429,8.70510476522143,0.3922222222222223,0.3511111111111111,-0.6611111111111111,-0.010634927544643721,-0.09906746377232187,0.08376985508928744
1590514826.4560695,0.04473209591977031,-4.367633952040115,8.672366047959885,0.3922222222222223,0.3511111111111111,-0.6611111111111111,0.0033488010028711254,-0.018136600752153342,-0.07728779974928222
1590514826.4660695,0.057826177249364,-4.358913088624682,8.686521468251907,0.3922222222222223,0.3511111111111111,-0.6611111111111111,-0.173913607808525,0.1182068039042625,-0.09782721561704999
1590514826.4760695,0.04168128881129699,-4.3483187111887025,8.743362577622595,0.39427713076936305,0.35036387163942356,-0.6611111111111111,-0.051991944929393824,0.08351611014121235,0.07245972464696912
1590514826.4860694,0.04705872293854099,-4.344411915592189,8.764411915592188,0.4044444444444445,0.3466666666666667,-0.6611111111111111,0.009191490817059406,0.1507340367317624,-0.15992552754882178
1590514826.4960694,0.03406065671641791,-4.365939343283582,8.745332776119403,0.4044444444444445,0.3466666666666667,-0.6611111111111111,0.037120895522388064,-0.037120895522388064,-0.02537910447761194
1590514826.5060694,0.04,-4.355657416121893,8.701712919390532,0.4044444444444445,0.3466666666666667,-0.6611111111111111,-0.05428229847633099,0.027141149238165494,-0.03535885076183451
1590514826.5160694,0.03644893839443423,-4.35,8.733551061605565,0.4044444444444445,0.3466666666666667,-0.6611111111111111,-0.0806117299304279,0.04030586496521395,0.08877654013914422
