time,acc_x,acc_y,acc_z,mag_x,mag_y,mag_z,gyr_x,gyr_y,gyr_z
1590514858.8407333,0.1,-4.29,8.83,0.4355555555555555,0.23777777777777775,-0.6077777777777778,-0.0625,0.0625,0.125
1590514858.8507333,0.11573311088543933,-4.28,8.717067556458243,0.4355555555555555,0.23777777777777775,-0.6077777777777778,-0.125,0.24083611393200832,-0.009163886067991678
1590514858.8607333,0.11681608314484924,-4.28,8.757040207862122,0.4355555555555555,0.23777777777777775,-0.6077777777777778,-0.10369974017234611,0.22729896068938443,0.0625
1590514858.8707333,0.12446834359554905,-4.28,8.79,0.4308434038036158,0.2367533969621387,-0.6038851306783493,-0.03945143164812105,0.08554856835187895,0.050975715824060526
1590514858.8807333,0.11016027303754267,-4.28,8.773066211604094,0.41,0.23222222222222225,-0.5866666666666667,0.041332764505119454,0.12399829351535836,0.021167235494880546
1590514858.8907332,0.12360112653680201,-4.28,8.720803379610405,0.41,0.23222222222222225,-0.5866666666666667,0.0,0.0,0.04250352042750627
1590514858.9007332,0.11,-4.278614990764445,8.684155027706666,0.41,0.23222222222222225,-0.5866666666666667,-0.01731261544444084,-0.01731261544444084,0.01731261544444084
1590514858.9107332,0.11612983695543715,-4.2730649184777185,8.73145442934403,0.41,0.23222222222222225,-0.5866666666666667,-0.08668851902851783,-0.16331148097148218,0.08668851902851783
1590514858.9207332,0.1254824120603015,-4.28,8.793552763819095,0.41727833612506976,0.23498297040759353,-0.5881725293132328,-0.01411746231155779,-0.22176507537688442,0.02823492462311558
1590514858.9307332,0.10580879680116322,-4.28,8.82742639040349,0.44222222222222224,0.24444444444444444,-0.5933333333333334,-0.0625,-0.125,0.09880498000727009
1590514858.9407332,0.1,-4.28,8.81,0.44222222222222224,0.24444444444444444,-0.5933333333333334,-0.0625,-0.125,0.0625
1590514858.9507332,0.13518301000303123,-4.294073204001212,8.739633979993938,0.44222222222222224,0.24444444444444444,-0.5933333333333334,0.025457525007578058,-0.125,0.01852123749621097
1590514858.9607332,0.11,-4.289707817595789,8.770730456010527,0.44222222222222224,0.24444444444444444,-0.5933333333333334,0.0,-0.0018261400263193026,0.0625
1590514858.9707332,0.11,-4.273709114488967,8.810727213777582,0.44222222222222224,0.24444444444444444,-0.5933333333333334,0.0,-0.10181803444395705,0.0625
1590514858.9807332,0.11146623329721922,-4.29,8.804868183459734,0.4222222222222222,0.24444444444444444,-0.5933333333333334,0.0,0.0625,0.0
1590514858.9907331,0.1274108076257817,-4.29,8.749062173309765,0.4222222222222222,0.24444444444444444,-0.5933333333333334,0.0,0.0625,0.0
1590514859.0007331,0.12244398701607156,-4.297780064919642,8.66466392209643,0.4222222222222222,0.24444444444444444,-0.5933333333333334,-0.030549837700894623,0.10972508114955269,-0.06390032459821075
1590514859.0107331,0.12744535073409463,-4.267663947797716,8.720218597063623,0.4222222222222222,0.24444444444444444,-0.5933333333333334,-0.09306688417618271,0.0625,0.125
1590514859.020733,0.12213863672379055,-4.2907128789079305,8.75499015235551,0.4226182660599612,0.24444444444444444,-0.592699663192951,0.013366479523690942,0.07141098634912729,0.11608901365087271
1590514859.030733,0.14838033133591821,-4.299676066267184,8.81902819880155,0.42777777777777776,0.24444444444444444,-0.5844444444444444,0.17940165667959113,0.18547541416989777,0.006073757490306662
1590514859.040733,0.10257695111759163,-4.292576951117591,8.771961342176859,0.42777777777777776,0.24444444444444444,-0.5844444444444444,-0.07860594448494763,0.060576222060209475,0.12307622206020948
1590514859.050733,0.10992610561671953,-4.299926105616719,8.720295577533122,0.42777777777777776,0.24444444444444444,-0.5844444444444444,-0.12453816010449711,-0.12407632020899421,-0.0625
1590514859.060733,0.10244682547275105,-4.29,8.774680952836507,0.42777777777777776,0.24444444444444444,-0.5844444444444444,-0.047207340795305974,-0.03058531840938806,-0.03191468159061194
1590514859.070733,0.10913437928505373,-4.29,8.814806275710323,0.42777777777777776,0.24444444444444444,-0.5844444444444444,-0.005410129468414168,-0.11417974106317166,0.051679741063171664
1590514859.080733,0.11785055865921787,-4.284298882681564,8.807850558659219,0.42777777777777776,0.24444444444444444,-0.6,-0.013434008379888267,-0.04906599162011173,-0.07593400837988827
1590514859.090733,0.11,-4.3,8.775284515052912,0.42777777777777776,0.24444444444444444,-0.6,-0.0625,0.028085778348965026,-0.125
1590514859.100733,0.11,-4.290722121074192,8.696185252617205,0.42777777777777776,0.24444444444444444,-0.6,-0.0431710855712335,0.086342171142467,-0.047684342284934
1590514859.110733,0.10578802027505768,-4.274211979724942,8.724741929037299,0.42777777777777776,0.24444444444444444,-0.6,0.026324873280889487,0.0,0.11183756335955526
1590514859.120733,0.09054793525062224,-4.289452064749378,8.778082226622821,0.42777777777777776,0.24444444444444444,-0.6,0.121575404683611,0.0,0.0642122976581945
1590514859.130733,0.09982433548763303,-4.2703513290247335,8.78,0.4485180415850031,0.252085594268159,-0.5869008860164893,0.0021958064045871917,0.0,0.0625
1590514859.140733,0.1,-4.285952012383901,8.78797600619195,0.4488888888888889,0.25222222222222224,-0.5866666666666667,0.0498500386996904,0.0997000773993808,-0.037200077399380804
1590514859.150733,0.13,-4.281773029165464,8.656205602079122,0.4488888888888889,0.25222222222222224,-0.5866666666666667,0.06804071614207334,-0.07912214842622003,0.005540716142073346
1590514859.160733,0.12603058396253464,-4.298015291981267,8.731908248112397,0.4488888888888889,0.25222222222222224,-0.5866666666666667,0.07538229953168307,-0.22519114976584154,0.025286724648762304
1590514859.170733,0.11,-4.289996403936056,8.780003596063944,0.44888409413696284,0.25222461959818526,-0.5866690640426298,-0.12495504920069306,-0.12502247539965347,-0.12493257380103959
1590514859.180733,0.1123865521513618,-4.282386552151362,8.797159656454085,0.4355555555555555,0.2588888888888889,-0.5933333333333334,0.0,-0.14275214716196635,0.0625
1590514859.190733,0.11890596745027124,-4.288905967450272,8.807965641952984,0.4355555555555555,0.2588888888888889,-0.5933333333333334,0.0,-0.013675406871609404,0.0556622965641953
1590514859.200733,0.11083721288138201,-4.280837212881382,8.719209341695203,0.4355555555555555,0.2588888888888889,-0.5933333333333334,0.0,-0.11453483898272479,0.005232580508637605
1590514859.210733,0.12382200512301185,-4.29,8.76382200512301,0.4355555555555555,0.2588888888888889,-0.5933333333333334,0.038612467981175916,0.05055623399058796,0.07444376600941205
1590514859.220733,0.13931523960935727,-4.2893152396093575,8.781369520781285,0.4352892598480833,0.2583943397178691,-0.5930289953819367,-0.06036012377924142,-0.0021398762207585735,0.11858037133772428
1590514859.230733,0.12,-4.273454965559334,8.809635103321998,0.42777777777777776,0.24444444444444444,-0.5844444444444444,0.010796767372918303,-0.00851616313540849,-0.040906465254163395
1590514859.240733,0.1165635581061693,-4.29,8.749690674318508,0.42777777777777776,0.24444444444444444,-0.5844444444444444,0.048181492109038736,0.2285222381635581,0.0625
1590514859.250733,0.09703050675461407,-4.292343502251538,8.677030506754614,0.42777777777777776,0.24444444444444444,-0.5844444444444444,-0.03320622185577472,0.04785311092788736,0.03320622185577472
1590514859.260733,0.12079061805430925,-4.298418763891381,8.704743708325855,0.42777777777777776,0.24444444444444444,-0.5844444444444444,0.05755863716056711,0.009882725678865773,-0.05755863716056711
1590514859.2707329,0.12658089098112843,-4.286838218037743,8.73948534588677,0.42777777777777776,0.24444444444444444,-0.5844444444444444,0.02136943136794732,0.08226113726410536,-0.02136943136794732
1590514859.2807329,0.12307810107197549,-4.28,8.794609494640122,0.4377760762293687,0.24982814361068573,-0.5706006465883954,0.12978560490045943,0.03847626339969372,0.0
1590514859.2907329,0.1344147413058209,-4.303018426632276,8.788829482611643,0.44222222222222224,0.25222222222222224,-0.5644444444444444,-0.008726966709654855,0.04504606658069029,0.0
1590514859.3007329,0.101502341954441,-4.262253512931661,8.723755854886104,0.44222222222222224,0.25222222222222224,-0.5644444444444444,-0.05780518139237192,-0.05780518139237192,0.0
1590514859.3107328,0.11808025415075073,-4.29,8.773839491698498,0.44222222222222224,0.25222222222222224,-0.5644444444444444,-0.01199841155780795,-0.0239968231156159,-0.01199841155780795
1590514859.3207328,0.11014882190537423,-4.29,8.78970235618925,0.44222222222222224,0.25222222222222224,-0.5644444444444444,-0.06156986309141107,-0.12313972618282214,-0.06156986309141107
1590514859.3307328,0.11906440485753438,-4.2809355951424655,8.82,0.4222222222222222,0.2588888888888889,-0.5933333333333334,0.125,-0.34576265179794924,0.0391101214383594
1590514859.3407328,0.11065875982983112,-4.2893412401701685,8.811436122212196,0.4222222222222222,0.2588888888888889,-0.5933333333333334,0.1208827510635555,-0.0625,-0.1751482531906665
1590514859.3507328,0.11838321147719111,-4.281616788522809,8.711018250796515,0.4222222222222222,0.2588888888888889,-0.5933333333333334,0.07260492826755557,-0.0625,-0.030314784802666694
1590514859.3607328,0.12863968786861446,-4.281360312131386,8.728161872788315,0.4222222222222222,0.2588888888888889,-0.5933333333333334,0.1789980491788404,-0.2869941475365212,0.0994941475365212
1590514859.3707328,0.12102821885491334,-4.2889717811450865,8.77383068687052,0.4222222222222222,0.2588888888888889,-0.5933333333333334,0.1314263678432084,-0.14427910352962525,-0.04322089647037475
1590514859.3807328,0.11894613702253191,-4.287892274045064,8.798946137022533,0.4222222222222222,0.23777777777777775,-0.5933333333333334,0.17432671278164896,0.022980138344946846,-0.006586643609175526
1590514859.3907328,0.11435122850649629,-4.271450409502165,8.77404549547618,0.4222222222222222,0.23777777777777775,-0.5933333333333334,0.0625,-0.2671747030573303,-0.08063011877706788
1590514859.4007328,0.1391393280426587,-4.27956966402133,8.682151679893353,0.4222222222222222,0.23777777777777775,-0.5933333333333334,0.059810400133308336,0.0,-0.17943120039992502
1590514859.4107327,0.12166635422524943,-4.270833177112625,8.725834114436877,0.4222222222222222,0.23777777777777775,-0.5933333333333334,0.0052073569539044726,0.0,-0.01562207086171341
1590514859.4207327,0.11261895498579932,-4.284762090028401,8.766905225071003,0.4222222222222222,0.23777777777777775,-0.5933333333333334,-0.09226306267750846,-0.09226306267750846,0.09226306267750846
1590514859.4307327,0.10002940764598796,-4.29,8.799941184708025,0.4222222222222222,0.2521797445113507,-0.5789313665997604,-0.06268379778742472,0.061948606637725806,0.125
1590514859.4407327,0.1,-4.27854464090279,8.782535690833475,0.4222222222222222,0.25222222222222224,-0.5788888888888889,-0.09888397743025999,0.16930801128487,0.160212016927305
1590514859.4507327,0.1,-4.271546286414932,8.684638859244794,0.4222222222222222,0.25222222222222224,-0.5788888888888889,-0.27384283962671147,0.0914928702799664,0.0
1590514859.4607327,0.10366528596153472,-4.280916321490384,8.713665285961536,0.4222222222222222,0.25222222222222224,-0.5788888888888889,-0.068227009314898,0.227091962740408,0.01718102794469401
1590514859.4707327,0.13629115376387999,-4.28907278844097,8.74629115376388,0.4222222222222222,0.25222222222222224,-0.5788888888888889,-0.11920492775606245,0.02318028897575017,0.17011478326818738
1590514859.4807327,0.14,-4.28175738897142,8.774727833085741,0.4268014505714335,0.25222222222222224,-0.5733938148698353,-0.07348368107137315,-0.10303263785725371,-0.018565275714507418
1590514859.4907327,0.09691869300911854,-4.2627674772036475,8.728302431610942,0.42777777777777776,0.25222222222222224,-0.5722222222222222,-0.008648366261398178,-0.07114836626139817,-0.0625
1590514859.5007327,0.09769685205502575,-4.26,8.68151573972487,0.42777777777777776,0.25222222222222224,-0.5722222222222222,0.048105325343910876,-0.0625,-0.014394674656089124
1590514859.5107327,0.12749397972573506,-4.28,8.734176700457109,0.42777777777777776,0.25222222222222224,-0.5722222222222222,0.010441751142770623,-0.16661649771445874,0.0625
1590514859.5207326,0.10934966618119944,-4.28,8.764417223031334,0.42777777777777776,0.25222222222222224,-0.5722222222222222,0.08604305757833566,-0.015413884843328673,0.0625
1590514859.5307326,0.12951831282442194,-4.28,8.809518312824421,0.42777777777777776,0.25222222222222224,-0.5927210505725152,0.125,-0.12198945515263712,-0.02974472757631856
1590514859.5407326,0.12868804220993355,-4.280655978895034,8.814096189944701,0.42777777777777776,0.25222222222222224,-0.6,0.004099868093957688,0.06659986809395768,-0.06659986809395768
1590514859.5507326,0.11,-4.288799341718585,8.73,0.42777777777777776,0.25222222222222224,-0.6,0.04749177148230869,0.10999177148230868,-0.09498354296461738
1590514859.5607326,0.11,-4.28,8.731637530828378,0.42777777777777776,0.25222222222222224,-0.6,-0.0625,-0.010234567677353838,0.10964814848396924
1590514859.5707326,0.11,-4.28,8.746849702596837,0.42777777777777776,0.25222222222222224,-0.6,-0.0625,-0.10531064123023358,-0.03296596184535033
1590514859.5807326,0.1324154122669063,-4.287471804088969,8.764943608177937,0.43358918095808674,0.25222222222222224,-0.5900375945480416,-0.0625,0.015096326668164461,0.030897551112109636
1590514859.5907326,0.12,-4.29,8.768934406706997,0.4355555555555555,0.25222222222222224,-0.5866666666666667,0.0,0.0625,0.006915995808126518
1590514859.6007326,0.11889809206903981,-4.29220381586192,8.6855095396548,0.4355555555555555,0.25222222222222224,-0.5866666666666667,0.01377384913700237,0.04183922629449645,0.06938692456850118
1590514859.6107326,0.1107320103061162,-4.3092679896938835,8.735124072142813,0.4355555555555555,0.25222222222222224,-0.5866666666666667,0.125,-0.12042493558677382,0.12042493558677382
1590514859.6207325,0.11716459112937856,-4.302835408870621,8.78015213790565,0.4355555555555555,0.25222222222222224,-0.5866666666666667,0.125,-0.08022130544138396,0.08022130544138396
1590514859.6307325,0.12,-4.267890756014921,8.80802731099627,0.4195009335630165,0.25757376288640194,-0.5920182073308464,0.0748293062733153,-0.0625,0.0625
1590514859.6407325,0.13425492513790388,-4.274254925137904,8.802872537431048,0.4155555555555556,0.2588888888888889,-0.5933333333333334,0.0625,0.0711399231678487,-0.02659328211189914
1590514859.6507325,0.13429328216572467,-4.285706717834276,8.737226103822971,0.4155555555555556,0.2588888888888889,-0.5933333333333334,-0.008833972928441819,0.05366602707155818,-0.09816698646422091
1590514859.6607325,0.13,-4.273251911389923,8.723496177220154,0.4155555555555556,0.2588888888888889,-0.5933333333333334,-0.11483777690648893,0.4187022152519114,-0.020324446187022144
1590514859.6707325,0.1127703996353138,-4.264256799878438,8.770202400850936,0.4155555555555556,0.2588888888888889,-0.5933333333333334,-0.23268500227928887,0.35641999696094817,0.10768500227928887
1590514859.6807325,0.11,-4.27,8.81,0.4216666666666667,0.25166666666666665,-0.5933333333333334,-0.1875,0.3125,0.09375
1590514859.6907325,0.10766174851354328,-4.2923382514864565,8.813830874256771,0.42777777777777776,0.24444444444444444,-0.5933333333333334,-0.0625,0.14365778462893636,0.038557035895177276
1590514859.7007325,0.1,-4.2709800598991166,8.70359355296343,0.42777777777777776,0.24444444444444444,-0.5933333333333334,-0.12295820854350567,0.12091641708701135,0.0020417914564943226
1590514859.7107325,0.0929839590443686,-4.2910481228668935,8.714032081911263,0.42777777777777776,0.24444444444444444,-0.5933333333333334,-0.16885025597269626,-0.006550767918088729,-0.04385025597269625
1590514859.7207325,0.11169263518907252,-4.285538243207285,8.74892351358543,0.42777777777777776,0.24444444444444444,-0.5933333333333334,-0.09711402004553114,-0.0625,-0.0625
1590514859.7307324,0.10653481306962614,-4.286732593465187,8.786930373860748,0.43750263500527004,0.24968090602847873,-0.5933333333333334,-0.020421290842581687,-0.0625,-0.0625
1590514859.7407324,0.1302011426319937,-4.29,8.758793144208038,0.44222222222222224,0.25222222222222224,-0.5933333333333334,-0.1275142828999212,-0.0587285756501182,0.001257141449960599
1590514859.7507324,0.1384641449960599,-4.29,8.70921513002364,0.44222222222222224,0.25222222222222224,-0.5933333333333334,-0.23080181245074863,0.09620271867612293,0.052900906225374314
1590514859.7607324,0.10931084471703373,-4.270344577641483,8.741722888207416,0.44222222222222224,0.25222222222222224,-0.5933333333333334,-0.19396083077780876,0.2586144410370783,0.05819277948146083
1590514859.7707324,0.09372010036241984,-4.27813994981879,8.78069974909395,0.44222222222222224,0.25222222222222224,-0.5933333333333334,-0.3401240591023139,0.4534987454697519,-0.03924937273487594
1590514859.7807324,0.11987178260453545,-4.280128217395465,8.820128217395466,0.4355555555555555,0.24444444444444444,-0.5788888888888889,-0.4975959238350397,0.43669864127834657,0.18589728255669313
1590514859.7907324,0.11016317748875888,-4.2898368225112415,8.828041870134893,0.4355555555555555,0.24444444444444444,-0.5788888888888889,-0.311480140695257,0.37194042208577094,0.0625
1590514859.8007324,0.12,-4.28056070580859,8.710841058712885,0.4355555555555555,0.24444444444444444,-0.5788888888888889,-0.25,0.19100441130368578,0.0625
1590514859.8107324,0.12,-4.2993447982444355,8.739017197366653,0.4355555555555555,0.24444444444444444,-0.5788888888888889,-0.25,0.3084049890277218,0.0625
1590514859.8207324,0.10908144411927335,-4.278162888238547,8.745459277940363,0.4355555555555555,0.24444444444444444,-0.5788888888888889,-0.2841204871272708,0.38074097425454156,0.0625
1590514859.8307323,0.09690703151284065,-4.269278905461478,8.75309296848716,0.43143159757267635,0.24891206559256351,-0.583356510037008,-0.38982421217898394,0.476162106089492,0.15915526522372997
1590514859.8407323,0.1157293227586711,-4.272847118160885,8.811458645517343,0.4222222222222222,0.2588888888888889,-0.5933333333333334,-0.8841165344833888,0.6161027557472315,0.4822055114944629
1590514859.8507323,0.10503726134062175,-4.277481369329689,8.73022356804373,0.4222222222222222,0.2588888888888889,-0.5933333333333334,-0.9842585583105571,0.8120342332422282,0.6402756749316711
1590514859.8607323,0.0934817433327367,-4.293036513334527,8.719554770001789,0.4222222222222222,0.2588888888888889,-0.5933333333333334,-0.9592608958296044,0.6713044791480222,0.6060217916592089
1590514859.8707323,0.10298980747451869,-4.274020385050963,8.762474518686297,0.4222222222222222,0.2588888888888889,-0.5933333333333334,-0.8563137032842583,0.5219068516421291,0.6436862967157417
1590514859.8807323,0.029519462196032867,-4.208262511411736,8.76850278031372,0.44074552060567496,0.25505648232679523,-0.5850297857821304,-0.7406423769607436,0.4640711884803718,0.867144057598141
1590514859.8907323,-0.07712183335773906,-4.14643908332113,8.775707277785912,0.4544444444444444,0.25222222222222224,-0.5788888888888889,-0.4420737845951091,0.33932951383804366,1.1963409723239127
1590514859.9007323,-0.25049822064056937,-4.045160142348754,8.714341637010676,0.4544444444444444,0.25222222222222224,-0.5788888888888889,-0.511788256227758,0.175711743772242,2.61788256227758
1590514859.9107323,-0.13645647287528095,-4.070740234493652,8.794126116274832,0.4544444444444444,0.25222222222222224,-0.5788888888888889,-0.6709647044529494,-0.6342529311706459,5.2942940890589885
1590514859.9207323,-0.1819236141673523,-4.101577084250206,8.81,0.4544444444444444,0.25222222222222224,-0.5788888888888889,-0.5526432234362144,-0.7949522588545952,8.007469719293546
1590514859.9307323,-0.1605634951808321,-4.052324077710971,8.80176058253014,0.43888110033470634,0.24032084143242252,-0.5715649622490121,-0.8604745143064326,-1.1214781551197994,11.203339804211861
1590514859.9407322,-0.16671456670137685,-4.056714566701377,8.783285433298623,0.4355555555555555,0.23777777777777775,-0.57,-1.4598302094180262,-1.7620632303598287,14.037985942381118
1590514859.9507322,-0.1936969532100109,-4.067898984403337,8.67731320275662,0.4355555555555555,0.23777777777777775,-0.57,-1.8587119151251361,-1.875,17.06716993108451
1590514859.9607322,-0.17950382637059342,-4.029007652741186,8.697824405135282,0.4355555555555555,0.23777777777777775,-0.57,-2.748806872830678,-2.045801446911722,20.226620980219963
1590514859.9707322,-0.17950070921985817,-3.886490780141844,8.729500709219858,0.4355555555555555,0.23777777777777775,-0.57,-3.6297251773049646,-2.0359308510638296,23.18607269503546
1590514859.9807322,-0.23311278878752928,-3.564615008213624,8.722754884484988,0.44130392739389274,0.23250843692596865,-0.5709580619730562,-4.376118450945441,-1.6141540840935305,26.885066058508965
1590514859.9907322,-0.2983067413184893,-3.5775089808731675,8.999042687465614,0.4488888888888889,0.2255555555555556,-0.5722222222222222,-6.078679730735622,-0.35682586815107287,34.21287905757468
1590514860.0007322,-0.2748359457112827,-3.3280313485353927,9.087960060320798,0.4488888888888889,0.2255555555555556,-0.5722222222222222,-5.798323755883563,-1.4457027144358634,40.87696213956039
1590514860.0107322,-0.24608554585751496,-2.9830265502901794,9.119904949047205,0.4488888888888889,0.2255555555555556,-0.5722222222222222,-5.139460425901385,-2.8832227071242515,47.305870995750126
1590514860.0207322,-0.2173351460037472,-2.638021752044966,9.151849837773614,0.4488888888888889,0.2255555555555556,-0.5722222222222222,-4.480597095919206,-4.32074269981264,53.73477985193986
1590514860.0307322,-0.24975459453563834,-2.6181507334896654,8.995302394066641,0.4451027370283519,0.22934170741609258,-0.5842117031139227,-1.8278378415226046,-5.255422779080548,60.13135327479959
1590514860.0407321,-0.29442838996506826,-2.713285169895205,9.00706970466815,0.44222222222222224,0.23222222222222225,-0.5933333333333334,-1.0647179660209591,-6.048209749126707,69.1606462369006
1590514860.0507321,-0.3,-2.747716735149394,8.882832648506062,0.44222222222222224,0.23222222222222225,-0.5933333333333334,-1.6476394595782817,-6.482778919156563,75.16244567882447
1590514860.0607321,-0.32138256814344296,-2.8455302725737717,8.881167886146176,0.44222222222222224,0.23222222222222225,-0.5933333333333334,-1.2154357964139262,-7.088423152689556,82.1960606456541
1590514860.070732,-0.34823412282540345,-2.88,8.93,0.44222222222222224,0.23222222222222225,-0.5933333333333334,-1.5698163382938586,-7.325975511772515,87.09048373855936
1590514860.080732,-0.36,-2.8641197799959257,8.898239559991852,0.44222222222222224,0.2225176433308436,-0.5933333333333334,-1.441243124872683,-7.523877062538195,93.09505500101854
1590514860.090732,-0.39984768283461164,-2.8759390731338446,8.85812185373231,0.44222222222222224,0.22,-0.5933333333333334,-1.0634519822836772,-8.060596035432646,97.51205304094199
1590514860.100732,-0.4621148831038111,-2.9321148831038113,8.745770233792378,0.44222222222222224,0.22,-0.5933333333333334,-1.930622912568056,-8.327093436885209,100.98074415519056
1590514860.110732,-0.493334199922007,-2.990002599766021,8.743335499805017,0.44222222222222224,0.22,-0.5933333333333334,-1.9583143767060964,-8.500008124268815,104.45850123488886
1590514860.120732,-0.5163901445608405,-3.02229260842063,8.796877825261891,0.44222222222222224,0.22,-0.5933333333333334,-1.96615760525788,-8.9466440131447,108.56705609639447
1590514860.130732,-0.555188986439141,-3.0339244054243437,8.856075594575657,0.4472852177019359,0.21375563890835314,-0.5923207342373906,-2.1875,-9.604424281769095,113.05219024360085
1590514860.140732,-0.6469649260056066,-2.9791052219831804,8.883035073994394,0.4755555555555556,0.17888888888888888,-0.5866666666666667,-2.1875,-10.1875,115.4375
1590514860.150732,-0.6849035211568903,-3.0049035211568906,8.789250844992084,0.4755555555555556,0.17888888888888888,-0.5866666666666667,-2.143870598553887,-10.012982394215548,119.36414613015017
1590514860.160732,-0.7456774723020106,-3.065677472302011,8.818516208453016,0.4755555555555556,0.17888888888888888,-0.5866666666666667,-2.4461697271235123,-10.008871050471893,122.45423548420189
1590514860.170732,-0.8180866640796792,-3.121763808045531,8.853677143965852,0.4755555555555556,0.17888888888888888,-0.5866666666666667,-2.3134345492174364,-10.198523800284569,124.58819040227655
1590514860.180732,-0.8639058836983247,-3.1492705891322164,8.886352945661082,0.48173594831036654,0.1577725469766181,-0.5866666666666667,-2.202794137267235,-10.370441182076354,126.28220595803076
1590514860.190732,-0.8749668004377964,-3.1398672017511857,8.924900401313389,0.4888888888888889,0.13333333333333333,-0.5866666666666667,-2.280212513681138,-10.374585005472456,127.87956493980299
1590514860.200732,-0.87,-3.0913201498329568,8.843080349610231,0.4888888888888889,0.13333333333333333,-0.5866666666666667,-2.1847496878480075,-10.252750312151992,129.04049750278406
1590514860.210732,-0.9210798267326733,-3.0514866955445545,8.791283261138613,0.4888888888888889,0.13333333333333333,-0.5866666666666667,-2.3564163056930694,-10.160895923576733,129.7221244585396
1590514860.220732,-1.013079478660874,-3.04,8.843079478660874,0.4888888888888889,0.13333333333333333,-0.5866666666666667,-2.61539739330437,-10.557740224891388,129.99519869665218
1590514860.230732,-1.059127330571175,-3.051476398342705,8.88530186445694,0.49909013186018214,0.110805588438394,-0.6002683239617244,-2.6304541839301567,-10.727771715004438,130.42113744820952
1590514860.240732,-1.138060599139736,-3.0555818202580793,8.881163640516158,0.5155555555555555,0.07444444444444444,-0.6222222222222222,-2.4975757489246697,-10.54795449354802,131.15018937231167
1590514860.250732,-1.2114633074556906,-3.0668291343196135,8.796341731360773,0.5155555555555555,0.07444444444444444,-0.6222222222222222,-2.4618907463014503,-10.9375,131.3125
1590514860.260732,-1.2351414928726916,-3.0745755213819255,8.770565971490766,0.5155555555555555,0.07444444444444444,-0.6222222222222222,-2.439268660908644,-11.033902991362966,130.92688803454814
1590514860.270732,-1.2696224120543396,-3.06423177315062,8.82808595835558,0.5155555555555555,0.07444444444444444,-0.6222222222222222,-2.394205671234502,-10.992757089043128,130.29801417808625
1590514860.280732,-1.3492206773307762,-3.025876738002877,8.894707753999041,0.5188239453331203,0.051020984371897504,-0.6184091008150634,-2.280641154164669,-10.689935383341323,129.3246769167066
1590514860.290732,-1.4016137715179968,-2.962579342723005,8.886772456964007,0.5222222222222223,0.02666666666666667,-0.6144444444444445,-2.3125,-10.52620696400626,127.92534624413146
1590514860.300732,-1.4454326994687452,-2.964173079787498,8.848740380318752,0.5222222222222223,0.02666666666666667,-0.6144444444444445,-2.401081748671863,-10.234254753984409,125.91340114691425
1590514860.310732,-1.5119926725515749,-2.947717426049325,8.862282573950674,0.5222222222222223,0.02666666666666667,-0.6144444444444445,-2.158967825616563,-9.939311883744375,123.17708666306032
1590514860.3207319,-1.5176462739865793,-2.8720545069261862,8.87617686300671,0.5222222222222223,0.02666666666666667,-0.6144444444444445,-2.255526968959699,-9.83639460620806,120.46862491661108
1590514860.3307319,-1.5558206301553528,-2.85618321723163,8.925820630155352,0.5258587801710598,-0.010426224411476098,-0.6282633646500271,-2.170443615377889,-9.60794361537789,116.59076699991256
1590514860.3407319,-1.6048391423677748,-2.8513706432241688,8.887902144080563,0.5277777777777778,-0.03,-0.6355555555555555,-2.023688840050352,-9.383566520151055,112.85883040302112
1590514860.3507318,-1.6580739105859554,-2.8082717411783706,8.780197830592416,0.5277777777777778,-0.03,-0.6355555555555555,-1.9206793529459263,-9.07453805883778,109.05788058837778
1590514860.3607318,-1.7241820801370662,-2.8010455200342665,8.784182080137066,0.5277777777777778,-0.03,-0.6355555555555555,-1.9440345002141661,-8.799430999571667,105.54743049336085
1590514860.3707318,-1.7751300632848217,-2.802434968357589,8.835130063284822,0.5277777777777778,-0.03,-0.6355555555555555,-1.9527185522349324,-8.6165778283524,102.46497873869558
1590514860.3807318,-1.8164399619410085,-2.753010085632731,8.929869838249285,0.5328010994819748,-0.051006618035733156,-0.6414922084786976,-1.7465627973358706,-8.371562797335871,98.78581588962892
1590514860.3907318,-1.8492918831624772,-2.6674784089313297,8.92778928521275,0.54,-0.0811111111111111,-0.65,-1.2721286511725882,-7.839054381407106,94.91623477215279
1590514860.4007318,-1.8881169697395213,-2.6179498701116337,8.822050129888366,0.54,-0.0811111111111111,-0.65,-1.2889621217440146,-7.41239556273257,91.14279382854735
1590514860.4107318,-1.9343130835455316,-2.6086261670910633,8.848626167091064,0.54,-0.0811111111111111,-0.65,-1.7585864556808537,-7.132389050563841,86.99900721474475
1590514860.4207318,-1.9515485996705106,-2.5969028006589787,8.865774299835255,0.54,-0.0811111111111111,-0.65,-1.5972765650741352,-6.794455313014827,83.92699752883031
1590514860.4307318,-2.031045108351701,-2.5697763132051588,8.914030072234468,0.5376368005392731,-0.0910365488461641,-0.6589801579507623,-1.454757981799533,-6.696828012133644,79.54989443074439
1590514860.4407318,-2.0946050176238855,-2.583025088119428,8.965394982376115,0.5344444444444445,-0.10444444444444444,-0.6711111111111111,-1.2927508811942774,-6.321532241343562,74.43738337134563
1590514860.4507318,-2.1284421806783835,-2.56,8.841859397738721,0.5344444444444445,-0.10444444444444444,-0.6711111111111111,-1.1826318146199486,-5.822236370760103,68.80622131422814
1590514860.4607317,-2.0003109970403257,-2.4222861172770997,8.847838281539032,0.5344444444444445,-0.10444444444444444,-0.6711111111111111,-0.5015549852016278,-4.9390549852016274,63.469575182667405
1590514860.4707317,-1.9420381802640325,-2.325329091081774,8.727176370025644,0.5344444444444445,-0.10444444444444444,-0.6711111111111111,-0.11677272295564631,-4.233147734827619,58.18060238389211
1590514860.4807317,-2.130865752707522,-2.4517776396296176,8.857172070804568,0.5258612265375345,-0.11959129957428553,-0.6670719497431535,-1.3008130746327258,-4.511206360632137,52.080366783365506
1590514860.4907317,-2.2090956513918245,-2.4963695642397807,8.937516301659397,0.5155555555555555,-0.13777777777777778,-0.6622222222222223,-0.8935529747717768,-4.13073368709808,46.708919818320815
1590514860.5007317,-2.21535333707235,-2.473760515984296,8.821724621424565,0.5155555555555555,-0.13777777777777778,-0.6622222222222223,-0.7118269770050476,-3.4474551318003366,41.94692933258553
1590514860.5107317,-2.2748672938656878,-2.52,8.914867293865688,0.5155555555555555,-0.13777777777777778,-0.6622222222222223,-0.98285002677069,-3.3478970666972616,37.19301189383509
1590514860.5207317,-2.28,-2.5152165098672747,8.900866039469099,0.5155555555555555,-0.13777777777777778,-0.6622222222222223,-0.46739681332953215,-3.038015933352339,33.217143400171054
1590514860.5307317,-2.28,-2.501930374734708,8.847721498938832,0.5155555555555555,-0.13777777777777778,-0.6622222222222223,-0.5504351579080744,-2.622824210459628,29.480417894136654
1590514860.5407317,-2.3033503419591366,-2.47,8.895340136783656,0.5255555555555556,-0.16333333333333333,-0.7066666666666667,-0.36256378234676157,-1.745748290204318,21.61883481980147
1590514860.5507317,-2.3310330737799707,-2.4759779508133533,8.91896692622003,0.5255555555555556,-0.16333333333333333,-0.7066666666666667,-0.4439567111248169,-1.431732325957906,15.743287911494873
1590514860.5607316,-2.306048407219496,-2.474193628877984,8.943951592780504,0.5255555555555556,-0.16333333333333333,-0.7066666666666667,-0.2878025451218498,-0.9274203609747983,10.111401064626133
1590514860.5707316,-2.316968458732946,-2.4594269215183036,8.936802309874375,0.5255555555555556,-0.16333333333333333,-0.7066666666666667,-0.3089182594893962,-0.5307307848169661,6.123389588680265
1590514860.5807316,-2.3948456815169465,-2.5048456815169464,8.899382726067786,0.5255555555555556,-0.15310356124200156,-0.7346639376534695,-0.47164347155725067,0.20814060429008086,-0.4286277015878168
1590514860.5907316,-2.405418175792439,-2.504581824207561,8.925418175792439,0.5255555555555556,-0.14222222222222222,-0.7644444444444445,-0.34113640129725636,0.6302271974054873,-5.182951909192056
1590514860.6007316,-2.383851639192443,-2.4843109835154658,8.877703278384885,0.5255555555555556,-0.14222222222222222,-0.7644444444444445,-0.2798145489905538,0.7528709020188924,-9.279368864604557
1590514860.6107316,-2.3760879071170082,-2.4807252714113392,8.83536263570567,0.5255555555555556,-0.14222222222222222,-0.7644444444444445,-0.21648352683956573,1.1476647316043427,-13.097938970144753
1590514860.6207316,-2.3980795225892995,-2.5061590451785993,8.888477135535798,0.5255555555555556,-0.14222222222222222,-0.7644444444444445,-0.13700298381687792,1.412251491908439,-16.088170928852737
1590514860.6307316,-2.403458430597953,-2.5267292152989764,8.93056293769079,0.5041137447377347,-0.14222222222222222,-0.7804349474272262,0.0397120219069851,1.477212021906985,-18.982408197162865
1590514860.6407316,-2.3953452720926545,-2.5413810883706174,8.902071632555925,0.46,-0.14222222222222222,-0.8133333333333334,-0.2511192586863398,2.1552113081072504,-22.578805479533557
1590514860.6507316,-2.3901303697371232,-2.56,8.860912588159863,0.46,-0.14222222222222222,-0.8133333333333334,-0.5641296217140415,2.6241851891429793,-25.357888972002563
1590514860.6607316,-2.358423770184003,-2.56,8.795394057453999,0.46,-0.14222222222222222,-0.8133333333333334,-0.3700742818250094,2.788638577262486,-28.20457865893729
1590514860.6707315,-2.28994229553657,-2.5326957975654016,8.850057704463431,0.46,-0.14222222222222222,-0.8133333333333334,-0.1987324898558408,3.0456512652162386,-30.63767510144159
1590514860.6807315,-2.2393078350221205,-2.5093078350221205,8.829332096474953,0.43724751439037157,-0.14360116074401788,-0.8112649255506399,-0.023717354074496932,3.5602611674040245,-32.85321821036107
1590514860.6907315,-2.2726132476417535,-2.5573287032238,8.761417020835493,0.38666666666666666,-0.14666666666666667,-0.8066666666666666,-0.26596999067067484,4.039779205970768,-35.525189177982796
1590514860.7007315,-2.308889104210067,-2.654444552105034,9.027225182888426,0.38666666666666666,-0.14666666666666667,-0.8066666666666666,-1.1180629572210647,3.423607746717698,-39.11457021219902
1590514860.7107315,-2.2867024039789996,-2.666809615915999,8.688087501151331,0.38666666666666666,-0.14666666666666667,-0.8066666666666666,-0.3623768075895736,4.070486782720825,-41.559203739522886
1590514860.7207315,-2.3098817352859906,-2.759526941143962,8.888975039145253,0.38666666666666666,-0.14666666666666667,-0.8066666666666666,-1.1833114580455006,4.746550612508059,-43.92542714377821
1590514860.7307315,-2.3689980607627663,-2.8859922430510667,8.8449709114415,0.3901659125188537,-0.16516268045679808,-0.7876707606119371,-0.5186651583710408,4.890594699418229,-47.912209114415
1590514860.7407315,-2.3631193938152775,-2.9468806061847226,8.858074544337498,0.3944444444444444,-0.18777777777777774,-0.7644444444444445,-0.29664140896989555,5.519683084169568,-50.863713393405696
1590514860.7507315,-2.3652658115222067,-3.001980981686068,8.759082264402759,0.3944444444444444,-0.18777777777777774,-0.7644444444444445,0.08303018647586563,5.779588677986209,-52.972230203158595
1590514860.7607315,-2.39,-3.0831183617330176,8.81295713303278,0.3944444444444444,-0.18777777777777774,-0.7644444444444445,0.03797184228623823,5.7274872010391995,-55.569897608313596
1590514860.7707314,-2.386150818739331,-3.1253967250426755,8.86,0.3944444444444444,-0.18777777777777774,-0.7644444444444445,0.7646312116709869,5.985614765758362,-58.116065783650505
1590514860.7807314,-2.365333602421796,-3.139000201816347,8.824556205852673,0.3978394438838434,-0.1887283776208095,-0.7626790447359569,1.2486099899091827,6.177081231079717,-59.79027245206862
1590514860.7907314,-2.3334726545131166,-3.1661271676300577,8.737354379724323,0.4222222222222222,-0.1955555555555556,-0.75,1.2282959092930192,6.515284570920409,-63.22710093374833
1590514860.8007314,-2.421811521333142,-3.29817382559977,8.93270995546617,0.4222222222222222,-0.1955555555555556,-0.75,0.7443847866685821,5.971649188335009,-65.89230354834075
1590514860.8107314,-2.4230699849674293,-3.3072428356677563,8.873621417833878,0.4222222222222222,-0.1955555555555556,-0.75,1.4758748120928677,6.220473227707652,-67.7450622181393
1590514860.8207314,-2.4452745294576235,-3.341593161822029,8.85582358837287,0.4222222222222222,-0.1955555555555556,-0.75,1.7534316182202918,6.25652564316739,-68.85165385900434
1590514860.8307314,-2.416147714808044,-3.335039853747715,8.791556855575868,0.42093812715823686,-0.2058283160674386,-0.7390851919561243,1.545845521023766,6.4351919561243145,-69.64676873857404
1590514860.8407314,-2.4104754740884435,-3.4644427728730354,8.836508175303852,0.4155555555555556,-0.2488888888888889,-0.6933333333333334,1.7817609564907557,6.534732669543529,-70.0872956174037
1590514860.8507314,-2.38028244671634,-3.587338416219026,8.763709928955121,0.4155555555555556,-0.2488888888888889,-0.6933333333333334,1.4440521573384162,6.2845260786692085,-70.38810431467684
1590514860.8607314,-2.310401298249681,-3.640133766083227,8.72479935087516,0.4155555555555556,-0.2488888888888889,-0.6933333333333334,1.6849918859394923,6.281668019010085,-70.86998377187898
1590514860.8707314,-2.246110759627146,-3.6003469146737523,8.778125395419462,0.4155555555555556,-0.2488888888888889,-0.6933333333333334,1.875,6.25,-72.04427907123878
1590514860.8807313,-2.195810659709281,-3.5851360417443163,8.825810659709282,0.42952002319128674,-0.22328736489004844,-0.6686627738435417,1.7964498695490123,6.354733507267984,-73.7795844204249
1590514860.8907313,-2.1496658878987738,-3.602073727955011,8.788629023921269,0.4488888888888889,-0.18777777777777774,-0.6344444444444445,1.7995392002811834,6.612039200281184,-75.3877450017574
1590514860.9007313,-2.079420707025277,-3.576570117837546,8.729420707025277,0.4488888888888889,-0.18777777777777774,-0.6344444444444445,1.8517529459386526,6.7071264729693265,-76.72160879733741
1590514860.9107313,-2.0284043490144867,-3.6009217359613688,8.720921735961369,0.4488888888888889,-0.18777777777777774,-0.6344444444444445,1.8807608497585568,6.64915760621982,-78.25309776171531
1590514860.9207313,-1.9406078810520584,-3.65,8.77,0.4488888888888889,-0.18777777777777774,-0.6344444444444445,2.2640354253102295,6.866082659057202,-80.04086606153903
1590514860.9307313,-1.7984186774728312,-3.681985632713207,8.795588506170565,0.45741839094574405,-0.15827991649782033,-0.6252041505495181,2.23506285687972,7.085017959108492,-81.96714979738442
1590514860.9407313,-1.7164453926582195,-3.779004266961988,8.837109214683561,0.4755555555555556,-0.09555555555555556,-0.6055555555555555,2.09863481645549,7.120851112341618,-84.43067408227745
1590514860.9507313,-1.7253128489469023,-3.837086365561588,8.810126679758193,0.4755555555555556,-0.09555555555555556,-0.6055555555555555,2.4501679758191828,7.382917484886989,-86.16775441838975
1590514860.9607313,-1.3885003871418937,-3.6792152259160273,8.901429677548268,0.4755555555555556,-0.09555555555555556,-0.6055555555555555,3.1321387091939954,7.949106451532333,-92.98620807003522
1590514860.9707313,-1.3840246622616894,-3.7340246622616893,8.86674887420563,0.4755555555555556,-0.09555555555555556,-0.6055555555555555,2.6635545115946297,8.497582698539624,-101.22330446950886
1590514860.9807312,-1.3574498997995992,-3.719312374749499,8.722808116232464,0.4882967323535961,-0.07798151859274105,-0.6055555555555555,2.4767190631262523,9.15401114729459,-109.27811873747495
1590514860.9907312,-1.315030475685703,-3.6800344507751426,8.870002650059627,0.5077777777777778,-0.05111111111111112,-0.6055555555555555,2.749867497018683,9.249834371273353,-116.78046326354843
1590514861.0007312,-1.202015774353617,-3.5419369025855314,8.769290154087228,0.5077777777777778,-0.05111111111111112,-0.6055555555555555,3.6657534604335336,10.215161922172891,-120.66969704883782
1590514861.0107312,-1.20639738835205,-3.524410446591799,8.572117524157743,0.5077777777777778,-0.05111111111111112,-0.6055555555555555,4.569461347610343,10.954559284408461,-122.66880843562288
1590514861.0207312,-1.208266136532738,-3.5481449962797615,8.503628627232143,0.5077777777777778,-0.05111111111111112,-0.6055555555555555,4.879034133184524,11.38911365327381,-125.81879388718377
1590514861.0307312,-1.1814353943461986,-3.7382509358461338,8.937623596230798,0.5052566584914591,-0.03598439539319881,-0.6025760509444515,3.0961259197108557,10.755881308893766,-133.51568349038337
1590514861.0407312,-1.0718747252747254,-3.761335164835165,8.865738461538461,0.4955555555555556,0.022222222222222227,-0.5911111111111111,4.144175824175824,11.489168956043956,-135.8465934065934
1590514861.0507312,-0.9796923076923078,-3.7403846153846154,8.807076923076924,0.4955555555555556,0.022222222222222227,-0.5911111111111111,4.039423076923077,11.46298076923077,-136.6846153846154
1590514861.0607312,-0.8904605316640923,-3.7269079749613856,8.747697341679538,0.4955555555555556,0.022222222222222227,-0.5911111111111111,3.9403783229005773,11.44757413015202,-137.59354549426877
1590514861.0707312,-0.907509145597919,-3.982637183968783,8.662454272010406,0.4955555555555556,0.022222222222222227,-0.5911111111111111,4.0469321599869925,11.820512559954475,-141.05654519957727
1590514861.0807312,-0.8324593334584242,-3.8700880446862866,8.810250710852591,0.4955555555555556,0.022222222222222227,-0.5911111111111111,4.15942583317697,11.81038277788202,-142.49944972071071
1590514861.0907311,-0.7414637951649121,-3.7794298795602344,8.941463795164912,0.4940451981245484,0.03197089291326847,-0.5876784805860948,4.20365948791228,11.711382906593567,-143.91563930769007
1590514861.1007311,-0.6497276253244292,-4.024059665801522,8.84972762532443,0.48657039910050903,0.08021732297752246,-0.5706903009860054,3.9743190633110728,11.520265886092561,-146.59127759470414
1590514861.1107311,-0.61,-3.700740953475014,8.390496840896038,0.4833333333333333,0.10111111111111112,-0.5633333333333334,4.30182007466973,12.0472429638139,-150.37189474439978
1590514861.120731,-0.4962083300139775,-3.7169506586809,8.535714916822979,0.483666057514579,0.11874549271713215,-0.578305921489389,4.424794411170417,11.875342648049305,-151.33585528936334
1590514861.130731,-0.3807791916221873,-3.744289138826324,8.693670579885428,0.48400356961513985,0.13663363404685402,-0.5934939660146245,4.538704745109683,11.68549209148386,-152.24713796087747
1590514861.140731,-0.2653500532303971,-3.7716276189717477,8.851626242947878,0.48434108171570067,0.1545217753765759,-0.60868201053986,4.65261507904895,11.495641534918416,-153.1584206323916
1590514861.150731,-0.19157792229227874,-3.77039448057307,8.727100650315254,0.4844444444444445,0.16,-0.6133333333333333,4.6875,13.298569388967747,-154.6982244247846
1590514861.160731,-0.2026463126042596,-3.7668384218489352,8.818008922683012,0.4844444444444445,0.16,-0.6133333333333333,4.37134218489351,12.960042867672732,-155.12543740543896
1590514861.170731,-0.2156634984676262,-3.7635841253830935,8.918892113124103,0.4844444444444445,0.16,-0.6133333333333333,4.045912538309345,12.532916456531016,-155.51188511075765
1590514861.180731,-0.22868068433099276,-3.7603298289172518,9.019775303565194,0.4844444444444445,0.16,-0.6133333333333333,3.7204828917251813,12.1057900453893,-155.89833281607633
1590514861.190731,-0.13645115593834997,-3.8691882932910246,8.962586128739801,0.46,0.22,-0.5777777777777777,4.283270413077969,12.55949151461922,-149.04427201382592
1590514861.200731,-0.12456793970988214,-3.732531306663645,9.105184723481415,0.46,0.22,-0.5777777777777777,4.394675565219855,12.967977072472802,-146.89043907241614
1590514861.210731,0.10587206123564791,-3.1153198469108805,8.265923090942229,0.46,0.22,-0.5777777777777777,8.907884545288866,15.830759066885365,-141.59211545471115
1590514861.220731,0.49681043238046235,-3.5496477852857935,8.969081885520062,0.46,0.22,-0.5777777777777777,2.7708006080138663,12.109022709114791,-137.4556540888594
1590514861.230731,0.786159240275463,-3.947946919908179,9.107290965692902,0.45205308009182105,0.23236187541272288,-0.5777777777777777,1.3778477878054152,10.828617810760669,-131.7831436118361
1590514861.240731,0.72,-3.97,7.74,0.43,0.26666666666666666,-0.5777777777777777,12.3125,16.25,-124.9375
1590514861.250731,0.5356247085159966,-3.8077497434940772,9.074877110344184,0.43,0.26666666666666666,-0.5777777777777777,4.707019226284861,10.7187412554799,-118.62264626667289
1590514861.260731,0.5615668486876872,-3.65268803945746,9.061197815747754,0.43,0.26666666666666666,-0.5777777777777777,-3.8098027127003697,3.3226836357230933,-110.69738087898538
1590514861.270731,0.5791859215475551,-3.517837184309511,8.55130037614186,0.43,0.26666666666666666,-0.5777777777777777,5.6909927458355725,9.231092154755508,-101.28835303600215
1590514861.280731,0.5329274706457926,-3.498683953033268,8.160662915851272,0.4317288405088063,0.26666666666666666,-0.5807639568384431,5.630312805772994,5.825258378180039,-93.76538420376713
1590514861.290731,0.4901773483365949,-3.430283757338552,9.494466731898239,0.44217887040661014,0.26666666666666666,-0.5988140084801044,-3.026586961839529,8.924642245596868,-84.41379494863014
1590514861.300731,0.5570105591712047,-3.6652669677247975,8.620533935449595,0.44222222222222224,0.26666666666666666,-0.5988888888888889,1.3703243292601939,5.699509812060034,-73.53559569663966
1590514861.310731,0.6336098751494222,-3.62348552264577,8.536971045291539,0.44222222222222224,0.26666666666666666,-0.5988888888888889,4.547455048811263,6.2653002141718686,-67.9647363527693
1590514861.320731,0.6053197516725936,-3.5479796275088904,8.673401241637032,0.44222222222222224,0.26666666666666666,-0.5988888888888889,1.591114911699114,5.746003104092581,-56.88536329937918
1590514861.330731,0.6110671819262782,-3.5467746730083234,8.642877526753864,0.45651473114017704,0.2456249174263443,-0.5808247456731405,1.9195154577883473,5.00419887039239,-48.95923751486326
1590514861.340731,0.57,-3.44,8.84,0.5222222222222223,0.14888888888888888,-0.4977777777777778,0.6875,2.4375,-43.3125
1590514861.350731,0.5815103138259883,-3.4658982061084735,8.805469058522036,0.5222222222222223,0.14888888888888888,-0.4977777777777778,0.4896664811158257,2.2756362118220395,-39.66157233331933
1590514861.360731,0.6080927064296394,-3.5032978900149527,8.742887522844327,0.5222222222222223,0.14888888888888888,-0.4977777777777778,0.22649111148031234,2.1253322811098188,-29.444862103339425
1590514861.3707309,0.6,-3.3592549122054076,8.84585620719897,0.5222222222222223,0.14888888888888888,-0.4977777777777778,1.2424019424903436,3.141748381258047,-23.66887280513519
1590514861.3807309,0.6,-3.1948983971189193,8.877162210072587,0.5222222222222223,0.14888888888888888,-0.4977777777777778,1.5358957194305014,2.8971702338079153,-19.559959927972983
1590514861.3907309,0.6445454025454026,-3.235909051909052,8.570227656227656,0.8622222222222222,-0.18777777777777774,0.2911111111111111,1.5568157443157444,2.74005434005434,-15.117896467896468
1590514861.4007308,0.5590500362581581,-3.1887599709934737,9.030210297316897,0.8622222222222222,-0.18777777777777774,0.2911111111111111,-1.8553752719361856,-0.5524383611312546,-12.696564539521392
1590514861.4107308,0.52,-3.1881408585563062,8.75096175328475,0.8622222222222222,-0.18777777777777774,0.2911111111111111,-0.950918266929092,0.5314511410181393,-9.831526942922496
1590514861.4207308,0.4933260027818503,-3.0218021878876735,8.831802187887673,0.8622222222222222,-0.18777777777777774,0.2911111111111111,0.9279761569113942,1.320146564038946,-6.713781906695237
1590514861.4307308,0.41094414842641924,-2.8525886456855902,8.653776593705677,0.8506826303437642,-0.14910266075482465,0.277053790095535,0.34003766243722927,2.097462337562771,-3.9523493502510827
1590514861.4407308,0.4350613332311113,-3.1741511097481507,8.750245332924445,0.5559170382864177,0.8388086871707064,-0.08202429477432349,1.0434555525740792,1.3940444474259208,-1.1386777897036837
1590514861.4507308,0.44676764163739435,-2.930471602963169,8.970134246861196,0.4955555555555556,1.0411111111111109,-0.15555555555555556,-1.2710412826487671,-1.019148001947623,3.609853754390846
1590514861.4607308,0.42488662052655374,-3.0690514033318266,8.700268319827497,0.4955555555555556,1.0411111111111109,-0.15555555555555556,0.27886437936910924,0.12048851424199225,6.892006921016938
1590514861.4707308,0.47677094972067036,-3.216458100558659,9.07111359404097,0.4955555555555556,1.0411111111111109,-0.15555555555555556,-0.1875,-2.159729981378026,12.321810986964618
1590514861.4807308,0.45073556797020486,-3.2685288640595904,8.515692116697704,0.4955555555555556,1.0411111111111109,-0.15555555555555556,-0.1875,-0.4240378646803229,16.932243171942893
1590514861.4907308,0.44111366223542803,-3.1955683111771402,9.031021821760019,0.3911111111111111,0.6133333333333333,-0.5733333333333334,-0.18068311177140212,-2.68025260954292,23.092350566285283
1590514861.5007308,0.4492062358911034,-3.236031179455517,8.74778174381138,0.3911111111111111,0.6133333333333333,-0.5733333333333334,-0.5853117945551718,-1.7192594879314669,29.66756666152154
1590514861.5107307,0.47479713847726107,-3.4347971384772613,8.71409545222279,0.3911111111111111,0.6133333333333333,-0.5733333333333334,1.2345464997445068,-1.922971384772611,40.557906234031684
1590514861.5207307,0.5176617271333674,-3.477661727133367,8.482626673479817,0.3911111111111111,0.6133333333333333,-0.5733333333333334,0.5379969340827797,-2.351617271333674,49.45230838017373
1590514861.5307307,0.5616482870166152,-3.5216482870166153,8.869823555359506,0.3911111111111111,0.6133333333333333,-0.5733333333333334,-1.2179918394353773,-4.873897220996913,58.579519555947655
1590514861.5407307,0.4739910744548638,-2.9827491243927238,8.959600892554514,0.36124166760817983,0.47785407173075234,-0.6213377961059013,-2.0425446277256807,-5.61502231386284,69.1933256129251
1590514861.5507307,0.4509636208784524,-3.076479863730381,8.196283246137,0.36,0.4722222222222222,-0.6233333333333333,0.985865068743156,-4.322271565883927,77.57829419637426
1590514861.5607307,0.4590578315269699,-3.391120642758505,9.134618152906222,0.36,0.4722222222222222,-0.6233333333333333,-2.805495982759342,-7.3015702807883835,81.31727308867222
1590514861.5707307,0.333307870515309,-3.275817419072068,8.934904514432409,0.36,0.4722222222222222,-0.6233333333333333,-3.2229040135245133,-7.358837893682299,83.7823242126354
1590514861.5807307,0.263275937636967,-3.2320474610231043,8.672284766138626,0.36,0.4722222222222222,-0.6233333333333333,-0.32314429278066514,-5.881601809529773,86.73679638094046
1590514861.5907307,0.3359818655786014,-3.2881570894253653,8.783806641731836,0.37777777777777777,0.4066666666666667,-0.6611111111111111,-0.2588745324719483,-5.3064575541199135,92.65162359741585
1590514861.6007307,0.4399617445818868,-3.43,8.85011476625434,0.37777777777777777,0.4066666666666667,-0.6611111111111111,-1.4997609036367927,-7.377390963632074,96.37571728908962
1590514861.6107306,0.43289325558663927,-3.43,8.871320233240082,0.37777777777777777,0.4066666666666667,-0.6611111111111111,-1.4555828474164954,-7.8191715258350465,96.50825145775052
1590514861.6207306,0.4912809187279152,-3.4825265017667846,8.486051236749116,0.37777777777777777,0.4066666666666667,-0.6611111111111111,-0.28848277385159005,-6.741552561837456,94.48332597173145
1590514861.6307306,0.6272231543624162,-3.523926174496644,8.947374161073824,0.37777777777777777,0.4066666666666667,-0.6611111111111111,-1.0791736577181208,-6.615509647651007,91.64303691275168
1590514861.6407306,0.582451774829688,-3.6149193259232697,8.811129437074221,0.4211111111111111,0.3533333333333333,-0.6444444444444445,-1.4508067407673002,-7.622884546432413,88.16693707422014
1590514861.6507306,0.32895186104218366,-3.66,8.250225310173697,0.4211111111111111,0.3533333333333333,-0.6444444444444445,-1.1179156327543425,-5.613839950372208,85.13067617866005
1590514861.6607306,0.31285383678440926,-3.680009257003654,8.948617052375152,0.4211111111111111,0.3533333333333333,-0.6444444444444445,-2.7592219853836784,-8.607337088915957,79.47279689403167
1590514861.6707306,0.27137406752444254,-3.7367928938756427,9.406715450129072,0.4211111111111111,0.3533333333333333,-0.6444444444444445,-5.5748889668069195,-10.687015976583938,73.57298844441735
1590514861.6807306,0.27989958737321385,-3.3446189808321645,8.57974002479826,0.4211111111111111,0.3533333333333333,-0.6444444444444445,0.5528284244974282,-7.9695065247880965,70.53577199829257
1590514861.6907306,0.2531924113398728,-3.3131924113398727,9.195510402069635,0.4211111111111111,0.3136183871701819,-0.6573518019474687,0.457452570874205,-3.5254176996873987,68.76867656570012
1590514861.7007306,-0.17788246149114492,-4.5766891355050365,6.979908245123921,0.4211111111111111,0.3088888888888889,-0.6588888888888889,-5.578771753338289,-2.3267245687777125,54.08243361867904
1590514861.7107306,-2.320243968250399,-13.21267623052189,-6.186311245025071,0.4211111111111111,0.3088888888888889,-0.6588888888888889,-63.39497841386909,40.35234861601421,-111.75143204865873
1590514861.7207305,1.8130463375764057,-0.25170260837989955,0.32014161505719074,0.4211111111111111,0.3088888888888889,-0.6588888888888889,-214.70741461741744,82.88015926650662,-493.73540477295194
1590514861.7307305,-0.6322396159044601,-0.6070728853563576,0.15091767363982975,0.4211111111111111,0.3088888888888889,-0.6588888888888889,-190.91029785560107,-35.31218731718141,-190.03131241048192
1590514861.7407305,-0.03063072227873853,-0.3184638860630722,-0.05471007121057986,0.4135390527862552,0.31429750197807177,-0.6231920425002826,-185.6633392675483,-7.342065106815866,-147.25483214649034
1590514861.7507305,3.2148619392716267,-2.2786657187414,12.811323961104486,0.4133333333333333,0.3144444444444445,-0.6222222222222222,-188.43347083983122,-6.316408758370792,-133.50056187505734
1590514861.7607305,0.24988697321444553,-1.9667541577710401,8.590261935090332,0.4133333333333333,0.3144444444444445,-0.6222222222222222,-178.467282782253,4.812618857532428,-125.50140610703457
1590514861.7707305,-0.5258996384981567,-0.41524106088263735,3.1654801531908805,0.4133333333333333,0.3144444444444445,-0.6222222222222222,-67.3382480582698,114.13151866566449,-116.75663946454776
1590514861.7807305,1.2062812325822119,-0.9454899275420018,6.487638187753802,0.4133333333333333,0.3144444444444445,-0.6222222222222222,22.826271996178036,51.280412453220805,-116.38369396448762
1590514861.7907305,1.2991488457725535,-1.6227489024217534,7.196802152669594,0.3578064170954696,0.41819210373097926,-0.5798464177249052,113.9329326582637,26.57423700608979,-111.73272199405183
1590514861.8007305,0.4340697456798852,-1.9444777391919148,6.9902759466821935,0.3288888888888889,0.4722222222222222,-0.5577777777777778,190.1624240990663,27.714438333090726,-103.58786182910853
1590514861.8107305,0.10989079008217423,-2.1508156949236956,7.473750844865,0.3288888888888889,0.4722222222222222,-0.5577777777777778,282.35454092703924,19.434087190067945,-88.61476157020384
1590514861.8207304,7.7904211997811945,0.48712392876679056,13.334720111833708,0.3288888888888889,0.4722222222222222,-0.5577777777777778,324.41044946210417,-0.10105299945298896,-76.3542477055856
1590514861.8307304,1.1769240352139967,0.5064212945019656,1.3231648302973262,0.3288888888888889,0.4722222222222222,-0.5577777777777778,131.1063064060683,-36.943486656331324,-40.91858147389403
1590514861.8407304,0.22776287823163427,0.2546906519302856,0.4948765312826061,0.30582817001799106,0.47798740193994665,-0.5907216618790604,33.778386694748235,-28.82551107160799,-19.569129922324844
1590514861.8507304,4.32905807098959,-3.9233789038003257,19.387169196036623,0.2977777777777777,0.48,-0.6022222222222222,-35.28522043145617,18.21089144613069,6.877790668506209
1590514861.8607304,-0.17997222607971114,-0.9609866685182613,4.499527149007083,0.2977777777777777,0.48,-0.6022222222222222,-45.81979933342591,73.19532009443132,27.260337105957507
1590514861.8707304,0.2908801591248135,-3.364937841869717,10.253411238189956,0.2977777777777777,0.48,-0.6022222222222222,3.8506029338637493,28.443032073595226,25.748259572352065
1590514861.8807304,0.844387216463298,-2.915714722870367,11.031529855028115,0.2977777777777777,0.48,-0.6022222222222222,9.014663342003594,-36.433610335462646,21.23597377883181
1590514861.8907304,0.46,-1.53,6.49,0.3111111111111111,0.4211111111111111,-0.6311111111111111,-4.4375,-31.25,29.3125
1590514861.9007304,0.4462008774826627,-1.5704774260508563,6.5543959050809075,0.3111111111111111,0.4211111111111111,-0.6311111111111111,-5.305694791715808,-28.1221988960702,31.46861289333396
1590514861.9107304,0.31456790940997287,-2.0636421429044436,7.411543606383684,0.3111111111111111,0.4211111111111111,-0.6311111111111111,-12.480835982164537,1.0988910778535639,53.08307672781052
1590514861.9207304,0.37,-3.2006060386543425,10.099806583408188,0.3111111111111111,0.4211111111111111,-0.6311111111111111,4.434518160876243,-18.9024432427342,57.14409988844137
1590514861.9307303,0.37,-3.486213671003448,10.008655211381878,0.3111111111111111,0.4211111111111111,-0.6311111111111111,3.0292678421372896,-2.3812570629654317,66.14529787603952
1590514861.9407303,1.267820483402172,-17.714886033348634,8.428851919840906,0.31365271191338195,0.4141217089048663,-0.6311111111111111,-3.700825588955178,-1.7932944202233436,74.86828342511856
1590514861.9507303,0.004474429251249967,-4.4295181013192,7.364087103186555,0.31555555555555553,0.4088888888888889,-0.6311111111111111,-11.76685515932775,-11.917124721402326,125.21911707126077
1590514861.9607303,0.09270090477963194,-2.6741443439133743,10.899951281096742,0.31555555555555553,0.4088888888888889,-0.6311111111111111,-11.534273181943252,-19.558805618050272,240.08836067364808
1590514861.9707303,-0.45718870886813523,-2.735243189874237,8.24554586213036,0.31555555555555553,0.4088888888888889,-0.6311111111111111,10.99592626612499,-18.582921272842043,246.9195510901057
1590514861.9807303,-0.24103225806451617,-3.5241290322580645,10.28341935483871,0.31555555555555553,0.4088888888888889,-0.6311111111111111,2.393548387096775,-16.25685483870968,248.72217741935484
1590514861.9907303,0.006568147521071821,-3.3469040082446906,9.76749512311826,0.34442503915819095,0.3911230528257287,-0.6163062477251443,-12.76338842062645,-23.265823410872684,245.91840194707203
1590514862.0007303,-0.6705205459821589,-0.6966936552860674,5.45709776806506,0.3588888888888889,0.38222222222222224,-0.6088888888888889,-6.852136549278114,-22.415854619711247,237.2157417690682
1590514862.0107303,-1.8777667588040428,0.32077585297406785,13.194646888781044,0.3588888888888889,0.38222222222222224,-0.6088888888888889,-14.105872702719811,-19.279859367417128,55.5612577279345
1590514862.0207303,-1.5718590038032596,0.8558671247726312,3.85906480239587,0.3588888888888889,0.38222222222222224,-0.6088888888888889,14.82781638708729,25.43031836220993,-84.95315055027835
1590514862.0307302,-0.8243493119223916,-1.3789556653866648,6.2248944457714,0.3588888888888889,0.38222222222222224,-0.6088888888888889,-14.64872558656549,0.336726257188527,-65.44661542065519
1590514862.0407302,-0.7526537374228653,-2.6298781043864183,9.944083047086362,0.4092083709085259,0.3319027402025852,-0.6088888888888889,-6.568005821199501,7.4341410310970595,-48.64033954463933
1590514862.0507302,-0.09906370462799974,-2.268079279841351,7.593433677220972,0.4122222222222222,0.3288888888888889,-0.6088888888888889,-5.625,8.25,-47.9375
1590514862.0607302,-2.776495797683047,-6.073468615128341,7.4400133767446555,0.4122222222222222,0.3288888888888889,-0.6088888888888889,-9.31673544332551,6.609228691855329,-22.095351896721436
1590514862.0707302,-2.8127202169208187,-13.664533197343218,8.647875569044006,0.4122222222222222,0.3288888888888889,-0.6088888888888889,-12.13989620388567,-6.386981019428344,63.329010050001244
1590514862.0807302,2.6007118786857624,-11.346372367312552,7.558923336141533,0.4122222222222222,0.3288888888888889,-0.6088888888888889,4.702890690817185,-10.74813605728728,65.8153643639427
1590514862.0907302,3.2268287647666014,-5.388872577130405,7.8224452345452455,0.3959961004702374,0.33750901606963085,-0.6190302149838794,10.867666876935427,-5.90631809840578,29.591911343043925
1590514862.1007302,-0.7385017351841965,-1.73362319807795,9.04449479444741,0.37666666666666665,0.3477777777777778,-0.6311111111111111,-5.399277979845168,5.518945208222103,-24.261864739054992
1590514862.1107302,-0.2156401246105919,-9.359122741433021,8.515640124610591,0.37666666666666665,0.3477777777777778,-0.6311111111111111,-6.990688473520249,-0.4341542056074763,-10.407630841121495
1590514862.1207302,0.2919205526770293,-5.223867357512954,9.198348186528499,0.37666666666666665,0.3477777777777778,-0.6311111111111111,0.21510794473229744,-1.0825863557858377,3.6872582037996544
1590514862.1307302,-0.13652953558391723,-3.491898963523487,8.18970051424156,0.37666666666666665,0.3477777777777778,-0.6311111111111111,3.4881314779782047,-0.6314896352348724,2.6753383869334684
1590514862.1407301,-0.0790793808295297,-4.215371502282199,8.583283786465568,0.39979702762893876,0.33918650084893387,-0.6264850389186567,1.5314199245882119,-0.6470641496328637,-0.5608689720182576
1590514862.1507301,0.018609845219033555,-4.261645112288049,8.924198382395206,0.4155555555555556,0.3333333333333333,-0.6233333333333333,0.6148052921131502,-0.37792523709816483,-0.24565576630947983
1590514862.1607301,0.02118520123503602,-4.362419876135276,8.781135727569833,0.4155555555555556,0.3333333333333333,-0.6233333333333333,-0.28348838993915104,-0.40077167181265005,-0.1875
1590514862.17073,0.020265453166477057,-4.449469093667046,8.447963594994311,0.4155555555555556,0.3333333333333333,-0.6233333333333333,-0.32245449374288965,-0.4375,-0.1875
1590514862.18073,0.0613082670619579,-4.466523306824783,8.663064642134573,0.4155555555555556,0.3333333333333333,-0.6233333333333333,0.35875933975681573,-0.23095866469021054,-0.23913533382744737
1590514862.19073,0.0006752210545118847,-4.311543362410313,8.848649557890976,0.3957484758568447,0.3333333333333333,-0.616730973433763,1.428456860877073,-0.06370575188305695,-0.12620575188305694
1590514862.20073,0.0,-4.253757158060102,8.871091065727462,0.3955555555555556,0.3333333333333333,-0.6166666666666667,0.8223439162823697,-0.2821986013277251,-0.21287944053109004
1590514862.21073,0.015582347297729454,-4.315702910137512,8.778714742564759,0.3955555555555556,0.3333333333333333,-0.6166666666666667,-0.2653122001918772,-0.375,-0.2986948353054045
1590514862.22073,0.029060722044067445,-4.367182166132203,8.577846281162719,0.3955555555555556,0.3333333333333333,-0.6166666666666667,-1.0096656149787937,-0.2617409744491569,-0.19924097444915692
1590514862.23073,0.03,-4.414279366628569,8.609199296253966,0.3955555555555556,0.3333333333333333,-0.6166666666666667,-0.44750879682543754,-0.2807495601587281,-0.12600087968254375
1590514862.24073,0.027071463654223967,-4.455119106090374,8.662928536345776,0.3969655915738922,0.334092583497053,-0.6180767026850033,0.2607134086444008,-0.3186011173870334,-0.0686011173870334
1590514862.25073,0.01568095838587642,-4.394319041614123,8.82328814627995,0.41,0.3411111111111111,-0.6311111111111111,0.9865029949558638,-0.2769940100882724,-0.1740029949558638
1590514862.26073,0.0026022854689028325,-4.3204091418756105,8.686022854689028,0.41,0.3411111111111111,-0.6311111111111111,0.1301142734451416,-0.25,-0.0787642841806427
1590514862.27073,0.015253642121104445,-4.325253642121105,8.698134105302762,0.41,0.3411111111111111,-0.6311111111111111,-0.3813410530276111,-0.488338158142257,-0.11016763162845139
1590514862.28073,0.026394957456149518,-4.445109234210691,8.652445382894655,0.41,0.3411111111111111,-0.6311111111111111,-0.420063031798131,-0.40262606359626196,-0.125
1590514862.29073,0.025141435203399166,-4.446838657644189,8.712312731135416,0.4029820730715766,0.34381031377588933,-0.6386688785724901,0.08049044968132818,-0.2517679400424896,-0.125
1590514862.30073,0.009195803000786084,-4.358391606001572,8.81,0.3955555555555556,0.3466666666666667,-0.6466666666666666,0.8326049249803479,-0.22126311562254347,-0.09123688437745651
1590514862.31073,0.0,-4.284528816199377,8.789828660436138,0.3955555555555556,0.3466666666666667,-0.6466666666666666,0.7473228193146417,-0.2815177180685358,-0.030982281931464177
1590514862.32073,0.0,-4.307213296398892,8.758969529085872,0.3955555555555556,0.3466666666666667,-0.6466666666666666,-0.01061288088642659,-0.3125,-0.1378808864265928
1590514862.33073,0.012729503254111825,-4.350905745118832,8.71817624186472,0.3955555555555556,0.3466666666666667,-0.6466666666666666,-0.375,-0.1533812093236022,-0.25
1590514862.34073,0.0277498257398137,-4.417498257398138,8.692250174260186,0.40158319779763285,0.3423612079223257,-0.6285837399404347,0.15780051961219188,-0.2562456434953425,-0.20156358912616437
1590514862.35073,0.017729449883778264,-4.384782524477002,8.732946925406775,0.4033333333333333,0.3411111111111111,-0.6233333333333333,0.7726456293583152,-0.23580906177361416,-0.03411812354722829
1590514862.36073,0.01,-4.357177830425731,8.745644339148539,0.4033333333333333,0.3411111111111111,-0.6233333333333333,0.7036084787134755,-0.2772228803216311,-0.0720843204824467
1590514862.37073,0.01,-4.329258315480889,8.747685421129779,0.4033333333333333,0.3411111111111111,-0.6233333333333333,0.03412729732777087,-0.4085677641222235,0.019101646183335208
1590514862.38073,0.02206911002743066,-4.356207330082292,8.72586177994514,0.4033333333333333,0.3411111111111111,-0.6233333333333333,-0.3512958130143249,-0.3997840311642792,-0.05064790650716246
1590514862.39073,0.03452531916716648,-4.411677234170165,8.696424042498501,0.3998136406477594,0.33759141842553714,-0.6268530260189072,-0.24545079684688548,-0.375,-0.1532832447947905
1590514862.40073,0.0242522586019094,-4.392258281540334,8.716744729928878,0.3955555555555556,0.3333333333333333,-0.6311111111111111,0.4890013295316204,-0.21096102710322293,-0.15469220542064457
1590514862.41073,0.021177113176824615,-4.34,8.738822886823176,0.3955555555555556,0.3333333333333333,-0.6311111111111111,0.909928478677577,-0.09742847867757692,-0.15992847867757692
1590514862.4207299,0.019392413561597852,-4.3028734474655925,8.756518966096005,0.3955555555555556,0.3333333333333333,-0.6311111111111111,0.5728642161799262,-0.25759483048002685,-0.2206487076200067
1590514862.4307299,0.020077844946441825,-4.335505992151872,8.744727542687453,0.3955555555555556,0.3333333333333333,-0.6311111111111111,-0.1594124509491993,-0.28052020362710783,-0.2185067345423693
1590514862.4407299,0.03,-4.385269634598973,8.713682591350258,0.4008748541725935,0.3333333333333333,-0.6311111111111111,-0.4704352162435742,-0.21051619593910645,-0.1875
1590514862.4507298,0.026375040321135444,-4.3817497580731875,8.723624959678865,0.41,0.3333333333333333,-0.6311111111111111,-0.10859601806386868,-0.25,-0.16484400200709654
1590514862.4607298,0.02,-4.390557877141663,8.708969912244045,0.41,0.3333333333333333,-0.6311111111111111,0.4603008775595487,-0.25,-0.125
1590514862.4707298,0.013924716108229356,-4.346962358054115,8.710376419458854,0.41,0.3333333333333333,-0.6311111111111111,0.6550736891910837,-0.2120294756764335,-0.125
1590514862.4807298,0.0,-4.34,8.76003003003003,0.41,0.3333333333333333,-0.6311111111111111,0.2378003003003003,-0.10003753753753754,-0.17492492492492492
1590514862.4907298,0.0,-4.360990756672402,8.726501540554601,0.40766769370306644,0.3333333333333333,-0.6311111111111111,-0.1499614861350086,-0.12809611460125647,-0.22813462846624785
1590514862.5007298,0.01791799353803956,-4.40597266451268,8.70805467097464,0.4033333333333333,0.3333333333333333,-0.6311111111111111,-0.013866774366007306,-0.28732915320424907,-0.1501708467957509
1590514862.5107298,0.02325321347329186,-4.362772494313043,8.693253213473291,0.4033333333333333,0.3333333333333333,-0.6311111111111111,0.7356764052950365,-0.2703325842080741,0.001502247375777671
1590514862.5207298,0.009647848537005165,-4.34,8.731408605851978,0.4033333333333333,0.3333333333333333,-0.6311111111111111,0.8382476333907056,-0.25,0.030149526678141136
1590514862.5307298,0.0,-4.328429687933041,8.777713541377972,0.4033333333333333,0.3333333333333333,-0.6311111111111111,0.47055664874452635,-0.2982096336123275,-0.09641926722465495
1590514862.5407298,0.00823475527241688,-4.338821643453459,8.76117835654654,0.40013092850517123,0.33653573816149546,-0.6279087062829489,-0.029401661357816522,-0.34926638977369723,-0.22426638977369726
1590514862.5507298,0.02,-4.3692814910529,8.71464074552645,0.3955555555555556,0.3411111111111111,-0.6233333333333333,-0.14951397862093269,-0.2455093190806218,-0.1875
1590514862.5607297,0.02,-4.386980184703668,8.649294584416749,0.3955555555555556,0.3411111111111111,-0.6233333333333333,0.4012219245942796,-0.14534346140052004,-0.22965653859947996
1590514862.5707297,0.02696166539730896,-4.344306676821529,8.68961665397309,0.3955555555555556,0.3411111111111111,-0.6233333333333333,0.625,-0.16851040873318102,-0.07595836506727596
1590514862.5807297,0.03,-4.349039352076108,8.772270833736995,0.3955555555555556,0.3411111111111111,-0.6233333333333333,0.4435040495243262,-0.22379919009513477,-0.036299190095134756
1590514862.5907297,0.017877141663184288,-4.3578771416631845,8.779692854157961,0.4002700004643172,0.3411111111111111,-0.6233333333333333,-0.06633932302549106,-0.1742321353949018,-0.1003839323025491
1590514862.6007297,0.01571371785189013,-4.372854871407561,8.74285884644433,0.4033333333333333,0.3411111111111111,-0.6233333333333333,-0.3839214731486266,-0.23213220972293994,-0.053578526851373376
1590514862.6107297,0.025606548356032467,-4.361967258219837,8.679541064795709,0.4033333333333333,0.3411111111111111,-0.6233333333333333,-0.017008873297565008,-0.2774590727747971,-0.10512278167560875
1590514862.6207297,0.02468748721724547,-4.355937538348264,8.6984376406103,0.4033333333333333,0.3411111111111111,-0.6233333333333333,0.5117192293532948,-0.21679679510778418,-0.1875
1590514862.6307297,0.01553154507445859,-4.343189270446752,8.767873819702166,0.4033333333333333,0.3411111111111111,-0.6233333333333333,0.5757886268614647,-0.29921137313853524,-0.15957215671536618
1590514862.6407297,0.015462401995723449,-4.315462401995723,8.79,0.4033333333333333,0.32654470578918193,-0.6275818682188959,0.1985199126870991,-0.3692199750534569,-0.19328002494654312
1590514862.6507297,0.010781517398745008,-4.347655447803765,8.743907586993725,0.4033333333333333,0.3144444444444445,-0.6311111111111111,-0.028807758128921845,-0.28369224187107817,-0.1923844837421563
1590514862.6607296,0.0,-4.371662727167048,8.660819545084665,0.4033333333333333,0.3144444444444445,-0.6311111111111111,-0.010392044794048122,-0.3021079552059519,-0.15105397760297595
1590514862.6707296,0.004516280710003527,-4.36,8.656130245680027,0.4033333333333333,0.3144444444444445,-0.6311111111111111,0.2883140355001763,-0.26209298224991184,-0.15927324556247796
1590514862.6807296,0.012508575286968264,-4.349965698852127,8.725085752869683,0.4033333333333333,0.3144444444444445,-0.6311111111111111,0.5625,-0.125,-0.1563571910871033
1590514862.6907296,0.01643995589414595,-4.330680132317562,8.8,0.4005644101398913,0.32116897219994656,-0.628342187917669,0.3844977947072975,-0.23625137830793905,-0.18324917301523658
1590514862.7007296,0.020352738743905936,-4.35,8.768941783768282,0.3955555555555556,0.3333333333333333,-0.6233333333333333,-0.16396616002294237,-0.40514769142529394,-0.09485230857470606
1590514862.7107296,0.023851641167970273,-4.386890152992178,8.672368052847673,0.3955555555555556,0.3333333333333333,-0.6233333333333333,-0.25971827189944263,-0.25971827189944263,-0.2018544854003716
1590514862.7207296,0.04421625264779511,-4.367621557866358,8.690540631619488,0.3955555555555556,0.3333333333333333,-0.6233333333333333,0.077365263335259,-0.2631757895243597,-0.13648631571346043
1590514862.7307296,0.044507953190371284,-4.334835984396791,8.750656062412839,0.3955555555555556,0.3333333333333333,-0.6233333333333333,0.4759256826404188,-0.3125,-0.09477509752005983
1590514862.7407296,0.014672017242846204,-4.335109327585718,8.785327982757154,0.40918042911747005,0.33730725478889173,-0.6199271149428547,0.4639669181248405,-0.3125,-0.09306670258926292
1590514862.7507296,0.018207150755621085,-4.327861899496253,8.806069050251875,0.4222222222222222,0.3411111111111111,-0.6166666666666667,0.022410615554736474,-0.3504315640742106,-0.13836312814842117
1590514862.7607296,0.03,-4.355750602824664,8.690831323917786,0.4222222222222222,0.3411111111111111,-0.6166666666666667,-0.125,-0.3377597887243082,-0.15025978872430817
1590514862.7707295,0.025192353266450748,-4.384807646733549,8.643653527134845,0.4222222222222222,0.3411111111111111,-0.6166666666666667,0.055286752508097003,-0.2223566237459515,-0.15504779208468283
1590514862.7807295,0.023340590382275726,-4.383318819235448,8.70338413267593,0.4222222222222222,0.3411111111111111,-0.6166666666666667,0.3543934494461164,-0.18763606966766985,-0.16662131011077672
1590514862.7907295,0.025197371362152977,-4.362796057043229,8.764407885913542,0.4158187173717595,0.3392434221963928,-0.6166666666666667,0.5174753565201842,-0.3125,-0.14000821449327194
1590514862.8007295,0.011866954805975759,-4.341866954805975,8.802532180776097,0.3955555555555556,0.3333333333333333,-0.6166666666666667,0.304989194775909,-0.3125,-0.1991684675373485
1590514862.8107295,0.02,-4.360268677656962,8.741761136443353,0.3955555555555556,0.3333333333333333,-0.6166666666666667,-0.01604480883900386,-0.3125,-0.25
1590514862.8207295,0.025451870533837746,-4.3954518705338375,8.638192517864649,0.3955555555555556,0.3333333333333333,-0.6166666666666667,0.10787095418242959,-0.24435161832702817,-0.18185161832702817
1590514862.8307295,0.025304356114765038,-4.3765217805738255,8.685739014393288,0.3955555555555556,0.3333333333333333,-0.6166666666666667,0.3380433228481556,-0.1875,-0.125
1590514862.8407295,0.015813243187142306,-4.341626486374285,8.780933784064288,0.398811921965556,0.3333333333333333,-0.6134103002566663,0.4375,-0.13516553983927881,-0.1511672300803606
1590514862.8507295,0.01,-4.335162222119518,8.799675555760965,0.4033333333333333,0.3333333333333333,-0.6088888888888889,0.3729722235060313,-0.159291664740953,-0.15523611175301566
1590514862.8607295,0.01,-4.345357953531077,8.714988650564921,0.4033333333333333,0.3333333333333333,-0.6088888888888889,0.14506395215384224,-0.1830255808615369,-0.1919744191384631
1590514862.8707294,0.004672022620677274,-4.35,8.671311909517291,0.4033333333333333,0.3333333333333333,-0.6088888888888889,0.0,-0.19159971724153407,-0.21670014137923296
1590514862.8807294,0.012699799599198395,-4.35,8.706933066132265,0.4033333333333333,0.3333333333333333,-0.6088888888888889,0.13228957915831663,-0.27645791583166335,-0.21395791583166332
1590514862.8907294,0.03,-4.354421275309761,8.756527651858567,0.4033333333333333,0.3333333333333333,-0.6123276585742587,0.36776594137201574,-0.3125,-0.22236702931399213
1590514862.9007294,0.01554143278470174,-4.345541432784702,8.765902387974503,0.4033333333333333,0.3333333333333333,-0.6166666666666667,0.49774403006374274,-0.25225596993625726,-0.15737798496812863
1590514862.9107294,0.004527611136748193,-4.343582833410244,8.699251499769266,0.4033333333333333,0.3333333333333333,-0.6166666666666667,0.3078218735579142,-0.2440951392093524,-0.1532975696046762
1590514862.9207294,0.01586913208280688,-4.377607396248421,8.65,0.4033333333333333,0.3333333333333333,-0.6166666666666667,-0.07336415103508602,-0.20245377344737098,-0.15081792448245698
1590514862.9307294,0.010789342491552651,-4.376184013737329,8.691447958788013,0.4033333333333333,0.3333333333333333,-0.6166666666666667,-0.038650085858306094,-0.2113499141416939,-0.09621669528610204
1590514862.9407294,0.005005408169285532,-4.352491887746072,8.750010816338571,0.3997183163221827,0.3333333333333333,-0.6183351360564285,0.14070950264508642,-0.26557429841294816,-0.07814190052901729
1590514862.9507294,0.02,-4.330987386269644,8.780987386269643,0.3888888888888889,0.3333333333333333,-0.6233333333333333,0.39968465674110837,-0.125,-0.10648650744416874
1590514862.9607294,0.02,-4.34,8.767671635268984,0.3888888888888889,0.3333333333333333,-0.6233333333333333,0.5391216741114779,-0.15720437220819578,0.04103041852786948
1590514862.9707294,0.02,-4.350907317073171,8.670907317073171,0.3888888888888889,0.3333333333333333,-0.6233333333333333,0.10795731707317073,-0.29545731707317074,-0.09658536585365854
1590514862.9807293,0.01605744760479042,-4.37605744760479,8.70394255239521,0.3888888888888889,0.3333333333333333,-0.6233333333333333,0.0625,-0.22535904752994013,-0.21214095247005987
1590514862.9907293,0.01,-4.37,8.730800405635435,0.3888888888888889,0.3333333333333333,-0.6233333333333333,0.12750126761073485,-0.1875,-0.2716670892035783
1590514863.0007293,0.015017210981445723,-4.364982789018555,8.785051632944338,0.3888888888888889,0.3333333333333333,-0.6233333333333333,0.28135756863403577,-0.1875,-0.24978486273192846
1590514863.0107293,0.02,-4.366711401972532,8.759731588164808,0.3888888888888889,0.3333333333333333,-0.6233333333333333,0.3125,-0.2084731311641626,-0.1665268688358374
1590514863.0207293,0.02227600570833494,-4.373171982874995,8.682276005708335,0.3888888888888889,0.3333333333333333,-0.6233333333333333,0.2413748216145331,-0.22154992864581324,-0.13922503567709338
1590514863.0307293,0.025849210257187227,-4.35,8.706603158971252,0.3888888888888889,0.3333333333333333,-0.6233333333333333,-0.05188487178515965,-0.22876974357031932,-0.1875
1590514863.0407293,0.02,-4.346438417933522,8.751369492398867,0.3912632769332074,0.33610345271837155,-0.6209589452890149,-0.013700560422571492,-0.3304802241690286,-0.1875
1590514863.0507293,0.02,-4.347958599187935,8.782041400812064,0.3955555555555556,0.3411111111111111,-0.6166666666666667,0.31185311231148494,-0.25,-0.1875
1590514863.0607293,0.017276670098911043,-4.357276670098911,8.74276670098911,0.3955555555555556,0.3411111111111111,-0.6166666666666667,0.465958376236388,-0.232979188118194,-0.1875
1590514863.0707293,0.014365827354996015,-4.354365827354996,8.691829136774981,0.3955555555555556,0.3411111111111111,-0.6166666666666667,0.26585431612509963,-0.21478642096872508,-0.1875
1590514863.0807292,0.02,-4.370671260898059,8.72355708696602,0.3955555555555556,0.3411111111111111,-0.6166666666666667,0.03607282584950251,-0.20553641292475125,-0.20973179353762436
1590514863.0907292,0.02,-4.384191359282657,8.733872427144895,0.39426474650725724,0.33723868396621604,-0.6235509815909246,-0.04029065620542083,-0.14920266965559403,-0.22579733034440597
1590514863.1007292,0.02,-4.359161752762968,8.751676494474065,0.3888888888888889,0.3211111111111111,-0.6522222222222223,0.3177390452314537,-0.2604780904629074,-0.11976095476854631
1590514863.1107292,0.02,-4.345834375,8.732509375,0.3888888888888889,0.3211111111111111,-0.6522222222222223,0.4270703125,-0.3229296875,-0.14060546875000002
1590514863.1207292,0.015189926392752517,-4.349620147214495,8.704050368036237,0.3888888888888889,0.3211111111111111,-0.6522222222222223,0.37974815981881294,-0.25,-0.18987407990940647
1590514863.1307292,0.013862218354840502,-4.35613778164516,8.741586655064522,0.3888888888888889,0.3211111111111111,-0.6522222222222223,0.20172227056449374,-0.20172227056449374,-0.14913886471775312
1590514863.1407292,0.01725375652119584,-4.355492486957608,8.754507513042391,0.3888888888888889,0.3244676309185384,-0.6464245971003023,0.14216402174252601,-0.125,-0.17033597825747399
1590514863.1507292,0.01739148457393261,-4.37,8.736304257713034,0.3888888888888889,0.3333333333333333,-0.6311111111111111,0.2105983892935394,-0.10190161070646059,-0.1480983892935394
1590514863.1607292,0.027308240738249615,-4.359232962952999,8.716541203691248,0.3888888888888889,0.3333333333333333,-0.6311111111111111,0.28364699077187977,-0.14661747692969948,-0.17067650461406011
1590514863.1707292,0.023526955110612605,-4.3370539102212256,8.69410782044245,0.3888888888888889,0.3333333333333333,-0.6311111111111111,0.28682612223468484,-0.30886959167601363,-0.16908693888265758
1590514863.1807292,0.027071170227483843,-4.352928829772516,8.722928829772517,0.3888888888888889,0.3333333333333333,-0.6311111111111111,0.125,-0.15088962784354804,-0.23169481392177402
1590514863.1907291,0.02,-4.3620493983112825,8.73819759324513,0.3902551544297439,0.33492730979766416,-0.6324773766519661,0.1121912605544844,-0.10092621833654677,-0.1875
1590514863.2007291,0.02,-4.366890943272565,8.760672829817693,0.3955555555555556,0.3411111111111111,-0.6377777777777778,0.12079481363942117,-0.28886320909294744,-0.16806839545352628
