time,acc_x,acc_y,acc_z,mag_x,mag_y,mag_z,gyr_x,gyr_y,gyr_z
1590514924.7985284,0.08,-4.3,8.61,0.4455555555555555,0.2822222222222222,-0.5844444444444444,0.375,-0.25,-0.125
1590514924.8085284,0.08724155854541092,-4.298620779272706,8.698275324363767,0.4455555555555555,0.2822222222222222,-0.5844444444444444,0.22413961136322744,-0.2952597409088183,-0.10775974090881829
1590514924.8185284,0.07047140201115532,-4.290235701005578,8.748585793966534,0.4455555555555555,0.2822222222222222,-0.5844444444444444,0.06691939385458107,-0.1904462625697207,-0.002946262569720706
1590514924.8285284,0.09866465086843401,-4.309109767245622,8.759554883622812,0.452987131706631,0.2822222222222222,-0.5780745220292368,0.0027819773574291537,-0.1875,0.0
1590514924.8385284,0.09784761040407583,-4.312152389595924,8.760628493636682,0.4533333333333333,0.2822222222222222,-0.5777777777777777,0.1740475650254739,-0.25,-0.11630973989810442
1590514924.8485284,0.08889129135964038,-4.31889129135964,8.701087086403595,0.4533333333333333,0.2822222222222222,-0.5777777777777777,0.10421171299325728,-0.23614114199550484,-0.29171171299325727
1590514924.8585284,0.08,-4.313990668159761,8.79,0.4533333333333333,0.2822222222222222,-0.5777777777777777,-0.0625,-0.08758748600223965,-0.10005832400149309
1590514924.8685284,0.08,-4.32964688316536,8.79,0.4533333333333333,0.2822222222222222,-0.5777777777777777,-0.0625,0.059189529675251956,-0.002206980216498705
1590514924.8785284,0.10808349745909014,-4.32,8.796584482213632,0.4533333333333333,0.27555555555555555,-0.6055555555555555,-0.1875,-0.03854371823862669,-0.07708743647725338
1590514924.8885283,0.10208905754635413,-4.317910942453646,8.723287539629167,0.4533333333333333,0.27555555555555555,-0.6055555555555555,-0.17444339033528677,0.049443390335286774,0.08583017100586031
1590514924.8985283,0.107994298060004,-4.31,8.672034211639977,0.4533333333333333,0.27555555555555555,-0.6055555555555555,-0.11246436287502506,0.012535637124974942,-0.037428725750050115
1590514924.9085283,0.1,-4.31,8.721800035697287,0.4533333333333333,0.27555555555555555,-0.6055555555555555,-0.051249776891956214,0.051249776891956214,0.05687488844597811
1590514924.9185283,0.1,-4.31,8.734277129938125,0.4533333333333333,0.27555555555555555,-0.6055555555555555,0.026732062113279387,-0.026732062113279387,0.017883968943360307
1590514924.9285283,0.06326943298552132,-4.31,8.785913208768097,0.4533333333333333,0.2816773167246353,-0.5800482173510564,0.005108489039877054,-0.005108489039877054,0.0
1590514924.9385283,0.1,-4.313104076427964,8.754479617860179,0.4533333333333333,0.2822222222222222,-0.5777777777777777,-0.1583992834878355,-0.009700238837388171,0.009700238837388171
1590514924.9485283,0.10003785570513177,-4.329924288589736,8.670189278525658,0.4533333333333333,0.2822222222222222,-0.5777777777777777,0.00047319631414695406,-0.062026803685853046,0.06226340184292652
1590514924.9585283,0.1077831329750891,-4.314433734049821,8.708915664875446,0.4533333333333333,0.2822222222222222,-0.5777777777777777,0.09728916218861375,0.03478916218861375,0.013855418905693126
1590514924.9685283,0.09251080733730575,-4.31,8.763722981656736,0.4533333333333333,0.2822222222222222,-0.5777777777777777,0.0703462729290805,-0.156114908283678,-0.0546537270709195
1590514924.9785283,0.09823039419313934,-4.293539211613721,8.786460788386277,0.4643071922575191,0.2767352927601293,-0.5658894306099098,0.0625,-0.13606003629287916,-0.0625
1590514924.9885283,0.0970837398940619,-4.318055826596042,8.797362872874269,0.4666666666666667,0.27555555555555555,-0.5633333333333334,0.006075541887371062,0.0625,0.05642445811262894
1590514924.9985282,0.07515925564538611,-4.303439503763591,8.70235677446334,0.4666666666666667,0.27555555555555555,-0.5633333333333334,0.05175155073877892,0.0625,0.01074844926122108
1590514925.0085282,0.08349772703245587,-4.31,8.734663636043274,0.4666666666666667,0.27555555555555555,-0.5633333333333334,0.06978693131761637,0.13228693131761637,-0.007286931317616379
1590514925.0185282,0.10566867533565916,-4.31,8.764224900447545,0.4666666666666667,0.27555555555555555,-0.5633333333333334,0.11597640694928991,0.1784764069492899,-0.053476406949289915
1590514925.0285282,0.08113829986864328,-4.312276599737286,8.76,0.4533333333333333,0.27555555555555555,-0.5988888888888889,0.014228748358040907,-0.11788562582097954,-0.05538562582097955
1590514925.0385282,0.08900900731844624,-4.328018014636893,8.76,0.4533333333333333,0.27555555555555555,-0.5988888888888889,0.11261259148057796,-0.06869370425971102,-0.006193704259711018
1590514925.0485282,0.1,-4.318373436177218,8.684066409556955,0.4533333333333333,0.27555555555555555,-0.5988888888888889,0.07774903583858526,-0.2550830119461951,-0.02033204778478036
1590514925.0585282,0.1,-4.302592042140908,8.723519894647728,0.4533333333333333,0.27555555555555555,-0.5988888888888889,0.22569960492898128,-0.3043998683096604,-0.2175994732386417
1590514925.0685282,0.07689559715264963,-4.294223899288163,8.758880503559189,0.4533333333333333,0.27555555555555555,-0.5988888888888889,0.3583018883469549,-0.3125,-0.17779874110203003
1590514925.0785282,0.07886233085315547,-4.283712556382282,8.786287443617718,0.4484430994084411,0.28393881371251356,-0.5632600417218174,0.4375,-0.35179652261074057,-0.0857034773892594
1590514925.0885282,0.08074986936073855,-4.32037493468037,8.805875718515939,0.4455555555555555,0.2888888888888889,-0.5422222222222223,0.125,0.0023433417523079604,-0.0625
1590514925.0985281,0.09901454450444175,-4.329507272252221,8.70542000522557,0.4455555555555555,0.2888888888888889,-0.5422222222222223,0.125,0.05942045157638042,-0.0625
1590514925.1085281,0.1,-4.301745270703282,8.756509458593435,0.4455555555555555,0.2888888888888889,-0.5422222222222223,0.24272803873632243,0.0036359806318387866,-0.12136401936816121
1590514925.1185281,0.1,-4.3,8.751337384018074,0.4455555555555555,0.2888888888888889,-0.5422222222222223,0.3582826997740683,-0.1082826997740683,-0.125
1590514925.128528,0.0861566386035375,-4.306921680698231,8.770765042094693,0.45555353878633403,0.27965998129124725,-0.5614491130506424,0.24521848690816406,-0.16826050436394532,-0.125
1590514925.138528,0.08938664259927798,-4.300613357400722,8.78,0.46,0.27555555555555555,-0.57,-0.10583258122743683,-0.1875,-0.125
1590514925.148528,0.10432476685413256,-4.3,8.694051398875205,0.46,0.27555555555555555,-0.57,-0.03547020716167153,-0.14273510358083577,-0.25929468925749266
1590514925.158528,0.1,-4.309770413993144,8.680573965017139,0.46,0.27555555555555555,-0.57,-0.25071745627142483,-0.12284763118572559,-0.2485650874571504
1590514925.168528,0.1,-4.295023819987694,8.717440450030765,0.46,0.27555555555555555,-0.57,-0.29680056253845477,0.015401687615364312,-0.15639887492309046
1590514925.178528,0.07968005520046485,-4.290959834398605,8.81808033120279,0.4455555555555555,0.27555555555555555,-0.57,-0.4980003450029053,0.12899930999418943,0.005998964991284137
1590514925.188528,0.07206402527600234,-4.313807924171993,8.772384151656015,0.4455555555555555,0.27555555555555555,-0.57,-0.45040015797501454,0.22419968404997093,0.14879952607495642
1590514925.198528,0.08088157748975297,-4.301763154979506,8.657052619918025,0.4455555555555555,0.27555555555555555,-0.57,-0.619490140689044,0.2150492965547801,0.11949014068904398
1590514925.208528,0.09021461685301337,-4.319892691573494,8.73032192527952,0.4455555555555555,0.27555555555555555,-0.57,-0.5618293223343332,0.4986586446686665,0.0625
1590514925.218528,0.10165257703845104,-4.314173711480774,8.747478865557676,0.4455555555555555,0.27555555555555555,-0.57,-0.5260856967548405,0.4271713935096809,0.0625
1590514925.228528,0.11,-4.3053188764973145,8.764681123502685,0.4455555555555555,0.28179705355913537,-0.5767616228372114,-0.41222893432465924,0.257971912432879,0.12101404378356051
1590514925.238528,0.07087703454793658,-4.329122965452063,8.795614827260318,0.4455555555555555,0.2888888888888889,-0.5844444444444444,-0.5460556022261892,0.18201853407539642,0.1277407329623018
1590514925.248528,0.08849459204032342,-4.311505407959676,8.707527039798382,0.4455555555555555,0.2888888888888889,-0.5844444444444444,-0.21572639924393572,0.07190879974797858,0.1827956001260107
1590514925.258528,0.09835289506347582,-4.31,8.725058685190428,0.4455555555555555,0.2888888888888889,-0.5844444444444444,-0.1875,0.010294405853276137,0.1875
1590514925.268528,0.09228028023532582,-4.31,8.76859859882337,0.4455555555555555,0.2888888888888889,-0.5844444444444444,-0.04275525441235911,0.0,0.04275525441235911
1590514925.278528,0.10874108283384101,-4.31,8.78624702761128,0.45041435480877356,0.284724203814702,-0.5844444444444444,-0.15617569028200845,0.03904392257050211,0.03904392257050211
1590514925.288528,0.12,-4.3008845708813785,8.771769141762757,0.4533333333333333,0.2822222222222222,-0.5844444444444444,-0.19302856800861828,0.23341429597414515,0.11947143199138172
1590514925.298528,0.10661274831926401,-4.293306374159632,8.723144619117424,0.4533333333333333,0.2822222222222222,-0.5844444444444444,-0.31300548450689986,0.25,0.04132967699540009
1590514925.308528,0.1,-4.3054602756805425,8.738650689201357,0.4533333333333333,0.2822222222222222,-0.5844444444444444,-0.375,0.4432534460067881,0.14494008450509108
1590514925.318528,0.09321542915204846,-4.303215429152048,8.770353712543853,0.4533333333333333,0.2822222222222222,-0.5844444444444444,-0.3325964322003029,0.2879821610015145,0.1450964322003029
1590514925.328528,0.09911596407359119,-4.290884035926409,8.770884035926409,0.4654879520981216,0.2822222222222222,-0.5844444444444444,-0.14157567362016513,0.1875,0.011050449080110103
1590514925.338528,0.1,-4.311712746660803,8.784475164440535,0.4666666666666667,0.2822222222222222,-0.5844444444444444,-0.07976511112332582,0.1875,0.04523488887667418
1590514925.348528,0.0909168976942322,-4.301833795388465,8.690085874636553,0.4666666666666667,0.2822222222222222,-0.5844444444444444,-0.005730610588951246,0.1875,0.1760387788220975
1590514925.358528,0.1092558961395931,-4.319255896139594,8.718511792279187,0.4666666666666667,0.2822222222222222,-0.5844444444444444,-0.06017467543622843,0.06715064912754314,0.006975973691314696
1590514925.368528,0.09781585292344785,-4.326092073538276,8.738276220614829,0.4666666666666667,0.2822222222222222,-0.5844444444444444,-0.13865091922845088,0.10057545961422544,0.0
1590514925.3785279,0.09,-4.33,8.772631534307767,0.4636491287589645,0.2852397601299244,-0.5779064456444231,-0.21578941788470782,0.18157883576941564,0.08486825365412344
1590514925.3885279,0.09727911549495535,-4.322720884505045,8.749046191535314,0.46,0.2888888888888889,-0.57,-0.15901105631305806,0.20450552815652903,0.09651105631305806
1590514925.3985279,0.08612092714957434,-4.313060463574787,8.716120927149575,0.46,0.2888888888888889,-0.57,0.04848841063032086,0.1441278973424198,0.10587210265758021
1590514925.4085279,0.09935525237772949,-4.300322373811135,8.700322373811135,0.46,0.2888888888888889,-0.57,0.06451483631959534,-0.11694065472161863,0.06451483631959534
1590514925.4185278,0.12308834836749621,-4.3,8.738480580612494,0.46,0.2888888888888889,-0.57,0.0625,-0.125,-0.033701451531234175
1590514925.4285278,0.17432190091907646,-4.294459762385116,8.766620712844654,0.4563065082567436,0.2851953971456325,-0.5619974345562778,-0.1452589105581708,0.15201188074422778,-0.30488539565119926
1590514925.4385278,0.23590351946097055,-4.277048240269514,8.773524120134757,0.4533333333333333,0.2822222222222222,-0.5555555555555556,-0.4339227474732994,0.4154742491577665,-0.9856909898931976
1590514925.4485278,0.2331130355515041,-4.258742023701003,8.702452142206017,0.4533333333333333,0.2822222222222222,-0.5555555555555556,-0.3944564721969006,0.6485870556061988,-2.1295293983591614
1590514925.4585278,0.13470520810946343,-4.25,8.631722544594885,0.4533333333333333,0.2822222222222222,-0.5555555555555556,-0.38865606418797904,0.9267340962819686,-3.954840962819686
1590514925.4685278,-0.1427995724382189,-4.240097796780524,8.62,0.4533333333333333,0.2822222222222222,-0.5555555555555556,-0.7778882356695012,1.0928331551825912,-5.027888235669501
1590514925.4785278,-0.2867192429022082,-4.279968454258675,8.774069400630914,0.4533333333333333,0.27944619698562917,-0.5555555555555556,-1.3852523659305993,1.0053233438485805,-4.568217665615142
1590514925.4885278,-0.23712720416990132,-4.276770322723745,8.837438172341134,0.4533333333333333,0.27555555555555555,-0.5555555555555556,-1.5974381723411335,0.48301680159698346,-0.11928024841965179
1590514925.4985278,-0.2015048491572129,-4.308495150842788,8.731278316573023,0.4533333333333333,0.27555555555555555,-0.5555555555555556,-0.6278316573023656,-0.6141788641162367,6.4698627563253766
1590514925.5085278,-0.14990840226382238,-4.31331806704397,8.750045798868088,0.4533333333333333,0.27555555555555555,-0.5555555555555556,-0.9176208097518502,-1.2929070526774054,10.507728558989987
1590514925.5185277,0.23568070295560883,-3.9377892844916125,8.86448020084446,0.4533333333333333,0.27555555555555555,-0.5555555555555556,-0.9617496861805318,-1.8890006276389364,14.840317599566358
1590514925.5285277,0.3840675127798343,-4.094336329984135,8.723146483342147,0.45770785592573004,0.284304600740349,-0.5555555555555556,-0.546910805570245,-0.8321655208884189,11.328662083553676
1590514925.5385277,0.19015010926808296,-4.383797155447282,8.931391466341847,0.46,0.2888888888888889,-0.5555555555555556,-0.375,-0.1875,8.75
1590514925.5485277,0.2927100977198697,-4.408785016286645,8.611869706840391,0.46,0.2888888888888889,-0.5555555555555556,-1.0794381107491857,-1.1854539902280132,10.276282573289903
1590514925.5585277,0.12530757272929158,-4.439115404545118,8.619115404545118,0.46,0.2888888888888889,-0.5555555555555556,-0.33645779356971894,-0.15817232955807237,5.886375132627631
1590514925.5685277,0.11275114297404515,-4.324018287584723,8.721483998363368,0.46,0.2888888888888889,-0.5555555555555556,-0.44841606923665345,0.3280535641221782,4.345533951221247
1590514925.5785277,0.0004736297828335234,-4.261745604963806,8.796508790072389,0.46,0.2888888888888889,-0.5494707572101574,-0.5,0.21477507755946224,3.8125
1590514925.5885277,-0.01,-4.187559227187321,8.808048974756964,0.46,0.2888888888888889,-0.5488888888888889,-0.7012243689241076,-0.11433655338616122,4.667703567927457
1590514925.5985277,-0.07116266522794713,-4.17,8.740099811168061,0.46,0.2888888888888889,-0.5488888888888889,-0.5861714324251417,-0.2421095225249528,6.677114243323442
1590514925.6085277,-0.08881547196593328,-4.125922640170334,8.774077359829667,0.46,0.2888888888888889,-0.5488888888888889,-0.7277900993612492,-0.41529009936124917,9.637238289567069
1590514925.6185277,-0.04591895189094573,-4.095510528828304,8.78,0.46,0.2888888888888889,-0.5488888888888889,-0.780611838964621,-0.7130065506815891,11.591815626160292
1590514925.6285276,-0.0028168670783230423,-4.075633734156646,8.787042167695807,0.4579655959989889,0.2888888888888889,-0.552957696890911,-0.8565135480987975,-1.0440135480987975,13.637319223269419
1590514925.6385276,-0.0406942536971796,-4.143110805915487,8.821722298521129,0.4455555555555555,0.2888888888888889,-0.5777777777777777,-1.0991321828785254,-1.3383678171214746,16.957109233494556
1590514925.6485276,-0.07,-4.207868659064098,8.751926858041683,0.4455555555555555,0.2888888888888889,-0.5777777777777777,-1.0625,-1.5704384585135667,19.066334054266616
1590514925.6585276,-0.07523861364581065,-4.182852477187704,8.690477227291622,0.4455555555555555,0.2888888888888889,-0.5777777777777777,-1.3244306822905327,-1.9762066764315829,20.29467201757685
1590514925.6685276,-0.09734621973688463,-3.8624604842098456,8.694217926754371,0.4455555555555555,0.2888888888888889,-0.5777777777777777,-2.321397113488703,-2.4141036622814105,22.008018311407053
1590514925.6785276,-0.4301282524760786,-2.8451280846063454,8.651196575457446,0.4660351407307929,0.2824216514651297,-0.5777777777777777,-2.2080661406748363,-3.8982373678025852,27.54914596273292
1590514925.6885276,-0.43108766445226,-2.7219643089748597,9.07779210629152,0.4666666666666667,0.2822222222222222,-0.5777777777777777,-3.0787335547740002,-3.658989514133125,33.424816008857626
1590514925.6985276,-0.43,-2.5703733282926136,8.746026652804687,0.4666666666666667,0.2822222222222222,-0.5777777777777777,-1.3876249350219745,-3.7340833372713953,40.83362524219082
1590514925.7085276,-0.4212848389480962,-2.637151610519038,8.82944257683046,0.4666666666666667,0.2822222222222222,-0.5777777777777777,-1.6152278091695873,-4.022348782871993,48.56674981522542
1590514925.7185276,-0.3995169785946431,-2.766070454630356,8.822689304792858,0.4666666666666667,0.2822222222222222,-0.5777777777777777,-1.3034433486495574,-4.403883690089282,54.59790942881692
1590514925.7285275,-0.37279164368450085,-2.837208356315499,8.913250137892994,0.4714467656431942,0.25449764815836246,-0.5777777777777777,-1.6089850213734143,-5.100261134859349,62.31511134859349
1590514925.7385275,-0.3628011550371398,-2.85439768992572,8.90840346511142,0.4722222222222222,0.25,-0.5777777777777777,-1.6875,-5.502449467125135,67.32683585364464
1590514925.7485275,-0.3818370132476917,-2.961906061822561,8.87088398233641,0.4722222222222222,0.25,-0.5777777777777777,-1.8694751103974308,-5.943456443195504,72.53150843034926
1590514925.7585275,-0.40532813969754705,-2.9923359301512265,8.852335930151225,0.4722222222222222,0.25,-0.5777777777777777,-1.793798690335496,-6.110400436554834,77.56333361472227
1590514925.7685275,-0.40027524042084955,-2.99,8.864587139368727,0.4722222222222222,0.25,-0.5777777777777777,-1.8107797473696905,-6.2465594947393805,80.72362153688462
1590514925.7785275,-0.4105671452071183,-3.0076289816061017,8.877061836398983,0.4722222222222222,0.24575598590964226,-0.57353376368742,-1.9851811350381336,-6.430090567519067,84.10535600792582
1590514925.7885275,-0.46995122372339965,-3.0450243881383,8.8301951051064,0.4722222222222222,0.23555555555555555,-0.5633333333333334,-2.0634145551862564,-6.935670889627487,89.11493989295118
1590514925.7985275,-0.5047355864811133,-3.0523677932405566,8.75289662027833,0.4722222222222222,0.23555555555555555,-0.5633333333333334,-2.145545477137177,-7.544396123260437,93.4291625248509
1590514925.8085275,-0.5294737825382987,-3.050526217461701,8.79157958649894,0.4722222222222222,0.23555555555555555,-0.5633333333333334,-2.460527852160917,-7.924344563457467,96.50001751463445
1590514925.8185275,-0.5598844475475651,-3.0314780939081865,8.862840635363938,0.4722222222222222,0.23555555555555555,-0.5633333333333334,-2.5007222028277187,-8.16974602897539,99.45799223250131
1590514925.8285275,-0.6220824095298937,-3.0301373492164894,8.861945060313404,0.4753546987670095,0.22213065607789595,-0.5718357696691845,-2.288186746082447,-8.276030119123671,103.6726295047161
1590514925.8385274,-0.6556288231446928,-3.0639072057861734,8.873443234717039,0.48,0.20222222222222225,-0.5844444444444444,-2.5107601084907474,-8.573260108490748,107.21810198899703
1590514925.8485274,-0.6980356484893147,-3.0940475313190863,8.83785740604274,0.48,0.20222222222222225,-0.5844444444444444,-2.625,-8.87537133843036,111.41665899042005
1590514925.8585274,-0.7357947939035249,-3.0584104121929503,8.873833080186456,0.48,0.20222222222222225,-0.5844444444444444,-2.826521827371288,-9.48365238569109,114.82771827371288
1590514925.8685274,-0.7732791994750656,-3.0416395997375325,8.8850812007874,0.48,0.20222222222222225,-0.5844444444444444,-2.7556312541010497,-9.3862625082021,117.57431871309055
1590514925.8785274,-0.7971253387981755,-3.0428746612018247,8.87425067759635,0.4990009034618012,0.18797154462587137,-0.5741522884026354,-3.025800307397369,-9.570333674885966,120.84306827196404
1590514925.8885274,-0.826505198035589,-3.045301039607118,8.922408316856943,0.5066666666666667,0.18222222222222226,-0.57,-3.1212370049110274,-9.783131497544487,122.84710241405702
1590514925.8985274,-0.8776900876900877,-3.073075073075073,8.881544751544752,0.5066666666666667,0.18222222222222226,-0.57,-2.9471246346246347,-9.899031524031525,124.82684676434677
1590514925.9085274,-0.9455387450044117,-3.114215498001765,8.782892250999117,0.5066666666666667,0.18222222222222226,-0.57,-2.945770293766544,-9.91115313748897,127.22577950640992
1590514925.9185274,-0.997874598127229,-3.1037680293740446,8.81787459812723,0.5066666666666667,0.18222222222222226,-0.57,-2.8985501835877794,-10.07789963282444,128.52778192582701
1590514925.9285274,-1.0429911722438925,-3.0445308971463763,8.814274276329296,0.5167709117452497,0.16093113437806522,-0.57,-2.7516038801067544,-10.290597413262164,129.7558637856703
1590514925.9385273,-1.0732672284677987,-2.9516336142338995,8.769405056210188,0.5377777777777778,0.11666666666666667,-0.57,-2.8189916902755474,-10.466890800656838,131.1110715123518
1590514925.9485273,-1.0884044607250483,-2.959202230362524,8.905640146525434,0.5377777777777778,0.11666666666666667,-0.57,-3.717764855549741,-10.892625457891983,131.91523697601818
1590514925.9585273,-1.1760169002473206,-2.9837287716405605,8.79398309975268,0.5377777777777778,0.11666666666666667,-0.57,-3.2266951772464965,-10.887711253091508,133.2680080379225
1590514925.9685273,-1.2477548457976928,-3.0282245154202307,8.770183237856077,0.5377777777777778,0.11666666666666667,-0.57,-2.948596778623558,-11.495919328258651,133.97193557247115
1590514925.9785273,-1.3228131529371467,-2.9984394588114403,8.892032882342868,0.539774124184126,0.09830027972826398,-0.5855715019695152,-2.7754110292858365,-10.962911029285836,135.22458897071417
1590514925.9885273,-1.3182137941027314,-2.9632855176410926,8.848500688256175,0.5433333333333333,0.06555555555555556,-0.6133333333333333,-2.559810367311454,-10.644637941027312,135.5633965442295
1590514925.9985273,-1.398561503882305,-2.989640375970576,8.804460563955864,0.5433333333333333,0.06555555555555556,-0.6133333333333333,-3.469873825091949,-11.0625,134.97886442582754
1590514926.0085273,-1.445748288489094,-2.9482654035981533,8.808503423021813,0.5433333333333333,0.06555555555555556,-0.6133333333333333,-2.8626711510905904,-10.415817544976914,134.25637836331794
1590514926.0185273,-1.4948969379703227,-2.929954194653477,8.790022902673261,0.5433333333333333,0.06555555555555556,-0.6133333333333333,-2.8116411497526896,-10.31164114975269,133.25157455878673
1590514926.0285273,-1.5621820844520382,-2.9111813522089336,8.913092506712228,0.5433333333333333,0.036595611965394736,-0.6133333333333333,-3.326138027825238,-10.826138027825237,132.1465859165243
1590514926.0385273,-1.624894566723103,-2.874388179159612,8.846033553947976,0.5433333333333333,0.013333333333333334,-0.6133333333333333,-2.5957268739418193,-10.446465676466062,131.6722044789903
1590514926.0485272,-1.6770924519874943,-2.87,8.75557987196665,0.5433333333333333,0.013333333333333334,-0.6133333333333333,-2.649685499478934,-10.525420574661307,130.9571423254429
1590514926.0585272,-1.7116207927021077,-2.8537844054734194,8.854862378106322,0.5433333333333333,0.013333333333333334,-0.6133333333333333,-3.0523700456118275,-10.672305068417742,130.2635225798207
1590514926.0685272,-1.7689595133207467,-2.8205202433396264,8.8944161946717,0.5433333333333333,0.013333333333333334,-0.6133333333333333,-2.767052129221733,-10.5,129.96510121669814
1590514926.0785272,-1.8456446014250045,-2.7847851328583317,8.901289202850009,0.546520196586575,-0.0002832642032447163,-0.615071622380556,-2.71185397763027,-10.532592919635427,129.47027434382804
1590514926.0885272,-1.8918374405533938,-2.7626502377864246,8.973463035019455,0.5555555555555556,-0.03888888888888889,-0.62,-3.186175961954172,-10.590547989623865,128.3966439688716
1590514926.0985272,-1.9228838861000899,-2.73,8.873302132883229,0.5555555555555556,-0.03888888888888889,-0.62,-2.625,-10.270638330520178,127.34156546614349
1590514926.1085272,-1.9724879424879425,-2.6925361725361725,8.83832529499196,0.5555555555555556,-0.03888888888888889,-0.62,-2.5989834531501197,-9.8699172657506,125.41238776655443
1590514926.1185272,-2.0138004865159584,-2.6304798053936165,8.90236107033511,0.5555555555555556,-0.03888888888888889,-0.62,-2.592250608144948,-9.6875,123.43773722895608
1590514926.1285272,-2.0492305179781702,-2.6061542230327444,8.936923705054575,0.5535043293381844,-0.06504202316037151,-0.62,-2.451927787909306,-9.543273156591088,122.31731946977327
1590514926.1385272,-2.1133753749808406,-2.5754430795506797,8.90514769318356,0.5511111111111111,-0.09555555555555556,-0.62,-2.3409807528082505,-9.223365411986249,121.02400014232849
1590514926.1485271,-2.180862378833859,-2.576293568250788,8.861981674081495,0.5511111111111111,-0.09555555555555556,-0.62,-2.4375,-9.33405947084647,119.30493171974898
1590514926.1585271,-2.1698202324383122,-2.595044941890422,8.870359535123375,0.5511111111111111,-0.09555555555555556,-0.62,-2.4375,-9.34178379229404,117.80575871643671
1590514926.1685271,-2.16085511119163,-2.57467140721953,8.9461837039721,0.5511111111111111,-0.09555555555555556,-0.62,-2.2339666651569363,-8.876237035191812,116.40667036550569
1590514926.178527,-2.26413499226869,-2.4458650077313098,8.935763242115861,0.5439623862778237,-0.11480212241440621,-0.6562935260766898,-1.7822040526448273,-8.190044140386206,113.98178871947931
1590514926.188527,-2.406279737426093,-2.3470123682862862,8.96390105370971,0.5366666666666666,-0.13444444444444445,-0.6933333333333334,-2.742745076739242,-8.749226982107109,111.11816116792626
1590514926.198527,-2.474392455442118,-2.341215089115764,9.058878006575531,0.5366666666666666,-0.13444444444444445,-0.6933333333333334,-3.8095756186191383,-9.543805156601488,108.57183985118533
1590514926.208527,-2.3742107425284997,-2.494210229023313,8.936841943103627,0.5366666666666666,-0.13444444444444445,-0.6933333333333334,-1.786186068604293,-7.486844639005854,105.01645142240936
1590514926.218527,-2.3076948942753996,-2.4065087158329033,8.730152862300155,0.5366666666666666,-0.13444444444444445,-0.6933333333333334,-0.4818862815884477,-5.587607013924703,101.66801057246003
1590514926.228527,-2.342747841449862,-2.217988487732596,8.666203231413672,0.5390273780462707,-0.15569084686088078,-0.6871954837463629,-1.9277562476847234,-6.854278274869632,96.54267767076055
1590514926.238527,-2.3772805717310748,-2.3215203811540497,9.212805717310745,0.5422222222222223,-0.18444444444444444,-0.6788888888888889,-4.947002382212811,-9.836990471148756,89.63690113816834
1590514926.248527,-2.4439641973309896,-2.1920914957096933,8.962250618683072,0.5422222222222223,-0.18444444444444444,-0.6788888888888889,-2.4142155445567455,-6.926790133450517,85.4887928741587
1590514926.258527,-2.5197988325826586,-2.0602011674173415,8.714974854072834,0.5422222222222223,-0.18444444444444444,-0.6788888888888889,-0.9673355415968169,-5.373742703641615,81.38914458403183
1590514926.268527,-2.6480985761661735,-1.9928927457950236,8.841982643922394,0.5422222222222223,-0.18444444444444444,-0.6788888888888889,-1.9700364398196872,-5.667355084695275,76.69887627340786
1590514926.278527,-2.7719966699042597,-1.9940037463577078,9.083000208130985,0.5355550930422583,-0.19177828654240475,-0.7002237022647735,-2.9999739836270294,-5.637492195088109,71.84366544678784
1590514926.288527,-2.7014323516533723,-2.04542176702393,8.978132650535894,0.52,-0.2088888888888889,-0.75,-1.684781263682918,-4.6499338460659825,67.13554417559824
1590514926.298527,-2.7757248364633886,-1.9478624182316944,8.839656045579236,0.52,-0.2088888888888889,-0.75,-1.4556209115847225,-3.8461305127664063,62.36240504325807
1590514926.308527,-2.7940782940343976,-1.9955302357936147,8.952903883518434,0.52,-0.2088888888888889,-0.75,-2.173531986855046,-3.9654360262899084,56.36072165319389
1590514926.318527,-2.789379628822863,-2.0196898144114317,9.006277772937178,0.52,-0.2088888888888889,-0.75,-2.211226801428945,-3.7776041212860503,54.329397926287356
1590514926.328527,-2.8077347000913426,-1.9838759768598395,8.913221353902365,0.5009713905522288,-0.2088888888888889,-0.764513346188978,-1.1814168273622248,-2.61493326905511,47.16769004364153
1590514926.338527,-2.926032938546792,-1.9167458826816508,8.999287055865143,0.4544444444444444,-0.2088888888888889,-0.8,-1.665676466479363,-2.396823533520637,40.63333844279217
1590514926.348527,-2.9781174425282897,-1.9102353196839637,9.057882122844326,0.4544444444444444,-0.2088888888888889,-0.8,-1.7470585039504525,-2.3154414960495475,36.52354555050215
1590514926.358527,-2.9807393937253934,-1.8985212125492135,8.819260606274607,0.4544444444444444,-0.2088888888888889,-0.8,-1.1745378789216292,-0.9694545470595505,28.904250013241292
1590514926.368527,-3.0547899931145284,-1.7504200137709434,8.745210006885472,0.4544444444444444,-0.2088888888888889,-0.8,-1.1282562543034198,-0.4140750516410374,24.32236917603856
1590514926.378527,-3.007408940397351,-1.99408940397351,9.130041390728476,0.42997332597498156,-0.21407100809418692,-0.8,-2.1414528145695364,-0.5673116721854305,19.10704677152318
1590514926.388527,-3.003028889041378,-1.8836533315034654,8.881537775337954,0.36,-0.2288888888888889,-0.8,-0.9375,0.5207361215947299,14.70911102724216
1590514926.398527,-3.0997224527230642,-1.8472223435384547,8.8219445778923,0.36,-0.2288888888888889,-0.8,-1.380209470673014,1.0,8.277771105384986
1590514926.408527,-3.204100966752036,-1.8712932327357468,8.847192265983711,0.36,-0.2288888888888889,-0.8,-1.5930585357975127,1.3844656330033918,3.4270407927828153
1590514926.418527,-3.2508434609105747,-1.8411391257028842,8.85198258661346,0.36,-0.2288888888888889,-0.8,-1.2571195356430256,2.076739071286051,-0.6513581534554689
1590514926.4285269,-3.315925649918312,-1.8844461004901258,8.948148700163376,0.35004047757809686,-0.2411119391339518,-0.7796282495915619,-1.2222118719367137,2.3379646880105476,-3.576440640316432
1590514926.4385269,-3.288699581883278,-1.930650209058361,8.949349790941639,0.33555555555555555,-0.2588888888888889,-0.75,-0.8003085801557297,2.4415638066147567,-5.286574259532811
1590514926.4485269,-3.279822510182977,-1.9547337652744654,8.87615368381065,0.33555555555555555,-0.2588888888888889,-0.75,-0.625,2.2237419011037716,-6.6105789523668825
1590514926.4585268,-3.293991091613134,-1.9580267251605972,8.861884190970745,0.33555555555555555,-0.2588888888888889,-0.75,-0.5501670322537323,1.8876113548358215,-8.061108064552231
1590514926.4685268,-3.3278748153618904,-1.9323977776285752,8.934931851752383,0.33555555555555555,-0.2588888888888889,-0.75,-0.2316064774405801,1.9708796327380154,-9.253407412380824
1590514926.4785268,-3.405317577548006,-1.9112770243050892,8.920851349536726,0.33555555555555555,-0.2588888888888889,-0.75,0.34041392507049817,2.4108953269773066,-9.957432523163689
1590514926.4885268,-3.41,-1.9766904932094354,8.957769835596855,0.3555555555555556,-0.30666666666666664,-0.7355555555555555,0.75,2.9159220872051463,-9.749553252323087
1590514926.4985268,-3.41,-1.998627591136526,8.950457469621158,0.3555555555555556,-0.30666666666666664,-0.7355555555555555,0.75,2.2303877769835596,-9.338232666190136
1590514926.5085268,-3.3694917904612978,-2.041047693510555,8.861047693510555,0.3555555555555556,-0.30666666666666664,-0.7355555555555555,1.075596168881939,2.4440480844409693,-7.566067240031274
1590514926.5185268,-3.1607657904901303,-2.2519174239190094,9.00794494927934,0.3555555555555556,-0.30666666666666664,-0.7355555555555555,1.3125,2.5389807078530624,-5.747382651298002
1590514926.5285268,-2.9277943365188785,-2.488390451198496,9.197943365188783,0.34452723814994696,-0.3162245417515275,-0.7277131965115672,2.0706968216355945,3.1341282508224975,-3.8107301621494596
1590514926.5385268,-2.881961926410001,-2.196196192641,9.058378320784202,0.3055555555555556,-0.35,-0.7,4.769019036794999,5.612737959937491,-1.1705453544537576
1590514926.5485268,-2.510799102212405,-2.141487584167587,8.39512415832413,0.3055555555555556,-0.35,-0.7,3.740871824788913,6.389630241547614,0.26618222059923746
1590514926.5585268,-2.7499690980955807,-2.11501545095221,8.617476823571685,0.3055555555555556,-0.35,-0.7,0.3093783686669062,0.6341403162055337,-2.8617723679482574
1590514926.5685267,-2.975518191612796,-2.0728339963533897,8.989388571191778,0.3055555555555556,-0.35,-0.7,-4.218243670230399,-5.95614873404608,-12.60900723106249
1590514926.5785267,-3.1389518857286056,-2.1280641523618593,9.334994361608821,0.313512787314316,-0.3516577566164084,-0.687401049715296,-4.195519045232427,-3.862830472371883,-18.79338428768325
1590514926.5885267,-3.091332708748097,-2.0679552640824452,8.771821056329781,0.3322222222222222,-0.3555555555555556,-0.6577777777777778,1.5155755943318892,3.466682281297576,-23.346959538587658
1590514926.5985267,-3.1053035821308375,-2.0733198100594716,8.702307639112997,0.3322222222222222,-0.3555555555555556,-0.6577777777777778,2.82540569821585,4.687753561384906,-27.668014671983773
1590514926.6085267,-3.264794599893067,-2.184124933166993,8.89118739975049,0.3322222222222222,-0.3555555555555556,-0.6577777777777778,0.6900675013366602,3.0692529183746213,-31.861494163250757
1590514926.6185267,-3.306182614393709,-2.249273921590564,8.967033355175886,0.3322222222222222,-0.3555555555555556,-0.6577777777777778,0.3454346401572664,2.489755310137608,-33.98482775016382
1590514926.6285267,-3.2659617382409816,-2.188942607361473,8.812853329923763,0.3322222222222222,-0.3555555555555556,-0.6577777777777778,1.350956543975451,3.3695869759785197,-35.032246399974426
1590514926.6385267,-3.286992295684576,-2.16,8.871988015509341,0.38666666666666666,-0.3088888888888889,-0.6133333333333333,1.056394455914195,3.100096303942797,-39.074604083790724
1590514926.6485267,-3.3357653503030793,-2.1656938598787683,8.932989910788006,0.38666666666666666,-0.3088888888888889,-0.6133333333333333,-0.036033439394244526,2.5616063696961153,-43.700378345449785
1590514926.6585267,-3.3053605408112166,-2.185360540811217,8.836426306125855,0.38666666666666666,-0.3088888888888889,-0.6133333333333333,0.3438491069938241,3.3773524870639293,-48.147930228676344
1590514926.6685266,-3.3172243252139566,-2.220220539828835,8.848106484529296,0.38666666666666666,-0.3088888888888889,-0.6133333333333333,1.0784695934825543,4.425665528308097,-54.2393073156682
1590514926.6785266,-3.2938798446807995,-2.2638798446807997,8.93,0.3903679585815466,-0.3034911715130223,-0.6154924202836799,1.177049417552999,4.972199611701999,-59.94044087499699
1590514926.6885266,-3.3780698984645863,-2.3615806092124814,8.926139796929172,0.4133333333333333,-0.27,-0.6288888888888889,1.560315672981674,5.368447018945022,-66.13393465205547
1590514926.6985266,-3.37,-2.429039443473493,8.89368047702272,0.4133333333333333,-0.27,-0.6288888888888889,1.8974975155066653,6.209997515506665,-72.23496024810665
1590514926.7085266,-3.37,-2.479346321236421,8.850560296083067,0.4133333333333333,-0.27,-0.6288888888888889,2.122081791234022,6.434581791234022,-75.82830865974435
1590514926.7185266,-3.3693401484219,-2.6359970792477574,8.892998539623878,0.4133333333333333,-0.27,-0.6288888888888889,2.29895985455846,6.8614598545584595,-80.18328465412928
1590514926.7285266,-3.194332846541293,-2.71100020862516,8.93050010431258,0.4133333333333333,-0.27,-0.6288888888888889,2.259895724674396,6.822395724674395,-81.43333681041933
1590514926.7385266,-3.0671070813453962,-2.8293393779819054,8.922232296636508,0.4533333333333333,-0.23555555555555555,-0.5988888888888889,2.8359914774414507,7.648491477441451,-82.62371815176292
1590514926.7485266,-3.098750813941533,-2.779861201549059,8.836946434079303,0.4533333333333333,-0.23555555555555555,-0.5988888888888889,3.8142349806367593,8.613722625861065,-81.73785513554269
1590514926.7585266,-2.9534779913205207,-2.7260384376937385,8.679662120272782,0.4533333333333333,-0.23555555555555555,-0.5988888888888889,3.3094776813391196,7.145226286422814,-81.42451952882827
1590514926.7685266,-2.8662528312271123,-2.61884528269935,8.876928303803899,0.4533333333333333,-0.23555555555555555,-0.5988888888888889,1.4320518723143034,4.938042431362588,-83.35702832285514
1590514926.7785265,-2.9290834151128555,-2.605458292443572,9.085554072620216,0.4574555446516192,-0.22731113291898375,-0.5988888888888889,0.24093719332679098,3.415441609421001,-85.37559862610402
1590514926.7885265,-2.764439646712463,-2.6877801766437686,9.274894406280668,0.4794080471050049,-0.18340612801221245,-0.5988888888888889,0.8583513248282629,5.627842247301276,-86.04446393523062
1590514926.7985265,-2.625360170009038,-2.91067002125113,8.78579007792081,0.48,-0.18222222222222226,-0.5988888888888889,4.697375974010113,8.597187278634065,-89.68687101541317
1590514926.8085265,-2.4947490915781243,-2.9342261165539765,8.722636033301137,0.48,-0.18222222222222226,-0.5988888888888889,3.5328181776367233,8.496599167471597,-95.61585541143462
1590514926.8185265,-2.624568056413643,-3.048189352137881,8.838348281812566,0.48,-0.18222222222222226,-0.5988888888888889,2.7376901403949807,7.487690140394981,-101.6540683120646
1590514926.8285265,-2.740382064370205,-3.0933970107283675,9.02837210013143,0.48146733094925165,-0.17561923295058976,-0.6020681059456008,1.6199128129107192,6.97518682947703,-107.26048575664028
1590514926.8385265,-2.626534749424545,-3.1230694988490892,8.836534749424546,0.4866666666666667,-0.15222222222222226,-0.6133333333333333,1.6423292815894683,8.520421091951702,-112.57580992811856
1590514926.8485265,-2.66511787571306,-3.2448821242869403,8.870653238426979,0.4866666666666667,-0.15222222222222226,-0.6133333333333333,3.0718013276793377,8.882827881266092,-116.37840754202635
1590514926.8585265,-2.5945388459791006,-3.3154611540208996,8.778900499772831,0.4866666666666667,-0.15222222222222226,-0.6133333333333333,3.115913221263062,9.809177646524308,-119.95147092230805
1590514926.8685265,-2.5147790763278794,-3.501740307890707,8.79522092367212,0.4866666666666667,-0.15222222222222226,-0.6133333333333333,3.3125,10.635876924316918,-126.1388923591521
1590514926.8785264,-2.474211977109696,-3.515262674296768,8.835788022890304,0.4866666666666667,-0.15222222222222226,-0.6133333333333333,3.3125,10.7203917143548,-129.64625614572418
1590514926.8885264,-2.3812589849175216,-3.494172656611681,8.84145683584708,0.5133333333333333,-0.12,-0.6288888888888889,2.7591052240442484,10.723920896176994,-136.78968135523013
1590514926.8985264,-2.306884185773075,-3.4966000391926317,8.823031550068587,0.5133333333333333,-0.12,-0.6288888888888889,2.9088158926121888,11.130131785224378,-141.47006662747404
1590514926.9085264,-2.197014089625213,-3.68030045754117,8.716492955187395,0.5133333333333333,-0.12,-0.6288888888888889,3.4477698997373682,12.01866193984242,-145.64278133826662
1590514926.9185264,-2.155445896169538,-3.7772929089377447,8.737277051915232,0.5133333333333333,-0.12,-0.6288888888888889,3.8807719149006457,12.278463148940387,-148.50059463834427
1590514926.9285264,-2.065457282871819,-3.899203518923068,8.85568341500856,0.5153785597606817,-0.11329620226591354,-0.6243439412725591,3.668326002243609,12.669739328098247,-154.29824127649525
1590514926.9385264,-1.8673442758457814,-3.9734958965578318,8.740117494243373,0.5318879770128515,-0.059182001272690285,-0.5876563473788484,3.513550215504517,13.03088283048946,-158.2192278738856
1590514926.9485264,-1.7514924412994533,-4.008507558700547,8.71737965047711,0.5333333333333333,-0.054444444444444434,-0.5844444444444444,4.03327034416211,13.487147528680175,-164.95813230406347
1590514926.9585264,-1.6721449763451206,-4.091782535482319,8.640473364873174,0.5333333333333333,-0.054444444444444434,-0.5844444444444444,3.4784115815358296,13.568417060914655,-170.35322615133776
1590514926.9685264,-1.6004737159210725,-4.185976050610032,8.717100466937792,0.5333333333333333,-0.054444444444444434,-0.5844444444444444,3.849850316312698,14.548444795902997,-176.14162524476578
1590514926.9785264,-1.5136057764723603,-4.257049819249887,8.748688808555505,0.5333333333333333,-0.054444444444444434,-0.5844444444444444,4.294061370311794,15.042012633679771,-180.38630864964603
1590514926.9885263,-1.483376773459446,-4.281873733243253,8.83437880027024,0.5522222222222222,-0.013333333333333334,-0.6055555555555555,4.360157833445934,15.237474664865058,-187.26784682466308
1590514926.9985263,-1.4311773281655584,-4.319159051310316,8.722522846069054,0.5522222222222222,-0.013333333333333334,-0.6055555555555555,4.313551185862106,15.983181026206308,-190.85655868861787
1590514927.0085263,-1.29,-4.230821407401135,8.58444745533068,0.5522222222222222,-0.013333333333333334,-0.6055555555555555,4.136331399779829,15.835162799559658,-195.9189071894318
1590514927.0185263,-1.28039463595282,-4.369466368664046,8.743201788015726,0.5522222222222222,-0.013333333333333334,-0.6055555555555555,4.150812845653132,15.99419832944516,-198.47505587549145
1590514927.0285263,-1.15722808620324,-4.362623782566847,8.78425730459892,0.5522222222222222,-0.013333333333333334,-0.6055555555555555,3.680385051470708,16.721223102272543,-199.75804076871626
1590514927.0385263,-1.0606205843039909,-4.389627649417605,8.720992934886386,0.5840445123374282,-0.003457450194131498,-0.5912903910211529,4.611036853160206,16.62965438227993,-201.9782795493603
1590514927.0485263,-0.7773100425899636,-4.288655021294981,8.689158076661935,0.5844444444444444,-0.0033333333333333327,-0.5911111111111111,4.195906116906364,17.164912659712364,-203.02258734028763
1590514927.0585263,-0.6967535628681321,-4.260550920678571,8.562985748527472,0.5844444444444444,-0.0033333333333333327,-0.5911111111111111,4.401992093870194,16.895290232074174,-203.32264511603708
1590514927.0685263,-0.6655801854363701,-4.361864397331797,8.687679258254521,0.5844444444444444,-0.0033333333333333327,-0.5911111111111111,4.061033278210298,17.090123841022688,-203.42006192051133
1590514927.0785263,-0.4472860873377428,-4.231163105426682,8.743489316280046,0.5879768387032555,-0.00540107631410073,-0.5888710562152798,3.956885090444694,17.425384318472066,-203.4035760917218
1590514927.0885262,-0.39132264643653625,-4.255147437241485,8.815442311724453,0.6608181427333973,-0.04803988842930572,-0.542679009757141,4.356623954024741,17.175547528734537,-202.7040330804567
1590514927.0985262,-0.3063204302564458,-4.376839784871777,8.792640860512892,0.6755555555555556,-0.05666666666666665,-0.5333333333333333,4.0,17.125,-200.95238239503266
1590514927.1085262,-0.21464296981806708,-4.416339257545483,8.671093700704596,0.6755555555555556,-0.05666666666666665,-0.5333333333333333,4.049525449574087,17.065569460511096,-199.50544221264065
1590514927.1185262,-0.06035940218250831,-4.4421437608730034,8.716251581527755,0.6755555555555556,-0.05666666666666665,-0.5333333333333333,4.214297010912541,16.68862313182034,-197.49446341728608
1590514927.1285262,0.02449007917731302,-4.409183621967761,8.664898268193433,0.6900689427953552,-0.06288021057870588,-0.5164161663319419,3.8329094508059685,16.432397637298507,-195.8252480205672
1590514927.1385262,0.13,-4.39,8.78,1.0311111111111109,-0.2088888888888889,-0.11888888888888888,4.3125,16.3125,-193.1875
1590514927.1485262,0.15002724648628235,-4.3817534867409424,8.771753486740941,1.0311111111111109,-0.2088888888888889,-0.11888888888888888,4.275685208664922,16.24623337559686,-192.42175234023037
1590514927.1585262,0.30841851143299626,-4.311581488567004,8.699476860708755,1.0311111111111109,-0.2088888888888889,-0.11888888888888888,3.8684607588594333,15.697384303543773,-185.88511062904254
1590514927.1685262,0.3450357820134823,-4.277985687194607,8.664028625610786,1.0311111111111109,-0.2088888888888889,-0.11888888888888888,3.3938841825505586,15.430757997314618,-182.49731634898882
1590514927.1785262,0.3740648921002727,-4.266374043159891,8.687251913680218,1.0311111111111109,-0.2088888888888889,-0.11888888888888888,3.5027433453760226,15.03160773362125,-180.32013309247955
1590514927.1885262,0.478135408983268,-4.296723087076361,8.736723087076362,1.1012930108570467,0.4537588156890149,-0.09277469363458726,3.2870768469272873,14.445269129236383,-175.72811444543655
1590514927.1985261,0.5826915664669655,-4.214747790020529,8.806673090619633,1.1266666666666667,0.6933333333333334,-0.08333333333333333,3.1931074301395115,14.375818268465373,-169.2501204491181
1590514927.2085261,0.6090498135657129,-4.065384389794294,8.578234949097155,1.1266666666666667,0.6933333333333334,-0.08333333333333333,3.2480204449285686,13.771775105785746,-164.96690529557165
1590514927.2185261,0.6750823253460885,-4.115784850296647,8.700164650692178,1.1266666666666667,0.6933333333333334,-0.08333333333333333,3.133781561881985,13.227017028468932,-159.75699794186636
1590514927.228526,0.8131585383749939,-3.977330137455364,8.624398082473217,1.1266666666666667,0.6933333333333334,-0.08333333333333333,2.4710964633370835,12.83082534363841,-153.72765127427482
1590514927.238526,0.8440285129932628,-3.986019008662175,8.8122281039461,0.7439903486258155,0.634596968238691,-0.453550422414715,3.288509835178056,12.41202478344562,-148.43155979307025
1590514927.248526,0.8948359783078818,-3.8972365838240677,8.808618291912035,0.6488888888888888,0.62,-0.5455555555555556,2.3686318910736266,11.939550271151479,-139.85049135808632
1590514927.258526,0.9436766809728183,-3.8693276108726753,8.794663805436338,0.6488888888888888,0.62,-0.5455555555555556,2.935532904148784,11.32904148783977,-135.1844599427754
1590514927.268526,1.0145947581038621,-3.8407657930173102,8.687657930173103,0.6488888888888888,0.62,-0.5455555555555556,2.4662172381491385,10.827137936418103,-125.88230006244999
1590514927.278526,1.0637073827598993,-3.848951230459983,8.769512304599832,0.6488888888888888,0.62,-0.5455555555555556,2.7731711422493706,10.31554809625105,-119.94785791651216
1590514927.288526,1.1053316487681617,-3.803335439039798,8.773998736576122,0.4155555555555556,0.5155555555555555,-0.6077777777777778,2.3083346493998738,9.520846493998736,-111.05432722678458
1590514927.298526,1.1759873657612128,-3.715015792798484,8.82699052432091,0.4155555555555556,0.5155555555555555,-0.6077777777777778,2.2531348704990526,8.968848704990524,-104.3199542008844
1590514927.308526,1.2021832449727912,-3.682183244972791,8.669460728215428,0.4155555555555556,0.5155555555555555,-0.6077777777777778,1.5670484270266483,8.25791887568022,-95.65870448653573
1590514927.318526,1.2316310436642466,-3.7080427476029043,8.78967379126715,0.4155555555555556,0.5155555555555555,-0.6077777777777778,1.6168447816787674,7.542111954196918,-87.85587779539932
1590514927.328526,1.2621443640966696,-3.6714267630839963,8.783571127180666,0.4155555555555556,0.5155555555555555,-0.6077777777777778,1.4642781795166524,7.160695448791631,-82.82117992404953
1590514927.338526,1.35855079006772,-3.6857049045762365,8.815704904576236,0.32430968830517365,0.5076211323163919,-0.6276138358756869,1.375,6.401926431356454,-74.11758413708188
1590514927.348526,1.4106512927070205,-3.6401628231767553,8.760162823176755,0.2877777777777778,0.5044444444444445,-0.6355555555555555,1.0,5.6773235514528055,-64.70564729025445
1590514927.358526,1.4392257383247606,-3.64730643458119,8.76730643458119,0.2877777777777778,0.5044444444444445,-0.6355555555555555,1.0,5.230847838675614,-60.01765230609395
1590514927.368526,1.428961692533768,-3.5605871932685145,8.754221269400325,0.2877777777777778,0.5044444444444445,-0.6355555555555555,1.0,4.931010578336051,-55.159998590897196
1590514927.378526,1.423661616161616,-3.4868308080808084,8.835631313131314,0.2877777777777778,0.5044444444444445,-0.6355555555555555,1.085385101010101,4.428267045454546,-48.746133207070706
1590514927.388526,1.460855203261687,-3.489144796738313,8.697959268495428,0.25,0.5155555555555555,-0.6355555555555555,0.625,3.4375,-36.625
1590514927.398526,1.4691564738946286,-3.4808435261053714,8.8722859517872,0.25,0.5155555555555555,-0.6355555555555555,0.625,3.4375,-36.625
1590514927.408526,1.463490481290813,-3.447452406454065,8.785847700653008,0.25,0.5155555555555555,-0.6355555555555555,0.38089304840548666,3.2747620322703246,-33.1668181857444
1590514927.418526,1.5251496647061027,-3.470718540441314,8.738143708088263,0.25,0.5155555555555555,-0.6355555555555555,0.09730547334507172,2.3222310156220733,-23.5759773161503
1590514927.428526,1.54,-3.473173630592057,8.82191643289532,0.25,0.5155555555555555,-0.6355555555555555,0.10516480879964565,1.9543407648014175,-18.86862819282445
1590514927.438526,1.672971790443293,-3.5839758203799654,8.850502014968336,0.23839135162796646,0.5239982089170345,-0.662994178980362,0.006275187104202648,1.8156375935521014,-14.41315486470927
1590514927.448526,1.6896582131057922,-3.6093164262115844,8.734101442730493,0.23777777777777775,0.5244444444444445,-0.6644444444444444,0.06036383191120196,1.571044672355192,-11.111080740617497
1590514927.458526,1.69,-3.6483588238079454,8.749179411903972,0.23777777777777775,0.5244444444444445,-0.6644444444444444,-0.057371324399829546,1.2028860268005115,-7.703538579004688
1590514927.468526,1.7044702749388225,-3.65,8.69211890024471,0.23777777777777775,0.5244444444444445,-0.6644444444444444,-0.19815882755146105,1.0066215632647186,-5.211080322441342
1590514927.4785259,1.6877173183982828,-3.6009781004762225,8.732391508484808,0.23777777777777775,0.5244444444444445,-0.6644444444444444,-0.16643994399356093,0.7703798879871219,-2.975539103896975
1590514927.4885259,1.6562777056186366,-3.5437222943813635,8.79883311685591,0.22867883595666724,0.5149319143587381,-0.6619629148568689,-0.20208603930112706,0.4694426404659153,-0.14928300582394094
1590514927.4985259,1.6828270067882256,-3.5417932483029437,8.837447261879394,0.21333333333333332,0.4988888888888889,-0.6577777777777778,-0.23233120757358985,0.05603900946698731,4.120648914797114
1590514927.5085258,1.6828968574524676,-3.54,8.722143434144419,0.21333333333333332,0.4988888888888889,-0.6577777777777778,-0.05431607723377008,-0.2219732046103832,6.578364200571372
1590514927.5185258,1.6667393632557685,-3.559890955116347,8.769454775581735,0.21333333333333332,0.4988888888888889,-0.6577777777777778,-0.24863693895433744,-0.3953789796514458,9.198337552331807
1590514927.5285258,1.6873689336937199,-3.59052670027029,8.79263106630628,0.21333333333333332,0.4988888888888889,-0.6577777777777778,-0.375,-0.523027917792875,11.963850232546815
1590514927.5385258,1.694500958417946,-3.6,8.774500958417946,0.21577735181424612,0.4860577918640966,-0.6449466807529854,-0.6155830692148564,-0.6999760395513466,14.015415346074281
1590514927.5485258,1.6967680368348743,-3.579695889495377,8.729391778990754,0.21777777777777774,0.4755555555555556,-0.6344444444444445,-0.38949769782035576,-0.7701997697820355,16.14210621588504
1590514927.5585258,1.6882665866530173,-3.593466826693965,8.715866706673491,0.21777777777777774,0.4755555555555556,-0.6344444444444445,-0.334167666837284,-0.786666916709321,17.897508251407594
1590514927.5685258,1.6360393925011867,-3.5513858566682486,8.78594091124822,0.21777777777777774,0.4755555555555556,-0.6344444444444445,-13.2593438538206,-26.959903001898432,23.92452984100617
1590514927.5785258,14.935963263333154,-11.58004780063376,-0.09670390461356604,0.21777777777777774,0.4755555555555556,-0.6344444444444445,-49.23536776948279,-19.414119984961598,144.86250268542886
1590514927.5885258,-3.024586966794107,-2.065431934361442,-0.5879019717341807,0.1568645083074397,0.5039817479750467,-0.615155242445504,-80.53099896902788,-21.652830877615017,285.4528571888827
1590514927.5985258,-1.3718945821009187,-0.8614569348754008,0.10754963603195122,0.1511111111111111,0.5066666666666667,-0.6133333333333333,-84.40231752891377,-41.55554387099059,284.21225270540725
1590514927.6085258,2.3196708531831964,-3.5159029883066264,16.7210437418796,0.1511111111111111,0.5066666666666667,-0.6133333333333333,-18.82519488956258,-5.22572000866176,275.089838674751
1590514927.6185257,0.8684944767888545,-2.693921736012703,12.462497140222979,0.1511111111111111,0.5066666666666667,-0.6133333333333333,61.35838128083864,-23.801671262228748,266.9465509808608
1590514927.6285257,-4.371413225914736,-2.759093655589124,17.65920778784827,0.1511111111111111,0.5066666666666667,-0.6133333333333333,129.06889895938235,-24.155463242698893,262.8294729775092
1590514927.6385257,-1.4426198434240334,-0.6165885282307815,5.773389039682362,0.21210076493416183,0.5227165755674694,-0.6133333333333333,76.1679560443258,-33.11154915991835,247.7738186702259
1590514927.6485257,-1.4111535310005767,-0.28312797790658856,4.691649418834026,0.23555555555555555,0.5288888888888889,-0.6133333333333333,-12.572317607963335,-16.943400807259263,240.10005007435282
1590514927.6585257,-1.9325399102020453,-2.9544992516837114,11.771282738837616,0.23555555555555555,0.5288888888888889,-0.6133333333333333,-47.66060738338738,0.6261302693938635,238.37240427787478
1590514927.6685257,-0.6626790552560278,-1.7474337009770384,7.380239470155177,0.23555555555555555,0.5288888888888889,-0.6133333333333333,-14.231511193519253,-25.31924450587044,236.78120638222174
1590514927.6785257,-1.9823450321685863,-3.679360095542629,12.688576106637903,0.23555555555555555,0.5288888888888889,-0.6133333333333333,10.410782736833998,-18.569388796856337,239.76438436645222
1590514927.6885257,-1.27132336248915,-2.7656466582092545,8.289197436068639,0.3244444444444444,0.43,-0.6288888888888889,-1.9124616077986245,-18.989371202510515,237.70995526473928
1590514927.6985257,-1.0566188155171263,-3.8951792748881617,12.228559123990117,0.3244444444444444,0.43,-0.6288888888888889,-24.49144521599786,-20.272930994191093,233.62590138211925
1590514927.7085257,-0.6726024940392041,-2.600531513092651,7.43525520646509,0.3244444444444444,0.43,-0.6288888888888889,-4.17332069081932,-20.151677199164432,234.25050640389932
1590514927.7185256,-0.8174459437489839,-3.503069419606568,9.037818240936433,0.3244444444444444,0.43,-0.6288888888888889,-0.7769163550642172,-16.861303040156074,234.77737359778897
1590514927.7285256,-0.7896994225359064,-3.9293186417254824,10.193026010562164,0.3244444444444444,0.43,-0.6288888888888889,-5.293460959478802,-18.233842110458518,233.3433119663393
1590514927.7385256,-0.8756960961465731,-3.5252477203008783,9.601519519267134,0.3655644735797696,0.39710397669173986,-0.6323155579834994,-5.307898579652898,-21.596301529604574,230.38909841576668
1590514927.7485256,-0.8652263337923682,-2.937761760916885,8.248058948958287,0.3911111111111111,0.37666666666666665,-0.6344444444444445,-5.543338534494247,-19.548025132157612,226.0383229310115
1590514927.7585256,-2.2987923884819597,-18.11368871836608,5.259709723675542,0.3911111111111111,0.37666666666666665,-0.6344444444444445,-11.171583730573964,-11.603892958183156,202.64148548618377
1590514927.7685256,-1.547187288272302,-8.133423455396033,6.5408036780125824,0.3911111111111111,0.37666666666666665,-0.6344444444444445,-22.073146878528796,-6.149193418293273,55.613500161316324
1590514927.7785256,-1.6184969225785553,0.17044055717525097,12.41761796782205,0.3911111111111111,0.37666666666666665,-0.6344444444444445,7.5946374581578695,3.6327542921930682,-70.94860841161861
1590514927.7885256,-1.3421190482991059,1.1251400988260833,6.201570934849048,0.4597095516012428,0.29336856035722103,-0.6609038429192094,44.145466781868556,5.265941418411357,-78.90188440775756
1590514927.7985256,-0.8966137636115152,-1.8655118370585904,9.660745933077635,0.4688888888888889,0.2822222222222222,-0.6644444444444444,-5.8102750407794375,-2.469915520433805,-72.73884765022264
1590514927.8085256,-1.4184102057112438,-2.2615601353663637,10.181574964827561,0.4688888888888889,0.2822222222222222,-0.6644444444444444,-22.948923913456785,12.652398855469787,-65.8875361230465
1590514927.8185256,-0.5715810976932532,-2.5333013956179045,8.801581097693253,0.4688888888888889,0.2822222222222222,-0.6644444444444444,7.331978993419625,3.4712809132981413,-52.93561763323451
1590514927.8285255,-0.523453324277413,-2.535446004075164,8.079222700173572,0.4688888888888889,0.2822222222222222,-0.6644444444444444,1.1922590747868078,4.355308089955475,-46.60543779714739
1590514927.8385255,-0.5075227692824735,-2.9086247689463955,8.612891614854647,0.4688888888888889,0.2872553632442727,-0.658404675217984,-1.2858322130734332,2.2511384641236765,-40.78640144513527
1590514927.8485255,-0.5176257373137017,-12.194699221036515,8.496116889549283,0.4688888888888889,0.2877777777777778,-0.6577777777777778,2.24232574631906,4.24345845152866,-45.222077761267954
1590514927.8585255,-0.4244441285859806,-7.011695923056878,8.791415203847157,0.4688888888888889,0.2877777777777778,-0.6577777777777778,-1.2758969393314854,4.779672435031863,-95.71607383981238
1590514927.8685255,0.061423796791443885,-3.1506283422459895,7.5169719251336895,0.4688888888888889,0.2877777777777778,-0.6577777777777778,7.344376671122994,13.746741310160427,-113.03964739304813
1590514927.8785255,-0.17416317709036874,-2.733924084830474,9.24719775766581,0.4688888888888889,0.2877777777777778,-0.6577777777777778,0.5601698635688237,8.201805855734161,-114.28135975280291
1590514927.8885255,-0.3284218740967686,-2.8952656222903057,9.641996069136944,0.4688888888888889,0.2973680559569918,-0.6649704864121883,0.03603531996069176,7.915161280998902,-110.23449693623908
1590514927.8985255,-0.11833936261843239,-2.6742394487510768,8.383717484926787,0.4688888888888889,0.3055555555555556,-0.6711111111111111,3.5045004306632213,8.703617571059432,-105.6222437553833
1590514927.9085255,0.45290597634045177,-6.088359194960824,8.156640036872023,0.4688888888888889,0.3055555555555556,-0.6711111111111111,0.9680538485174375,7.913216315870334,-105.44501363496697
1590514927.9185255,0.4527982806025636,-5.654490957673392,8.577471246563142,0.4688888888888889,0.3055555555555556,-0.6711111111111111,1.8077682685977616,9.778884134298881,-121.65237143244394
1590514927.9285254,0.09555087029580545,-3.060132842966298,8.663480232078882,0.4688888888888889,0.3055555555555556,-0.6711111111111111,2.3326008211534193,11.985681335404712,-139.5415689103072
1590514927.9385254,0.7345659844742413,-3.0556880733944953,7.054057868736768,0.4342146945816671,0.32202579785148594,-0.6659099819650278,-8.049532462949895,13.118802928722653,-75.59158874382499
1590514927.9485254,4.029745891586951,-2.14895217071376,10.395348050036791,0.4244444444444445,0.32666666666666666,-0.6644444444444444,6.1224337748344375,-12.598108290409616,46.16487306843267
1590514927.9585254,2.4587073232414465,-1.6173967628888326,7.8427587701867845,0.4244444444444445,0.32666666666666666,-0.6644444444444444,16.836886719173382,-7.240162894251959,40.620174590845046
1590514927.9685254,0.3262525334414268,-2.269153492771247,7.4569612214565595,0.4244444444444445,0.32666666666666666,-0.6644444444444444,-1.3301285299283876,0.4881097149033915,-0.07831711930819907
1590514927.9785254,0.158878027383526,-3.5051705987404835,8.944536453927373,0.4244444444444445,0.32666666666666666,-0.6644444444444444,-11.884755772785663,2.2920729940157285,-15.020426026882227
1590514927.9885254,-0.8864074949654146,-5.285392697662202,8.621070834427808,0.41330755236455263,0.3501127552559126,-0.6609275311560575,-4.412305183434025,3.045289379213729,-26.234972857017773
1590514927.9985254,-0.9655161626694474,-6.578772888425443,8.558497601668405,0.4033333333333333,0.3711111111111111,-0.6577777777777778,0.08335766423357649,2.1409476016684046,-17.217138946819603
1590514928.0085254,-0.21229295083403932,-4.914889719844585,8.688039788495809,0.4033333333333333,0.3711111111111111,-0.6577777777777778,1.8397377377231168,-0.6665686804358621,4.2764690631299125
1590514928.0185254,-0.017811516792273344,-4.518484671105583,8.966700080485841,0.4033333333333333,0.3711111111111111,-0.6577777777777778,-0.40614253310894854,-0.4105646813492354,0.6731954708421739
1590514928.0285254,0.029413352735070557,-4.454106530854506,8.765857473817228,0.4033333333333333,0.3711111111111111,-0.6577777777777778,-0.7867216967585058,0.11766690918838191,-0.6286103027053935
1590514928.0385253,0.03516830380995438,-4.3751683038099545,8.696633923800913,0.4006490576721969,0.3678899803177474,-0.6577777777777778,-0.3490094940610744,0.1594056964366446,-0.12710379762442975
1590514928.0485253,0.04270128200279848,-4.37,8.692039102976214,0.3977777777777778,0.3644444444444445,-0.6577777777777778,0.09034054381121659,0.14188301251749047,0.016883012517490456
1590514928.0585253,0.04371621490144189,-4.3071621490144185,8.69912163608414,0.3977777777777778,0.3644444444444445,-0.6577777777777778,0.2892736568659882,0.10895268626802358,-0.016047313731976418
1590514928.0685253,0.026742303339813714,-4.329659634970838,8.693598061689348,0.3977777777777778,0.3644444444444445,-0.6577777777777778,0.022487885558424958,0.10393030206308215,-0.021069697936917854
1590514928.0785253,0.02558214450069029,-4.326507132995858,8.770478601012424,0.3977777777777778,0.3644444444444445,-0.6577777777777778,-0.2645536125172573,0.125,0.06977680625862863
1590514928.0885253,0.03564813648954923,-4.356481364895492,8.78222236212541,0.3940123534514116,0.3719752930971768,-0.6496193584039844,-0.5515042652984135,0.1956017061193654,0.125
1590514928.0985253,0.051626454960822014,-4.405813227480412,8.712560317558767,0.3911111111111111,0.37777777777777777,-0.6433333333333333,-0.39683862597944963,0.2136673282474312,0.05233465649486241
1590514928.1085253,0.05404883401920439,-4.415951165980796,8.634537174211248,0.3911111111111111,0.37777777777777777,-0.6433333333333333,0.03566872427983542,0.07591563786008229,0.11158436213991771
1590514928.1185253,0.043543368801064034,-4.381260212806384,8.693306099182976,0.3911111111111111,0.37777777777777777,-0.6433333333333333,0.3489157799733992,0.0403539449933498,0.1875
1590514928.1285253,0.04544114686103169,-4.349117706277936,8.771764587444126,0.3911111111111111,0.37777777777777777,-0.6433333333333333,0.029413985422623135,0.0625,0.11948566423710386
1590514928.1385252,0.05,-4.346249716672602,8.752501699964382,0.3911111111111111,0.37777777777777777,-0.6523607018604266,-0.4687429168150763,0.0625,0.0625
1590514928.1485252,0.03879502509595512,-4.383614924712135,8.73,0.3911111111111111,0.37777777777777777,-0.6577777777777778,-0.5274844534248597,0.09751554657514025,0.1325310931502805
1590514928.1585252,0.047438300330562594,-4.375123399338874,8.677685099008313,0.3911111111111111,0.37777777777777777,-0.6577777777777778,-0.027712699380596284,0.125,0.04218083057864502
1590514928.1685252,0.046116703101352484,-4.343058351550676,8.702474836043914,0.3911111111111111,0.37777777777777777,-0.6577777777777778,0.22572939438345305,0.03822939438345305,0.06765590842482044
1590514928.1785252,0.029361981063364895,-4.34,8.75127603787327,0.3911111111111111,0.37777777777777777,-0.6577777777777778,0.08776857246904589,0.06648761835396941,0.05851238164603059
1590514928.1885252,0.024360554906463612,-4.344360554906464,8.75909861273384,0.3952294129672156,0.37947354913029135,-0.6592312960799324,-0.10901387266159032,0.1113732659173012,0.0
1590514928.1985252,0.035626015605065606,-4.355626015605066,8.730934960987337,0.4058690147381175,0.3838545616241921,-0.662986449646133,-0.39065039012664005,0.07616870123417,0.0
1590514928.2085252,0.033395284184514006,-4.366604715815487,8.647348126029653,0.41,0.3855555555555555,-0.6644444444444444,-0.33488210461285006,0.2276178953871499,0.0
1590514928.2185252,0.02361271547894082,-4.37,8.680260129731652,0.41,0.3855555555555555,-0.6644444444444444,0.029443697796339097,0.1927384152301404,0.03992052825661987
1590514928.2285252,0.024898052604474624,-4.355305842186576,8.744490263022373,0.41,0.3855555555555555,-0.6644444444444444,0.1568871712220336,0.1556128287779664,0.12372565755593279
1590514928.2385252,0.03,-4.34,8.77,0.4013995271867612,0.3759432624113475,-0.6614089834515366,-0.07420212765957446,0.1305851063829787,0.1875
1590514928.2485251,0.03964491518545572,-4.364112287963639,8.75071016962909,0.3911111111111111,0.3644444444444445,-0.6577777777777778,-0.4632017997727457,0.03235964004545086,0.09707892013635257
1590514928.2585251,0.054212767048806135,-4.39,8.692085096560746,0.3911111111111111,0.3644444444444445,-0.6577777777777778,-0.4406914416147316,0.0,0.052659588110076684
1590514928.2685251,0.04831277705738669,-4.35493833117216,8.69259250324176,0.3911111111111111,0.3644444444444445,-0.6577777777777778,-0.004887141521666999,0.0,0.0884774283043334
1590514928.278525,0.04,-4.33419116224382,8.750955811219098,0.3911111111111111,0.3644444444444445,-0.6577777777777778,0.125,0.026194764023872955,0.16727905609549182
1590514928.288525,0.04,-4.34,8.78,0.3930083337163166,0.36511405242275236,-0.6577777777777778,0.09361212601682062,0.08133272438990763,0.2811121260168206
1590514928.298525,0.04,-4.358633138646074,8.74894476892321,0.41,0.3711111111111111,-0.6577777777777778,-0.32336663596095805,0.19177144173101798,0.0
1590514928.308525,0.04,-4.391732985785851,8.657954628762269,0.41,0.3711111111111111,-0.6577777777777778,-0.625,0.0625,0.01722294627947705
1590514928.318525,0.03545076178459105,-4.379098476430817,8.63639390572327,0.41,0.3711111111111111,-0.6577777777777778,-0.4259708280758583,0.034067261153694045,0.09093273884630595
1590514928.328525,0.03335224342444559,-4.386647756575554,8.693408973697782,0.41,0.3711111111111111,-0.6577777777777778,-0.10369391438886023,0.0,0.125
1590514928.338525,0.030541038771031453,-4.365811558156547,8.75310636430139,0.41,0.37426409818743395,-0.6535737950093473,-0.055737015362106804,0.1182370153621068,0.006762984637893196
1590514928.348525,0.02565610966674545,-4.366968329000236,8.761719451666272,0.41,0.37777777777777777,-0.6488888888888888,-0.25820137083431816,0.17929862916568187,-0.018947943748522808
1590514928.358525,0.04070896200690784,-4.369291037993093,8.681100708962008,0.41,0.37777777777777777,-0.6488888888888888,-0.34596550627158695,0.05806898745682604,0.12943101254317396
1590514928.368525,0.039208954474727706,-4.36,8.678559704863726,0.41,0.37777777777777777,-0.6488888888888888,-0.2738339482005722,0.06744403453295186,0.0863339482005722
1590514928.378525,0.03,-4.346009447200427,8.729327035199717,0.41,0.37777777777777777,-0.6488888888888888,-0.07091206000355753,0.03755904500266814,0.029146984999110618
1590514928.388525,0.025483071342200726,-4.33,8.753550785973397,0.4014680236463791,0.37175520623404545,-0.6488888888888888,-0.07865402055622733,0.022192412333736394,0.0625
1590514928.398525,0.03420289566843006,-4.33,8.78420289566843,0.3911111111111111,0.3644444444444445,-0.6488888888888888,-0.3091787319517919,0.06582126804820809,0.0033212680482080995
1590514928.408525,0.05,-4.363406979973463,8.714096337211096,0.3911111111111111,0.3644444444444445,-0.6488888888888888,-0.43465532138118307,0.11931064276236616,-0.0028446786188169176
1590514928.418525,0.03564258642471575,-4.385642586424716,8.658286436200758,0.3911111111111111,0.3644444444444445,-0.6488888888888888,-0.35044360859078905,0.13035488687263122,0.032588721718157805
1590514928.428525,0.02340765290750226,-4.366592347092498,8.703407652907503,0.3911111111111111,0.3644444444444445,-0.6488888888888888,-0.1023086773124435,0.021297830671889124,0.04259566134377825
1590514928.438525,0.03,-4.343300034020969,8.739224940463304,0.3962138784935927,0.37001109977078805,-0.6553833201029563,0.08859369684223549,0.08859369684223549,0.17718739368447098
1590514928.448525,0.02643153847341682,-4.330705384579749,8.78,0.4033333333333333,0.37777777777777777,-0.6644444444444444,0.03578846183542056,0.10269711545885514,0.18309134637656543
1590514928.458525,0.02031926485544094,-4.35010642161848,8.778616518959755,0.4033333333333333,0.37777777777777777,-0.6644444444444444,-0.12899081069301177,0.06383027023100392,0.06183486488449804
1590514928.468525,0.04580724265754206,-4.368385514684916,8.658385514684916,0.4033333333333333,0.37777777777777777,-0.6644444444444444,-0.5,0.08268106643855147,0.026204733390362132
1590514928.478525,0.03579911609524366,-4.363196464380975,8.699406187333295,0.4033333333333333,0.37777777777777777,-0.6644444444444444,-0.3424668535716372,-0.03624447559527286,0.1937776220236357
1590514928.488525,0.03,-4.348103046057455,8.753505076762425,0.4072347999535895,0.3759771008761211,-0.6620435419089021,-0.09123730809393676,0.0,0.2737119242818103
1590514928.498525,0.03,-4.364120994600188,8.79,0.4177777777777778,0.3711111111111111,-0.6555555555555556,0.0,0.05511567562324183,0.018371891874413945
1590514928.508525,0.034869820048923444,-4.35,8.736431979461841,0.4177777777777778,0.3711111111111111,-0.6555555555555556,-0.12174550122308606,0.1570636246942285,0.0625
1590514928.518525,0.05581388853624476,-4.360542592357496,8.690542592357495,0.4177777777777778,0.3711111111111111,-0.6555555555555556,-0.25,0.22383680335152978,0.09544560111717659
1590514928.5285249,0.06113177410154022,-4.36556588705077,8.71330233884769,0.4177777777777778,0.3711111111111111,-0.6555555555555556,-0.16686038220193952,0.20164717626925271,0.06957358813462636
1590514928.5385249,0.05,-4.371952837604151,8.74195283760415,0.4071530332407553,0.3737672972453667,-0.6564409509336407,-0.037598254991353566,0.08740174500864643,0.024901745008646437
1590514928.5485249,0.04565399637991807,-4.372615985519672,8.751307992759836,0.3911111111111111,0.37777777777777777,-0.6577777777777778,-0.05432504525102411,0.09783747737448795,0.03533747737448795
1590514928.5585248,0.04,-4.361709086281496,8.70877576991601,0.3911111111111111,0.37777777777777777,-0.6577777777777778,-0.17378785950623568,0.11128785950623568,0.04878785950623568
1590514928.5685248,0.04923104978420764,-4.361537900431585,8.678462099568415,0.3911111111111111,0.37777777777777777,-0.6577777777777778,-0.3365410917269467,0.1298059388487022,0.125
1590514928.5785248,0.057741447213731485,-4.346775658358806,8.702258552786269,0.3911111111111111,0.37777777777777777,-0.6577777777777778,-0.40926809017164356,0.0625,0.11088404508582177
1590514928.5885248,0.05157770985186927,-4.365266870444392,8.708422290148132,0.3911111111111111,0.37777777777777777,-0.6577777777777778,-0.33222137314836586,0.0625,0.07236068657418293
1590514928.5985248,0.03,-4.34,8.78,0.43,0.3644444444444445,-0.6488888888888888,-0.03613707558609539,0.14257528294260308,0.10742471705739692
1590514928.6085248,0.03,-4.34,8.78,0.43,0.3644444444444445,-0.6488888888888888,0.12280214227970898,0.248534761519806,0.0014652384801940033
1590514928.6185248,0.044630463531814456,-4.35879337763865,8.707315231765907,0.43,0.3644444444444445,-0.6488888888888888,-0.06711920585231934,-0.05788079414768066,0.125
1590514928.6285248,0.03058791034032509,-4.407942313808863,8.700293955170162,0.43,0.3644444444444445,-0.6488888888888888,-0.24265112074593637,0.11765112074593637,0.125
1590514928.6385248,0.0314177636136899,-4.362860745462104,8.73,0.42078204239988914,0.3644444444444445,-0.6533389373854941,-0.49098136344741583,-0.08924068172370792,0.03575931827629209
1590514928.6485248,0.027535627201300462,-4.37,8.7475356272013,0.3977777777777778,0.3644444444444445,-0.6644444444444444,-0.20290232999187213,0.08219825250609591,0.125
1590514928.6585248,0.04294055007404203,-4.362940550074042,8.738232475333188,0.3977777777777778,0.3644444444444445,-0.6644444444444444,-0.08456078101861866,0.16543921898138134,0.05881765694414402
1590514928.6685247,0.03223645212045812,-4.352236452120458,8.683354678180686,0.3977777777777778,0.3644444444444445,-0.6644444444444444,-0.14596673862929488,0.11801108712356836,-0.04153326137070511
1590514928.6785247,0.043575363135600925,-4.37,8.7164246368644,0.3977777777777778,0.3644444444444445,-0.6644444444444444,-0.3325769902012471,0.12273097060374133,0.125
1590514928.6885247,0.03163420259003016,-4.36836579740997,8.73817101295015,0.3986856681055723,0.36353655411665,-0.659541836674354,-0.354572467624623,0.2397862338123115,0.08414493524924604
1590514928.6985247,0.0354870736262656,-4.364512926373735,8.766461220878796,0.4033333333333333,0.3588888888888889,-0.6344444444444445,-0.19358842032832008,0.13108842032832008,-0.04038263049248009
1590514928.7085247,0.034292404315381754,-4.3657075956846185,8.728537978423091,0.4033333333333333,0.3588888888888889,-0.6344444444444445,-0.07134494605772808,0.08932752697113597,0.008844946057728079
1590514928.7185247,0.037022247254294566,-4.36,8.7,0.4033333333333333,0.3588888888888889,-0.6344444444444445,-0.03722190932131794,0.0691671360180231,-0.025278090678682058
1590514928.7285247,0.0318610086100861,-4.36279151291513,8.702791512915129,0.4033333333333333,0.3588888888888889,-0.6344444444444445,-0.13663130381303812,-0.05086869618696187,0.06831565190651906
1590514928.7385247,0.049057810578105786,-4.3885867158671585,8.72858671586716,0.4033333333333333,0.3588888888888889,-0.6344444444444445,-0.24411131611316111,0.05661131611316113,0.12205565805658056
1590514928.7485247,0.04238942244441521,-4.376194711222207,8.753805288777793,0.41,0.3588888888888889,-0.6488888888888888,-0.2411508354163926,0.21128305486120247,0.0625
1590514928.7585247,0.03,-4.366317643291707,8.73790585975024,0.41,0.3588888888888889,-0.6488888888888888,-0.07897054114633366,0.20397054114633367,0.0625
1590514928.7685246,0.03570415372350661,-4.357147923138247,8.708556230585259,0.41,0.3588888888888889,-0.6488888888888888,-0.035650960771916325,0.10717451961404184,0.0625
1590514928.7785246,0.04391588107324148,-4.356084118926758,8.745210297316897,0.41,0.3588888888888889,-0.6488888888888888,-0.16302574329224076,0.08151287164612038,0.0625
1590514928.7885246,0.03,-4.368427017876101,8.776854035752201,0.4058053810029363,0.3588888888888889,-0.6457429246410911,-0.25983113827436805,0.11516886172563198,0.04283772345126395
1590514928.7985246,0.03295844901416404,-4.36,8.739290856900851,0.38333333333333336,0.3588888888888889,-0.6288888888888889,-0.2200484683073738,0.04400969366147475,-0.007029080984424264
1590514928.8085246,0.037766396490184415,-4.36,8.681065585960738,0.38333333333333336,0.3588888888888889,-0.6288888888888889,0.06980010968173705,0.0,0.08311993419095776
1590514928.8185246,0.03,-4.359881724260777,8.650413965087282,0.38333333333333336,0.3588888888888889,-0.6288888888888889,0.31176077662985396,0.0007392233701460634,-0.0625
1590514928.8285246,0.03,-4.345170140679089,8.727755211018636,0.38333333333333336,0.3588888888888889,-0.6288888888888889,0.15518662075568979,0.07652993113353465,-0.07865668962215511
1590514928.8385246,0.03,-4.361137537374287,8.751706306061429,0.384850049832382,0.35958405061761956,-0.630531998429525,0.04472597852677358,-0.0625,-0.12144519570535471
1590514928.8485246,0.03,-4.38,8.769323347884992,0.41,0.3711111111111111,-0.6577777777777778,-0.18327092428119823,0.004229075718801753,-0.04025697476039942
1590514928.8585246,0.03,-4.368724097304041,8.716172291912121,0.41,0.3711111111111111,-0.6577777777777778,-0.03900853605008432,0.00754268025042161,0.02349146394991568
1590514928.8685246,0.039834402178687514,-4.35,8.682946938416938,0.41,0.3711111111111111,-0.6577777777777778,0.02048833787226566,-0.10554664851093735,0.0625
1590514928.8785245,0.0519886935783058,-4.35600847981627,8.732002826605424,0.41,0.3711111111111111,-0.6577777777777778,0.07501766628389718,0.0625,0.0625
1590514928.8885245,0.02234961575832524,-4.378237788181256,8.739412596060419,0.41,0.3711111111111111,-0.6577777777777778,0.12132872537761683,0.0625,0.0625
1590514928.8985245,0.0418728597223087,-4.38,8.757190710416538,0.3911111111111111,0.3711111111111111,-0.6577777777777778,-0.06835268663221468,0.125,-0.125
1590514928.9085245,0.05237382844234846,-4.374915885628233,8.714747656884697,0.3911111111111111,0.3711111111111111,-0.6577777777777778,-0.06144857035290387,0.09322428517645193,-0.045560712941129844
1590514928.9185245,0.0314070006863418,-4.358592999313658,8.674221002059026,0.3911111111111111,0.3711111111111111,-0.6577777777777778,0.1425875085792725,-0.00879375428963624,0.17870624571036375
1590514928.9285245,0.03406585906841836,-4.347032929534209,8.714835352328954,0.3911111111111111,0.3711111111111111,-0.6577777777777778,0.21291161917761475,-0.006867428766422115,0.08791161917761474
1590514928.9385245,0.02234607655618236,-4.341173038278091,8.751173038278091,0.39189313662983855,0.36967739766011076,-0.6560833891538683,0.10300553228579037,0.08834255380965063,-0.014662978476139748
1590514928.9485245,0.03874897363379254,-4.353753079098622,8.752493841802755,0.3977777777777778,0.3588888888888889,-0.6433333333333333,-0.07813782957759328,-0.15622434084481343,-0.11718108521120335
1590514928.9585245,0.03,-4.38,8.695983263598325,0.3977777777777778,0.3588888888888889,-0.6433333333333333,-0.17494769874476987,0.05831589958158996,-0.0625
1590514928.9685245,0.03,-4.38,8.648976016138674,0.3977777777777778,0.3588888888888889,-0.6433333333333333,-0.028050050433353263,0.009350016811117759,-0.0625
1590514928.9785244,0.0381107428348606,-4.3618892571651395,8.684560343146812,0.3977777777777778,0.3588888888888889,-0.6433333333333333,0.26180785728212125,0.027076428153636187,0.0
1590514928.9885244,0.03,-4.37,8.79,0.39784024886441044,0.3588888888888889,-0.6433958044199659,0.309688801101531,-0.12429720027538275,-0.0014055994492345016
1590514928.9985244,0.03404684628990435,-4.367976576855048,8.777859461130287,0.4033333333333333,0.3588888888888889,-0.6488888888888888,0.04985360534404891,-0.07514639465595109,-0.09970721068809782
1590514929.0085244,0.0484520804354919,-4.360773959782255,8.734643758693524,0.4033333333333333,0.3588888888888889,-0.6488888888888888,0.004837248639087806,-0.1201627513609122,-0.009674497278175612
1590514929.0185244,0.03223249299719888,-4.372232492997199,8.686697478991597,0.4033333333333333,0.3588888888888889,-0.6488888888888888,-0.083140756302521,-0.166859243697479,0.173546918767507
1590514929.0285244,0.03957545518207283,-4.3795754551820725,8.70872636554622,0.4033333333333333,0.3588888888888889,-0.6488888888888888,0.054539784663865554,-0.30453978466386555,0.12765340511204482
1590514929.0385244,0.030637044492466178,-4.35,8.761911133477398,0.40297941972640766,0.35966749882412535,-0.6503045433165915,0.00796305615582724,0.054536943844172764,0.0625
1590514929.0485244,0.04,-4.355089312148426,8.769642751406296,0.3977777777777778,0.3711111111111111,-0.6711111111111111,0.07728769860850686,-0.07840410046383105,0.04659589953616895
1590514929.0585244,0.03721958738439649,-4.367219587384397,8.696097936921984,0.3977777777777778,0.3711111111111111,-0.6711111111111111,-0.09725515769504386,-0.09024484230495614,-0.017377578847521936
1590514929.0685244,0.032626433368358534,-4.362626433368359,8.665252866736717,0.3977777777777778,0.3711111111111111,-0.6711111111111111,-0.1875,-0.01641520855224085,-0.04608479144775915
1590514929.0785244,0.04192562922221558,-4.37,8.689628146111078,0.3977777777777778,0.3711111111111111,-0.6711111111111111,-0.12732408680576313,-0.0625,0.0
1590514929.0885243,0.04957388912146403,-4.369147778242928,8.732556665271217,0.3980145060436311,0.3705903089262338,-0.6699274697818445,0.12766319299084983,-0.05451042102745051,0.0
