time,acc_x,acc_y,acc_z,mag_x,mag_y,mag_z,gyr_x,gyr_y,gyr_z
1590514935.0998516,0.06,-4.31,8.65,0.4133333333333333,0.26666666666666666,-0.5933333333333334,0.125,0.0625,-0.0625
1590514935.1098516,0.07876644295302014,-4.31938322147651,8.715682550335572,0.4133333333333333,0.26666666666666666,-0.5933333333333334,-0.10958053691275169,-0.05479026845637584,-0.12114513422818793
1590514935.1198516,0.06687827606290041,-4.31,8.763121723937099,0.41749563191613276,0.26423865916003364,-0.5954144826247331,-0.058532323820617356,-0.2734784507862551,-0.04298922539312755
1590514935.1298516,0.05148022366299612,-4.305740111831498,8.752960447325993,0.4266666666666667,0.2588888888888889,-0.6,-0.21412430105313712,-0.10762709684058866,-0.07987290315941134
1590514935.1398516,0.04,-4.3044369741983175,8.725563025801684,0.4266666666666667,0.2588888888888889,-0.6,-0.22226891126051604,0.0,-0.13203782252103208
1590514935.1498516,0.0546232755571277,-4.3136558188892815,8.741934913335692,0.4266666666666667,0.2588888888888889,-0.6,-0.050406791651927824,0.0,-0.03965113194198797
1590514935.1598516,0.07517067970148654,-4.32,8.818634562388107,0.4266666666666667,0.2588888888888889,-0.6,0.21768325186570917,0.03018325186570917,0.0
1590514935.1698515,0.07517232592215073,-4.309655348155698,8.839310696311397,0.4301148839481005,0.26291180905056166,-0.5890806452754596,0.15301888895967383,-0.03448111104032617,0.0
1590514935.1798515,0.07476335698785995,-4.305236643012139,8.793816784939299,0.43333333333333335,0.26666666666666666,-0.5788888888888889,0.09522901882587531,-0.059541962348249364,-0.03272901882587532
1590514935.1898515,0.05945843828715366,-4.315270780856423,8.706750629722922,0.43333333333333335,0.26666666666666666,-0.5788888888888889,0.19088476070528967,0.0,0.0033847607052896744
1590514935.1998515,0.06786037624257865,-4.32,8.66786037624258,0.43333333333333335,0.26666666666666666,-0.5788888888888889,0.25,0.03720911717203885,-0.04912735151611655
1590514935.2098515,0.08,-4.316093166194905,8.699534169025474,0.43333333333333335,0.26666666666666666,-0.5788888888888889,0.29883542256368784,-0.010753133845531754,-0.10058228871815608
1590514935.2198515,0.08,-4.311403877752218,8.735615511008874,0.43239741483185457,0.2655747617482747,-0.5768610654690182,0.3662257640486362,-0.15132270785409135,-0.08882270785409135
1590514935.2298515,0.08524523160762942,-4.314754768392371,8.733283378746593,0.4266666666666667,0.2588888888888889,-0.5644444444444444,0.2797173024523161,-0.2797173024523161,-0.21721730245231607
1590514935.2398515,0.08459893675240403,-4.31,8.683796810257212,0.4266666666666667,0.2588888888888889,-0.5644444444444444,0.25,-0.3175132905949496,-0.1875
1590514935.2498515,0.06880124072497262,-4.304400620362486,8.725993796375137,0.4266666666666667,0.2588888888888889,-0.5644444444444444,0.18000775453107895,-0.305007754531079,-0.11750775453107895
1590514935.2598515,0.08061611196577989,-4.3,8.79061611196578,0.4266666666666667,0.2588888888888889,-0.5644444444444444,0.09278732505346891,-0.15336197516040673,-0.0625
1590514935.2698514,0.09438854933918404,-4.3028057253304075,8.821222901321633,0.43258986458641685,0.2588888888888889,-0.5644444444444444,0.08003578331504989,-0.027428433369900224,-0.027428433369900224
1590514935.2798514,0.07976610586787033,-4.309064423471481,8.84929831760361,0.4477777777777778,0.2588888888888889,-0.5644444444444444,0.12207632334837916,0.07127102995486254,0.0625
1590514935.2898514,0.07982506077164406,-4.283100081028858,8.77087469614178,0.4477777777777778,0.2588888888888889,-0.5644444444444444,-0.02046887660759178,0.47843775321518356,0.0625
1590514935.2998514,0.09657276827260362,-4.313427231727396,8.680281695182188,0.4477777777777778,0.2588888888888889,-0.5644444444444444,-0.041079801703772637,0.5410798017037727,-0.0017605948886820766
1590514935.3098514,0.09,-4.316075690249138,8.719621548754306,0.4477777777777778,0.2588888888888889,-0.5644444444444444,0.024526935942882824,0.45094612811423435,-0.10047306405711717
1590514935.3198514,0.08428270929743374,-4.3138115271350435,8.75,0.44375449913523113,0.2616416584864208,-0.5631739353994297,0.05058897770298696,0.363088977702987,-0.03867795540597392
1590514935.3298514,0.06417229094288686,-4.321655418114227,8.75,0.4266666666666667,0.2733333333333333,-0.5577777777777778,0.026076818393042864,0.15603908964174285,0.036423181606957136
1590514935.3398514,0.06498505832074805,-4.31,8.674775874811221,0.4266666666666667,0.2733333333333333,-0.5577777777777778,0.1565301564859741,-0.0938433854953247,-0.0313433854953247
1590514935.3498514,0.06613956837874882,-4.31,8.642976978651241,0.4266666666666667,0.2733333333333333,-0.5577777777777778,0.17325539526563988,-0.24011690710154018,-0.0625
1590514935.3598514,0.08314946865588979,-4.31,8.696298937311779,0.4266666666666667,0.2733333333333333,-0.5577777777777778,0.31676308456505936,-0.39468417909931114,-0.11728945273287411
1590514935.3698514,0.1,-4.31,8.742753662142185,0.4283671549522914,0.2733333333333333,-0.5594782660634025,0.4668475339336111,-0.5159420776777315,-0.1875
1590514935.3798513,0.09547037661965553,-4.31,8.793588870141033,0.43333333333333335,0.2733333333333333,-0.5644444444444444,0.27243043838145875,-0.5908101461271529,-0.07425941549138836
1590514935.3898513,0.08416821725510516,-4.31,8.763345738040842,0.43333333333333335,0.2733333333333333,-0.5644444444444444,0.4478972843111854,-0.5521027156888145,-0.11974321077796357
1590514935.3998513,0.08,-4.297487549993549,8.767537350019351,0.43333333333333335,0.2733333333333333,-0.5644444444444444,0.38269578118952396,-0.38269578118952396,-0.09359437491936523
1590514935.4098513,0.08505537435273738,-4.300110748705475,8.795055374352737,0.43333333333333335,0.2733333333333333,-0.5644444444444444,0.18611564118156523,-0.18611564118156523,-0.09478826911382608
1590514935.4198513,0.08732779202405164,-4.31,8.805344415951897,0.4351148053172989,0.27155186134936776,-0.5644444444444444,-0.004305199398708992,0.05440909894774075,-0.1540974003006455
1590514935.4298513,0.07978849196436007,-4.31,8.81936547589308,0.44,0.26666666666666666,-0.5644444444444444,-0.18353422433175118,0.375,-0.0625
1590514935.4398513,0.08008452553546516,-4.31,8.724450584019475,0.44,0.26666666666666666,-0.5644444444444444,0.0,0.375,-0.030985857701671365
1590514935.4498513,0.08008491861965616,-4.3149575406901715,8.679830162760688,0.44,0.26666666666666666,-0.5644444444444444,0.03098462931357449,0.31303074137285103,-0.03098462931357449
1590514935.4598513,0.07317935465345825,-4.316820645346541,8.703179354653457,0.44,0.26666666666666666,-0.5644444444444444,0.0625,0.190387100247658,-0.102241933168228
1590514935.4698513,0.07727863413285409,-4.311360682933572,8.712721365867147,0.4381857560885694,0.26666666666666666,-0.5674681842968288,0.07950853666966198,0.019978658325845028,-0.178995731665169
1590514935.4798512,0.06,-4.316627057582453,8.726627057582453,0.4266666666666667,0.26666666666666666,-0.5866666666666667,0.1875,-0.2710808901096714,-0.16716178021934278
1590514935.4898512,0.07468500594328409,-4.31,8.71118899643403,0.4266666666666667,0.26666666666666666,-0.5866666666666667,0.1875,-0.38592502971642045,-0.19493122771268467
1590514935.4998512,0.10614553143398772,-4.306145531433987,8.716981279962086,0.4266666666666667,0.26666666666666666,-0.5866666666666667,0.16340957146242321,-0.5865904285375768,-0.014319142924846429
1590514935.5098512,0.1,-4.302073222969738,8.766219668909214,0.4266666666666667,0.26666666666666666,-0.5866666666666667,0.11204235643913624,-0.573169425756545,0.0625
1590514935.5198512,0.0886852116666217,-4.3128286970833445,8.798486091250034,0.42855246472222974,0.2610092724999775,-0.5844665689351765,0.0625,-0.2689238593745784,0.009461929687289206
1590514935.5298512,0.06431657910263254,-4.315683420897368,8.82,0.43333333333333335,0.2466666666666667,-0.5788888888888889,0.08947861939145338,0.026978619391453375,-0.07104276121709324
1590514935.5398512,0.07509144625773777,-4.304908553742262,8.763994091164886,0.43333333333333335,0.2466666666666667,-0.5788888888888889,0.061356921778278006,0.094321539110861,0.031821539110861
1590514935.5498512,0.07490925391940682,-4.3,8.720181492161187,0.43333333333333335,0.2466666666666667,-0.5788888888888889,0.031817163003707384,0.22045148901112216,-0.06476865201482954
1590514935.5598512,0.07421119073976966,-4.304211190739769,8.73,0.43333333333333335,0.2466666666666667,-0.5788888888888889,0.0625,0.3125,-0.1875
1590514935.5698512,0.08,-4.306230511211877,8.741308466364371,0.4308203408079177,0.24876082710451308,-0.5788888888888889,0.13317791477731536,0.24182208522268464,-0.1639406950742282
1590514935.5798512,0.08505381310915054,-4.3,8.75494618689085,0.4266666666666667,0.25222222222222224,-0.5788888888888889,0.3447589957965726,-0.03293165966095432,-0.15658633193219088
1590514935.5898511,0.09,-4.294732749993585,8.702594749942264,0.4266666666666667,0.25222222222222224,-0.5788888888888889,0.5362609376202817,-0.3191812501603757,-0.28626093762028176
1590514935.5998511,0.08064269501851631,-4.304035957472226,8.68339326245371,0.4266666666666667,0.25222222222222224,-0.5788888888888889,0.5665168438657269,-0.4375,-0.34575842193286344
1590514935.6098511,0.07,-4.317539416872847,8.722302915635764,0.4266666666666667,0.25222222222222224,-0.5788888888888889,0.423106777276476,-0.4836359336341144,-0.2663640663658856
1590514935.619851,0.07,-4.310756803958666,8.756215980206665,0.4266666666666667,0.25222222222222224,-0.5788888888888889,0.2111501237083394,-0.6108099257749964,-0.13919007422500362
1590514935.629851,0.09,-4.31,8.787591168031934,0.43333333333333335,0.2588888888888889,-0.5788888888888889,0.3900551998004075,-0.62727920079837,-0.155110399600815
1590514935.639851,0.09,-4.31,8.76732851143257,0.43333333333333335,0.2588888888888889,-0.5788888888888889,0.42430053274226165,-0.41110106548452324,-0.1972021309690465
1590514935.649851,0.09,-4.306559437004559,8.72,0.43333333333333335,0.2588888888888889,-0.5788888888888889,0.33199296255699057,-0.2909964812784953,-0.043007037443009426
1590514935.659851,0.09039595542465004,-4.29960404457535,8.72118786627395,0.43333333333333335,0.2588888888888889,-0.5788888888888889,0.2512373607020314,-0.2537120821060942,-0.1262373607020314
1590514935.669851,0.10578216741241951,-4.28210891629379,8.78421783258758,0.43637954575769705,0.2605291571173924,-0.5774829446930287,0.2465963658190549,-0.3584156389828659,-0.16113854632762195
1590514935.679851,0.09216181906433185,-4.294323638128664,8.802161819064333,0.4477777777777778,0.26666666666666666,-0.5722222222222222,0.0,-0.035477261695851844,-0.08952273830414816
1590514935.689851,0.09089783416244868,-4.3054489170812245,8.759938087893469,0.4477777777777778,0.26666666666666666,-0.5722222222222222,0.08533280472704365,0.0625,-0.1590557317576521
1590514935.699851,0.09347829562714846,-4.308985530418099,8.717971060836197,0.4477777777777778,0.26666666666666666,-0.5722222222222222,0.1875,-0.021739347669677833,0.01539891278279637
1590514935.709851,0.10276695563488017,-4.31638347781744,8.75084956654768,0.4477777777777778,0.26666666666666666,-0.5722222222222222,0.14229347271800102,-0.125,0.11969020907700152
1590514935.719851,0.08824706446201773,-4.308247064462018,8.77701174215193,0.44310328300982504,0.26783529035865483,-0.5722222222222222,0.07345584711238917,-0.125,0.010955847112389169
1590514935.729851,0.07062516509641631,-4.304687417451792,8.819374834903584,0.4211111111111111,0.2733333333333333,-0.5722222222222222,0.125,-0.09570364092630096,0.09179635907369904
1590514935.739851,0.07348860107551314,-4.3010075992829915,8.762556994622434,0.4211111111111111,0.2733333333333333,-0.5722222222222222,0.09689874775934762,-0.09060125224065238,-0.04360751344391428
1590514935.749851,0.09,-4.294177485586295,8.700887427931479,0.4211111111111111,0.2733333333333333,-0.5722222222222222,0.0625,-0.04667214525695798,-0.11945357542826329
1590514935.759851,0.08803393963451805,-4.301966060365482,8.735898181096447,0.4211111111111111,0.2733333333333333,-0.5722222222222222,0.0625,0.0625,0.05021212271573784
1590514935.769851,0.0820876986546068,-4.307912301345393,8.75373690403618,0.4211111111111111,0.2733333333333333,-0.5722222222222222,0.0625,0.0625,0.013048116591292513
1590514935.779851,0.11983024183221747,-4.290084879083891,8.82970292320638,0.4332814627820665,0.2733333333333333,-0.5788605958609251,0.00026524713716020304,0.1869695057256796,0.0622347528628398
1590514935.789851,0.10003071672354949,-4.303353811149033,8.773415244596134,0.43333333333333335,0.2733333333333333,-0.5788888888888889,0.020769340159271902,0.1459613196814562,-0.0832693401592719
1590514935.799851,0.07759639784023048,-4.292403602159769,8.715192795680462,0.43333333333333335,0.2733333333333333,-0.5788888888888889,0.0625,0.032454973002880964,-0.10997748650144049
1590514935.809851,0.07,-4.3,8.702284058282126,0.43333333333333335,0.2733333333333333,-0.5788888888888889,0.07677536426328924,-0.05536231786835538,-0.06606884106582231
1590514935.819851,0.07391672263263936,-4.3,8.743916722632639,0.4317376315200358,0.27144750391761807,-0.5788888888888889,0.3125,0.03802048354600403,-0.11684016118200134
1590514935.829851,0.09806121078384343,-4.3,8.768061210783843,0.4219009881991749,0.25982237999296426,-0.5788888888888889,0.3125,-0.11288256739902139,-0.0665391442003262
1590514935.839851,0.10218226851544705,-4.292182268515447,8.78163050929919,0.4211111111111111,0.2588888888888889,-0.5788888888888889,0.375,-0.1659175346646321,-0.20113917822154403
1590514935.849851,0.10385380407757334,-4.302048731974142,8.692292391844854,0.4211111111111111,0.2588888888888889,-0.5788888888888889,0.42621829935355543,-0.33810914967677774,-0.25
1590514935.859851,0.08573708113415981,-4.31,8.74286854056708,0.4211111111111111,0.2588888888888889,-0.5788888888888889,0.625,-0.4912851356327482,-0.3037851356327482
1590514935.8698509,0.09860294117647059,-4.30953431372549,8.75139705882353,0.4216802832244009,0.2598202614379085,-0.5782162309368192,0.6279105392156863,-0.625,-0.4375
1590514935.8798509,0.08130705147983766,-4.292461965680109,8.772461965680108,0.43333333333333335,0.2788888888888889,-0.5644444444444444,0.5697182137516911,-0.5778872855006765,-0.36683092825101465
1590514935.8898509,0.1,-4.287354802418788,8.734258191534243,0.43333333333333335,0.2788888888888889,-0.5644444444444444,0.2600812122064407,-0.31612993953030516,-0.18104872732386446
1590514935.8998508,0.10326448263828303,-4.293471034723434,8.703057930553133,0.43333333333333335,0.2788888888888889,-0.5644444444444444,0.021693967021462222,0.04080603297853778,-0.0625
1590514935.9098508,0.10671891915941212,-4.283281080840588,8.741483782942058,0.43333333333333335,0.2788888888888889,-0.5644444444444444,-0.031739867119488646,0.10449324474632576,-0.041993244746325764
1590514935.9198508,0.09427827789230153,-4.295721722107698,8.785026027376945,0.43333333333333335,0.2788888888888889,-0.5644444444444444,0.08489114475967313,0.026739236826884574,0.035760763173115426
1590514935.9298508,0.10882014687543301,-4.281179853124567,8.83823022031315,0.4266666666666667,0.26666666666666666,-0.5722222222222222,0.20224816405708743,-0.0036870410142718583,-0.1875
1590514935.9398508,0.09,-4.3,8.765087754843611,0.4266666666666667,0.26666666666666666,-0.5722222222222222,0.39071641129542867,-0.0625,-0.1875
1590514935.9498508,0.09871546798361677,-4.3,8.698715467983616,0.4266666666666667,0.26666666666666666,-0.5722222222222222,0.36697167489760485,-0.15328612482934145,-0.2056572249658683
1590514935.9598508,0.11992415176389286,-4.3,8.719924151763893,0.4266666666666667,0.26666666666666666,-0.5722222222222222,0.4995259485243304,-0.3742099142072174,-0.24984198284144346
1590514935.9698508,0.08334997163925127,-4.29,8.742233314426167,0.4274111048087225,0.26579815550093483,-0.5706092729144345,0.361041784836453,-0.3125,-0.29156267725467955
1590514935.9798508,0.10714066931366989,-4.29,8.758093779542447,0.4326979265141489,0.2596301968446041,-0.5591544925526775,0.2619138778597088,-0.3125,-0.14287081678956323
1590514935.9898508,0.0984690392243279,-4.298469039224328,8.777752313794622,0.43333333333333335,0.2588888888888889,-0.5577777777777778,0.24043149515204937,-0.20663700969590126,-0.09120551454385192
1590514935.9998507,0.09076685764654033,-4.29076685764654,8.716134861172323,0.43333333333333335,0.2588888888888889,-0.5577777777777778,0.19229286029087705,-0.3029142794182459,-0.2356214191273689
1590514936.0098507,0.11,-4.3156721717588775,8.786491742361685,0.43333333333333335,0.2588888888888889,-0.5577777777777778,0.2719266102394715,-0.25,-0.027048926507018994
1590514936.0198507,0.11237216500982201,-4.298813917495089,8.81118608250491,0.43096116832351133,0.25809816721894824,-0.5585684994477185,0.09534793737722483,-0.23517396868861243,-0.13982603131138757
1590514936.0298507,0.1321681026903464,-4.294336205380692,8.824336205380693,0.4133333333333333,0.25222222222222224,-0.5644444444444444,-0.1656519254439951,-0.08434807455600492,-0.23644935818533497
1590514936.0398507,0.1395433444698435,-4.309086688939686,8.839086688939688,0.4133333333333333,0.25222222222222224,-0.5644444444444444,-0.3039377088095657,0.05393770880956569,-0.1903540970634781
1590514936.0498507,0.13467689774798614,-4.297661551126007,8.702338448873993,0.4133333333333333,0.25222222222222224,-0.5644444444444444,-0.40826938907508675,0.3125,-0.49596122184982655
1590514936.0598507,0.15142821385662794,-4.290714106928314,8.71357053464157,0.4133333333333333,0.25222222222222224,-0.5644444444444444,-0.30803683169803764,0.3214263366039247,-0.7276685147176611
1590514936.0698507,0.16506771204561654,-4.297533856022808,8.764932287954384,0.41662152530292224,0.2530442702146195,-0.5654035004355745,-0.2268799002138275,0.42208660014255167,-1.3270669992872417
1590514936.0798507,0.13,-4.2854648085653935,8.8,0.44,0.2588888888888889,-0.5722222222222222,-0.051114982155429846,0.30111498215542987,-1.9888501784457016
1590514936.0898507,0.12785515754474375,-4.301420630178975,8.778551575447437,0.44,0.2588888888888889,-0.5722222222222222,0.05362106138140634,0.22318946930929684,-2.593836857417461
1590514936.0998507,0.12583681069308905,-4.2661087928712735,8.703891207128725,0.44,0.2588888888888889,-0.5722222222222222,0.29864008910907547,0.10067995544546225,-3.034780178218151
1590514936.1098506,0.14675566490997655,-4.252162890060015,8.717837109939985,0.44,0.2588888888888889,-0.5722222222222222,0.4729638742498047,0.013518062875097658,-3.383427748499609
1590514936.1198506,0.1526873947915635,-4.2708957982638545,8.763583193055418,0.44,0.2588888888888889,-0.5735161530477898,0.21080882595636533,0.18190126085090932,-3.947783608938179
1590514936.1298506,0.18,-4.277009641615127,8.779067491305888,0.44,0.2588888888888889,-0.5866666666666667,-0.1875,0.16237947981091605,-4.986535838487328
1590514936.1398506,0.18,-4.272144096098583,8.717135423408497,0.44,0.2588888888888889,-0.5866666666666667,-0.16069879876770135,0.3840060061614933,-5.901909609858389
1590514936.1498506,0.17740065891212264,-4.282599341087877,8.685596046527264,0.44,0.2588888888888889,-0.5866666666666667,-0.0625,0.9237376453977005,-6.898696463390036
1590514936.1598506,0.15749269035126368,-4.293573517042496,8.737147034084993,0.44,0.2588888888888889,-0.5866666666666667,-0.0513327592421997,1.0848344815156006,-7.589337926062402
1590514936.1698506,0.0985771487956963,-4.309715429759139,8.770853710722582,0.43981028650609283,0.25911022129844724,-0.5860342883536428,0.007114256021518522,1.1981713840322779,-7.99822143599462
1590514936.1798506,0.05345257719694781,-4.303452577196948,8.803452577196948,0.43333333333333335,0.26666666666666666,-0.5644444444444444,0.22842139251907617,1.5193427850381525,-7.8511855700763045
1590514936.1898506,0.06770847849361862,-4.317708478493619,8.81770847849362,0.43333333333333335,0.26666666666666666,-0.5644444444444444,0.13932200941488368,1.3411440188297674,-7.494788037659535
1590514936.1998506,0.04765510381698371,-4.288236443402426,8.688817782987869,0.43333333333333335,0.26666666666666666,-0.5644444444444444,0.4853443988561482,0.448522228734836,-6.364099882772953
1590514936.2098505,-0.004493348253139379,-4.280786664535266,8.726066677323672,0.43333333333333335,0.26666666666666666,-0.5644444444444444,0.15941657341787896,0.49508334665458875,-5.5259997602174025
1590514936.2198505,-0.32125110486139014,-4.037191643230213,8.574216954600242,0.4326042587384492,0.2658160796393018,-0.5660241060666934,-0.843722378465247,0.5634843310566493,-3.6455604660506227
1590514936.2298505,-0.2538457211731619,-3.7844214543993573,8.683750703093612,0.42698714343109684,0.25926277844739076,-0.5781945225659569,-2.528856970670952,0.08954022699879471,-0.4332726496584973
1590514936.2398505,-0.2084236153377967,-2.9300121728545343,8.749519172245892,0.4266666666666667,0.2588888888888889,-0.5788888888888889,-7.286480523432745,-0.059038344491783246,5.628689896530736
1590514936.2498505,-0.24650092206816474,-3.064831181840949,9.29699815586367,0.4266666666666667,0.2588888888888889,-0.5788888888888889,-10.788520535937892,2.0083256494319603,11.876228001274958
1590514936.2598505,-0.2526527751626603,-2.8649141195422496,9.153801753174752,0.4266666666666667,0.2588888888888889,-0.5788888888888889,-8.771543337726731,0.9845642691269691,17.45293573087303
1590514936.2698505,-0.16223774363067917,-2.1095802567684427,8.659020820860773,0.4270396239384466,0.2600077607042285,-0.5793240057059654,-0.9239506419211069,-3.3046339719284243,22.385485265748684
1590514936.2798505,-0.2,-2.469905820595955,8.932150687046473,0.43333333333333335,0.2788888888888889,-0.5866666666666667,-1.637853172765169,-1.8662189285162885,33.61675930214606
1590514936.2898505,-0.19764319836742267,-2.558854413060619,8.808215991837113,0.43333333333333335,0.2788888888888889,-0.5866666666666667,-1.28661993877835,-3.6910799591855668,41.56179125504383
1590514936.2998505,-0.19,-2.6330898494414767,8.77,0.43333333333333335,0.2788888888888889,-0.5866666666666667,-1.0545410393394852,-3.759069936862555,48.705579164643034
1590514936.3098505,-0.18457082381774634,-2.7071458809112685,8.797145880911268,0.43333333333333335,0.2788888888888889,-0.5866666666666667,-1.2952431348521138,-4.7666754859911995,54.20010583189439
1590514936.3198504,-0.1612081546259678,-2.823959226870161,8.91395922687016,0.43333333333333335,0.2788888888888889,-0.5866666666666667,-1.4899320447836015,-5.1073810783713025,58.28857294045564
1590514936.3298504,-0.1778100398015184,-2.8721899601984817,8.954525099503797,0.4211111111111111,0.2466666666666667,-0.5644444444444444,-1.1943436256202549,-5.82025099503796,63.03743227605071
1590514936.3398504,-0.1631017130433258,-2.8868982869566744,8.917754282608314,0.4211111111111111,0.2466666666666667,-0.5644444444444444,-1.240307146739607,-5.452542826083145,64.96790016306349
1590514936.3498504,-0.17327835509041828,-2.9589072149698605,8.824206205391812,0.4211111111111111,0.2466666666666667,-0.5644444444444444,-1.4989691579453424,-5.415979438630228,67.35824766095928
1590514936.3598504,-0.19654469139454903,-2.9511517695351506,8.925026996043046,0.4211111111111111,0.2466666666666667,-0.5644444444444444,-1.9352129636477942,-5.706808642431863,68.57003601013277
1590514936.3698504,-0.19150879695672848,-2.9245263908701853,8.872070375653827,0.4211111111111111,0.2466666666666667,-0.5644444444444444,-1.787719923918212,-5.537719923918212,69.33377020922492
1590514936.3798504,-0.16600579684094638,-2.935996135439369,8.852001932280315,0.43621857235940414,0.2413346215202103,-0.5759972089284332,-1.500060383759858,-5.599975846496057,69.73742753948817
1590514936.3898504,-0.19409499953613507,-2.975118749420169,8.807715001391594,0.44,0.24,-0.5788888888888889,-1.7805078161239447,-5.4311015632247885,69.06592970127099
1590514936.3998504,-0.23,-3.0239668551565444,8.701586742062617,0.44,0.24,-0.5788888888888889,-1.485124293162958,-5.360124293162958,67.8710772074123
1590514936.4098504,-0.23414982665159845,-3.0766397226425575,8.729959583963836,0.44,0.24,-0.5788888888888889,-1.3176872833144981,-5.197874566628996,66.20900693393607
1590514936.4198503,-0.2743197272396422,-3.1409115635834275,8.826367345375141,0.44,0.24,-0.5788888888888889,-1.3678996590495527,-5.298299318099105,64.60221091041431
1590514936.4298503,-0.31226258291065156,-3.1577374170893484,8.88773741708935,0.46,0.21333333333333332,-0.5866666666666667,-1.4233588568084277,-5.245286285602809,62.03194742489271
1590514936.4398503,-0.3368097932110808,-3.1331902067889192,8.86319020678892,0.46,0.21333333333333332,-0.5866666666666667,-1.2699387924307453,-5.194146264143582,60.344326716738195
1590514936.4498503,-0.34131330037756413,-3.151313300377564,8.821641625471955,0.46,0.21333333333333332,-0.5866666666666667,-1.125,-5.175187808960336,57.99067888560196
1590514936.4598503,-0.3739652018216496,-3.1839652018216498,8.86245650227706,0.46,0.21333333333333332,-0.5866666666666667,-1.125,-4.869076232922035,56.20502802537854
1590514936.4698503,-0.4047199595122186,-3.198239986504073,8.886479973008147,0.46,0.21333333333333332,-0.5866666666666667,-1.330999662601822,-4.555000421747723,54.17550278353497
1590514936.4798503,-0.41,-3.2079047053991148,8.87419058920177,0.4652698035994097,0.18786261593618628,-0.5805185624673553,-1.1279779562776688,-4.055360321299804,52.37977214641048
1590514936.4898503,-0.4363537456008044,-3.216588436400201,8.896353745600804,0.4666666666666667,0.1811111111111111,-0.5788888888888889,-1.0625,-3.8551445449974864,50.97055681246858
1590514936.4998503,-0.48978022853047737,-3.2597802285304773,8.721043914480234,0.4666666666666667,0.1811111111111111,-0.5788888888888889,-1.0625,-3.6260301787633873,49.19436785842258
1590514936.5098503,-0.4832207375214867,-3.2261036876074334,8.753896312392566,0.4666666666666667,0.1811111111111111,-0.5788888888888889,-0.893018438037168,-3.667370390490708,48.890907266565044
1590514936.5198503,-0.5254908154506438,-3.2782362231759654,8.807909012875536,0.4666666666666667,0.1811111111111111,-0.5788888888888889,-1.049431330472103,-3.5927274678111587,48.56045493562232
1590514936.5298502,-0.5997722147689322,-3.280075928410356,8.760227785231068,0.4954458811850414,0.17336286104847176,-0.5932784961480763,-0.8136863814118117,-3.8738136185881884,49.309415408329286
1590514936.5398502,-0.6005165637282426,-3.3002582818641213,8.846900617630544,0.4955555555555556,0.17333333333333334,-0.5933333333333334,-0.762914093206064,-4.064114261650758,50.14114261650758
1590514936.5498502,-0.6186321427028895,-3.3093160713514447,8.738207143782663,0.4955555555555556,0.17333333333333334,-0.5933333333333334,-1.215803567572237,-4.12072544594653,50.7072544594653
1590514936.5598502,-0.6584072900158479,-3.2811945324881138,8.768407290015848,0.4955555555555556,0.17333333333333334,-0.5933333333333334,-0.9499430467511886,-4.425056953248811,51.17007973454834
1590514936.5698502,-0.6983041157812767,-3.2953216463125106,8.88491234734383,0.4955555555555556,0.17333333333333334,-0.5933333333333334,-1.0332602894531917,-4.389619855273404,51.09173971054681
1590514936.5798502,-0.6814114717992914,-3.2910586038494687,8.890352867949824,0.4933333333333334,0.15444444444444444,-0.6311111111111111,-1.2345620271952504,-4.301472876568036,50.67426745188164
1590514936.5898502,-0.7215368086696562,-3.321152606502242,8.896542180493274,0.4933333333333334,0.15444444444444444,-0.6311111111111111,-0.8269075812780269,-3.997598736453662,50.26927725616592
1590514936.5998502,-0.759629371804412,-3.3472202885330904,8.812779711466911,0.4933333333333334,0.15444444444444444,-0.6311111111111111,-1.1805507213327253,-3.9340253606663627,49.16433573777575
1590514936.6098502,-0.7406207383023747,-3.1995861744650838,8.95048201269692,0.4933333333333334,0.15444444444444444,-0.6311111111111111,-0.778876675288032,-3.7215494944744885,47.90516988008465
1590514936.6198502,-0.7652756877498237,-3.183149541500118,8.572439454502703,0.4933333333333334,0.15444444444444444,-0.6311111111111111,0.5565997531154478,-2.5915309781330826,46.62105792969668
1590514936.6298501,-0.7777004837500852,-3.2108019350003407,8.823420317503578,0.49932259847228844,0.1433215234720992,-0.6182769715276358,-0.24631651563671042,-2.856280234380323,44.25736696872658
1590514936.6398501,-0.7854309903389889,-3.241723961355955,8.702760386440445,0.5011111111111111,0.14,-0.6144444444444445,-1.5808106885604067,-3.780704861229645,41.859928139828625
1590514936.6498501,-0.8253372661647131,-3.295337266164713,8.673128153380423,0.5011111111111111,0.14,-0.6144444444444445,-0.7074463440192502,-3.2227814755879844,39.160281475587986
1590514936.6598501,-0.8562025441668151,-3.30759491166637,8.86683561833541,0.5011111111111111,0.14,-0.6144444444444445,-1.0894019427463548,-3.0340203177240985,36.3354390468277
1590514936.66985,-0.8671850915982312,-3.3,8.98466582438408,0.5011111111111111,0.14,-0.6144444444444445,-0.7602021478205938,-2.9435249526216047,33.732888502842705
1590514936.67985,-0.8632474503488996,-3.309188137412775,8.770554213633924,0.5066666666666667,0.13666666666666666,-0.6288888888888889,-0.5219068706387547,-2.609777576489533,31.129830917874397
1590514936.68985,-0.9007762491209723,-3.3018629978903333,8.889844750175806,0.5066666666666667,0.13666666666666666,-0.6288888888888889,-0.08190622802430625,-2.440410934203646,29.032420346562326
1590514936.69985,-0.9385906705854775,-3.392617609405146,8.882281865882906,0.5066666666666667,0.13666666666666666,-0.6288888888888889,-1.0272667646369391,-2.582215014695541,27.567111514812744
1590514936.70985,-0.9780733593200843,-3.401284427119944,8.861284427119942,0.5066666666666667,0.13666666666666666,-0.6288888888888889,-0.1427766949964855,-2.21559684324877,25.662845868745606
1590514936.71985,-0.972018189086548,-3.392018189086548,8.796145512692384,0.5066666666666667,0.13666666666666666,-0.6288888888888889,-0.4117042274635219,-1.9380684089546272,24.614659954027584
1590514936.72985,-1.0107550222461912,-3.39,8.88924497775381,0.5333333333333333,0.1288888888888889,-0.65,-0.5011797222596738,-1.8702811109613051,23.04362444384522
1590514936.73985,-1.0484549009033302,-3.39,8.85154509909667,0.5333333333333333,0.1288888888888889,-0.65,-0.5600857826614534,-1.6346568693541863,22.101127477416746
1590514936.74985,-1.040435609663306,-3.399564390336694,8.744791706296366,0.5333333333333333,0.1288888888888889,-0.65,-0.6222774396043371,-1.5054451207913258,21.40494816435229
1590514936.75985,-1.04,-3.390501775988634,8.730501775988634,0.5333333333333333,0.1288888888888889,-0.65,-0.5062721998579209,-1.5,20.543905399005446
1590514936.76985,-1.055032462630228,-3.4125486939453418,8.790129850520913,0.5333333333333333,0.1288888888888889,-0.65,-0.5469764457194625,-1.3120942171221501,19.654423977049674
1590514936.77985,-1.0777315290155653,-3.425910509671855,8.84546305803113,0.5333333333333333,0.1288888888888889,-0.6703584222030564,-0.5625,-1.3608220563472833,18.11901669473079
1590514936.78985,-1.095106876246117,-3.4351068762461168,8.844465618769416,0.5333333333333333,0.1288888888888889,-0.6844444444444444,-0.4986640469235406,-1.3736640469235406,16.35629665692957
1590514936.79985,-1.114397650716877,-3.4328011746415616,8.762409397132492,0.5333333333333333,0.1288888888888889,-0.6844444444444444,-0.6174706339609605,-1.3125,14.555154171704958
1590514936.80985,-1.0939369896780158,-3.4473753402146565,8.78343835053664,0.5333333333333333,0.1288888888888889,-0.6844444444444444,-0.6875,-1.3125,13.047243298413187
1590514936.81985,-1.1278836501275404,-3.442423269974492,8.843037110178557,0.5333333333333333,0.1288888888888889,-0.6844444444444444,-0.4980817493622974,-1.0757271867028717,12.306745248086893
1590514936.82985,-1.14,-3.457936017125528,8.824127965748945,0.5263582155622948,0.13586400665992746,-0.7302809326541264,-0.717750267586371,-1.0,11.116099036689064
1590514936.83985,-1.1898395768109684,-3.443386807729677,8.87814617294613,0.5255555555555556,0.13666666666666666,-0.7355555555555555,-0.75,-1.0,11.0
1590514936.84985,-1.1709505392465882,-3.4748593529040943,8.7912318334384,0.5255555555555556,0.13666666666666666,-0.7355555555555555,-0.8226236518835296,-0.7821290443494113,10.854752696232941
1590514936.85985,-1.1944090975574082,-3.4936558432060845,8.764409097557408,0.5255555555555556,0.13666666666666666,-0.7355555555555555,-1.2318588196577447,-0.625,10.98790587977183
1590514936.86985,-1.2254550887978142,-3.4681796448087434,8.828185621584698,0.5255555555555556,0.13666666666666666,-0.7355555555555555,-1.1306512551229508,-0.7613772199453552,11.840980404713115
1590514936.87985,-1.2118280972139892,-3.44394269907133,8.805484291641967,0.49661511778524225,0.12455206480932622,-0.7443049902303014,-1.0642906540209445,-0.9507162616083777,12.929655700454456
1590514936.88985,-1.2496925887062298,-3.4524231471765576,8.77,0.4777777777777778,0.11666666666666667,-0.75,-1.071032995219774,-1.077644669853484,13.599401014340678
1590514936.89985,-1.263848755216578,-3.476151244783422,8.737697510433156,0.4777777777777778,0.11666666666666667,-0.75,-1.302835839689164,-1.225945279896388,14.418171679378327
1590514936.90985,-1.2671412680756395,-3.465717463848721,8.772847608453837,0.4777777777777778,0.11666666666666667,-0.75,-1.375,-1.2053670745272524,15.722956062291434
1590514936.9198499,-1.283077162638047,-3.499231487914141,8.835770069233163,0.4777777777777778,0.11666666666666667,-0.75,-1.4567322664877944,-1.228366133243897,16.963956531634047
1590514936.9298499,-1.2720476656872348,-3.5559046686255305,8.79716682990532,0.43588899771465883,0.05582820038451772,-0.7430185366561468,-1.5561010447273915,-1.1377979105452172,17.992111492001307
1590514936.9398499,-1.305574195026928,-3.551106451243268,8.896722585080784,0.4311111111111111,0.048888888888888885,-0.7422222222222222,-2.062762117566174,-1.180584679729575,18.9518548756732
1590514936.9498498,-1.2933598601179135,-3.5583200699410433,8.693678181532874,0.4311111111111111,0.048888888888888885,-0.7422222222222222,-1.5009947544217535,-0.9274978143423973,19.478503497052163
1590514936.9598498,-1.3410986402966627,-3.5770328800988875,8.811812360939431,0.4311111111111111,0.048888888888888885,-0.7422222222222222,-2.4927827564894933,-0.981455500618047,19.349588998763906
1590514936.9698498,-1.3639226433731675,-3.559116034940249,8.777348104820748,0.4311111111111111,0.048888888888888885,-0.7422222222222222,-2.2089091340473748,-0.825966957835409,19.617057823788034
1590514936.9798498,-1.3359801094949626,-3.575514917878778,8.775514917878777,0.4500110502805763,-0.0011959499101939775,-0.7006423560493987,-2.4252486313129675,-0.696843921085879,20.653653341540057
1590514936.9898498,-1.42868388006433,-3.48131611993567,8.78,0.4533333333333333,-0.01,-0.6933333333333334,-2.7055914168006874,-0.7388978542001718,21.63486566720275
1590514936.9998498,-1.45,-3.4854631543346737,8.716342114163316,0.4533333333333333,-0.01,-0.6933333333333334,-2.59085528540829,-0.7897861786479276,22.409292679718913
1590514937.0098498,-1.2824667273156103,-3.629457528892483,8.702845446275145,0.4533333333333333,-0.01,-0.6933333333333334,-2.166837241820816,-0.6221212810404664,22.940378718959533
1590514937.0198498,-1.3090962078774235,-3.651747028951364,8.76475891314591,0.4533333333333333,-0.01,-0.6933333333333334,-2.024472976982008,-0.7526351150899604,23.304216184143936
1590514937.0298498,-1.4373189746300212,-3.5433512817124737,8.690464785940804,0.47051532769556026,-0.01,-0.69762883192389,-1.275134612843552,-0.5931079049947146,23.057026707848838
1590514937.0398498,-1.4855410209014646,-3.528787146310252,8.818394710649795,0.48,-0.01,-0.7,-1.740784515853832,-0.5760255225366131,22.258397909853546
1590514937.0498497,-1.4837493046541814,-3.56,8.807481921008716,0.48,-0.01,-0.7,-1.4217620063044687,-0.7656336918227332,21.890633691822732
1590514937.0598497,-1.465299251870324,-3.552649625935162,8.71,0.48,-0.01,-0.7,-1.1340788653366585,-0.6746804862842892,21.707800810473817
1590514937.0698497,-1.52492360800358,-3.55,8.781415968803937,0.48,-0.01,-0.7,-0.8036501949753883,-0.7467317650067122,20.81345489995525
1590514937.0798497,-1.5292895450436879,-3.573032841217234,8.827677613739079,0.4714693180676911,-0.06630250075323892,-0.6880570452947674,-0.2745894847845737,-0.6205596565230491,19.31932811087677
1590514937.0898497,-1.4776268039705918,-3.5630507215882368,8.77915216476471,0.4688888888888889,-0.08333333333333333,-0.6844444444444444,-0.1875,-0.19173453474267887,16.934306693566356
1590514937.0998497,-1.476367065857608,-3.547265868284784,8.744531736569568,0.4688888888888889,-0.08333333333333333,-0.6844444444444444,-0.3864708080502518,-0.3239708080502518,14.572791919497483
1590514937.1098497,-1.4867343427391604,-3.553468685478321,8.73673434273916,0.4688888888888889,-0.08333333333333333,-0.6844444444444444,-0.2895517894012388,-0.14287250516173433,11.122569683413627
1590514937.1198497,-1.477537728198738,-3.56,8.771155679503154,0.4688888888888889,-0.08333333333333333,-0.6844444444444444,-0.2653891987578868,0.11683379813683024,7.351767242231848
1590514937.1298497,-1.48387445821841,-3.580811687327615,8.824686145546025,0.4735137082950256,-0.0817917268646211,-0.645904282726639,-0.13906927226987545,0.31757304579759343,2.671604582790289
1590514937.1398497,-1.4820155485893416,-3.669844514106583,8.79209329153605,0.4755555555555556,-0.0811111111111111,-0.6288888888888889,-0.0625,0.8241253918495297,-2.1806974921630093
1590514937.1498497,-1.4869811398451656,-3.676037720309669,8.710188601548344,0.4755555555555556,-0.0811111111111111,-0.6288888888888889,-0.018867875967715372,1.1992927441937078,-5.854955938066216
1590514937.1598496,-1.5189630278419195,-3.7351668126443185,8.752407569604799,0.4755555555555556,-0.0811111111111111,-0.6288888888888889,0.2262736550149959,1.3577547310029991,-9.32523655014996
1590514937.1698496,-1.4800738065778494,-3.646531378586021,8.739151296290967,0.4755555555555556,-0.0811111111111111,-0.6288888888888889,0.6245387088884413,1.375,-11.151983282018818
1590514937.1798496,-1.4182965623396613,-3.5406618778860954,8.737696254489482,0.4759340972578531,-0.06994413089333561,-0.6213180548429394,0.81900974858902,1.5453437660338636,-12.536076192919445
1590514937.1898496,-1.0895185862279098,-4.017021850787847,8.930757377905458,0.4777777777777778,-0.015555555555555557,-0.5844444444444444,0.8776878210150605,2.2114890746060762,-14.646943283712023
1590514937.1998496,-1.1292764101338433,-3.9388683078393885,8.760516849904398,0.4777777777777778,-0.015555555555555557,-0.5844444444444444,2.1224157504780115,3.4703483508604207,-14.477455037045889
1590514937.2098496,-1.2904757535116822,-3.8467840756688076,8.931303734029788,0.4777777777777778,-0.015555555555555557,-0.5844444444444444,0.44945118938377915,2.039484365073763,-13.20016587844992
1590514937.2198496,-1.4611112329668523,-3.7456408850382474,8.928461327557372,0.4777777777777778,-0.015555555555555557,-0.5844444444444444,-0.6805547939571738,0.2847226030214131,-10.366985509829188
1590514937.2298496,-1.5293870286116769,-3.579387028611677,8.760306485694162,0.4879310206248586,-0.0054023127084747834,-0.5810600301620842,0.15864441948563704,0.6884577677942548,-7.669302411909158
1590514937.2398496,-1.5146380142495979,-3.589276028499196,8.853914042748793,0.4977777777777778,0.004444444444444445,-0.5777777777777777,0.5049844863249828,0.6730062054700069,-5.152608595725121
1590514937.2498496,-1.5533328459682725,-3.614166788507932,8.847501096571387,0.4977777777777778,0.004444444444444445,-0.5777777777777777,0.5156272845237225,0.2968818535711675,-3.4375182761897802
1590514937.2598495,-1.5437726478747817,-3.6165568380313045,8.770658971812173,0.4977777777777778,0.004444444444444445,-0.5777777777777777,0.560440713086961,0.0625,-1.6650533445216975
1590514937.2698495,-1.5068942344267937,-3.591117793033492,8.773105765573206,0.4977777777777778,0.004444444444444445,-0.5777777777777777,0.7333082761244045,0.20691103483253936,-0.41265034325357297
1590514937.2798495,-1.4549920120289446,-3.5641653353381573,8.81333865864737,0.5087988110279249,0.026486510944738556,-0.5816675542190061,0.921899962409548,0.16663338345393602,0.6824331203207719
1590514937.2898495,-1.4119685270667226,-3.5660104909777592,8.860052454888796,0.5166666666666667,0.042222222222222223,-0.5844444444444444,0.9624344313890054,0.02493443138900546,1.8011802349979018
1590514937.2998495,-1.3713279979992496,-3.58720320120045,8.7997183943979,0.5166666666666667,0.042222222222222223,-0.5844444444444444,1.2242200200075029,-0.10752000750281356,3.289360072527198
1590514937.3098495,-1.3306547649893767,-3.670932528372286,8.733551588329792,0.5166666666666667,0.042222222222222223,-0.5844444444444444,1.3971974270612013,-0.14719742706120123,5.070064323469969
1590514937.3198495,-1.2634593434885217,-3.718077236644497,8.762308946577988,0.5166666666666667,0.042222222222222223,-0.5844444444444444,1.3497586354859472,-0.09975863548594723,6.028861832224845
1590514937.3298495,-1.1798971562134788,-3.729588624853915,8.810617062719128,0.5163924165692768,0.042370774358308445,-0.5845130069687919,1.3118572263342423,-0.06507109466303078,6.627571094663031
1590514937.3398495,-0.9148931168735767,-3.6110383456989643,8.87,0.49,0.05666666666666665,-0.5911111111111111,2.350907680158672,-1.413407680158672,7.102774002791449
1590514937.3498495,-1.063458506320847,-3.589158930820544,8.97934599057704,0.49,0.05666666666666665,-0.5911111111111111,0.8300193590521059,0.6086497644259925,5.564249311937305
1590514937.3598495,-1.3370248810198997,-3.308382363820186,8.862975118980101,0.49,0.05666666666666665,-0.5911111111111111,-0.23366797770818434,-0.24434382166547475,-0.01626112741350827
1590514937.3698494,-1.3026398016606981,-3.228720042501279,8.82872004250128,0.49,0.05666666666666665,-0.5911111111111111,0.23350123962063674,0.02200203651961752,-5.2755081460784705
1590514937.3798494,-1.36191027332705,-3.295955136663525,8.908867860508954,0.5048257199706776,0.0533189234474814,-0.5944588543302964,0.6970075400565504,0.9929241281809613,-9.697226672950048
1590514937.3898494,-1.5318860811466537,-3.356868351312008,8.986868351312008,0.5244444444444445,0.048888888888888885,-0.5988888888888889,0.7108543914000971,1.398354391400097,-13.891234463065954
1590514937.3998494,-1.4898723322839302,-3.274547510131668,8.787668063938218,0.5244444444444445,0.048888888888888885,-0.5988888888888889,1.0551773694188857,1.3628191692901743,-15.349840415354914
1590514937.4098494,-1.4500629464601456,-3.256088125044204,8.692176250088409,0.5244444444444445,0.048888888888888885,-0.5988888888888889,1.3119098769361341,1.5625,-14.699134486172996
1590514937.4198494,-1.437546122787038,-3.381402215550264,8.84447416916865,0.5244444444444445,0.048888888888888885,-0.5988888888888889,0.879381923594575,1.5625,-12.93698105393933
1590514937.4298494,-1.4136566190492121,-3.43870997959252,8.773870061222441,0.5244444444444445,0.053739624338801334,-0.5988888888888889,1.4287703656619049,1.4455626275467532,-9.606815178481817
1590514937.4398494,-1.4732430793224451,-3.463297231728978,8.87962093315427,0.5244444444444445,0.05666666666666665,-0.5988888888888889,0.4824383745613656,0.6270307152449854,-4.094276632153533
1590514937.4498494,-1.4537524248579319,-3.3733397996211516,8.91979368738161,0.5244444444444445,0.05666666666666665,-0.5988888888888889,0.4791262523678024,-0.014305235410913553,1.8643206403907158
1590514937.4598494,-1.4242665672128854,-3.3616008950840306,8.957334327871145,0.5244444444444445,0.05666666666666665,-0.5988888888888889,0.33749067620801376,-0.5100055942751918,7.1967145287988625
1590514937.4698493,-1.42,-3.3775134363852555,8.861332857709076,0.5244444444444445,0.05666666666666665,-0.5988888888888889,0.0546175188267935,-0.7968470075307174,10.49144569956401
1590514937.4798493,-1.4105096703145432,-3.3494903296854566,8.663647532521166,0.5257865112686505,0.05599563325456365,-0.5988888888888889,0.2392155344483447,-0.9019611638791383,12.762012612705623
1590514937.4898493,-1.3006650089456289,-3.45,8.865972647602874,0.54,0.048888888888888885,-0.5988888888888889,0.5334058586287412,-1.15832815295509,15.195890317494012
1590514937.4998493,-1.2555473833097595,-3.4746090119216,8.7146090119216,0.54,0.048888888888888885,-0.5988888888888889,0.5693422913719943,-0.971193675489998,14.270526874115983
1590514937.5098493,-1.22,-3.4314635993011064,8.730209085614444,0.54,0.048888888888888885,-0.5988888888888889,0.24738642981945252,-0.6289203552708212,10.459174796156086
1590514937.5198493,-1.2745198749441715,-3.345130943197044,8.84886515895895,0.54,0.048888888888888885,-0.5988888888888889,0.22011399163587642,-0.18968238661740225,4.932165841081652
1590514937.5298493,-1.33,-3.2906294218612637,8.98,0.54,0.018665010721777994,-0.5913329193471112,0.19671788001842005,0.19671788001842005,0.08081932641185574
1590514937.5398493,-1.3564196951934349,-3.2275484843409816,8.885643945737733,0.54,-0.03555555555555556,-0.5777777777777777,0.4375,0.7205681627868028,-5.019176017417518
1590514937.5498493,-1.3669967970859762,-3.2363329774539973,8.759336180368022,0.54,-0.03555555555555556,-0.5777777777777777,0.48333778182503295,1.3479322363876154,-9.220957891100923
1590514937.5598493,-1.312250621476839,-3.232813276846049,8.802685480200273,0.54,-0.03555555555555556,-0.5777777777777777,0.551950211827317,1.617966807884878,-11.560580862014636
1590514937.5698493,-1.305129866699537,-3.311673035270915,8.709033615665005,0.54,-0.03555555555555556,-0.5777777777777777,0.6719347056648295,1.6979564704432197,-14.070402058497244
1590514937.5798492,-1.179416379466715,-3.400129693451841,8.78889760565935,0.5402665920954511,-0.037385674264868905,-0.5769780014914243,1.500810584074007,2.250810584074007,-15.325064053147107
1590514937.5898492,-1.101039435740132,-3.445758683393641,8.7819117241886,0.5811111111111111,-0.31777777777777777,-0.4544444444444444,1.1420246863692303,2.2830047021655675,-18.19295180280293
1590514937.5998492,-1.1381221937139192,-3.4024093970493907,8.945226106478511,0.5811111111111111,-0.31777777777777777,-0.4544444444444444,0.4446409958306607,2.030613574406671,-20.605345974983965
1590514937.6098492,-1.241050143088217,-3.2203500476960727,8.78683775040438,0.5811111111111111,-0.31777777777777777,-0.4544444444444444,0.591015252374435,2.035078646675791,-23.67758103147941
1590514937.6198492,-1.2922604990354243,-3.216781497106273,8.859041996141698,0.5811111111111111,-0.31777777777777777,-0.4544444444444444,0.2923843569142058,2.298371881028598,-25.552206334400374
1590514937.6298492,-1.2503658203658203,-3.1592560742560742,8.830743925743926,0.7049161282494616,-0.3451070767737434,-0.14855385688719014,0.3588417963417963,2.449085449085449,-26.995427245427244
1590514937.6398492,-1.18,-3.094152816749406,8.883961795812649,0.9988888888888888,-0.41,0.5777777777777777,0.6910816425642132,2.7735673429743146,-28.295940805093892
1590514937.6498492,-1.1280790662477929,-3.1161519411130727,8.832310073608658,0.9988888888888888,-0.41,0.5777777777777777,0.7379554679080007,2.963943796005412,-29.262005835951296
1590514937.6598492,-1.0679143065316004,-3.1886499635696994,8.773435729898699,0.9988888888888888,-0.41,0.5777777777777777,1.1529911039556255,3.0410266881331234,-29.98312454462124
1590514937.6698492,-1.0279039233858511,-3.22441921532283,8.839545875810936,0.9988888888888888,-0.41,0.5777777777777777,1.0145196169292554,3.2354803830707444,-31.065502394192155
1590514937.6798491,-0.9837205818091017,-3.254419127286347,8.945426472730299,0.9789918222111242,-0.2116322746368317,0.2931894301442962,1.0445772728218574,3.4089154545643714,-32.71755545498054
1590514937.6898491,-0.9101197367947934,-3.3125299341986985,8.92513969292726,0.9255555555555556,0.3211111111111111,-0.4711111111111111,1.3910615403976843,3.515562637086045,-35.83963404767898
1590514937.6998491,-0.7997407095610343,-3.32545375826819,8.809870354780518,0.9255555555555556,0.3211111111111111,-0.4711111111111111,1.0625,3.6258102826217677,-41.374945880938064
1590514937.709849,-0.78,-3.3557540626238604,8.79575406262386,0.9255555555555556,0.3211111111111111,-0.4711111111111111,1.3544081946095918,3.899796868806976,-46.111802665477605
1590514937.719849,-0.7867841625788368,-3.354522775052558,8.826182200420462,0.9255555555555556,0.3211111111111111,-0.4711111111111111,1.594529607568325,4.399505080588647,-50.78240189208129
1590514937.729849,-0.8088284863349685,-3.369218990889979,8.94375192711983,0.9255555555555556,0.3211111111111111,-0.4711111111111111,1.0893471881569727,5.088390197967764,-55.55867203924317
1590514937.739849,-0.7869500953041068,-3.2908502859123203,8.81404799861376,0.6488888888888888,0.1955555555555556,-0.6444444444444445,1.7118761913013343,5.464995234794663,-63.922133295789294
1590514937.749849,-0.7902585001398378,-3.28831875024971,8.943146749770268,0.6488888888888888,0.1955555555555556,-0.6444444444444445,1.6753765631867035,5.8582968756242755,-68.22305625474449
1590514937.759849,-0.9232905082841899,-3.536452541420949,8.808972198820557,0.6488888888888888,0.1955555555555556,-0.6444444444444445,1.9423178180286436,6.5197627071047455,-73.85894060657118
1590514937.769849,-0.922268240470952,-3.5567455550930607,8.943491110186121,0.6488888888888888,0.1955555555555556,-0.6444444444444445,1.3738906315038353,6.701306713444729,-76.63732755544984
1590514937.779849,-0.8521064379185085,-3.465787124162983,8.761574248325966,0.6278393900049114,0.191754951590393,-0.6479526942584407,2.595436342947175,6.911169526018644,-79.27623747209944
1590514937.789849,-0.799675077013349,-3.51606498459733,8.846967507701335,0.5688888888888889,0.1811111111111111,-0.6577777777777778,1.8125,7.2443592305999704,-81.12906153733314
1590514937.799849,-0.7196075189672744,-3.5455887215490884,8.756860151738195,0.5688888888888889,0.1811111111111111,-0.6577777777777778,2.0723120258181407,7.50490601290907,-82.42219454195448
1590514937.809849,-0.675227267281658,-3.56,8.759480531927638,0.5688888888888889,0.1811111111111111,-0.6577777777777778,2.064123337726129,7.500811668863064,-83.30925332454774
1590514937.819849,-0.6038951683972567,-3.6161630713820454,8.819941760220697,0.5688888888888889,0.1811111111111111,-0.6577777777777778,2.088300796965401,7.375,-84.31395599448254
1590514937.829849,-0.5412310217480509,-3.6970770072493506,8.819229927506496,0.561094241553823,0.1811111111111111,-0.6639485402513716,2.299044248392833,7.612493160990288,-85.51921761728902
1590514937.839849,-0.5057754767910084,-3.686443869197752,8.833101907164034,0.5422222222222223,0.1811111111111111,-0.6788888888888889,2.12366144519669,8.054145094915704,-87.24732289039338
1590514937.849849,-0.4292928001947538,-3.660497230844136,8.718298338506482,0.5422222222222223,0.1811111111111111,-0.6788888888888889,2.4193369241068714,7.8125,-89.03321845901041
1590514937.859849,-0.31413894745460874,-3.6568957894090435,8.713447894704522,0.5422222222222223,0.1811111111111111,-0.6788888888888889,2.1961151311076086,7.896549341903261,-91.1271249974413
1590514937.869849,-0.2531576700076408,-3.693368465998472,8.76705312598319,0.5422222222222223,0.1811111111111111,-0.6788888888888889,2.395394175019102,8.021052912490449,-93.15329902467526
1590514937.879849,-0.20164723247232472,-3.68426905640485,8.832134528202426,0.5285304750190359,0.18985052421952792,-0.6765583787266444,2.378045598313126,8.111659198734845,-95.29988798102266
1590514937.889849,-0.14720055570096843,-3.64,8.81,0.49,0.21444444444444444,-0.67,2.527506946262106,8.328734370910261,-97.82990969859263
1590514937.899849,-0.13031087039684297,-3.64,8.81,0.49,0.21444444444444444,-0.67,2.3163858799605372,8.80375677008879,-100.57448356051302
1590514937.909849,-0.1217518502731817,-3.543813887704886,8.730930561475567,0.49,0.21444444444444444,-0.67,2.413663201844461,8.775775467896308,-103.49680561475569
1590514937.919849,-0.08867862969004894,-3.521982055464927,8.847687601957585,0.49,0.21444444444444444,-0.67,2.583146411092985,8.883258564437194,-104.72879282218597
1590514937.929849,-3.4098649457924624,-8.382991017036655,6.860475167785234,0.48257077955601446,0.2348748006654047,-0.6641185338151782,-21.7119966442953,31.01217991739804,-215.0251548786784
1590514937.939849,-7.804546132802785,-15.2171826482396,2.0244676164422497,0.4633333333333333,0.2877777777777778,-0.6488888888888888,-118.46595329875298,92.32538769673499,-511.460353234803
1590514937.949849,2.3457418366636498,0.704667548562278,1.0297702429854487,0.4633333333333333,0.2877777777777778,-0.6488888888888888,-191.97238129220915,29.843055942351867,-335.16890621736405
1590514937.9598489,-0.4419692849840116,-0.23309020904483263,-0.3459846424920058,0.4633333333333333,0.2877777777777778,-0.6488888888888888,-169.3775192512671,-41.13097387483413,-93.09812843966849
1590514937.9698489,0.2370938578056228,-0.27284408580831915,0.9325597763590945,0.4633333333333333,0.2877777777777778,-0.6488888888888888,-174.6877044589397,-25.182902771719736,-78.95286415995876
1590514937.9798489,1.4511617870057156,-0.6467047707920215,4.38666005676737,0.4383619114273494,0.3287802359690847,-0.6291583826915682,-169.3741689023679,-15.46956530191687,-70.69218282203818
1590514937.9898489,2.6,-0.56,6.93,0.37333333333333335,0.4355555555555555,-0.5777777777777777,-147.5625,2.1875,-67.9375
1590514937.9998488,1.8218688379849906,-0.6307391965468191,6.165132437337519,0.37333333333333335,0.4355555555555555,-0.5777777777777777,-38.33123283219699,-4.610094668170893,-69.42965492715946
1590514938.0098488,0.9439698575297304,-1.1358794301189215,6.7685887201224535,0.37333333333333335,0.4355555555555555,-0.5777777777777777,128.93929118097256,6.871901860355585,-70.35190892499706
1590514938.0198488,0.9234615679069056,-1.6650187566988208,7.980197136732507,0.37333333333333335,0.4355555555555555,-0.5777777777777777,193.3742320280202,25.468927040269485,-69.20983817562394
1590514938.0298488,2.236244657672002,-0.8421011061761502,8.556451018184866,0.366709638071827,0.45230960827583633,-0.5727125990483906,256.8974849157798,14.782042183440879,-68.47195932498114
1590514938.0398488,8.62058056099152,2.90247010219613,15.287062404870625,0.33555555555555555,0.5311111111111111,-0.5488888888888889,307.50188899760815,8.731843879104154,-63.44508317025441
1590514938.0498488,-0.7599410939691444,-0.024642356241234176,-1.4093380084151472,0.33555555555555555,0.5311111111111111,-0.5488888888888889,161.06283309957925,-31.81523492286115,-36.10338359046283
1590514938.0598488,0.11239113898505053,0.4055878106710961,-0.15540276635049755,0.33555555555555555,0.5311111111111111,-0.5488888888888889,20.707049381374482,-28.498095417358773,-12.279549653041899
1590514938.0698488,0.2881927131036838,0.3534984553766862,0.04644348541534066,0.33555555555555555,0.5311111111111111,-0.5488888888888889,-5.256238648182929,-20.35913365260723,-1.007087608861017
1590514938.0798488,1.5063431350873313,-2.7426177315940747,12.06037143488835,0.33225784263148844,0.5133859041442503,-0.5647591323359619,-48.01731428255582,46.00234910457661,26.799096285651117
1590514938.0898488,-0.21693953128454568,-0.045641720097280736,0.10558091974353268,0.3185196649224949,0.43954319895841004,-0.6308741125604933,-27.780334540128234,97.82640462635419,39.50154419080256
1590514938.0998487,0.9191566796559076,-3.632583633556356,13.62801999852952,0.31777777777777777,0.4355555555555555,-0.6344444444444445,-0.635017645761341,-31.43966895816484,26.996934968017058
1590514938.1098487,0.580889750576399,-1.9547118004611193,7.812952211276462,0.31777777777777777,0.4355555555555555,-0.6344444444444445,4.770855166631733,-43.852939635296586,30.434847254244392
1590514938.1198487,0.46479831724820586,-2.463273942093541,8.167938629052216,0.31777777777777777,0.4355555555555555,-0.6344444444444445,2.898818361791635,6.3036531799059645,46.36683370452858
1590514938.1298487,0.7964257300863491,-3.504097215484622,12.147628795963907,0.3210707933119886,0.4358549206041201,-0.6329476192016213,-16.45887503638304,7.007161395168332,53.42810711167168
1590514938.1398487,0.3506143033773671,-1.9972017960564847,6.528054922886706,0.33,0.43666666666666665,-0.6288888888888889,-5.503615702479339,-6.267273215331555,56.84748568360773
1590514938.1498487,0.3274307892321811,-2.5077076323034566,7.073636050780055,0.33,0.43666666666666665,-0.6288888888888889,8.203557567298867,-2.463432529060875,60.78248437022025
1590514938.1598487,0.3905647954946012,-2.526891396390009,7.859280432712761,0.33,0.43666666666666665,-0.6288888888888889,6.162562293620728,-8.270368241395378,62.114637987966695
1590514938.1698487,0.5689986427081012,-3.801418876486437,11.844303020480927,0.33,0.43666666666666665,-0.6288888888888889,-9.237978090877782,-2.4818892692907646,66.36306292162146
1590514938.1798487,-0.19611445510499637,-6.371353412382331,6.436438721940623,0.336133312213372,0.43488602763697803,-0.6247340644862821,-1.0196769211622012,-6.110485212255612,69.12322366039102
1590514938.1898487,-2.073997168475696,-22.096784646845997,6.285622148812333,0.3644444444444445,0.4266666666666667,-0.6055555555555555,-4.461253342771748,-5.351276152273085,81.89047506685543
1590514938.1998487,-0.06363106796116508,-4.734763754045307,8.643449838187703,0.3644444444444445,0.4266666666666667,-0.6055555555555555,-13.4542071197411,-16.159870550161813,177.92760922330098
1590514938.2098486,2.188931403379425,-6.025552429244218,13.00882051127729,0.3644444444444445,0.4266666666666667,-0.6055555555555555,0.7865317629888207,-23.693081280751116,266.5775003385444
1590514938.2198486,7.174557560072824,-15.555040399632867,10.598049382344533,0.3644444444444445,0.4266666666666667,-0.6055555555555555,22.28310023923805,-15.370556604625268,271.1529167481681
1590514938.2298486,-1.6433982779209353,1.9242040098045377,7.899256174973289,0.3709234003030748,0.42111327593069786,-0.6055555555555555,-11.144999921438,-27.118581484507573,70.55441204198354
1590514938.2398486,-1.2190113242431246,0.9678012479778139,8.62056990986827,0.3955555555555556,0.4,-0.6055555555555555,7.528085278483938,20.825716431707882,-52.90331060781142
1590514938.2498486,-1.1539918880648954,-0.9877778577771379,6.593814289485684,0.3955555555555556,0.4,-0.6055555555555555,1.7465650274797788,20.08030185758514,-51.19239896080831
1590514938.2598486,-0.4935473709193691,-2.743707899108896,9.755971044512052,0.3955555555555556,0.4,-0.6055555555555555,-9.546545623233435,-4.592795919908516,-48.085871253802836
1590514938.2698486,-0.4792062788368389,-2.745497758731097,9.37702691164639,0.3955555555555556,0.4,-0.6055555555555555,-2.925546565850615,-1.72727020836412,-41.51163120043348
1590514938.2798486,-0.3276955158202387,-2.5802132899857146,8.288904159072624,0.3955555555555556,0.4,-0.6055555555555555,4.779120076186723,3.6961264223437267,-35.05520664006699
1590514938.2898486,0.6618705757863245,-6.8652833321170545,8.548040939940158,0.4177777777777778,0.3655555555555556,-0.6055555555555555,-5.919368705757863,0.9632676238779829,-9.160876039918266
1590514938.2998486,6.163771072028024,-8.005454644968255,8.226650368532438,0.4177777777777778,0.3655555555555556,-0.6055555555555555,-8.07153771072028,-5.062805590016785,48.182471447858134
1590514938.3098485,-1.0360982132907397,-1.0745559228854797,8.711799338806136,0.4177777777777778,0.3655555555555556,-0.6055555555555555,8.534025481965752,-4.554179358121912,34.67517458489655
1590514938.3198485,-0.7400776345603803,-1.6198569889677206,7.730257419858104,0.4177777777777778,0.3655555555555556,-0.6055555555555555,5.125893818951748,6.059716392407413,-15.424360861409298
1590514938.3298485,-0.1298864660299153,-7.7116945996275605,8.893371177990028,0.4177777777777778,0.36761571988279507,-0.6079902952150203,-4.540720550249294,0.5084061692797501,-15.029967862077251
1590514938.3398485,-0.05941492048981163,-3.5770209541222604,8.700718358313086,0.4177777777777778,0.37777777777777777,-0.62,-1.7448501816344697,-0.11768650612264536,-2.503494358505545
1590514938.3498485,0.006695239832208644,-4.199493343060368,8.382755243479847,0.4177777777777778,0.37777777777777777,-0.62,1.9449047054532191,0.10804760167791355,2.0741428050337407
1590514938.3598485,0.07626808834729627,-4.605734958111196,8.622261995430312,0.4177777777777778,0.37777777777777777,-0.62,-0.3442022086824067,-0.5916793602437167,-0.125
1590514938.3698485,0.0016117703810902065,-4.471282392667631,8.816932368547999,0.4177777777777778,0.37777777777777777,-0.62,1.1290074770863483,0.0262132175590931,-0.0987867824409069
1590514938.3798485,-0.028162961122841883,-4.25,8.734898770339088,0.4177777777777778,0.377403566154653,-0.6197958845692046,0.41836417836293627,0.11925925350888089,-0.0019135821637063716
1590514938.3898485,0.02778678883179595,-4.245573577663592,8.8346697207949,0.4177777777777778,0.3655555555555556,-0.6133333333333333,-0.367323407416579,-0.021002290596174082,-0.048667430198724694
1590514938.3998485,0.021154194202978035,-4.256546466668495,8.638845805797022,0.4177777777777778,0.3655555555555556,-0.6133333333333333,-0.870153152164971,0.1322137137686127,-0.021641141305838156
1590514938.4098485,0.02762924703808871,-4.445775482228532,8.634741505923824,0.4177777777777778,0.3655555555555556,-0.6133333333333333,0.2731720601194556,0.17268279398805444,-0.17268279398805444
1590514938.4198484,0.016112624231164663,-4.347520427120723,8.694704821341606,0.4177777777777778,0.3655555555555556,-0.6133333333333333,0.7621480492776105,0.11285195072238957,-0.0885558521671687
1590514938.4298484,0.0009819447701159799,-4.143256254396565,8.868707635143666,0.4177777777777778,0.3655555555555556,-0.6133333333333333,0.8094314225933875,0.06556857740661244,0.05329426778016269
1590514938.4398484,0.01289385701259667,-4.368553071493702,8.77118992941812,0.4033333333333333,0.3655555555555556,-0.6055555555555555,-0.35771651582182296,-0.1694133936712708,-0.1159566968356354
1590514938.4498484,0.027058525547938264,-4.361470737226031,8.679119583938402,0.4033333333333333,0.3655555555555556,-0.6055555555555555,-0.5790394616865354,-0.08088421532538584,-0.07169210766269292
1590514938.4598484,0.03,-4.450729741778403,8.594361475943899,0.4033333333333333,0.3655555555555556,-0.6055555555555555,-0.6181940348410548,-0.10454674050958472,-0.09432011076437707
1590514938.4698484,0.03,-4.2781307225403795,8.745385617777167,0.4033333333333333,0.3655555555555556,-0.6055555555555555,0.2358115290970817,-0.014651417989780868,0.0405228730153287
1590514938.4798484,0.0019413363171355523,-4.399646206308611,8.835470215260017,0.4033333333333333,0.3655555555555556,-0.6055555555555555,0.7257332960358056,0.11691109867860187,0.004044450660699063
1590514938.4898484,0.007537099912257278,-4.32709190096517,8.817388700263228,0.4083580666081715,0.3714177443762001,-0.6114177443762001,0.5144656277419601,0.077893125548392,-0.04710687445160799
1590514938.4998484,0.03,-4.31,8.790216388875546,0.41,0.37333333333333335,-0.6133333333333333,-0.6299459027811134,0.057554097218886595,-0.0625
1590514938.5098484,0.029195602627698082,-4.318043973723019,8.570457165839926,0.41,0.37333333333333335,-0.6133333333333333,-0.6321976806542432,0.005027483576886983,-0.052445032846226036
1590514938.5198483,0.02,-4.409336598490741,8.691160952641203,0.41,0.37333333333333335,-0.6133333333333333,0.013475343156832655,0.05939030542534631,0.0635365648582179
1590514938.5298483,0.02,-4.374070376053644,8.752876841906122,0.41,0.37333333333333335,-0.6133333333333333,0.7298204864103588,-0.10592011224854436,0.11864003741618145
1590514938.5398483,0.0031769252001104054,-4.364235900266814,8.806233324132855,0.41,0.3655555555555556,-0.6433333333333333,0.3779326524979299,0.042644217499309967,-0.026474376667586716
1590514938.5498483,0.02918281000532198,-4.3926452900478985,8.684279670037254,0.41,0.3655555555555556,-0.6433333333333333,-0.18628924960085153,-0.11989256253326237,-0.22446281266631188
1590514938.5598483,0.018300450378363548,-4.3371927939461825,8.621699549621637,0.41,0.3655555555555556,-0.6433333333333333,-0.7687781486477219,-0.05187781486477218,0.08374437027045564
1590514938.5698483,0.01,-4.4503983159436205,8.650633351638294,0.41,0.3655555555555556,-0.6433333333333333,-0.19841662090426504,0.012895844773933737,0.17460415522606626
1590514938.5798483,0.01,-4.304522972725609,8.80418634449936,0.41,0.3655555555555556,-0.6433333333333333,0.1854658612483983,0.10886646531209958,0.07863353468790042
1590514938.5898483,0.03,-4.3732010173201985,8.817086150280085,0.3955555555555556,0.3588888888888889,-0.6133333333333333,0.5642947975017707,0.10678843925053119,-0.01214104049964587
1590514938.5998483,0.03,-4.325940538278282,8.79683165926212,0.3955555555555556,0.3588888888888889,-0.6133333333333333,0.14232623462751914,-0.01980212961174424,-0.09653475307449617
1590514938.6098483,0.030386210966655672,-4.349227578066689,8.66,0.3955555555555556,0.3588888888888889,-0.6133333333333333,-0.4375,-0.0024138185415979586,-0.0625
1590514938.6198483,0.037666591449549564,-4.334666817100901,8.66,0.3955555555555556,0.3588888888888889,-0.6133333333333333,-0.4375,-0.04791619655968478,-0.0625
1590514938.6298482,0.02396308696508455,-4.362073826069831,8.740184565174577,0.3955555555555556,0.3588888888888889,-0.6133333333333333,0.21399959204344043,0.03773070646822159,0.03773070646822159
1590514938.6398482,0.0049354685544092895,-4.362467734277205,8.797661328613977,0.40643549493292663,0.3639103993707525,-0.6133333333333333,0.6574599646048258,0.0625,0.015423339232529025
1590514938.6498482,0.00954908632158422,-4.380450913678415,8.753236294823763,0.41,0.3655555555555556,-0.6133333333333333,0.5911814741188164,0.11936357901980274,-0.11372715803960548
1590514938.6598482,0.0015318449422738745,-4.388468155057726,8.632977674134107,0.41,0.3655555555555556,-0.6133333333333333,-0.010111629329459415,0.01914806177842343,0.08670387644315314
1590514938.6698482,0.01955644609520086,-4.372217769523996,8.6404435539048,0.41,0.3655555555555556,-0.6133333333333333,-0.6653223047600431,0.11945557619001075,-0.125
1590514938.6798482,0.011357247580881635,-4.413213762095592,8.64864275241912,0.41,0.3655555555555556,-0.6133333333333333,-0.2553623790440817,0.016965594761020428,-0.125
1590514938.6898482,0.02,-4.316983012510897,8.81,0.4222222222222222,0.3855555555555555,-0.62,0.36876516740098486,-0.00623483259901515,0.05626516740098485
1590514938.6998482,0.019111713769150253,-4.374670282614901,8.797563992768104,0.4222222222222222,0.3855555555555555,-0.62,0.2847410552859454,-0.07360357788562184,0.005551788942810924
1590514938.7098482,0.011693606530688188,-4.327621229388097,8.669153196734657,0.4222222222222222,0.3855555555555555,-0.62,-0.0370476428588041,-0.17162243877479824,0.041329918366397655
1590514938.7198482,0.029646864506265524,-4.407881187037593,8.661412541974938,0.4222222222222222,0.3855555555555555,-0.62,-0.413221934805755,-0.0022070968358404545,-0.17867161265663817
1590514938.7298481,0.023921482977968277,-4.37352889786781,8.684314068088126,0.4222222222222222,0.3855555555555555,-0.62,-0.019601954735319005,-0.037990731387698276,-0.035537074449206896
1590514938.7398481,0.014555903435774904,-4.366332289692675,8.7435527725138,0.4222222222222222,0.38132125822782487,-0.6163706022905165,0.5222048282112548,-0.02847439647359315,0.02847439647359315
1590514938.7498481,0.010521507153312244,-4.332607535766561,8.812177392700317,0.4222222222222222,0.37777777777777777,-0.6133333333333333,0.27338696350158176,-0.05924058029179848,-0.05272174087539544
1590514938.759848,0.02,-4.379425175026834,8.669712587513418,0.4222222222222222,0.37777777777777777,-0.6133333333333333,-0.4375,0.0071853121645652765,0.11961101587657605
1590514938.769848,0.02,-4.365985997853218,8.662992998926608,0.4222222222222222,0.37777777777777777,-0.6133333333333333,-0.4375,0.17517502683477787,-0.006381270126083388
1590514938.779848,0.027029828643960228,-4.36702982864396,8.67405965728792,0.4222222222222222,0.37777777777777777,-0.6133333333333333,-0.08600856780198857,0.16212714195049716,-0.01856357097524857
1590514938.789848,0.03,-4.323164649263527,8.783037771620242,0.4222222222222222,0.3663291364866398,-0.5998031208983521,0.41376513052355257,-0.1091767536823684,0.0
1590514938.799848,0.020314623158407402,-4.310314623158407,8.780314623158407,0.4222222222222222,0.3655555555555556,-0.5988888888888889,0.31643278948009257,-0.003932789480092541,0.06053360525995373
1590514938.809848,0.012496769906604158,-4.325006460186792,8.70496769906604,0.4222222222222222,0.3655555555555556,-0.5988888888888889,-0.1095566927535162,0.0,-0.07818556425117207
1590514938.819848,0.01,-4.339548387096774,8.699096774193547,0.4222222222222222,0.3655555555555556,-0.5988888888888889,-0.42903225806451617,-0.05967741935483871,-0.125
1590514938.829848,0.017036099894282595,-4.39628879915426,8.7,0.4222222222222222,0.3655555555555556,-0.5988888888888889,-0.34954875132146757,0.025451248678532434,0.0069268730177986515
1590514938.839848,0.02,-4.3479710039869515,8.754021747009785,0.4052153759413636,0.3655555555555556,-0.6178965406145543,0.3627718376223269,-0.05004530627038782,0.11877265313519392
1590514938.849848,0.0008916949028593725,-4.378216610194281,8.78866245764571,0.4033333333333333,0.3655555555555556,-0.62,0.556926906857129,-0.0625,-0.054140360285693384
1590514938.859848,0.029859315683696,-4.3202813686326085,8.730281368632609,0.4033333333333333,0.3655555555555556,-0.62,0.12705164627943327,0.061913815348733345,-0.2491207230231
1590514938.869848,0.01,-4.389852996607614,8.710147003392386,0.4033333333333333,0.3655555555555556,-0.62,-0.25,0.06188748586505843,-0.0006125141349415756
1590514938.879848,0.01,-4.366138522427441,8.73386147757256,0.4033333333333333,0.3655555555555556,-0.62,-0.25,-0.036922823218997355,-0.09942282321899736
1590514938.889848,0.01655131717597471,-4.379653951527924,8.707243414120127,0.4077008781173165,0.3655555555555556,-0.6156324552160168,0.036620126448893564,0.019391464699683877,-0.08405426765015805
1590514938.899848,0.02,-4.355658089057955,8.712894607294697,0.41,0.3655555555555556,-0.6133333333333333,0.330591295591855,-0.009045647795927508,-0.0625
1590514938.909848,0.011227908406331644,-4.338772091593668,8.712455816812664,0.41,0.3655555555555556,-0.6133333333333333,0.2181977101582911,-0.11732557246042723,0.047151144920854454
1590514938.919848,0.0008354029187066861,-4.34,8.728329194162587,0.41,0.3655555555555556,-0.6133333333333333,-0.2707298540646657,0.10411492703233285,-0.05205746351616643
1590514938.929848,0.022529767141767847,-4.347509922380589,8.722490077619412,0.41,0.3655555555555556,-0.6133333333333333,-0.359437014878683,0.125,-0.10943701487868301
1590514938.939848,0.009977815913942489,-4.3999112636557705,8.700155288602401,0.41,0.3655555555555556,-0.6055555555555555,-0.12389079569712444,-0.00013865053785944498,-0.12458404838642166
1590514938.949848,0.0011998242015821853,-4.364799296806329,8.761601230588925,0.41,0.3655555555555556,-0.6055555555555555,0.3150087899208907,-0.05500109874011134,0.040003296220333995
1590514938.959848,0.012964322156782011,-4.366482161078391,8.718142711372872,0.41,0.3655555555555556,-0.6055555555555555,0.375,-0.10301350673994379,0.02198649326005621
1590514938.969848,0.011295587661069894,-4.3351823506442795,8.75963529871144,0.41,0.3655555555555556,-0.6055555555555555,0.04858453729012102,-0.01619484576337367,-0.054402577118313165
1590514938.979848,0.022038148073117138,-4.354076296146235,8.751942777890324,0.41,0.3655555555555556,-0.6055555555555555,-0.1880960636424553,0.03761921272849106,-0.13773842545698212
1590514938.989848,0.024271189993711133,-4.375728810006289,8.74572881000629,0.41700187889657525,0.3655555555555556,-0.618922778903563,-0.13347468730347284,0.0625,-0.08008481238208372
1590514938.999848,0.02,-4.373983357965703,8.75,0.4222222222222222,0.3655555555555556,-0.6288888888888889,0.15041605085740894,0.10010401271435224,-0.037604012714352236
1590514939.0098479,0.002377334599556819,-4.352377334599557,8.705943336498892,0.4222222222222222,0.3655555555555556,-0.6288888888888889,0.4152124881291548,-0.040212488129154816,-0.17264165875276988
1590514939.0198479,0.017825947628639444,-4.332174052371361,8.735651895257279,0.4222222222222222,0.3655555555555556,-0.6288888888888889,0.1589695683025087,0.10461825901849478,-0.1875
1590514939.0298479,0.004728392527201806,-4.337635803736399,8.755271607472798,0.4222222222222222,0.3655555555555556,-0.6288888888888889,0.0295524532950113,0.07727622664750565,-0.13977622664750566
1590514939.0398479,0.02602897145627192,-4.383381619093786,8.742647352362486,0.4058336105645695,0.359771339676384,-0.615392385170822,-0.27113511933616585,0.008272976132766827,-0.07077297613276683
1590514939.0498478,0.0032026628990157804,-4.39,8.704270217198687,0.4033333333333333,0.3588888888888889,-0.6133333333333333,-0.03336107186474774,0.0,-0.006672214372949542
1590514939.0598478,0.024400060753341436,-4.365599939246659,8.667466585662211,0.4033333333333333,0.3588888888888889,-0.6133333333333333,0.25416729951397327,0.0,0.0
1590514939.0698478,0.013049037801560873,-4.343049037801561,8.719328367694537,0.4033333333333333,0.3588888888888889,-0.6133333333333333,0.20655648625975545,0.052971756870122275,0.10594351374024455
1590514939.0798478,0.017159844636988348,-4.361479533910965,8.758639378547953,0.4033333333333333,0.3588888888888889,-0.6133333333333333,-0.08099417388706304,0.0625,-0.009247086943531518
1590514939.0898478,0.02,-4.37901817707994,8.74294546876018,0.3923111169022955,0.37191514467102454,-0.606319195604491,-0.13113639325037463,-0.16295442699850152,-0.006136393250374621
1590514939.0998478,0.028037867525602906,-4.371962132474398,8.748037867525603,0.3911111111111111,0.37333333333333335,-0.6055555555555555,-0.02452665592996367,-0.28797334407003633,0.0
1590514939.1098478,0.016510873632999294,-4.3632554368165,8.675809804981496,0.3911111111111111,0.37333333333333335,-0.6055555555555555,0.12646055969063164,-0.22819296020624558,-0.08430703979375441
1590514939.1198478,0.01863643831115492,-4.334090685066536,8.72636438311155,0.3911111111111111,0.37333333333333335,-0.6055555555555555,0.24147773944471826,-0.02556678166584525,-0.125
1590514939.1298478,0.012925176435350717,-4.337074823564649,8.775374117823246,0.3911111111111111,0.37333333333333335,-0.6055555555555555,0.11734705816282595,-0.04421764727905801,-0.125
1590514939.1398478,0.026528702424318547,-4.364793053636478,8.78173564878784,0.41314938101020254,0.37333333333333335,-0.6174929517508967,-0.14410878030398191,0.04080439015199096,-0.07334780492400453
1590514939.1498477,0.01852641860172028,-4.38721037209742,8.728368883707741,0.4177777777777778,0.37333333333333335,-0.62,-0.1875,0.09835494186962412,-0.0625
1590514939.1598477,0.020746344105434193,-4.383880483841849,8.657760967683698,0.4177777777777778,0.37333333333333335,-0.62,-0.15391767467051815,0.05783534934103629,-0.09608232532948185
1590514939.1698477,0.03,-4.353996813536973,8.702014339083618,0.4177777777777778,0.37333333333333335,-0.62,0.22506970387869463,0.0,-0.125
1590514939.1798477,0.03673086630683804,-4.3567308663068385,8.733461732613677,0.4177777777777778,0.37333333333333335,-0.62,0.3125,-0.04206791441773774,-0.040864171164524524
1590514939.1898477,0.03440719123150954,-4.371185617536981,8.767964043842452,0.40969927622329155,0.36525483177884716,-0.6081929592665202,0.10276967118160754,-0.0625,-0.10486516440919623
1590514939.1998477,0.03,-4.38785342169614,8.742879469823157,0.4033333333333333,0.3588888888888889,-0.5988888888888889,-0.1606677712017578,-0.013416114399121097,0.008835542403515612
1590514939.2098477,0.017984330007366236,-4.377984330007366,8.669921650036832,0.4033333333333333,0.3588888888888889,-0.5988888888888889,-0.03730412509207795,0.0,-0.012597937453961025
1590514939.2198477,0.016677366983986423,-4.363322633016014,8.716805770791824,0.4033333333333333,0.3588888888888889,-0.5988888888888889,0.14596708729983027,0.0,-0.10423354364991513
1590514939.2298477,0.007291457674203257,-4.347291457674204,8.772708542325796,0.4033333333333333,0.3588888888888889,-0.5988888888888889,0.14778580523188517,0.11914258430434448,-0.08528580523188517
1590514939.2398477,0.02280102898980904,-4.355200685993206,8.772399657003396,0.4176895367713612,0.37915647021316357,-0.6200009527683418,-0.017506431186306515,0.044993568813693485,-0.11000214372876885
1590514939.2498477,0.013307894166646607,-4.36,8.786692105833353,0.4222222222222222,0.3855555555555555,-0.6266666666666667,-0.21898849218768807,0.15648849218768807,-0.02067433854154127
1590514939.2598476,0.015636842866556307,-4.3712736857331125,8.699810514135098,0.4222222222222222,0.3855555555555555,-0.6266666666666667,-0.0738486604201154,0.08180919625206923,0.03523026791597692
1590514939.2698476,0.026065015987537916,-4.373934984012462,8.678520127900304,0.4222222222222222,0.3855555555555555,-0.6266666666666667,0.0625,0.075812699844224,-0.013312699844223994
1590514939.2798476,0.03,-4.360490974304698,8.738527077085907,0.4222222222222222,0.3855555555555555,-0.6266666666666667,0.12193141059563709,0.03585288410654436,-0.03278429470218146
1590514939.2898476,0.027601364298306123,-4.345202728596612,8.777195907105082,0.4192905563645964,0.38262388969792965,-0.621602880185313,0.11254263432206638,-0.017525580593239824,-0.029982946271173448
1590514939.2998476,0.0268074886069713,-4.3640374430348565,8.73873260253726,0.41,0.37333333333333335,-0.6055555555555555,-0.16754680379357065,0.2100936075871413,-0.08245319620642935
1590514939.3098476,0.03,-4.392849730389663,8.665025943636179,0.41,0.37333333333333335,-0.6055555555555555,-0.14734459253230237,0.08937837012920946,-0.10265540746769763
1590514939.3198476,0.024540343174588954,-4.383621029523767,8.661838627301645,0.41,0.37333333333333335,-0.6055555555555555,0.011491420635276195,0.0682457103176381,-0.09087714484118095
1590514939.3298476,0.025107576293154237,-4.354677271120537,8.731075762931543,0.41,0.37333333333333335,-0.6055555555555555,0.22076705549664194,0.09307764816778602,0.06518940732885589
1590514939.3398476,0.025355435688286628,-4.349289128623427,8.784644564311712,0.41,0.37333333333333335,-0.6055555555555555,0.2254144191553743,0.0625,0.12944294610358287
1590514939.3498476,0.02,-4.366249866219543,8.777500267560914,0.41,0.37333333333333335,-0.6055555555555555,0.007815008383575323,0.0625,0.023438336127858436
1590514939.3598475,0.009119327032921384,-4.359119327032921,8.726477308131685,0.41,0.37333333333333335,-0.6055555555555555,-0.13050420604424134,0.028497896977879328,0.03400210302212067
1590514939.3698475,0.005890793746695869,-4.373563174986783,8.684109206253304,0.41,0.37333333333333335,-0.6055555555555555,-0.11386507816630165,0.0,-0.011134921833698352
1590514939.3798475,0.015764205916193444,-4.37270738225142,8.726113647329548,0.41,0.37333333333333335,-0.6055555555555555,0.08160514790483614,0.036026286976209035,-0.0625
1590514939.3898475,0.02,-4.353843032430517,8.772313935138964,0.4147887525540419,0.37333333333333335,-0.6103443081095974,0.2644620946185308,0.024018952690734598,0.014462094618530805
1590514939.3998475,0.02,-4.357194572305332,8.74402713847334,0.4177777777777778,0.37333333333333335,-0.6133333333333333,0.13263569236670503,0.0,0.017533923091676257
1590514939.4098475,0.012783783138855084,-4.36,8.665054048249697,0.4177777777777778,0.37333333333333335,-0.6133333333333333,-0.027702710764311453,0.045101355382155726,0.0
1590514939.4198475,0.02398637256034184,-4.373986372560342,8.653986372560341,0.4177777777777778,0.37333333333333335,-0.6133333333333333,-0.10620741425106825,0.10620741425106825,-0.04370741425106825
1590514939.4298475,0.03,-4.375808335507057,8.689341651450599,0.4177777777777778,0.37333333333333335,-0.6133333333333333,-0.04640629075732544,0.1511979030808915,-0.08869790308089151
1590514939.4398475,0.02926911603077406,-4.368538232061548,8.734385303815356,0.4186710804068317,0.3722776120444514,-0.6127648680239354,0.07620407442298634,0.16922790076935154,-0.11586395038467577
1590514939.4498475,0.014106809851456499,-4.35,8.778213619702912,0.43,0.3588888888888889,-0.6055555555555555,0.2131675615716031,-0.025667561571603117,0.03683243842839688
1590514939.4598475,0.015867916557703525,-4.35,8.711320834422965,0.43,0.3588888888888889,-0.6055555555555555,0.04080208605741184,-0.03667447848564704,0.0625
1590514939.4698474,0.024129268763264516,-4.3541292687632644,8.682387806289793,0.43,0.3588888888888889,-0.6055555555555555,-0.0625,-0.036692070229596765,0.036692070229596765
1590514939.4798474,0.0267325917938823,-4.369802224618353,8.716337041030588,0.43,0.3588888888888889,-0.6055555555555555,-0.02165739742352874,0.0,-0.02042130128823563
1590514939.4898474,0.02380030459182609,-4.374798781632696,8.753800304591826,0.425355183276657,0.36437821774374884,-0.6144229329364831,0.11000380739782614,0.0712557110967392,-0.0625
1590514939.4998474,0.02562857551487414,-4.354371424485126,8.777485697940504,0.4177777777777778,0.37333333333333335,-0.6288888888888889,0.16017859696796338,0.13285719393592677,0.01946420909610984
1590514939.5098474,0.02,-4.369056219000052,8.741134576499663,0.4177777777777778,0.37333333333333335,-0.6288888888888889,0.09669931562483798,-0.050702737500648076,-0.01650342187581011
1590514939.5198474,0.02421680817029654,-4.375783191829703,8.686867232681186,0.4177777777777778,0.37333333333333335,-0.6288888888888889,-0.09563030638612036,-0.13478989787129322,-0.10843484680693982
1590514939.5298474,0.015561106309420914,-4.365187035436474,8.719625929127053,0.4177777777777778,0.37333333333333335,-0.6288888888888889,-0.22225691443388074,-0.0625,0.03008102852203976
1590514939.5398474,0.0,-4.345944418276025,8.748740775631967,0.41101027546623403,0.37541564173688524,-0.6288888888888889,-0.06643507615010205,-0.0625,0.003935076150102058
1590514939.5498474,0.01123736424600898,-4.341237364246009,8.753143953630987,0.4033333333333333,0.37777777777777777,-0.6288888888888889,0.07023352653755613,-0.09761676326877806,-0.0625
1590514939.5598474,0.014512212026281501,-4.366463363921155,8.70707327215769,0.4033333333333333,0.37777777777777777,-0.6288888888888889,0.05640265032851875,0.012194699342962495,-0.09679867483574062
1590514939.5698473,0.01,-4.368609909250261,8.67430495462513,0.4033333333333333,0.37777777777777777,-0.6288888888888889,-0.035594033592935274,0.01821789922119417,-0.05381193281412945
1590514939.5798473,0.01,-4.356124845275753,8.689375773621235,0.4033333333333333,0.37777777777777777,-0.6288888888888889,-0.0867197170265438,-0.0625,0.0
1590514939.5898473,0.014131885385319901,-4.356197828077979,8.72413188538532,0.4072356695305799,0.37685958102548445,-0.6270524953843023,-0.09917571634175062,-0.02376357451262593,0.0
1590514939.5998473,0.01892901852779169,-4.385535490736104,8.76767745368052,0.4222222222222222,0.37333333333333335,-0.62,0.0,-0.04798408550325489,-0.034596817100650976
1590514939.6098473,0.020844973845581177,-4.368310052308837,8.730352643849303,0.4222222222222222,0.37333333333333335,-0.62,0.0,-0.15360945673255882,-0.0625
1590514939.6198473,0.02408645276292335,-4.35,8.703654188948306,0.4222222222222222,0.37333333333333335,-0.62,-0.11087901069518716,-0.125,0.011419340463458105
1590514939.6298473,0.025315593381305474,-4.36063118676261,8.725315593381305,0.4222222222222222,0.37333333333333335,-0.62,-0.25394491726631846,-0.058555082733681554,0.12894491726631846
1590514939.6398473,0.02666339026088381,-4.373336609739116,8.736673219478233,0.42073928456039283,0.37333333333333335,-0.6129560461063103,-0.22908475652209526,-0.020853810869476186,0.10408475652209526
1590514939.6498473,0.02,-4.369133667180277,8.742755778120186,0.4177777777777778,0.37333333333333335,-0.5988888888888889,-0.017223613251155623,-0.0625,-0.0625
1590514939.6598473,0.02,-4.35,8.713615593132825,0.4177777777777778,0.37333333333333335,-0.5988888888888889,0.03689936427004002,-0.1649025429198399,-0.011298728540080037
1590514939.6698472,0.02,-4.353822752267371,8.691911376133685,0.4177777777777778,0.37333333333333335,-0.5988888888888889,-0.023892201671070482,-0.2527694958223238,0.07444610083553524
1590514939.6798472,0.01620111071723975,-4.36620111071724,8.70759777856552,0.4177777777777778,0.37333333333333335,-0.5988888888888889,-0.030027767930993737,0.023743058017251566,0.030027767930993737
1590514939.6898472,0.01,-4.368370361474721,8.728370361474722,0.4177777777777778,0.3751934136610491,-0.6077242704455387,0.046527861174492605,0.010185240782995077,-0.07268524078299507
1590514939.6998472,0.016009073773725506,-4.367981852452549,8.74,0.4177777777777778,0.37777777777777777,-0.62,0.1252835554289221,0.05017013325735327,-0.07511342217156884
