time,acc_x,acc_y,acc_z,mag_x,mag_y,mag_z,gyr_x,gyr_y,gyr_z
1590515724.6486824,0.06,-4.38,8.64,0.4544444444444444,0.2733333333333333,-0.6022222222222222,0.1875,-0.0625,0.125
1590515724.6586823,0.07604814418361505,-4.363951855816385,8.651855567449156,0.4544444444444444,0.2733333333333333,-0.6022222222222222,0.07560180229518806,-0.09879639540962386,-0.10030090114759403
1590515724.6686823,0.07550368013972056,-4.358992639720559,8.697518400698604,0.44649468424262584,0.2812830935351519,-0.6138411025171878,0.10319400261976049,-0.31879600174650696,-0.0625
1590515724.6786823,0.07402608676780173,-4.367921739696595,8.743895652928794,0.44,0.2877777777777778,-0.6233333333333333,0.22483695770123924,-0.375,-0.09983695770123924
1590515724.6886823,0.07586427335857003,-4.37413572664143,8.707221539772869,0.44,0.2877777777777778,-0.6233333333333333,0.1400448745268119,-0.3016965830178746,-0.125
1590515724.6986823,0.08596358011671236,-4.37,8.729635801167124,0.44,0.2877777777777778,-0.6233333333333333,0.0997723757294523,-0.2872723757294523,-0.1622723757294523
1590515724.7086823,0.08022519227347319,-4.365112596136737,8.774887403863262,0.44,0.2877777777777778,-0.6233333333333333,0.18609254829079264,-0.3125,-0.15695372585460368
1590515724.7186823,0.07336365727670076,-4.370090971830102,8.7833636572767,0.44261617788187835,0.2877777777777778,-0.6162322790825207,0.25,-0.3125,-0.125
1590515724.7286823,0.08740445282471536,-4.382595547175285,8.760382188701138,0.4477777777777778,0.2877777777777778,-0.6022222222222222,0.29627783015447096,-0.2893610849227645,-0.14813891507723548
1590515724.7386823,0.08752443079422291,-4.37,8.672573292382669,0.4477777777777778,0.2877777777777778,-0.6022222222222222,0.2580415386958398,-0.1720276924638932,-0.1875
1590515724.7486823,0.08,-4.363363594097928,8.643363594097927,0.4477777777777778,0.2877777777777778,-0.6022222222222222,0.1875,-0.332387684439768,-0.1460224631120464
1590515724.7586823,0.06911795920730178,-4.354558979603651,8.661764081585396,0.4477777777777778,0.2877777777777778,-0.6022222222222222,0.1875,-0.26746811261409026,-0.09099362252281806
1590515724.7686822,0.06518073311460573,-4.355180733114605,8.700722932458422,0.44374831868864,0.2877777777777778,-0.5947389410566806,0.12274083606742844,-0.125,-0.09487958196628578
1590515724.7786822,0.07,-4.36,8.731707133623223,0.44,0.2877777777777778,-0.5877777777777777,0.13566958514514044,-0.23475437771771068,-0.125
1590515724.7886822,0.07,-4.36,8.701900879891827,0.44,0.2877777777777778,-0.5877777777777777,0.24702987516902153,-0.3125,-0.09523506241548924
1590515724.7986822,0.08548544677386527,-4.36,8.706456340321596,0.44,0.2877777777777778,-0.5877777777777777,0.34476134744555265,-0.34476134744555265,0.0020226948911052367
1590515724.8086822,0.09899380897998437,-4.3610061910200155,8.753018573060046,0.44,0.2877777777777778,-0.5877777777777777,0.3812886938750977,-0.38757738775019535,0.0625
1590515724.8186822,0.09059025064615014,-4.36940974935385,8.77822924806155,0.44,0.2877777777777778,-0.5877777777777777,0.4338109334615616,-0.49262186692312315,0.0625
1590515724.8286822,0.07,-4.364462104628661,8.76553789537134,0.46,0.28,-0.6088888888888889,0.4307763078582532,-0.29133553821262015,-0.0625
1590515724.8386822,0.07988355431777361,-4.374941777158887,8.705640451252245,0.46,0.28,-0.6088888888888889,0.5,-0.12572778551391495,-0.031613892756957473
1590515724.8486822,0.0800161675111891,-4.370016167511189,8.656655888325874,0.46,0.28,-0.6088888888888889,0.5,-0.0625,-0.08319860407342416
1590515724.8586822,0.06685301082543978,-4.35,8.681421684709067,0.46,0.28,-0.6088888888888889,0.4428915764546685,0.008885529431664402,-0.20716868234100136
1590515724.8686821,0.09,-4.35,8.713968214551775,0.44827152829511907,0.2823456943409762,-0.6025220042490964,0.19345201142289545,0.21230134094859698,-0.02480134094859697
1590515724.8786821,0.09,-4.35,8.703306295399516,0.4211111111111111,0.2877777777777778,-0.5877777777777777,0.0625,0.125,0.0625
1590515724.8886821,0.07786242550441588,-4.362137574495584,8.64931212752208,0.4211111111111111,0.2877777777777778,-0.5877777777777777,0.0625,-0.026719681194801448,0.024570079701299638
1590515724.898682,0.07572229447907791,-4.364277705520922,8.650056061353546,0.4211111111111111,0.2877777777777778,-0.5877777777777777,0.026735659505763107,-0.16076434049423688,0.03576434049423689
1590515724.908682,0.08448971177255948,-4.36448971177256,8.69346913531768,0.4211111111111111,0.2877777777777778,-0.5877777777777777,0.0,-0.15943930142150317,0.0625
1590515724.918682,0.09430525825965566,-4.365694741740344,8.731526291298279,0.4325917998035262,0.2844292435758234,-0.5911263119797321,0.0,-0.15190786412284785,0.03559213587715217
1590515724.928682,0.10533644056292141,-4.354663559437078,8.776009321688763,0.4477777777777778,0.28,-0.5955555555555555,-0.03335275351825875,-0.15414724648174125,-0.03335275351825875
1590515724.938682,0.11,-4.355125549655189,8.73361895379292,0.4477777777777778,0.28,-0.5955555555555555,-0.09453468534493116,-0.06093062931013768,0.0015693706898623205
1590515724.948682,0.08410998206814106,-4.354821996413628,8.695534010759115,0.4477777777777778,0.28,-0.5955555555555555,-0.09263747758517633,-0.032362522414823666,0.030137477585176334
1590515724.958682,0.06302170353306874,-4.35,8.71302170353307,0.4477777777777778,0.28,-0.5955555555555555,-0.04361435291832033,-0.02472870583664067,0.0
1590515724.968682,0.0688421081846188,-4.35,8.718842108184619,0.4477777777777778,0.28,-0.5955555555555555,-0.007236823846132494,0.04802635230773501,0.0
1590515724.978682,0.0931180603589501,-4.363440969820525,8.719677090538426,0.4477777777777778,0.28,-0.5955555555555555,0.0,0.22849393862171902,-0.02352424551312389
1590515724.988682,0.09503141229686715,-4.37,8.654905763109397,0.4477777777777778,0.28,-0.5955555555555555,-0.06263088457027978,0.030922788574300558,-0.06223823085944044
1590515724.998682,0.1051128914785142,-4.365112891478514,8.634435542607429,0.4477777777777778,0.28,-0.5955555555555555,-0.09445557174071377,-0.09445557174071377,0.0014111434814275334
1590515725.008682,0.0915280720826961,-4.355764036041348,8.689651747710563,0.4477777777777778,0.28,-0.5955555555555555,-0.11544954948314938,0.016924324224724077,-0.00955045051685062
1590515725.018682,0.07792324924515438,-4.35,8.73,0.4461625271906756,0.2786154994967696,-0.596940056058786,-0.1875,0.021162462257718895,0.023560923346644586
1590515725.028682,0.07,-4.350436067489089,8.73,0.44,0.2733333333333333,-0.6022222222222222,-0.19022542180681076,-0.38590168722724305,-0.11682373457956771
1590515725.038682,0.07,-4.3549696094682995,8.709878437873197,0.44,0.2733333333333333,-0.6022222222222222,-0.2814399408231289,-0.6407199704115645,0.031060059176871116
1590515725.048682,0.07,-4.3400174678715935,8.650069871486373,0.44,0.2733333333333333,-0.6022222222222222,-0.37489082580254174,-0.6874454129012709,-0.06239082580254175
1590515725.058682,0.10612575086596221,-4.363874249134038,8.722251501731925,0.44,0.2733333333333333,-0.6022222222222222,-0.35585702854386814,-0.6875,-0.06757108563160433
1590515725.068682,0.129993531694696,-4.359993531694696,8.769987063389392,0.44259091562455083,0.27555411815437686,-0.5951897369555843,-0.29168014230271666,-0.5417609961190168,0.0625
1590515725.078682,0.13186858272570737,-4.3664014370442805,8.769204311132842,0.4477777777777778,0.28,-0.5811111111111111,-0.10834830254458877,-0.05168762356242426,0.03416966050891775
1590515725.088682,0.09818453247888144,-4.346061510826294,8.70030755413147,0.4477777777777778,0.28,-0.5811111111111111,0.03788444266433634,0.21211555733566367,-0.04923111467132732
1590515725.098682,0.08,-4.347901671399972,8.697655849899903,0.4477777777777778,0.28,-0.5811111111111111,0.024692723124912705,0.1759218306252619,-0.1003072768750873
1590515725.108682,0.08316519220851351,-4.3631651922085135,8.73050442337446,0.4477777777777778,0.28,-0.5811111111111111,0.12184735390962828,0.16141225651604713,-0.02293509739358115
1590515725.118682,0.09,-4.368363036014957,8.71,0.44886908710113976,0.28,-0.5822024204344731,0.22953795018696288,0.3443069252804443,0.0625
1590515725.128682,0.09139589309980371,-4.3572082138003925,8.707208213800394,0.4544444444444444,0.28,-0.5877777777777777,0.09882700437868036,0.19622433187377322,0.02760267250490714
1590515725.138682,0.09088923779617471,-4.3536661433057375,8.644446188980874,0.4544444444444444,0.28,-0.5877777777777777,-0.005557736226091917,0.1930577362260919,-0.10208660433913788
1590515725.1486819,0.07635626601399671,-4.373643733986003,8.63372480783204,0.4544444444444444,0.28,-0.5877777777777777,0.016953325174958886,0.125,0.06832001223756166
1590515725.1586819,0.07188272205993726,-4.378117277940063,8.719413610299688,0.4544444444444444,0.28,-0.5877777777777777,-0.05073298712539219,0.08969896137617657,0.15219896137617656
1590515725.1686819,0.08178621120767882,-4.37,8.76089310560384,0.45315440301667637,0.28,-0.5896632229414387,0.01674573007198887,-0.045754269928011126,0.01116382004799258
1590515725.1786819,0.09870178056502188,-4.37,8.76935089028251,0.44093760292526196,0.28,-0.6075185461519675,0.17532919279708012,0.11282919279708012,0.11688612853138675
1590515725.1886818,0.08428234694527617,-4.365717653054724,8.762870612218896,0.44,0.28,-0.6088888888888889,0.41073533159202397,0.026764668407976044,0.0
1590515725.1986818,0.09764254316111359,-4.352357456838886,8.709429827355544,0.44,0.28,-0.6088888888888889,0.3272341052430401,0.11026589475695993,0.0
1590515725.2086818,0.08162439197511534,-4.368375608024885,8.74,0.44,0.28,-0.6088888888888889,0.3125,0.16719510031105822,-0.010152449844470888
1590515725.2186818,0.0906550014371946,-4.359344998562806,8.74,0.43876277506307687,0.27956333237520364,-0.6084522212640925,0.30021872305260133,0.08296879491233113,-0.05021872305260132
1590515725.2286818,0.1,-4.347202843851488,8.731608531554464,0.4211111111111111,0.2733333333333333,-0.6022222222222222,0.125,0.375,0.09003554814359695
1590515725.2386818,0.1,-4.341139193071574,8.706582420785278,0.4211111111111111,0.2733333333333333,-0.6022222222222222,0.11550672440354749,0.37262668110088687,0.0
1590515725.2486818,0.09684450325801103,-4.363689006516022,8.626310993483978,0.4211111111111111,0.2733333333333333,-0.6022222222222222,-0.026390726812844434,0.25333443608770667,0.019721854637431112
1590515725.2586818,0.09,-4.35,8.642088572689168,0.4211111111111111,0.2733333333333333,-0.6022222222222222,0.18936479704390027,0.125,0.058770405912199425
1590515725.2686818,0.09,-4.351646654813805,8.711646654813805,0.4211111111111111,0.2733333333333333,-0.5987459509486349,0.22941681482744344,0.11470840741372172,-0.0625
1590515725.2786818,0.08568493537280578,-4.355684935372806,8.726472596940791,0.4211111111111111,0.2733333333333333,-0.5811111111111111,0.125,0.008561692160072243,-0.03553084608003612
1590515725.2886817,0.07,-4.3470863894660425,8.711024857936767,0.4211111111111111,0.2733333333333333,-0.5811111111111111,0.14714496708138283,-0.20964496708138283,0.0625
1590515725.2986817,0.06225122349102774,-4.36,8.667120717781403,0.4211111111111111,0.2733333333333333,-0.5811111111111111,0.1875,-0.22578507340946166,0.03828507340946166
1590515725.3086817,0.06211242134012438,-4.36,8.719084316005095,0.4211111111111111,0.2733333333333333,-0.5811111111111111,0.13072302496816696,-0.1875,0.018925658343944343
1590515725.3186817,0.09261068606547096,-4.361305343032736,8.74,0.4254622545535627,0.27173791407110104,-0.5819813397996014,-0.008158393954596764,-0.1875,0.05434160604540324
1590515725.3286817,0.1071566882038767,-4.364313376407753,8.717253505631014,0.4544444444444444,0.2611111111111111,-0.5877777777777777,-0.11581209617731192,-0.11641720509691744,-0.01777069872577064
1590515725.3386817,0.09781556665603855,-4.322694583200481,8.617403549792751,0.4544444444444444,0.2611111111111111,-0.5877777777777777,-0.31143718779891594,0.028368229000602263,-0.06932635419987955
1590515725.3486817,0.08295638927268219,-4.136954865908527,8.327649590817302,0.4544444444444444,0.2611111111111111,-0.5877777777777777,-0.7293515517058136,-0.20380641761434087,-0.11576128352286817
1590515725.3586817,-0.08312752680611707,-4.343374494638777,8.852181182984708,0.4544444444444444,0.2611111111111111,-0.5877777777777777,-4.153548789330286,0.39609059149235365,1.2854947596238355
1590515725.3686817,0.030162731333758776,-4.3770485003190815,9.008854499042757,0.45255016663121317,0.2627139615684606,-0.5877777777777777,-2.464163209955329,0.4918036056158264,3.0737675494575623
1590515725.3786817,0.2249535242668496,-4.4723373349339735,8.639721145601097,0.44,0.2733333333333333,-0.5877777777777777,1.68924283999314,0.46904047333219,3.21555479334591
1590515725.3886817,0.21056731263934145,-4.421985594237695,8.55340387583605,0.44,0.2733333333333333,-0.5877777777777777,2.2287257760246955,0.558954296004116,2.2265027439547245
1590515725.3986816,0.1224527391333289,-4.364905478266658,8.624716434799973,0.44,0.2733333333333333,-0.5877777777777777,0.5790111412500832,0.35848885874991676,0.6426926629168608
1590515725.4086816,0.12943253677694203,-4.378865073553884,8.666595220661652,0.44,0.2733333333333333,-0.5877777777777777,0.4481399354323371,0.4893600645676629,0.33732651600878655
1590515725.4186816,0.0070309553147081755,-4.169295647144617,8.500388513088742,0.4423436517715694,0.2733333333333333,-0.5894704151683556,0.3208109110569065,0.5112326174969195,0.2939434707169261
1590515725.4286816,0.07406377663482733,-4.404063776634827,8.892054665686995,0.46,0.2733333333333333,-0.6022222222222222,-1.3744305657604703,0.22545554739162382,0.8007972079353416
1590515725.4386816,0.10115260533776518,-4.416728908006648,8.893844168540424,0.46,0.2733333333333333,-0.6022222222222222,-0.7848518916805162,0.8233258383028644,1.4639407566722065
1590515725.4486816,0.058628973550109195,-4.299895656394079,8.788420286338267,0.46,0.2733333333333333,-0.6022222222222222,-0.6256521475370056,1.1756703470031546,1.574981800533851
1590515725.4586816,0.23209548485578854,-4.232493371896843,8.812493371896842,0.46,0.2733333333333333,-0.6022222222222222,-0.5910146521250101,0.48176392905921106,2.7995689222302564
1590515725.4686816,0.32107721892510194,-4.170061005934817,8.761138224859918,0.4540921499066123,0.2733333333333333,-0.5990221367549705,0.22230695268724512,0.5067326182818872,3.208841716123471
1590515725.4786816,0.36,-4.1,8.73,0.43333333333333335,0.2733333333333333,-0.5877777777777777,0.125,0.75,2.625
1590515725.4886816,0.031814304753442935,-3.5483687250111062,8.499571745890716,0.43333333333333335,0.2733333333333333,-0.5877777777777777,-0.2241337183474012,0.6627165704131497,1.5339571301643715
1590515725.4986815,-0.7328078271028038,-2.899357476635514,8.317871495327102,0.43333333333333335,0.2733333333333333,-0.5877777777777777,-3.155392085280374,-0.4871568341121497,1.8752299941588784
1590515725.5086815,-0.5855736236477641,-3.0912313098601256,9.361633018672913,0.43333333333333335,0.2733333333333333,-0.5877777777777777,-7.983837766140701,-5.155864569696135,9.06561789430166
1590515725.5186815,-0.46941427476661557,-2.7832173958478474,8.766239549951234,0.43333333333333335,0.2733333333333333,-0.5877777777777777,-2.2106337954577127,-2.7002871586317405,17.216201712066322
1590515725.5286815,-0.36036267847598685,-2.6630915476826753,8.9497640681072,0.4392323941869639,0.27923239418696394,-0.5946600154403467,-0.736003474078033,-2.8538071695808203,29.543287584943116
1590515725.5386815,-0.3158137747820932,-2.7383724504358136,9.114012119349244,0.44,0.28,-0.5955555555555555,-2.166067468768525,-3.7569076997387314,38.75331251234988
1590515725.5486815,-0.30654458095728937,-2.8359156428203294,8.667014414204724,0.44,0.28,-0.5955555555555555,-0.09554190427106019,-4.357981845084706,49.86679121847412
1590515725.5586815,-0.2925982144341552,-2.940513391743836,8.897129461836439,0.44,0.28,-0.5955555555555555,-1.4901785565844816,-4.793805798932651,54.87876668772548
1590515725.5686815,-0.2703175865998667,-3.0222231061990668,8.802223106199067,0.4397882756000889,0.28024701179989636,-0.5948498075558517,-0.9553642462425012,-5.1269849162491665,62.03379329993334
1590515725.5786815,-0.27933622895478105,-3.0853536026834667,8.865353602683467,0.43377584736347935,0.28726151140927414,-0.5748083801004867,-1.4626628787064313,-5.183351430967381,66.5431144773905
1590515725.5886815,-0.24200683954140628,-3.122075234955469,8.89584953008906,0.43333333333333335,0.2877777777777778,-0.5733333333333334,-1.2874145057324213,-5.225128241401368,71.61459460955568
1590515725.5986814,-0.2521770367982315,-3.21,8.73523925758762,0.43333333333333335,0.2877777777777778,-0.5733333333333334,-1.2691388799336802,-5.429425919955787,74.57954623957997
1590515725.6086814,-0.2628250429728341,-3.214237564459251,8.785762435540748,0.43333333333333335,0.2877777777777778,-0.5733333333333334,-1.580156518580213,-5.669141296450532,76.68469126012299
1590515725.6186814,-0.2776902766210062,-3.2365354149315095,8.76346458506849,0.43333333333333335,0.2877777777777778,-0.5733333333333334,-1.6730642288812887,-5.901410572203222,77.98539920433804
1590515725.6286814,-0.2854925481643039,-3.290985096328608,8.78979098509633,0.4544444444444444,0.2488888888888889,-0.6088888888888889,-1.573507360959651,-6.506156852053799,79.48899263904035
1590515725.6386814,-0.3090631433677971,-3.3245315716838983,8.703202642474153,0.4544444444444444,0.2488888888888889,-0.6088888888888889,-1.536628130585281,-6.701661161512183,79.4550660618538
1590515725.6486814,-0.33833804687834773,-3.3433239062433047,8.689971718729913,0.4544444444444444,0.2488888888888889,-0.6088888888888889,-1.864612792989673,-6.729225585979346,78.78151513690706
1590515725.6586814,-0.3317833569071193,-3.3617833569071194,8.74356671381424,0.4544444444444444,0.2488888888888889,-0.6088888888888889,-1.7957810289957568,-6.613854019330504,78.26234308698727
1590515725.6686814,-0.35650223950966525,-3.386502239509665,8.79300447901933,0.4544444444444444,0.2488888888888889,-0.6088888888888889,-1.5640415045968883,-6.4593610030645925,77.56712451379066
1590515725.6786814,-0.38720352383103684,-3.4172035238310365,8.92322114298622,0.4821612328388927,0.23646412167758457,-0.6165348994804608,-1.7063050598599503,-6.15995595211204,75.89723571267224
1590515725.6886814,-0.4171791044776119,-3.4290597014925375,8.912820895522389,0.4866666666666667,0.2344444444444445,-0.6177777777777778,-1.5235074626865672,-5.955130597014925,74.27192164179104
1590515725.6986814,-0.48321336433417206,-3.463573271331656,8.73,0.4866666666666667,0.2344444444444445,-0.6177777777777778,-1.4441945090295252,-5.703138436793324,71.86391414784852
1590515725.7086813,-0.5032517437971781,-3.4234965124056442,8.73,0.4866666666666667,0.2344444444444445,-0.6177777777777778,-1.4859411329107877,-5.410912069624486,70.23579581647928
1590515725.7186813,-0.5192449318710535,-3.428489863742107,8.78546959122632,0.4866666666666667,0.2344444444444445,-0.6177777777777778,-1.3844383516118313,-5.1969383516118315,67.8385136257893
1590515725.7286813,-0.5414321988114533,-3.415711867459031,8.804288132540968,0.4866666666666667,0.20110546851551714,-0.6066647858014687,-1.375,-5.008898343237889,66.25868674590312
1590515725.7386813,-0.5985554728220401,-3.41,8.761444527177959,0.4866666666666667,0.18777777777777774,-0.6022222222222222,-1.2536113179448996,-4.816111317944899,63.44180938198064
1590515725.7486813,-0.6251406644410065,-3.41,8.676197785196646,0.4866666666666667,0.18777777777777774,-0.6022222222222222,-1.1976236157479032,-4.550618078739516,61.85608485668919
1590515725.7586813,-0.6555756707475905,-3.3818585569158635,8.71115134149518,0.4866666666666667,0.18777777777777774,-0.6022222222222222,-1.363384019275853,-4.85757602891378,59.58156827949987
1590515725.7686813,-0.6965463011200833,-3.395515433706694,8.793092602240167,0.4866666666666667,0.18777777777777774,-0.6022222222222222,-1.2780285393331596,-4.72954280899974,58.34391382033081
1590515725.7786813,-0.7507388558692422,-3.371723997028232,8.820738855869243,0.5133333333333333,0.1688888888888889,-0.6177777777777778,-1.1296178491827638,-4.8734607169390785,56.27709648959881
1590515725.7886813,-0.7741097696879644,-3.4262561292719167,8.844109769687964,0.5133333333333333,0.1688888888888889,-0.6177777777777778,-1.275686060549777,-4.824771313150074,55.15724020245171
1590515725.7986813,-0.7970757324488668,-3.4100939745715864,8.785942509673854,0.5133333333333333,0.1688888888888889,-0.6177777777777778,-0.8042426755113322,-4.269451354339414,53.56367468214483
1590515725.8086812,-0.8426836601807874,-3.350894553393596,8.670414815382259,0.5133333333333333,0.1688888888888889,-0.6177777777777778,-0.48681917419947907,-3.378592050329401,52.71186274322047
1590515725.8186812,-0.8667814462999847,-3.3589271487666617,8.943523058066493,0.5133333333333333,0.1688888888888889,-0.6177777777777778,-1.490893595832695,-4.533277635207599,51.808195763750575
1590515725.8286812,-0.8843739740927519,-3.3240650647681202,8.900943142489863,0.4989593592405815,0.15611202302866498,-0.6273604271729457,-1.3105693167210521,-4.103557302481954,51.5078253238406
1590515725.8386812,-0.9156325134085446,-3.3356325134085445,8.767469946365821,0.4933333333333334,0.1511111111111111,-0.6311111111111111,-0.8136925127920597,-3.714796791196597,51.170494651994325
1590515725.8486812,-0.9739876707361296,-3.3220041097546233,8.669018493895805,0.4933333333333334,0.1511111111111111,-0.6311111111111111,-1.3123715701680165,-3.856211471050405,50.95628852894959
1590515725.8586812,-1.021588821037575,-3.32,8.680794410518788,0.4933333333333334,0.1511111111111111,-0.6311111111111111,-1.028426491353542,-3.7883566228383856,51.37071688580807
1590515725.8686812,-1.0641190164875467,-3.3119603278374843,8.76235704946264,0.4933333333333334,0.1511111111111111,-0.6311111111111111,-1.1262397550786107,-4.001239755078611,52.26597131422011
1590515725.8786812,-1.0965204667531026,-3.303369883311724,8.793260233376552,0.5161704019262827,0.1378508777345599,-0.6355311889032949,-0.9803088534913873,-4.22825291720689,53.349141044637896
1590515725.8886812,-1.1385193339204227,-3.3570386678408455,8.828519333920422,0.5277777777777778,0.13111111111111112,-0.6377777777777778,-1.172076395004403,-4.728406953006164,55.179051417020254
1590515725.8986812,-1.1620953793827116,-3.3158092412345765,8.741618482469155,0.5277777777777778,0.13111111111111112,-0.6377777777777778,-0.819243676954807,-4.611903878858053,56.17064080761298
1590515725.9086812,-1.1997253184713375,-3.3297253184713376,8.789267515923566,0.5277777777777778,0.13111111111111112,-0.6377777777777778,-1.182921974522293,-4.7482832404458595,58.04819367038217
1590515725.9186811,-1.2351562170594932,-3.3124218914702537,8.84273432558924,0.5277777777777778,0.13111111111111112,-0.6377777777777778,-1.1875,-5.024657945777291,59.875242442130116
1590515725.9286811,-1.2551684830871075,-3.244430128360378,8.925971260192137,0.56,0.11666666666666667,-0.6377777777777778,-1.0880822636635181,-4.914426414789699,62.13131811576653
1590515725.9386811,-1.3025731815613144,-3.285062727052555,8.797301364333576,0.56,0.11666666666666667,-0.6377777777777778,-0.7494772745620408,-4.702798296601276,63.90899430854928
1590515725.948681,-1.2515247823700102,-3.0134852168457376,8.709782173947142,0.56,0.11666666666666667,-0.6377777777777778,-1.4877472845267037,-5.247277174339268,66.67401086189318
1590515725.958681,-1.3090890910516824,-3.1450607795467023,8.70155870127833,0.56,0.11666666666666667,-0.6377777777777778,-1.0251769469061252,-5.144483765979139,68.5242922123755
1590515725.968681,-1.3772989308418415,-3.2682267385860144,8.86371123097669,0.56,0.11666666666666667,-0.6377777777777778,-1.6537366355230207,-5.227319519360432,69.59123663552302
1590515725.978681,-1.3967163771227795,-3.2967163771227797,8.792537966035527,0.542089661005921,0.09427874292406793,-0.6482254755243239,-1.350749072808901,-5.333954714034745,70.33768299824321
1590515725.988681,-1.4269741221947814,-3.3269741221947817,8.766974122194782,0.5333333333333333,0.08333333333333333,-0.6533333333333333,-1.2935882637173843,-5.487392175811589,71.18696087905795
1590515725.998681,-1.485351206055033,-3.33,8.705423592935794,0.5333333333333333,0.08333333333333333,-0.6533333333333333,-1.254842493692674,-5.788287531536629,71.4806300252293
1590515726.008681,-1.5319282934308291,-3.3007713173723316,8.75269961080316,0.5333333333333333,0.08333333333333333,-0.6533333333333333,-1.1995518339426818,-5.699551833942682,71.85106586861659
1590515726.018681,-1.5731507253213823,-3.317260290128553,8.810411015449935,0.5333333333333333,0.08333333333333333,-0.6533333333333333,-1.457192033258639,-5.957192033258639,72.67551450642765
1590515726.028681,-1.5899233912155262,-3.3001532175689476,8.86961695607763,0.5454619225967541,0.06348655090228125,-0.6731801157643854,-1.5620211950970377,-6.1240423901940755,74.05292390194076
1590515726.038681,-1.6080180297036126,-3.290990985148194,8.860990985148193,0.5455555555555556,0.06333333333333334,-0.6733333333333333,-1.5061936571762111,-6.068693657176211,73.44313022893833
1590515726.048681,-1.619268613392215,-3.327074453568859,8.776582479470067,0.5455555555555556,0.06333333333333334,-0.6733333333333333,-1.3841423325973157,-5.599069330389263,70.94198898454363
1590515726.058681,-1.592008470317996,-3.2926779604239944,8.807322039576006,0.5455555555555556,0.06333333333333334,-0.6733333333333333,-0.9667901921374393,-5.154290192137439,67.71758428444954
1590515726.068681,-1.629821973550356,-3.3059287894201423,8.754249237029502,0.5455555555555556,0.06333333333333334,-0.6733333333333333,-0.987277466937945,-4.62722533062055,64.76223931841302
1590515726.078681,-1.7183682483207066,-3.261019844799558,8.877144434561238,0.5597053781690166,0.048095062826529256,-0.7168712490670592,-1.673477134006073,-5.051026746004969,61.552267045977366
1590515726.088681,-1.7541400072782611,-3.2463439970886956,8.859515995633043,0.56,0.04777777777777778,-0.7177777777777777,-1.5594749727065207,-4.977149981804347,61.37197497270652
1590515726.098681,-1.8138653616430966,-3.2312269276713805,8.753496204385188,0.56,0.04777777777777778,-0.7177777777777777,-1.5,-4.827836595892259,61.20283659589226
1590515726.108681,-1.8272198420385963,-3.193900789807019,8.732780157961404,0.56,0.04777777777777778,-0.7177777777777777,-1.725620063706132,-5.263740127412264,61.593616114671036
1590515726.118681,-1.8672466844964017,-3.18,8.774696021395682,0.56,0.04777777777777778,-0.7177777777777777,-1.7193832887589953,-5.344383288758995,62.774283823651054
1590515726.128681,-1.9155749978236267,-3.1230800034821975,8.846919996517801,0.5394455568130156,0.04777777777777778,-0.7320077769072284,-1.9543124836772003,-5.3125,64.9926873857404
1590515726.138681,-1.9730735735735736,-3.125844144144144,8.818311711711711,0.5311111111111111,0.04777777777777778,-0.7377777777777778,-1.954816066066066,-5.366341966966967,69.08820195195196
1590515726.148681,-1.98,-3.1369584506123362,8.782166197550655,0.5311111111111111,0.04777777777777778,-0.7377777777777778,-1.8505193673457976,-5.461980632654202,71.88649644900926
1590515726.158681,-1.98,-3.130595618187823,8.77,0.5311111111111111,0.04777777777777778,-0.7377777777777778,-1.7537226136738964,-5.676332158978311,74.81465374876143
1590515726.168681,-1.98,-3.1541890973083233,8.826441227052754,0.5311111111111111,0.04777777777777778,-0.7377777777777778,-1.8507879054513459,-5.435530236371635,75.08868185817703
1590515726.178681,-1.9894756477292757,-3.1789512954585515,8.811573056812174,0.494261369941706,0.0025052386267943524,-0.7798917676856694,-1.63810880676811,-5.13810880676811,73.1706476558369
1590515726.188681,-2.0189726323890147,-3.1317122793516425,8.848630176518686,0.4922222222222222,0.0,-0.7822222222222223,-1.685359650810447,-4.6421227935164255,69.01840339570006
1590515726.1986809,-2.055724739904779,-3.147862369952389,8.823206445071417,0.4922222222222222,0.0,-0.7822222222222223,-1.5758601877975666,-4.345900469493916,64.5210473241051
1590515726.2086809,-1.9522234328466623,-3.024260671654439,8.685279291058327,0.4922222222222222,0.0,-0.7822222222222223,-1.3379654850972131,-3.6950300840173362,59.06024067213869
1590515726.2186809,-2.0059422463630936,-2.9825240640153776,8.62054331522768,0.4922222222222222,0.0,-0.7822222222222223,-1.0033957201729988,-3.1441711202691094,55.40895720172999
1590515726.2286808,-2.069223292836196,-2.987669878508588,8.750630917469627,0.46762677465903274,-0.02510785272075594,-0.7822222222222223,-1.960557184750733,-3.3841013824884794,49.87742982823628
1590515726.2386808,-2.0687317885926846,-3.0256341057036575,8.758440406075636,0.4388888888888889,-0.054444444444444434,-0.7822222222222223,-2.811589429634222,-3.315097305099194,43.62837346946683
1590515726.2486808,-2.0958743068391867,-3.008475415896488,8.559775970425138,0.4388888888888889,-0.054444444444444434,-0.7822222222222223,-1.0745563770794824,-1.700956561922366,39.0784842883549
1590515726.2586808,-2.1620096283239514,-3.0260048141619755,8.728534902674324,0.4388888888888889,-0.054444444444444434,-0.7822222222222223,-2.3503309736358293,-2.2470480089460017,35.32135597316199
1590515726.2686808,-2.1967752452394693,-3.080651471436815,8.836775245239469,0.4388888888888889,-0.054444444444444434,-0.7822222222222223,-3.439535848240046,-2.6653094345066357,31.90696227639931
1590515726.2786808,-2.144175722263664,-3.1248107901050384,8.765567629684886,0.43406456859068704,-0.09648494990020362,-0.7629249410294148,-2.1043930565916007,-1.1518593375133568,31.038766859539123
1590515726.2886808,-1.9159781696053735,-3.3604793527211663,8.975756049156553,0.4311111111111111,-0.12222222222222222,-0.7511111111111111,-1.1948801618197085,-0.25,31.613698381802916
1590515726.2986808,-1.8816154443820952,-3.3229235550567617,8.942923555056762,0.4311111111111111,-0.12222222222222222,-0.7511111111111111,-0.5586583286571416,1.4269111235809557,35.56535697328096
1590515726.3086808,-2.241777675347622,-2.7982169470692173,8.400569255588845,0.4311111111111111,-0.12222222222222222,-0.7511111111111111,1.5478652915418298,3.45962011216102,48.721033072136436
1590515726.3186808,-2.370756756756757,-2.7232702702702705,8.356918918918918,0.4311111111111111,-0.12222222222222222,-0.7511111111111111,0.0038851351351349983,0.7432432432432434,60.133108108108104
1590515726.3286808,-2.440512647879196,-2.788653457728191,8.865830528036934,0.4489101557073087,-0.15188729654921826,-0.7460256697979117,-5.261193132634413,-8.315661969798981,73.1706261421564
1590515726.3386807,-2.442455611609775,-2.840177553560899,9.382130642730786,0.4544444444444444,-0.16111111111111112,-0.7444444444444445,-8.133877678044945,-12.620749524995086,82.0212728493743
1590515726.3486807,-2.2662375397000094,-2.695544479733342,8.39950441810006,0.4544444444444444,-0.16111111111111112,-0.7444444444444445,-1.3848974875003925,-4.441208609792145,91.90594438854124
1590515726.3586807,-2.3713072086277713,-2.7774556639218204,8.590564932157527,0.4544444444444444,-0.16111111111111112,-0.7444444444444445,0.91231944363332,-4.125,93.92667513480893
1590515726.3686807,-2.4609027658107876,-2.8067669739789762,8.79887342753748,0.4544444444444444,-0.16111111111111112,-0.7444444444444445,-1.480757528433569,-5.647569145269688,93.44454107789075
1590515726.3786807,-2.587062150024949,-2.735336807673116,8.765471530742364,0.4270679405912538,-0.21586411881749248,-0.7444444444444445,-2.4550195431612796,-6.9816384376559295,91.13342019182791
1590515726.3886807,-2.694899106658675,-2.71,8.79553671832634,0.4177777777777778,-0.2344444444444445,-0.7444444444444445,-0.7325969689185716,-5.432052187687302,87.22316408368296
1590515726.3986807,-2.7383485839831962,-2.719587145995799,8.876697167966393,0.4177777777777778,-0.2344444444444445,-0.7444444444444445,-2.0031522368961103,-5.971616287211184,83.0453022767329
1590515726.4086807,-2.7564189520078357,-2.72,8.863581047992165,0.4177777777777778,-0.2344444444444445,-0.7444444444444445,-1.9256753999347045,-5.931587699967352,81.13048634916748
1590515726.4186807,-2.744856763815762,-2.6912648729322997,8.799713527631525,0.4177777777777778,-0.2344444444444445,-0.7444444444444445,-1.2737163674806184,-5.35866568550226,78.9242231872642
1590515726.4286807,-2.7268017243124003,-2.65072068972496,8.801125862662161,0.40407911868477336,-0.2564814177679734,-0.7051352487862577,-0.4465086215620004,-4.571508621562001,76.1889116289895
1590515726.4386806,-2.769975491912331,-2.626707513479448,8.87334150269589,0.3922222222222223,-0.27555555555555555,-0.6711111111111111,-1.020271689657587,-4.978809257054828,73.3769912821231
1590515726.4486806,-2.842338464229491,-2.604332866888228,8.824662935105824,0.3922222222222223,-0.27555555555555555,-0.6711111111111111,-1.1083216722057023,-5.160419581948575,71.49991254154277
1590515726.4586806,-2.8678015254018185,-2.5482035592709096,8.819597966130909,0.3922222222222223,-0.27555555555555555,-0.6711111111111111,-0.8150127116818201,-4.863772245443185,69.30009533761366
1590515726.4686806,-2.8252901828867496,-2.474464292618799,8.802232146309398,0.3922222222222223,-0.27555555555555555,-0.6711111111111111,-0.75,-4.75,66.94684733016278
1590515726.4786806,-3.0100444117737144,-2.474005329412846,8.878019541180434,0.41089303398776894,-0.27555555555555555,-0.648883954247365,-0.9500444117737143,-4.6999888970565715,62.92428941162057
1590515726.4886806,-3.06,-2.4227908532927223,8.883654529512206,0.4155555555555556,-0.27555555555555555,-0.6433333333333333,-1.5107959527435506,-4.636420404725645,57.73215480640546
1590515726.4986806,-3.043679577887037,-2.369198944717592,8.77391725626574,0.4155555555555556,-0.27555555555555555,-0.6433333333333333,-1.1149868089699004,-4.114986808969901,52.66989447175921
1590515726.5086806,-3.023745405392587,-2.376254594607413,8.782509189214826,0.4155555555555556,-0.27555555555555555,-0.6433333333333333,-0.6952263511110057,-3.5428395266665085,47.686351348146744
1590515726.5186806,-3.033336205883505,-2.38,8.856681029417524,0.4155555555555556,-0.27555555555555555,-0.6433333333333333,-0.5416487132280935,-3.1457704962983275,43.29092159896588
1590515726.5286806,-3.04,-2.3860166035185943,8.94414943166735,0.4195666245679519,-0.25951127950597025,-0.6272890572837481,-0.3119811400439221,-2.811981140043922,38.29097183676424
1590515726.5386806,-3.0470540765391014,-2.3688377703826955,8.93062146422629,0.4222222222222222,-0.2488888888888889,-0.6166666666666667,0.20929180532445923,-2.246620216306156,31.76029014143095
1590515726.5486805,-3.043645512092193,-2.353645512092193,8.827391657198506,0.4222222222222222,-0.2488888888888889,-0.6166666666666667,0.41471554942379485,-1.824206703457231,25.211349618568413
1590515726.5586805,-3.105859956596984,-2.330242013020905,8.806343982638793,0.4222222222222222,-0.2488888888888889,-0.6166666666666667,0.31401258138065546,-1.1935503255226219,16.73725379776392
1590515726.5686805,-3.1146440153776767,-2.32,8.858033976933486,0.4222222222222222,-0.2488888888888889,-0.6166666666666667,0.3292374519447606,-0.5413127402761968,8.005284734004853
1590515726.5786805,-3.058187925098665,-2.2781879250986647,8.886968679150224,0.4222222222222222,-0.2434688051053825,-0.6166666666666667,0.4621084893777815,-0.18183726593332775,-1.0181060542446891
1590515726.5886805,-3.122524203174042,-2.3218931523805315,8.91750806772468,0.4222222222222222,-0.2411111111111111,-0.6166666666666667,0.6289440674594403,0.5197203372972017,-8.356893207638919
1590515726.5986805,-3.165277999165054,-2.3816679949903223,8.850830012524193,0.4222222222222222,-0.2411111111111111,-0.6166666666666667,0.8854249686895138,1.3073124217237846,-13.96021196250332
1590515726.6086805,-3.199721583385602,-2.427832950031361,8.79188863335424,0.4222222222222222,-0.2411111111111111,-0.6166666666666667,1.39686781308802,1.9729118753920134,-20.566590006272214
1590515726.6186805,-3.2151977687626774,-2.4303955375253548,8.843220081135904,0.4222222222222222,-0.2411111111111111,-0.6166666666666667,1.7150418356997972,2.1850278904665315,-25.851324797160245
1590515726.6286805,-3.197918336783685,-2.4361088842884198,8.910136105360525,0.4266969123023389,-0.24066364210309943,-0.624273639802865,1.6866493414967185,2.2751701317006563,-31.1273014579571
1590515726.6386805,-3.1399901325063433,-2.46,8.934284304643763,0.43333333333333335,-0.24,-0.6355555555555555,1.6428923839059164,2.598284767811833,-37.697247925812555
1590515726.6486804,-3.1470394265232975,-2.4846929510155316,8.837401433691756,0.43333333333333335,-0.24,-0.6355555555555555,1.6728345280764636,2.8896654719235366,-43.73711170848268
1590515726.6586804,-3.1904385041745598,-2.534064173624266,8.814064173624265,0.43333333333333335,-0.24,-0.6355555555555555,1.6675802170303329,3.363302170303328,-49.51423823054795
1590515726.6686804,-3.205592202713645,-2.6003298244228072,8.846776608140935,0.43333333333333335,-0.24,-0.6355555555555555,2.0020614026425454,3.946963936563111,-53.773893755060925
1590515726.6786804,-3.218622962344567,-2.6658688870337013,8.87293444351685,0.44722588377735795,-0.23425135843695533,-0.6264535397474015,2.25,4.3577870293070875,-57.83350679950789
1590515726.6886804,-3.2078138715139786,-2.711093064243011,8.906639596364517,0.4655555555555556,-0.22666666666666666,-0.6144444444444445,2.2846658257594084,4.811992431834676,-62.96127362891799
1590515726.6986804,-3.1668680837512935,-2.7720468115595893,8.821689355942999,0.4655555555555556,-0.22666666666666666,-0.6144444444444445,2.4570744765544146,5.351648953108829,-67.79284591194968
1590515726.7086804,-3.1436585291331847,-2.8417073543340767,8.800731766934524,0.4655555555555556,-0.22666666666666666,-0.6144444444444445,2.36432903541202,5.76067096458798,-72.9664670475725
1590515726.7186804,-3.1162584171749983,-2.871870791412501,8.8181292085875,0.4655555555555556,-0.22666666666666666,-0.6144444444444445,1.9532302146874752,6.097577338984394,-77.49512051414085
1590515726.7286804,-3.0760442878711625,-2.915933568193256,8.81598892803221,0.46954817424369516,-0.20271095453782922,-0.6370692836772354,2.0868772018117765,6.474584801207851,-82.18231001509814
1590515726.7386804,-3.008242685671418,-3.0213329225163434,8.864363412281643,0.4722222222222222,-0.18666666666666668,-0.6522222222222223,2.3125,7.0409069901403925,-87.6670272478834
1590515726.7486804,-2.9952252895189284,-3.0709011580757126,8.801620657216077,0.4722222222222222,-0.18666666666666668,-0.6522222222222223,2.508448356959808,7.318132237973205,-91.6154608784507
1590515726.7586803,-2.9780982905982905,-3.1075213675213673,8.721239316239316,0.4722222222222222,-0.18666666666666668,-0.6522222222222223,2.7422542735042734,7.738648504273504,-96.25267094017094
1590515726.7686803,-2.9215830721003138,-3.14217868338558,8.7708934169279,0.4722222222222222,-0.18666666666666668,-0.6522222222222223,2.8125,8.201116771159874,-101.1430250783699
1590515726.7786803,-2.865322200036304,-3.171742239970957,8.85706444000726,0.4769517355438575,-0.18373110667392753,-0.649775922228273,2.8491944999092396,8.477625249591577,-105.5818909965511
1590515726.7886803,-2.78,-3.2579871248821406,8.816017166823812,0.5044444444444445,-0.16666666666666666,-0.6355555555555555,3.0625,9.4375,-113.6875
1590515726.7986803,-2.772790957977468,-3.3420904202253205,8.76395478988734,0.5044444444444445,-0.16666666666666666,-0.6355555555555555,3.0174434873591744,9.617726050563302,-116.57111680901282
1590515726.8086803,-2.714311038011696,-3.411766721491228,8.756961120248539,0.5044444444444445,-0.16666666666666666,-0.6355555555555555,3.0,10.0355560124269,-122.3427491662098
1590515726.8186803,-2.6730622745283577,-3.458229542452737,8.771291816981094,0.5044444444444445,-0.16666666666666666,-0.6355555555555555,2.9647130719340784,10.258073856131842,-125.89233790683463
1590515726.8286803,-2.634745945945946,-3.501045045045045,8.784209009009007,0.5128624624624625,-0.15918398398398398,-0.6425705705705705,3.042725225225225,10.338806306306306,-127.95691441441441
1590515726.8386803,-2.557059276931547,-3.54610277115067,8.811470361534226,0.5244444444444445,-0.14888888888888888,-0.6522222222222223,3.1204051202055423,10.475642319691687,-130.19392319691687
1590515726.8486803,-2.506493781667434,-3.641037309995394,8.775975126669737,0.5244444444444445,-0.14888888888888888,-0.6522222222222223,2.8514653385536617,10.773534661446337,-132.07546637494244
1590515726.8586802,-2.4617504979509603,-3.686374917008173,8.769124751024519,0.5244444444444445,-0.14888888888888888,-0.6522222222222223,3.0289026191075803,10.914843231301083,-133.2796781634195
1590515726.8686802,-2.4075670351901475,-3.7038998420613654,8.770733438625756,0.5244444444444445,-0.14888888888888888,-0.6522222222222223,3.1875,11.111248025767066,-134.17978607300668
1590515726.8786802,-2.314943536658397,-3.7650461972794935,8.770010266062108,0.5305618292601781,-0.14888888888888888,-0.6438803338371308,3.218782081444093,11.156089592779537,-135.09410289588502
1590515726.8886802,-2.2360231323774062,-3.8159942169056484,8.762017349283054,0.5366666666666666,-0.14888888888888888,-0.6355555555555555,3.25,11.224783133961816,-135.92453012358393
1590515726.8986802,-2.1810994679993554,-3.8394502660003225,8.726659680799614,0.5366666666666666,-0.14888888888888888,-0.6355555555555555,3.298625665000806,11.472251330001612,-136.49312832500402
1590515726.9086802,-2.1043126652247057,-3.8794124008651765,8.699412400865176,0.5366666666666666,-0.14888888888888888,-0.6355555555555555,3.414218336938236,11.664218336938236,-136.875
1590515726.9186802,-2.0222276861095474,-3.929398347009509,8.742048760257132,0.5366666666666666,-0.14888888888888888,-0.6355555555555555,3.477032541398821,11.704065082797642,-136.875
1590515726.9286802,-1.941465325710223,-3.979098261101401,8.77932369582605,0.5366666666666666,-0.14888888888888888,-0.6355555555555555,3.4382044835145305,11.626408967029061,-136.875
1590515726.9386802,-1.8491984016961593,-3.9873346652532007,8.72653306694936,0.6022222222222222,-0.2533333333333333,-0.5866666666666667,3.1849950053004976,11.456663336866999,-136.8125
1590515726.9486802,-1.7757411538461538,-4.0618719230769225,8.689547692307693,0.6022222222222222,-0.2533333333333333,-0.5866666666666667,3.1100817307692306,11.398790865384616,-136.69354567307693
1590515726.9586802,-1.7016399033679124,-4.13,8.662950120790109,0.6022222222222222,-0.2533333333333333,-0.5866666666666667,3.1301246980247264,11.466187650987637,-136.38524939604946
1590515726.9686801,-1.6528287158865793,-4.140189231542533,8.713774873599244,0.6022222222222222,-0.2533333333333333,-0.5866666666666667,3.04127243428639,11.45754486857278,-136.27122756571362
1590515726.9786801,-1.596181527856211,-4.175273888575156,8.75618152785621,0.6836829612897224,-0.3670389482817189,-0.4555657897299087,3.0954618035947266,11.35113454910132,-136.21703819640527
1590515726.9886801,-1.5311596153846154,-4.180386538461539,8.746077307692309,0.8155555555555556,-0.5511111111111111,-0.2433333333333333,3.1764495192307693,11.361533653846154,-135.89088221153847
1590515726.99868,-1.4352038307709243,-4.154796169229076,8.67285363079294,0.8155555555555556,-0.5511111111111111,-0.2433333333333333,3.0025478846365536,11.4375,-135.56504788463656
1590515727.00868,-1.3909826880252856,-4.145368508009482,8.658525967962072,0.8155555555555556,-0.5511111111111111,-0.2433333333333333,2.907017725019754,11.4375,-135.2866240751383
1590515727.01868,-1.333531978185424,-4.168425384234011,8.730978681209718,0.8155555555555556,-0.5511111111111111,-0.2433333333333333,2.7377664848785326,11.471808378780366,-134.37633242439267
1590515727.02868,-1.2338768430182134,-4.211483087597571,8.728516912402428,1.1249609713790112,-0.19704924351932157,-0.10362243422954609,2.8403078924544665,11.356461405030355,-132.98715307892454
1590515727.03868,-1.1339020152883947,-4.26813064628214,8.72,1.3544444444444443,0.06555555555555556,0.0,2.8495917303683114,11.174795865184155,-131.05892764072271
1590515727.04868,-1.084968576807828,-4.306257855798043,8.663679297817614,1.3544444444444443,0.06555555555555556,0.0,2.8282231974755376,10.890330407573387,-128.46658965553817
1590515727.05868,-1.0184718461431645,-4.284235923071582,8.687969173088941,1.3544444444444443,0.06555555555555556,0.0,2.7944872595986947,10.58897451919739,-125.38442511976672
1590515727.06868,-0.9705401722925456,-4.258324103375528,8.71610803445851,1.3544444444444443,0.06555555555555556,0.0,2.798649569268636,10.354051292194093,-122.83916249120956
1590515727.07868,-0.9397949802709189,-4.239897490135459,8.710717569051784,1.350139030133742,0.06781077257544736,-0.005649432534678436,2.8717965667331082,10.122437253386487,-120.58463674083717
1590515727.08868,-0.8957176340824486,-4.234856473183511,8.775143526816489,0.9344444444444444,0.2855555555555556,-0.5511111111111111,2.6232059147938784,9.753588170412243,-114.59314593961119
1590515727.09868,-0.8197005870457268,-4.230854652190132,8.715127913140792,0.9344444444444444,0.2855555555555556,-0.5511111111111111,2.658920788094163,9.453524728564977,-110.23155910706222
1590515727.10868,-0.7399511296266624,-4.217135875660952,8.655728248678097,0.9344444444444444,0.2855555555555556,-0.5511111111111111,2.553396891523794,9.142595337285691,-106.11223161352348
1590515727.11868,-0.6757094365241004,-4.212041509067985,8.67,0.9344444444444444,0.2855555555555556,-0.5511111111111111,2.3877594316749104,8.760165114925808,-101.05191058093298
1590515727.12868,-0.5588751683879659,-4.270011225864391,8.736681634485855,0.7708274709374844,0.28061617522327004,-0.6060617173077882,2.194389874270319,8.104119892231703,-93.63821845532107
1590515727.13868,-0.47490577824049973,-4.315849036959917,8.725660593440915,0.64,0.2766666666666667,-0.65,2.073112961998959,7.791274076002082,-88.03302967204581
1590515727.14868,-0.42430072788135925,-4.33284963605932,8.662867151920906,0.64,0.2766666666666667,-0.65,2.0446897746292474,7.500109474134911,-83.50131368961894
1590515727.15868,-0.37403480359467783,-4.3220609062906865,8.624034803594679,0.64,0.2766666666666667,-0.65,1.8377175224667366,6.975598186783525,-78.67896978501794
1590515727.16868,-0.3200920547131642,-4.30563538167443,8.664088454186077,0.64,0.2766666666666667,-0.65,1.5806859096898722,6.402278864534808,-74.38869569050314
1590515727.17868,-0.27143309886372424,-4.352850351704413,8.732866197727448,0.5943098606065291,0.2895170183710804,-0.6561872063761992,1.624900962356033,6.000099037643967,-70.81329230115173
1590515727.18868,-0.26,-4.37,8.71,0.5333333333333333,0.30666666666666664,-0.6644444444444444,1.875,5.75,-68.8125
1590515727.19868,-0.23100334708492257,-4.3506688980566155,8.652006694169845,0.5333333333333333,0.30666666666666664,-0.6644444444444444,1.663566072494227,5.689590306426922,-65.94303955527879
1590515727.20868,-0.1647742219201631,-4.325596777740021,8.625225778079837,0.5333333333333333,0.30666666666666664,-0.6644444444444444,1.5475805564994902,5.5424395826253825,-61.66411387850561
1590515727.21868,-0.10852931014626281,-4.3085293101462625,8.681470689853738,0.5333333333333333,0.30666666666666664,-0.6644444444444444,1.744853449268686,5.351469826096971,-59.508450420361626
1590515727.22868,-0.07402592915549266,-4.274025929155492,8.715974070844508,0.5333333333333333,0.30666666666666664,-0.6644444444444444,1.9173703542225367,5.0926944686661955,-57.65389369210773
1590515727.23868,-0.026361943456915525,-4.203638056543085,8.733409514135772,0.4722222222222222,0.32666666666666666,-0.6766666666666666,1.3295242932114442,4.875,-53.458693076011514
1590515727.2486799,0.0037311784782172257,-4.256118249347521,8.676569965870307,0.4722222222222222,0.32666666666666666,-0.6766666666666666,1.0466397309777153,4.735080807066854,-50.63810605300141
1590515727.2586799,0.015596720712252944,-4.297201639643873,8.595185243205139,0.4722222222222222,0.32666666666666666,-0.6766666666666666,1.1424897522257904,4.412551238871048,-48.17540991096838
1590515727.2686799,0.03613832606651278,-4.271585021800462,8.666138326066513,0.4722222222222222,0.32666666666666666,-0.6766666666666666,1.1683177310421475,4.129953193126442,-45.6077092416859
1590515727.2786798,0.0650393171849686,-4.239399573240606,8.691279487888727,0.4678357547099397,0.3289643401254813,-0.6781288225040941,1.1132505334492433,3.96475160034773,-43.48726760382503
1590515727.2886798,0.13103389138423846,-4.280344630461413,8.738276847692935,0.4488888888888889,0.3388888888888889,-0.6844444444444444,1.0711157615353206,3.8168078807676604,-41.75218966925276
1590515727.2986798,0.17910714285714285,-4.283630952380952,8.693184523809522,0.4488888888888889,0.3388888888888889,-0.6844444444444444,1.2527901785714286,3.837983630952381,-39.465401785714285
1590515727.3086798,0.21893954976574106,-4.271060450234258,8.704241800937035,0.4488888888888889,0.3388888888888889,-0.6844444444444444,1.1183721860358815,3.6183721860358817,-38.04168809278939
1590515727.3186798,0.2172352008146161,-4.26191199796346,8.725529598370768,0.4488888888888889,0.3388888888888889,-0.6844444444444444,1.0851100025456752,3.5172799949086495,-36.247249936358116
1590515727.3286798,0.2364041095890411,-4.22679794520548,8.719212328767123,0.4431963470319635,0.34137937595129375,-0.6912043378995434,1.0449486301369864,3.337435787671233,-34.80971746575342
1590515727.3386798,0.25357607640012947,-4.202119617999353,8.75642392359987,0.4311111111111111,0.3466666666666667,-0.7055555555555556,0.9644019100032373,3.125,-33.53974283748786
1590515727.3486798,0.2648131422678946,-4.175615332645877,8.745186857732106,0.4311111111111111,0.3466666666666667,-0.7055555555555556,1.0949178608256587,3.1199863101376097,-32.887363101376096
1590515727.3586798,0.3228330249361177,-4.237166975063882,8.673001850383294,0.4311111111111111,0.3466666666666667,-0.7055555555555556,0.8562384351044144,3.0802064058507357,-32.18855515904485
1590515727.3686798,0.33038139145012574,-4.229237217099749,8.63457669740151,0.4311111111111111,0.3466666666666667,-0.7055555555555556,1.1130815171835708,3.1226163034367143,-31.848779337803855
1590515727.3786798,0.3341174354824207,-4.2188238467763695,8.75294128225879,0.4311111111111111,0.3433985752680115,-0.6960780904994556,0.849266028234871,3.025733971765129,-31.279415070587177
1590515727.3886797,0.3157573870320393,-4.2230295481281575,8.75575738703204,0.4311111111111111,0.33555555555555555,-0.6733333333333333,0.8844673379004913,2.9109836689502457,-31.712130648398034
1590515727.3986797,0.31722957728491763,-4.131319015793283,8.666859861223447,0.4311111111111111,0.33555555555555555,-0.6733333333333333,0.9480545740922055,2.8975924290153676,-32.112962145076835
1590515727.4086797,0.3274819218687412,-4.035180781312588,8.572879640756435,0.4311111111111111,0.33555555555555555,-0.6733333333333333,1.0143821284759555,2.984713964961103,-32.23381005839816
1590515727.4186797,0.32,-4.100381997913666,8.731603000347723,0.4311111111111111,0.33555555555555555,-0.6733333333333333,0.590168769559386,3.125,-31.93988748696041
1590515727.4286797,0.32,-4.052346341322719,8.747039023968158,0.4157295402177292,0.34259457952371336,-0.661601626719737,0.9891768336650226,3.1103353667330045,-31.537012200398028
1590515727.4386797,0.32597517936784953,-4.045062051580376,8.761037230948226,0.3655555555555556,0.3655555555555556,-0.6233333333333333,0.8620346131471786,3.0251551289509404,-31.156637822377352
1590515727.4486797,0.34,-3.993986455287055,8.736441434508235,0.3655555555555556,0.3655555555555556,-0.6233333333333333,1.102758965676466,2.9486205171617668,-30.815174311220563
1590515727.4586797,-1.672314088324604,-5.3515999918482136,3.415937557317249,0.3655555555555556,0.3655555555555556,-0.6233333333333333,-18.952342619576513,-3.2884815260143876,36.0313716399356
1590515727.4686797,-3.9124554666866462,-8.44946803528949,-6.828373199468034,0.3655555555555556,0.3655555555555556,-0.6233333333333333,-69.40385768070878,-31.314603742484124,260.36713174555604
1590515727.4786797,7.605037181336281,-8.0330784647948,1.090885046921537,0.3655555555555556,0.3655555555555556,-0.6233333333333333,-101.22230599209546,-104.0354709479836,659.4235043175305
1590515727.4886796,1.057394362528005,-4.240727869535768,-1.7495243057364664,0.36777777777777776,0.4222222222222222,-0.6733333333333333,-91.61466745688533,-31.612026520085447,277.4542215912051
1590515727.4986796,-0.8667423149905124,-0.5080265654648957,3.5629540796963948,0.36777777777777776,0.4222222222222222,-0.6733333333333333,-76.14222960151803,31.327722960151803,48.04615275142315
1590515727.5086796,-1.050257066233812,-0.8998861992307421,9.713305691802816,0.36777777777777776,0.4222222222222222,-0.6733333333333333,-22.624598609689826,-1.648664384770104,55.91867214792336
1590515727.5186796,0.016225596529284167,-0.05563991323210412,1.3915618221258135,0.36777777777777776,0.4222222222222222,-0.6733333333333333,61.666757049891544,-29.585818872017352,65.40916485900217
1590515727.5286796,-3.2985008544844607,-0.6811412114690802,10.766130767770111,0.38447268111202537,0.4097717858373596,-0.6656932928244403,137.81424852838788,0.659913206532059,73.67125886132034
1590515727.5386796,-3.484070080862534,1.7072506738544475,5.01943396226415,0.43333333333333335,0.37333333333333335,-0.6433333333333333,141.56873315363882,-15.94811320754717,70.7269204851752
1590515727.5486796,1.1600183665403483,0.6735593890219236,-0.5988361658103364,0.43333333333333335,0.37333333333333335,-0.6433333333333333,51.5349167693488,-21.797872154929905,55.89183938576709
1590515727.5586796,-1.768911137094417,-0.564401247198675,5.366459612199162,0.43333333333333335,0.37333333333333335,-0.6433333333333333,-25.865627740426774,9.764195410698626,46.71760206567281
1590515727.5686796,-3.0332939800042547,-2.3093373750265904,13.207767496277388,0.43333333333333335,0.37333333333333335,-0.6433333333333333,-56.23451792171878,11.575509200170178,41.45779488406722
1590515727.5786796,-1.7521757634121338,-1.8497306700630611,9.55983691093784,0.43790928451361494,0.3539735398782959,-0.6556532018956299,-12.818079975769624,0.8079820446708708,45.816353949861764
1590515727.5886796,-1.6566217305137532,-1.331723980225189,6.528554783631335,0.4477777777777778,0.31222222222222223,-0.6822222222222222,14.139723577324302,0.03839400439924212,56.86291841801511
1590515727.5986795,-1.5527608663476244,-1.9629720262469783,7.717978193300114,0.4477777777777778,0.31222222222222223,-0.6822222222222222,-6.401086634762446,-8.199883442695743,60.97234076668805
1590515727.6086795,-1.2461135828317194,-2.589078775189741,8.434012038733316,0.4477777777777778,0.31222222222222223,-0.6822222222222222,-9.10887202303062,-9.241363517403821,66.72111358283172
1590515727.6186795,-1.1447079233557742,-5.830091662351113,5.201500258933195,0.4477777777777778,0.31222222222222223,-0.6822222222222222,6.397119368203004,-2.6151573019161054,66.54397980321077
1590515727.6286795,-4.207350595546349,-22.345193164163643,6.946410150181253,0.4477777777777778,0.31222222222222223,-0.6822222222222222,-7.087920766442256,3.403333764888659,42.28900828586225
1590515727.6386795,-1.4940329571849222,-1.3568474861459114,10.078559540574647,0.4544444444444444,0.31777777777777777,-0.6888888888888889,-2.6933651261042124,-4.4604552645536515,-75.9205481738208
1590515727.6486795,-0.22830970974998643,-1.3952027360681822,5.813455749218136,0.4544444444444444,0.31777777777777777,-0.6888888888888889,30.53187011906286,10.114539705909248,-72.32474349360791
1590515727.6586795,-0.5960724105511503,-2.21607241055115,8.070219431288027,0.4544444444444444,0.31777777777777777,-0.6888888888888889,-2.2679906604225426,2.777573040285243,-64.31561984460646
1590515727.6686795,-1.3400988061660724,-2.960098806166072,11.968917744310218,0.4544444444444444,0.31777777777777777,-0.6888888888888889,-18.86907961258049,7.381236363152573,-60.409481267628124
1590515727.6786795,-0.3553000807909822,-3.5301342669180165,7.289767052668026,0.4520274048141166,0.3168481471507286,-0.6836829573774136,5.9063750336629095,3.6787921267264263,-53.91508290693648
1590515727.6886795,-0.7183660985649982,-7.725563805639981,9.024415804254993,0.44037343387322225,0.31236585063500005,-0.6585820968893334,6.057652541068749,5.74625139460624,-51.99890114646251
1590515727.6986794,-0.5542480419630668,-6.042407127972982,8.950346339009844,0.44,0.31222222222222223,-0.6577777777777778,-3.6592431917798383,4.588250880218438,-82.00022454551987
1590515727.7086794,-0.038075360045629544,-2.862392699272779,9.293589048909167,0.44,0.31222222222222223,-0.6577777777777778,7.898001924996435,11.043564184371881,-100.88060788892058
1590515727.7186794,-0.26225087231651784,-3.1490720917854396,9.465171801998935,0.44,0.31222222222222223,-0.6577777777777778,1.6187718079129456,7.282430953929859,-99.62875909279082
1590515727.7286794,-0.088137559318062,-3.9230048626164393,9.269066729158123,0.43922588708575,0.31531867387922224,-0.6601001165205278,0.19426299138789616,9.053675522877732,-96.60398236569219
1590515727.7386794,0.22866884801085352,-4.604837795778301,7.930454491041858,0.4355555555555555,0.33,-0.6711111111111111,3.5005075116715214,7.691964107577511,-103.40178464546507
1590515727.7486794,0.026598520834586012,-3.1351277734351513,8.586905177078949,0.4355555555555555,0.33,-0.6711111111111111,1.480657356743431,9.855018489567675,-116.95595574529493
1590515727.7586794,0.05717875666593613,-3.6625977061874497,8.813058660238148,0.4355555555555555,0.33,-0.6711111111111111,2.7639665059536855,10.535658192709475,-124.31359120461684
1590515727.7686794,-2.9521918708906156,-8.811901374775852,8.106700537955769,0.4355555555555555,0.33,-0.6711111111111111,1.212922145845786,11.436898535564854,-120.96352361028093
1590515727.7786794,-8.64181064801714,-16.125861664712776,7.431992561749606,0.4307642173442391,0.33448221961703795,-0.6704928739225542,-2.2944349557343253,11.761885030521082,-97.5523810486316
1590515727.7886794,1.7689109431216394,1.3299003516998837,13.112109390791122,0.40156295338067577,0.361799531066823,-0.6667249688949975,-6.374369618385415,-3.0212548510328645,11.069256073897392
1590515727.7986794,3.6080522132138677,-2.419139691161021,6.55327611156263,0.4011111111111111,0.3622222222222222,-0.6666666666666666,21.34244974924178,-10.361257854778282,43.24143655717882
1590515727.8086793,0.6413515270797455,-2.7378638456401787,8.033556918426878,0.4011111111111111,0.3622222222222222,-0.6666666666666666,1.5648327944329248,-1.0687866833022879,4.549105103152567
1590515727.8186793,0.1917463887814993,-4.211979053175413,10.34054721821952,0.4011111111111111,0.3622222222222222,-0.6666666666666666,-15.571756493164166,0.6817251256458019,-15.53571459951499
1590515727.8286793,-1.868816504086475,-6.571054046928553,7.842920906933826,0.3994570993350324,0.3649287869467147,-0.6684710431496617,-4.621790139731083,8.859591682045874,-26.473732863168994
1590515727.8386793,0.03298400350608083,-5.580694094445053,8.8099791826449,0.3888888888888889,0.38222222222222224,-0.68,2.046582255943903,0.14013709323983783,-14.702941820970747
1590515727.8486793,0.5587408973455485,-3.3836821705426354,8.81180526192154,0.3888888888888889,0.38222222222222224,-0.68,1.1203972868217056,-0.5013360347662673,6.166417077754287
1590515727.8586793,0.06610523843081983,-4.5448947951273535,8.903294741434276,0.3888888888888889,0.38222222222222224,-0.68,-0.33111849390919157,-0.3253947280110071,0.7122365683412193
1590515727.8686793,0.014114152344578823,-4.367647641275903,8.421732088549401,0.3888888888888889,0.38222222222222224,-0.68,0.08089327392319118,0.11029775797439706,-0.19119103189758824
1590515727.8786793,0.05861128792701039,-4.360231452012165,8.837038687318763,0.3888888888888889,0.38222222222222224,-0.68,-0.058160274771907494,0.06394657507603083,-0.005786300304123332
1590515727.8886793,0.03500616397872161,-4.429975344085114,8.687509245968082,0.3744444444444445,0.37666666666666665,-0.6666666666666666,0.14049016296546485,0.15621147513298994,-0.06242295026597991
1590515727.8986793,0.04917250696614034,-4.373309972135439,8.70875876044921,0.3744444444444445,0.37666666666666665,-0.6666666666666666,-0.16939858988431988,0.06767183146162291,0.11465633707675418
1590515727.9086792,0.021731880385200204,-4.460949315762798,8.576369488089204,0.3744444444444445,0.37666666666666665,-0.6666666666666666,0.2800272427774962,0.0625,0.021648504815002533
1590515727.9186792,0.03,-4.3649870870547725,8.75,0.3744444444444445,0.37666666666666665,-0.6666666666666666,0.11455643136410919,0.0625,0.10411286272821837
1590515727.9286792,0.03,-4.342420101151404,8.75,0.3744444444444445,0.37666666666666665,-0.6666666666666666,0.06754187739875893,0.0625,0.010083754797517858
1590515727.9386792,0.014152612311403603,-4.403389550754386,8.75,0.3806073174344542,0.38194912922953217,-0.6701883083752437,0.16154617305372748,0.16154617305372748,0.0
1590515727.9486792,0.02903438879180119,-4.391448416812298,8.7309656112082,0.38222222222222224,0.38333333333333336,-0.6711111111111111,0.06853507005124256,0.24698246497437873,0.0
1590515727.9586792,0.04854878413509099,-4.3714512158649095,8.627981687256998,0.38222222222222224,0.38333333333333336,-0.6711111111111111,-0.22732475211079672,-0.039824752110796724,0.11592990084431867
1590515727.9686792,0.04111898072270351,-4.39671388433622,8.692237961445407,0.38222222222222224,0.38333333333333336,-0.6711111111111111,-0.041519111449309296,0.0069936295168969015,-0.0485127409662062
1590515727.9786792,0.0493026613595567,-4.445815968157341,8.708605322719114,0.38222222222222224,0.38333333333333336,-0.6711111111111111,0.11192490049168813,0.05814163349722938,0.05378326699445876
1590515727.9886792,0.0428309043348281,-4.435661808669656,8.724338191330345,0.38700161933233684,0.3936886937385816,-0.662348883075901,0.125,0.0625,0.017693152092675635
1590515727.9986792,0.01152040620808584,-4.410304081241617,8.734526537650892,0.3888888888888889,0.3977777777777778,-0.6588888888888889,0.1798979689595708,0.2480994922398927,0.0019005077601073
1590515728.0086792,0.051703391454301584,-4.4183406782908605,8.589867790764515,0.3888888888888889,0.3977777777777778,-0.6588888888888889,-0.02101695727150793,0.197870760682123,0.05212923931787698
1590515728.0186791,0.030797951270882196,-4.403191805083529,8.645585658896175,0.3888888888888889,0.3977777777777778,-0.6588888888888889,0.01994878177205495,0.1875,0.05252560911397253
1590515728.0286791,0.03749030683069264,-4.429961227322771,8.692432147814849,0.3888888888888889,0.3977777777777778,-0.6588888888888889,0.18725767076731606,0.1875,-0.03112883538365803
1590515728.0386791,0.04990191110467642,-4.360441400028956,8.749705733314029,0.38222222222222224,0.3977777777777778,-0.6666666666666666,0.2496934722021138,0.1253065277978862,0.0628065277978862
1590515728.048679,0.034720573331402924,-4.428757420008687,8.70416171999421,0.38222222222222224,0.3977777777777778,-0.6666666666666666,0.20225179166063414,0.17274820833936586,0.11024820833936586
1590515728.058679,0.02083789216559375,-4.395027352993562,8.640837892165594,0.38222222222222224,0.3977777777777778,-0.6666666666666666,0.16655269586015622,0.125,0.13547365206992187
1590515728.068679,0.03,-4.444415799476864,8.658934720837019,0.38222222222222224,0.3977777777777778,-0.6666666666666666,-0.027598746730396494,0.1180197493460793,0.2150987467303965
1590515728.078679,0.03,-4.404951920362809,8.722076927419508,0.38222222222222224,0.3977777777777778,-0.6666666666666666,0.2190504977324476,0.06868990045351048,-0.03155049773244761
1590515728.088679,0.03940491591203105,-4.429404915912031,8.731190168175939,0.3744444444444445,0.4033333333333333,-0.6711111111111111,0.125,0.1726228978007762,-0.003719275549805951
1590515728.098679,0.03105721962384317,-4.421057219623843,8.747885560752314,0.3744444444444445,0.4033333333333333,-0.6711111111111111,0.125,-0.036069509403920785,-0.055892377350980196
1590515728.108679,0.030365366978162257,-4.44,8.631461467912649,0.3744444444444445,0.4033333333333333,-0.6711111111111111,0.0,0.05564936915945765,0.24086582554594355
1590515728.118679,0.0406221160851615,-4.439377883914839,8.668133651744515,0.3744444444444445,0.4033333333333333,-0.6711111111111111,-0.00388822553225937,-0.11722354893548126,0.00388822553225937
1590515728.128679,0.04911053994980977,-4.43088946005019,8.642668380150571,0.3744444444444445,0.4033333333333333,-0.6711111111111111,-0.05694087468631102,-0.011118250627377965,0.05694087468631102
1590515728.138679,0.04874566696623443,-4.446237000898703,8.738118500449351,0.3744444444444445,0.3977777777777778,-0.6666666666666666,0.1289197907305174,0.11716041853896521,0.1835802092694826
1590515728.148679,0.03079599435100783,-4.392387983053023,8.711193991526512,0.3744444444444445,0.3977777777777778,-0.6666666666666666,0.18501251765310053,0.004974964693798947,0.12748748234689947
1590515728.158679,0.03,-4.439972014486619,8.630167913080289,0.3744444444444445,0.3977777777777778,-0.6666666666666666,0.125,0.12465018108273364,0.00034981891726635624
1590515728.168679,0.03,-4.4301081792954236,8.689350924227458,0.3744444444444445,0.3977777777777778,-0.6666666666666666,0.125,0.0013522411927943123,0.12364775880720569
1590515728.178679,0.04714350656059511,-4.438571753280298,8.69,0.3744444444444445,0.3977777777777778,-0.6666666666666666,-0.035720374005579064,0.0,-0.035720374005579064
1590515728.188679,0.030555261519302615,-4.41,8.70222104607721,0.3888888888888889,0.3977777777777778,-0.6666666666666666,-0.04514807752179328,0.1875,0.0034703844956413448
1590515728.198679,0.037084371108343714,-4.41,8.728337484433375,0.3888888888888889,0.3977777777777778,-0.6666666666666666,0.15888659713574096,0.1875,0.044277319427148194
1590515728.208679,0.02182722041727013,-4.419086389791365,8.658222491877716,0.3888888888888889,0.3977777777777778,-0.6666666666666666,0.19321006380396916,0.0739201276079383,0.0057100638039691495
1590515728.218679,0.027388911688990037,-4.42738891168899,8.68694455844495,0.3888888888888889,0.3977777777777778,-0.6666666666666666,0.04895790583143678,0.10868069805618774,0.0
1590515728.228679,0.03,-4.43,8.707541558721935,0.3888888888888889,0.3977777777777778,-0.6666666666666666,0.14140422603626943,0.1721347420120898,0.0
1590515728.238679,0.03,-4.422574407454315,8.717425592545686,0.3839384938584324,0.3821015268479987,-0.6699669300203044,0.1410900465894699,0.09468009317893974,0.0
1590515728.248679,0.030816947776675385,-4.4,8.665915261116623,0.38222222222222224,0.37666666666666665,-0.6711111111111111,0.13010592360422116,0.025529618021105798,0.0625
1590515728.258679,0.039713391533520014,-4.40057321693296,8.621433042332399,0.38222222222222224,0.37666666666666665,-0.6711111111111111,0.18570869708450008,0.3053347883380003,0.0625
1590515728.268679,0.030131942374565325,-4.42,8.67052776949826,0.38222222222222224,0.37666666666666665,-0.6711111111111111,0.12335072031793343,0.06414927968206657,0.06167536015896671
1590515728.278679,0.03846636860407352,-4.42,8.703865474416295,0.38222222222222224,0.37666666666666665,-0.6711111111111111,0.019170392449080975,0.16832960755091902,0.009585196224540488
1590515728.288679,0.04,-4.42,8.700118662663124,0.36904710577305566,0.38325422489125,-0.6711111111111111,0.0,0.1257416416445317,-0.0617583583554683
1590515728.2986789,0.031071459282827413,-4.393214377848482,8.708928540717173,0.3688888888888889,0.38333333333333336,-0.6711111111111111,0.22321351792931463,0.125,-0.006696620517671344
1590515728.3086789,0.03,-4.407815000482021,8.647647498312928,0.3688888888888889,0.38333333333333336,-0.6711111111111111,0.19432812349368553,0.06932812349368553,0.0
1590515728.3186789,0.03942649800937358,-4.4005735019906265,8.69655898805624,0.3688888888888889,0.38333333333333336,-0.6711111111111111,0.1875,0.0625,0.058915612558584886
1590515728.3286788,0.04,-4.412458424284301,8.712458424284302,0.3688888888888889,0.38333333333333336,-0.6711111111111111,0.07070227233467863,0.14036515177688091,0.0625
1590515728.3386788,0.04,-4.427062507385088,8.727062507385089,0.3916458571297281,0.38882639463284624,-0.6773888954534116,0.0,0.05507798652959944,0.01835932884319981
1590515728.3486788,0.04633182160365753,-4.423668178396342,8.723668178396343,0.4011111111111111,0.3911111111111111,-0.68,0.03957388502285956,0.07914777004571912,0.0
1590515728.3586788,0.03434091395166465,-4.404340913951665,8.649534112782492,0.4011111111111111,0.3911111111111111,-0.68,0.20930393170314393,-0.02180393170314393,0.04893464390104798
1590515728.3686788,0.03,-4.393074367394243,8.657702530423025,0.4011111111111111,0.3911111111111111,-0.68,0.3365704075719529,0.024070407571952876,0.1490704075719529
1590515728.3786788,0.03718085253138364,-4.418723410125534,8.69154255759415,0.4011111111111111,0.3911111111111111,-0.68,0.19547868671540902,-0.07214098496344323,0.14261967167885226
1590515728.3886788,0.033272330138264486,-4.416544660276529,8.706727669861737,0.3973735167434803,0.3955962243522681,-0.6740198490117907,0.04090412672830604,0.04319174654338792,0.08295206336415302
1590515728.3986788,0.03895312711063083,-4.436859381331893,8.683140618668107,0.3955555555555556,0.3977777777777778,-0.6711111111111111,0.167871133324328,0.013085911117114685,0.006542955558557342
1590515728.4086788,0.030560402439913485,-4.373922817079395,8.613922817079393,0.3955555555555556,0.3977777777777778,-0.6711111111111111,-0.04848993900216286,0.058997484750540716,0.11799496950108143
1590515728.4186788,0.058961712699108576,-4.408615616932145,8.648615616932146,0.3955555555555556,0.3977777777777778,-0.6711111111111111,0.11851070436942862,0.0021630985435237976,0.1853369014564762
1590515728.4286788,0.05318671710802858,-4.403186717108029,8.6976929802438,0.3955555555555556,0.3977777777777778,-0.6711111111111111,0.0398339638503573,-0.0851660361496427,0.1023339638503573
1590515728.4386787,0.03162270183852918,-4.418377298161471,8.692434052757793,0.38942978950173196,0.3783795186073363,-0.6670272670752286,0.0,-0.010141886490807342,0.11992905675459634
1590515728.4486787,0.03,-4.42,8.749086602516654,0.3888888888888889,0.37666666666666665,-0.6666666666666666,0.12309708857636319,0.06154854428818159,0.0634514557118184
1590515728.4586787,0.03,-4.42,8.61278897690082,0.3888888888888889,0.37666666666666665,-0.6666666666666666,0.18625492102641938,0.0012450789735806087,0.0625
1590515728.4686787,0.03,-4.41013867229673,8.688890621626161,0.3888888888888889,0.37666666666666665,-0.6666666666666666,0.06423340370912406,0.0,0.0625
1590515728.4786787,0.03,-4.41,8.719737598849749,0.3888888888888889,0.37666666666666665,-0.6666666666666666,0.025328001437814524,-0.037171998562185476,0.0625
1590515728.4886787,0.03,-4.415383682253962,8.729232635492076,0.3888888888888889,0.38444309658905623,-0.6666666666666666,0.13459205634905108,-0.09614801408726277,0.02885198591273723
1590515728.4986787,0.03,-4.429201233098312,8.673993834508439,0.3888888888888889,0.3911111111111111,-0.6666666666666666,0.1349845862710985,0.10503082745780298,-0.17252312059335226
1590515728.5086787,0.03,-4.420645798149425,8.613874788896553,0.3888888888888889,0.3911111111111111,-0.6666666666666666,0.18346376156609023,0.06653623843390975,-0.012108715301729273
1590515728.5186787,0.03856375663108259,-4.411436243368917,8.64425502652433,0.3888888888888889,0.3911111111111111,-0.6666666666666666,-0.02659391577706466,0.008976521055733835,0.053523478944266165
1590515728.5286787,0.04,-4.417368728121353,8.679474912485414,0.3888888888888889,0.3911111111111111,-0.6666666666666666,0.1677727537922987,-0.04605455075845974,0.01644544924154026
1590515728.5386786,0.05213670613562971,-4.413931646932185,8.720341765339073,0.3929344576007655,0.3863912809472551,-0.6612725750508313,0.21207279332615717,0.08920882669537136,-0.03792720667384284
1590515728.5486786,0.032866995073891625,-4.400955665024631,8.721911330049261,0.3955555555555556,0.38333333333333336,-0.6577777777777778,-0.0951354679802956,0.1875,-0.0625
1590515728.5586786,0.036770026725142194,-4.406770026725143,8.645529706023435,0.3955555555555556,0.38333333333333336,-0.6577777777777778,0.001938001096416092,0.06056199890358391,-0.1048126670321387
1590515728.5686786,0.04,-4.419172857653649,8.61,0.3955555555555556,0.38333333333333336,-0.6577777777777778,0.0625,0.0,-0.0676696396646935
