time,acc_x,acc_y,acc_z,mag_x,mag_y,mag_z,gyr_x,gyr_y,gyr_z
1590514965.2200825,0.09,-4.28,8.79,0.4088888888888889,0.27111111111111114,-0.5788888888888889,-0.0625,-0.25,0.0625
1590514965.2300825,0.08107751780264497,-4.308383723296032,8.703232553407934,0.4088888888888889,0.27111111111111114,-0.5788888888888889,-0.0625,-0.06586724313326552,-0.055765513733468976
1590514965.2400825,0.09814486266531028,-4.282782706002035,8.75443458799593,0.4088888888888889,0.27111111111111114,-0.5788888888888889,-0.0625,-0.1192026958290946,0.050905391658189206
1590514965.2500825,0.08451270791474201,-4.28,8.783230938127886,0.4088888888888889,0.27111111111111114,-0.5788888888888889,-0.014102212233568778,-0.07660221223356878,0.014102212233568778
1590514965.2600825,0.0885222594280068,-4.288522259428007,8.772955481143986,0.4249864900306795,0.2654296048257732,-0.5788888888888889,0.0,0.04402824285008508,-0.05326412142504254
1590514965.2700825,0.09,-4.29,8.73052796372274,0.42777777777777776,0.2644444444444444,-0.5788888888888889,-0.06167505668322177,0.0625,-0.12417505668322176
1590514965.2800825,0.07058067305285673,-4.290290336526429,8.661451682632142,0.42777777777777776,0.2644444444444444,-0.5788888888888889,0.12318539670982274,-0.06068539670982275,0.0625
1590514965.2900825,0.0896677967644315,-4.299833898382215,8.70916949191108,0.42777777777777776,0.2644444444444444,-0.5788888888888889,0.06353813511115156,-0.0010381351111515627,0.0625
1590514965.3000824,0.09,-4.291924086847469,8.726151826305063,0.42777777777777776,0.2644444444444444,-0.5788888888888889,0.11297445720332341,0.0,0.0625
1590514965.3100824,0.082226309166586,-4.297773690833414,8.784415835833899,0.4225953172221684,0.2549432667591607,-0.5788888888888889,0.22217113541767497,0.09717113541767497,0.0625
1590514965.3200824,0.0877706054061751,-4.307770605406175,8.8,0.4211111111111111,0.25222222222222224,-0.5788888888888889,0.10430114863421697,0.07643371621140566,0.013933716211405649
1590514965.3300824,0.08082397301051795,-4.299725342329827,8.721373288350863,0.4211111111111111,0.25222222222222224,-0.5788888888888889,0.12328338956142092,-0.12328338956142092,0.0017166104385790833
1590514965.3400824,0.10579499900773963,-4.29140166699742,8.7629916650129,0.4211111111111111,0.25222222222222224,-0.5788888888888889,0.07126041873387576,-0.07126041873387576,0.053739581266124235
1590514965.3500824,0.09936990476190476,-4.295315047619048,8.775315047619047,0.4211111111111111,0.25222222222222224,-0.5788888888888889,0.02928095238095238,-0.02928095238095238,-0.03715714285714286
1590514965.3600824,0.09,-4.3,8.784513320704525,0.42963627244188285,0.2577385030833098,-0.5663518869318717,0.08462476320986659,0.028208254403288866,-0.06858349119342227
1590514965.3700824,0.09,-4.287639616055847,8.79,0.44,0.2644444444444444,-0.5511111111111111,0.14887380017452007,-0.0533785994764398,0.038626199825479934
1590514965.3800824,0.07238809197722194,-4.306417862034166,8.68432855186333,0.44,0.2644444444444444,-0.5511111111111111,0.014925574857637139,0.09514885028472572,0.0625
1590514965.3900824,0.1040028871206253,-4.289598267727625,8.717604041968876,0.44,0.2644444444444444,-0.5511111111111111,0.0,-0.0025108267023448982,0.10500360890078164
1590514965.4000823,0.1005150836156957,-4.286494972128102,8.759484916384304,0.44,0.2644444444444444,-0.5511111111111111,0.04059357580063395,-0.0625,0.043812848398732104
1590514965.4100823,0.07738638825109388,-4.29,8.807840835246719,0.42318185100145844,0.2644444444444444,-0.5644254790682898,0.02308246328466837,-0.10191753671533163,0.0
1590514965.4200823,0.05227246830935764,-4.29,8.794544936618715,0.4133333333333333,0.2644444444444444,-0.5722222222222222,0.0,-0.014202926933485266,-0.11079707306651473
1590514965.4300823,0.0796148359486448,-4.29,8.691283880171184,0.4133333333333333,0.2644444444444444,-0.5722222222222222,-0.061697574893009983,-0.061697574893009983,-0.06330242510699002
1590514965.4400823,0.08,-4.27159943162896,8.726801136742079,0.4133333333333333,0.2644444444444444,-0.5722222222222222,0.1100053284784974,-0.0625,-0.004998223840500873
1590514965.4500823,0.08675005721730251,-4.290250171651907,8.763750286086513,0.4133333333333333,0.2644444444444444,-0.5722222222222222,0.04062428478371859,-0.0625,-0.04218785760814071
1590514965.4600823,0.08192246835443039,-4.283844936708861,8.79615506329114,0.4250008790436005,0.2698294655414909,-0.5776072433192686,0.0,-0.012015427215189875,-0.012015427215189875
1590514965.4700823,0.0889087656529517,-4.28,8.8,0.42777777777777776,0.27111111111111114,-0.5788888888888889,0.11135957066189624,-0.05567978533094812,-0.05567978533094812
1590514965.4800823,0.08096952908587257,-4.298060941828255,8.700664819944597,0.42777777777777776,0.27111111111111114,-0.5788888888888889,-0.04432132963988919,0.10682132963988919,0.10682132963988919
1590514965.4900823,0.07260713589393644,-4.3,8.719571456424255,0.42777777777777776,0.27111111111111114,-0.5788888888888889,-0.0625,0.125,0.07879459933710276
1590514965.5000823,0.08751639997547668,-4.3,8.73437909999387,0.42777777777777776,0.27111111111111114,-0.5788888888888889,-0.007761250076635397,0.0428918751149531,0.035130625038317695
1590514965.5100822,0.11,-4.2980359272510436,8.745892218246869,0.42494078380706285,0.26849234744583583,-0.5788888888888889,0.08705090936195586,-0.05022454531902207,0.0
1590514965.5200822,0.11649448728570518,-4.283505512714295,8.750516538142884,0.4133333333333333,0.2577777777777778,-0.5788888888888889,0.06572836339302786,-0.08118109107131476,0.08118109107131476
1590514965.5300822,0.11257344470046082,-4.294853110599078,8.702867223502304,0.4133333333333333,0.2577777777777778,-0.5788888888888889,0.046415970622119815,-0.125,0.07858402937788019
1590514965.5400822,0.10362524501796799,-4.293625245017968,8.728248529892191,0.4133333333333333,0.2577777777777778,-0.5788888888888889,0.0625,-0.125,0.0625
1590514965.5500822,0.09406385746189903,-4.295936142538101,8.773744570152404,0.4133333333333333,0.2577777777777778,-0.5788888888888889,0.09960089086313104,-0.05079821827373794,-0.011701781726262059
1590514965.5600822,0.07556962025316455,-4.295189873417722,8.814050632911393,0.4133333333333333,0.26098452883263007,-0.5826300984528833,0.0949367088607595,-0.030063291139240503,-0.002373417721518993
1590514965.5700822,0.0763840006003527,-4.29,8.812693332332746,0.4133333333333333,0.2644444444444444,-0.5866666666666667,-0.005766669168136285,-0.0625,0.09663333458406814
1590514965.5800822,0.10233678467356935,-4.27766321532643,8.715979291958584,0.4133333333333333,0.2644444444444444,-0.5866666666666667,-0.0625,-0.0625,0.1635524521049042
1590514965.5900822,0.10227394275527385,-4.285452114489452,8.73180845795781,0.4133333333333333,0.2644444444444444,-0.5866666666666667,-0.15907571555907696,-0.0625,0.04263642666138456
1590514965.6000822,0.1,-4.29669640298764,8.756696402987641,0.4133333333333333,0.2644444444444444,-0.5866666666666667,-0.02008992530898393,0.06305755601826205,-0.08370503734550803
1590514965.6100821,0.09232739836892237,-4.284654796737845,8.76,0.4244159801337788,0.2695595121984962,-0.559386305311724,0.014546239805764798,0.1729537601942352,-0.0770462398057648
1590514965.6200821,0.09,-4.28,8.79315393309766,0.42777777777777776,0.27111111111111114,-0.5511111111111111,-0.10360604093018783,0.03209093860471829,-0.0625
1590514965.6300821,0.0812405050555863,-4.297518989888827,8.694886060667036,0.42777777777777776,0.27111111111111114,-0.5511111111111111,-0.17974684340258565,0.05474684340258564,0.046993686805171284
1590514965.6400821,0.08885388258934979,-4.29114611741065,8.7331232955361,0.42777777777777776,0.27111111111111114,-0.5511111111111111,-0.07682646763312762,-0.1035102985503086,0.0625
1590514965.650082,0.09,-4.280270015451903,8.754594976822146,0.42777777777777776,0.27111111111111114,-0.5511111111111111,-0.001687596574391749,-0.09459379828719587,0.12331240342560826
1590514965.660082,0.09107963761522332,-4.271079637615223,8.77323891284567,0.42777777777777776,0.2690717956156893,-0.5533903460765826,0.04900452980970843,-0.06924773509514578,0.16725679471456265
1590514965.670082,0.1,-4.28,8.781602162777462,0.42777777777777776,0.25222222222222224,-0.5722222222222222,-0.024171172453044967,-0.20165765509391007,0.0
1590514965.680082,0.08662404898032684,-4.293375951019673,8.709808220411471,0.42777777777777776,0.25222222222222224,-0.5722222222222222,-0.04179984693647864,-0.29179984693647865,0.1253995408094359
1590514965.690082,0.07013120220361713,-4.285196803305426,8.694803196694574,0.42777777777777776,0.25222222222222224,-0.5722222222222222,-0.03166000688630351,-0.15830003443151752,0.09498002065891051
1590514965.700082,0.06830020765351527,-4.2824503114802726,8.743200830614061,0.42777777777777776,0.25222222222222224,-0.5722222222222222,0.07781444675170573,-0.05187629783447049,0.0
1590514965.710082,0.09340996862177167,-4.286590031378228,8.803409968621771,0.4193344642011067,0.2641421943304637,-0.5752022152492826,0.15956256537130903,-0.125,-0.027937434628690964
1590514965.720082,0.09960431654676259,-4.285593525179856,8.814802158273382,0.4088888888888889,0.2788888888888889,-0.5788888888888889,0.18997302158273383,-0.125,-0.0625
1590514965.730082,0.07374135218635683,-4.305419549271214,8.739545859474212,0.4088888888888889,0.2788888888888889,-0.5788888888888889,0.21612781705491008,-0.125,-0.028627817054910062
1590514965.740082,0.07373271533410583,-4.296267284665894,8.728064503669371,0.4088888888888889,0.2788888888888889,-0.5788888888888889,0.05875579374275783,-0.125,-0.042914735419080724
1590514965.750082,0.07369196345329107,-4.302616073093418,8.768924109640126,0.4088888888888889,0.2788888888888889,-0.5788888888888889,0.0,-0.006724314749207538,0.016350456833861646
1590514965.760082,0.07742281519224968,-4.30257718480775,8.802268445576749,0.41796121856830515,0.2731155881838058,-0.5896107330554717,0.0,0.016107405048439542,0.0625
1590514965.770082,0.09846464827957956,-4.3,8.7792255862007,0.4211111111111111,0.27111111111111114,-0.5933333333333334,0.03846801724912407,-0.03846801724912407,-0.014436034498248138
1590514965.780082,0.10333711728074728,-4.3,8.720022703684483,0.4211111111111111,0.27111111111111114,-0.5933333333333334,0.020856983004670475,0.02078603399065905,0.06242905098598858
1590514965.790082,0.08707525213343678,-4.2870752521334365,8.725849495733126,0.4211111111111111,0.27111111111111114,-0.5933333333333334,-0.04038983708301008,0.022110162916989917,0.044220325833979834
1590514965.800082,0.07488498223302786,-4.285115017766972,8.760460071067888,0.4211111111111111,0.27111111111111114,-0.5933333333333334,0.0014377220871516772,-0.03196886104357584,0.06393772208715168
1590514965.810082,0.06745937900525076,-4.29,8.78,0.42280485844094395,0.27111111111111114,-0.5843000142408916,0.04662111878281722,-0.01486335634845165,0.07736335634845165
1590514965.820082,0.061679001116302146,-4.29,8.78,0.426658443700243,0.27111111111111114,-0.5637475595246298,0.01049375697688841,0.09351872906933476,-0.031018729069334755
1590514965.830082,0.07471191635563684,-4.282644041822182,8.699084460043997,0.42777777777777776,0.27111111111111114,-0.5577777777777778,-0.13792421583409545,0.17097473861136514,-0.10847473861136514
1590514965.840082,0.08,-4.289736079518899,8.704076278316144,0.42777777777777776,0.27111111111111114,-0.5577777777777778,-0.06579900601377248,0.1875,-0.06414950300688624
1590514965.850082,0.08294755107386066,-4.294104897852279,8.745895102147722,0.42777777777777776,0.27111111111111114,-0.5577777777777778,0.08092219421162913,0.15065561157674173,0.036844388423258254
1590514965.860082,0.10232116435667482,-4.286160582178337,8.772321164356674,0.4236707229922195,0.26700405632555285,-0.5796820699674219,0.08649636138539119,0.023996361385391192,0.125
1590514965.870082,0.09208849123667116,-4.272088491236671,8.785970502921108,0.4211111111111111,0.2644444444444444,-0.5933333333333334,0.0625,0.07463128651387016,-0.02426257302774032
1590514965.880082,0.0739178164695576,-4.284328734121769,8.735260348226017,0.4211111111111111,0.2644444444444444,-0.5933333333333334,0.13852729413053,0.086986352934735,-0.010959058804204988
1590514965.890082,0.057345957456552105,-4.2873459574565524,8.725308085086896,0.4211111111111111,0.2644444444444444,-0.5933333333333334,0.10841223410345065,-0.056131648844824036,0.022956117051725324
1590514965.9000819,0.07168484062035622,-4.285421210155089,8.777948471085624,0.4211111111111111,0.2644444444444444,-0.5933333333333334,0.0963825634693066,-0.0911174365306934,0.0338825634693066
1590514965.9100819,0.09652828838208023,-4.28347171161792,8.80347171161792,0.43054086099633804,0.2644444444444444,-0.5795513911933862,0.04339639522399713,0.10070720955200574,0.0625
1590514965.9200819,0.09470809219210072,-4.285291907807899,8.789416184384201,0.4355555555555555,0.2644444444444444,-0.5722222222222222,0.0,0.25364884759874096,0.029425576200629508
1590514965.9300818,0.09535921666856427,-4.284640783331436,8.721048616645792,0.4355555555555555,0.2644444444444444,-0.5722222222222222,0.10048531253558009,0.3794902083570534,-0.0334951041785267
1590514965.9400818,0.08895045086920145,-4.28,8.697623872826997,0.4355555555555555,0.2644444444444444,-0.5722222222222222,0.1875,0.40297015896625454,-0.027970158966254537
1590514965.9500818,0.08435491337930362,-4.28,8.746129480275822,0.4355555555555555,0.2644444444444444,-0.5722222222222222,0.24193641724129528,0.21169074827611414,0.10887283448259058
1590514965.9600818,0.09,-4.289027093299998,8.78,0.42351943115555873,0.2589278874277792,-0.5687116859388898,0.28429033343750754,-0.028209666562492488,0.2217903334375075
1590514965.9700818,0.10153952926976463,-4.2826907060953525,8.785769764634882,0.4088888888888889,0.25222222222222224,-0.5644444444444444,0.14181691309595656,-0.09856102896801448,0.11537794206397103
1590514965.9800818,0.09679872355513533,-4.276600638222432,8.723993617775676,0.4088888888888889,0.25222222222222224,-0.5644444444444444,0.1450079777804042,-0.125,-0.02000797778040421
1590514965.9900818,0.0785914152075831,-4.297112877188625,8.724225754377251,0.4088888888888889,0.25222222222222224,-0.5644444444444444,0.11619634504739434,-0.19630365495260566,0.008803654952605655
1590514966.0000818,0.0656992063008749,-4.30139841260175,8.75860158739825,0.4088888888888889,0.25222222222222224,-0.5644444444444444,0.0356200393804681,-0.3037599212390638,0.008740078760936201
1590514966.0100818,0.07054725232934017,-4.29,8.79636813082335,0.41533443197904124,0.25515201453592784,-0.5685461536836323,0.0,-0.24315934588324775,-0.029539836470811938
1590514966.0200818,0.07398769631908089,-4.29,8.789938481595405,0.4211111111111111,0.2577777777777778,-0.5722222222222222,0.03757689800574444,-0.125,0.07515379601148887
1590514966.0300817,0.08226328197817863,-4.283868359010911,8.739341795054553,0.4211111111111111,0.2577777777777778,-0.5722222222222222,0.0625,-0.125,0.08667724381819178
1590514966.0400817,0.09684707734697895,-4.28,8.754235386734894,0.4211111111111111,0.2577777777777778,-0.5722222222222222,0.019705766581381616,-0.08220576658138162,0.10529423341861838
1590514966.0500817,0.1,-4.288758156177646,8.765620921911177,0.4211111111111111,0.2577777777777778,-0.5722222222222222,0.1642154283308777,-0.14460771416543886,0.07026152388970744
1590514966.0600817,0.096810193936848,-4.3,8.764784709094728,0.41987063097544086,0.2577777777777778,-0.5732854909099395,0.36503185605265,-0.23006371210530002,-0.009968143947349996
1590514966.0700817,0.08,-4.303250910936678,8.780247267189964,0.4133333333333333,0.2577777777777778,-0.5788888888888889,0.27186361329151787,-0.0640454199372768,-0.0625
1590514966.0800817,0.08339247795573151,-4.304911283066402,8.746430088177073,0.4133333333333333,0.2577777777777778,-0.5788888888888889,0.1875,0.009492531941695165,-0.08370298722332194
1590514966.0900817,0.09219303326162502,-4.287806966738375,8.703420900215125,0.4133333333333333,0.2577777777777778,-0.5788888888888889,0.26069031317226543,-0.27439677105742183,-0.13870645788515637
1590514966.1000817,0.08677091817342673,-4.28984362273986,8.75015637726014,0.4133333333333333,0.2577777777777778,-0.5788888888888889,0.3538408807080415,-0.37597735787587555,-0.08365911929195852
1590514966.1100817,0.10518478100575136,-4.275184781005751,8.780369562011503,0.4133333333333333,0.26123429844827867,-0.575432368218388,0.34490488128594604,-0.5,-0.125
1590514966.1200817,0.09788536568064127,-4.286057317159679,8.820286585798396,0.4133333333333333,0.2644444444444444,-0.5722222222222222,0.48857469674398807,-0.5,-0.20071646449599206
1590514966.1300817,0.09440679444027833,-4.29,8.78711846671666,0.4133333333333333,0.2644444444444444,-0.5722222222222222,0.5074150694965208,-0.5,-0.19491506949652082
1590514966.1400816,0.09255384151171124,-4.2862769207558555,8.742338475464866,0.4133333333333333,0.2644444444444444,-0.5722222222222222,0.5305769811036095,-0.5930769811036095,-0.17153849055180478
1590514966.1500816,0.08,-4.28,8.78,0.4133333333333333,0.2644444444444444,-0.5722222222222222,0.6591254710209941,-0.6081273551049704,-0.33512358693701777
1590514966.1600816,0.0879221136645108,-4.283961056832256,8.795844227329022,0.4221356818494564,0.2644444444444444,-0.5748629267770592,0.625,-0.4375,-0.3879867895968075
1590514966.1700816,0.10480353731313888,-4.275589388060583,8.791178776121166,0.4355555555555555,0.2644444444444444,-0.5788888888888889,0.5349336753786461,-0.3174115671715282,-0.2824778917928821
1590514966.1800816,0.11,-4.26,8.700512330338368,0.4355555555555555,0.2644444444444444,-0.5788888888888889,0.5924158064105015,-0.2184831612821003,-0.2190168387178997
1590514966.1900816,0.0989221633085896,-4.254461081654295,8.645538918345705,0.4355555555555555,0.2644444444444444,-0.5788888888888889,0.5769088016967127,-0.31923647932131494,-0.15288176033934253
1590514966.2000816,0.09,-4.257513925324325,8.70635443993244,0.4355555555555555,0.2644444444444444,-0.5788888888888889,0.24965186689186758,-0.25759491680741725,-0.14848101663851654
1590514966.2100816,0.0874955638286768,-4.27,8.794991127657354,0.4299901418415039,0.2661140685586599,-0.580836783688807,-0.04684727392923002,-0.0625,-0.1875
1590514966.2200816,0.0935952416654171,-4.273398810416354,8.793595241665416,0.4133333333333333,0.27111111111111114,-0.5866666666666667,-0.021242565102214225,-0.10498513020442846,-0.1875
1590514966.2300816,0.12,-4.28,8.809732684809262,0.4133333333333333,0.27111111111111114,-0.5866666666666667,-0.07416740362583912,-0.1875,-0.15249778912248263
1590514966.2400815,0.12,-4.28,8.735277705345503,0.4133333333333333,0.27111111111111114,-0.5866666666666667,-0.1875,-0.1875,0.1875
1590514966.2500815,0.11553394096041354,-4.28,8.782330295197932,0.4133333333333333,0.27111111111111114,-0.5866666666666667,-0.27123860699224595,-0.13167426200516935,0.10376139300775405
1590514966.2600815,0.10155797479992477,-4.28,8.807185991599976,0.4155220065333528,0.2692351055110944,-0.5844779934666472,-0.44535021000062686,-0.009737342499529851,0.0
1590514966.2700815,0.08565450121654501,-4.28,8.791518248175183,0.4211111111111111,0.2644444444444444,-0.5788888888888889,-0.625,0.14267031630170315,0.03534063260340633
1590514966.2800815,0.09608021611204791,-4.283919783887952,8.738641728896383,0.4211111111111111,0.2644444444444444,-0.5788888888888889,-0.6739972985994012,0.1875,0.125
1590514966.2900815,0.09,-4.28742556508184,8.700297739672642,0.4211111111111111,0.2644444444444444,-0.5788888888888889,-0.7017293452844895,0.2035902182385035,0.1732706547155105
1590514966.3000815,0.08557272727272727,-4.275572727272727,8.743281818181819,0.4211111111111111,0.2644444444444444,-0.5788888888888889,-0.617840909090909,0.19465909090909092,0.2571590909090909
1590514966.3100815,-0.024491744579271918,-4.200338836947152,8.742584709236787,0.42401365957164644,0.2644444444444444,-0.5788888888888889,-0.6602886081824813,-0.03826835090511241,0.24192278363503747
1590514966.3200815,-0.27422218146806654,-4.081444454632983,8.759977763513824,0.42777777777777776,0.2644444444444444,-0.5788888888888889,-1.1961109073403329,-0.8211109073403329,0.5266665902526249
1590514966.3300815,-0.3655902025889033,-4.04322939223329,8.77322939223329,0.42777777777777776,0.2644444444444444,-0.5788888888888889,-2.0093264279871037,-1.6343264279871037,2.01517311486454
1590514966.3400815,-0.3861168869577087,-3.9870216347794436,8.792233773915417,0.42777777777777776,0.2644444444444444,-0.5788888888888889,-2.27892315217144,-1.2659630434288054,5.177841413199263
1590514966.3500814,-0.38055750571546865,-3.9538884988569065,8.827776997713812,0.42777777777777776,0.2644444444444444,-0.5788888888888889,-2.25,-0.7847124714226567,8.749824485607821
1590514966.3600814,-0.34544051795442227,-3.9417620718176893,8.844559482045577,0.4234716002902877,0.2677374036995839,-0.5773690615403629,-2.3212419069621517,-1.0372386697470124,12.540131841647414
1590514966.3700814,-0.2818023491292021,-3.827785878223302,8.8559835290941,0.4088888888888889,0.2788888888888889,-0.5722222222222222,-2.6378088294856217,-1.400102943161874,17.92011779397867
1590514966.3800814,-0.12132865192521129,-3.6782184325108855,8.76555109707163,0.4088888888888889,0.2788888888888889,-0.5722222222222222,-2.8819514108255784,-0.936084638862802,22.851503137539485
1590514966.3900814,0.0160582995951417,-3.5438688259109314,8.678102024291498,0.4088888888888889,0.2788888888888889,-0.5722222222222222,-3.6646862348178137,0.07618421052631574,27.819787449392713
1590514966.4000814,0.023710754017305317,-3.4696384425216316,8.703710754017306,0.4088888888888889,0.2788888888888889,-0.5722222222222222,-5.453318139678616,0.9188272558714462,32.72139601359704
1590514966.4100814,-0.16609246467367939,-3.2776823640689043,8.883840752099516,0.41056659055225936,0.270919805987879,-0.5667696918162681,-7.457780389234429,1.3431292814354094,37.057116856315744
1590514966.4200814,-0.2451450043356778,-2.7225888813951244,8.874132382695828,0.4133333333333333,0.2577777777777778,-0.5577777777777778,-6.676450043356779,-0.7610499566432218,40.50793669910396
1590514966.4300814,-0.050844214948363387,-2.448917906528969,8.517229476632242,0.4133333333333333,0.2577777777777778,-0.5577777777777778,-2.63689392613338,-2.9480526868545422,42.47673726588482
1590514966.4400814,-0.07215874520959267,-2.5280636877247047,8.629302279641262,0.4133333333333333,0.2577777777777778,-0.5577777777777778,0.2003921220022915,-3.3628980482794044,45.499809865275964
1590514966.4500813,-0.12694557113609148,-2.664142233553521,8.930251091281338,0.4133333333333333,0.2577777777777778,-0.5577777777777778,-1.7165276007262333,-4.266736199636884,52.026410456986135
1590514966.4600813,-0.1980526557678419,-2.7301316394196045,8.918447574026656,0.42228072863093535,0.25061986153969606,-0.5635935847212191,-1.050329098549012,-5.002468239117589,56.93767029413696
1590514966.4700813,-0.21,-2.76,9.02,0.4355555555555555,0.24,-0.5722222222222222,-1.125,-5.5625,59.8125
1590514966.4800813,-0.263974852124687,-2.807977646333055,8.906053089958993,0.4355555555555555,0.24,-0.5722222222222222,-1.2374476085930979,-6.08725550676779,65.3973978934572
1590514966.4900813,-0.31789881166726686,-2.8668482175009,8.861322920417717,0.4355555555555555,0.24,-0.5722222222222222,-1.5362351458408354,-6.3815662135397915,71.13861631256752
1590514966.5000813,-0.34684858149745046,-2.9034242907487253,8.903424290748726,0.4355555555555555,0.24,-0.5722222222222222,-1.7696963656409348,-6.269696365640935,75.03751993384915
1590514966.5100813,-0.36470442468129627,-2.9335221234064814,8.91,0.4355555555555555,0.23817050151282923,-0.5722222222222222,-1.6580973457418982,-6.172798672870949,78.69088493625925
1590514966.5200813,-0.41400170671217895,-3.0288898370623216,8.853330488813034,0.4355555555555555,0.23222222222222225,-0.5722222222222222,-1.7041737779674124,-6.077775407344196,83.26118696498574
1590514966.5300813,-0.48522714721102905,-3.071420360408272,8.733352492380698,0.4355555555555555,0.23222222222222225,-0.5722222222222222,-1.8899151649655341,-6.261716592689562,87.2013374685512
1590514966.5400813,-0.5218279297320592,-3.095913964866029,8.713655859464117,0.4355555555555555,0.23222222222222225,-0.5722222222222222,-1.8309811402063423,-6.835349121650739,90.80073639382493
1590514966.5500813,-0.5617724334324139,-3.1188293250743104,8.805317300297242,0.4355555555555555,0.23222222222222225,-0.5722222222222222,-2.0221554179051737,-7.408233126857761,94.94563777047954
1590514966.5600812,-0.6017322699806738,-3.1341338650096633,8.868490838368766,0.43642461259116094,0.22570429445518128,-0.5750466575879399,-2.265009968931184,-8.023047801942413,98.63131467573452
1590514966.5700812,-0.6581383492419989,-3.1201729365524984,8.802380460415497,0.44,0.1988888888888889,-0.5866666666666667,-1.9396617069062325,-8.540310218978103,102.78840258281865
1590514966.5800812,-0.6926284392500608,-3.1573715607499393,8.870286705624544,0.44,0.1988888888888889,-0.5866666666666667,-2.478569363282201,-9.228569363282201,106.35140461407353
1590514966.5900812,-0.7096493791088385,-3.1403506208911613,8.742629656683711,0.44,0.1988888888888889,-0.5866666666666667,-2.7445215485756025,-9.494521548575603,109.43644996347699
1590514966.6000812,-0.8110978597679614,-3.213153779635368,8.969041939900556,0.44,0.1988888888888889,-0.5866666666666667,-2.3005242487569357,-9.668662625207178,114.53006773798371
1590514966.6100812,-0.8642760158070727,-3.288930996048232,8.988930996048232,0.44368212472275703,0.1952067641661319,-0.5858352191486248,-2.509049802411592,-9.638362549397103,117.40992628432465
1590514966.6200812,-0.9121152042517716,-3.28,8.959807992913714,0.4744444444444445,0.16444444444444445,-0.5788888888888889,-2.2644200708628595,-9.775240008857857,121.65022046946645
1590514966.6300812,-0.9642890552969484,-3.24999707661517,8.848563493669747,0.4744444444444445,0.16444444444444445,-0.5788888888888889,-2.616076648901482,-9.866076648901482,125.07156952034
1590514966.6400812,-1.0207554534021424,-3.2064148488659527,8.736414848865953,0.4744444444444445,0.16444444444444445,-0.5788888888888889,-2.7099071945877964,-10.049535972938983,128.209988507741
1590514966.6500812,-1.0532992575056495,-3.181381039492091,8.73531970300226,0.4744444444444445,0.16444444444444445,-0.5788888888888889,-2.75,-10.399616646938556,131.25607580974926
1590514966.6600811,-1.1108270832102995,-3.1323141203566998,8.777769444280398,0.48498654829163307,0.152616718176867,-0.5837742540863665,-2.7933897566881236,-10.913742765605623,134.9891927006437
1590514966.6700811,-1.191685145752258,-3.136104951415914,8.834944562743226,0.52,0.11333333333333333,-0.6,-2.9375,-11.25,139.3125
1590514966.6800811,-1.217511322213631,-3.1262443388931844,8.757466033359107,0.52,0.11333333333333333,-0.6,-2.796662708494422,-11.32041864575279,140.25141527670385
1590514966.6900811,-1.2577584982242516,-3.1304094368340944,8.758167935058346,0.52,0.11333333333333333,-0.6,-2.714304287163876,-11.741108574327752,142.78838470319636
1590514966.700081,-1.3378937501195647,-3.15,8.848595833413043,0.52,0.11333333333333333,-0.6,-2.9418880205842406,-12.351241319610507,144.79933593824728
1590514966.710081,-1.4111545281823938,-3.151859088030399,8.903013616212794,0.52,0.10073284779396242,-0.598760607979734,-2.882215801139962,-12.367784198860038,145.25721580113995
1590514966.720081,-1.4633764559068219,-3.1532470881863564,8.956623544093178,0.52,0.045555555555555564,-0.5933333333333334,-3.1452943011647254,-11.956985752911814,145.47808860232945
1590514966.730081,-1.47,-3.120089096841275,8.924658850525258,0.52,0.045555555555555564,-0.5933333333333334,-3.017247947366534,-11.738686986841634,145.2106828815747
1590514966.740081,-1.47,-3.0373790828582696,8.819391560001435,0.52,0.045555555555555564,-0.5933333333333334,-2.829270642859704,-11.691692660714926,144.78773394643434
1590514966.750081,-1.6010015450748827,-2.9963328183083724,8.924329728158607,0.52,0.045555555555555564,-0.5933333333333334,-2.5156008582049596,-11.164580114427327,144.11874034328198
1590514966.760081,-1.6394996099068364,-2.9835001300310546,8.83450091021738,0.52,0.045555555555555564,-0.5933333333333334,-1.9140685952056784,-11.084375812694091,143.87812743808226
1590514966.770081,-1.6956816667676093,-2.95,8.846079583308097,0.5011111111111111,-0.0033333333333333327,-0.6222222222222222,-2.5163350695495934,-11.14950260432439,142.84765711747724
1590514966.780081,-1.7972939252619466,-2.95,8.820676518684513,0.5011111111111111,-0.0033333333333333327,-0.6222222222222222,-2.622181172147861,-11.308271758221792,142.26550355318676
1590514966.790081,-1.8330490258950487,-2.910121846044979,8.729756307910042,0.5011111111111111,-0.0033333333333333327,-0.6222222222222222,-2.8323179496251742,-11.49923846221888,140.92225127706155
1590514966.800081,-1.8845515835685167,-2.8786210410787083,8.774551583568517,0.5011111111111111,-0.0033333333333333327,-0.6222222222222222,-2.985776301348385,-11.610776301348386,139.58751273910318
1590514966.810081,-1.905487143910159,-2.8378051424359363,8.797682001474222,0.5017817620334638,-0.007601111930123767,-0.623441587535591,-2.9477883948315484,-11.55907053505615,138.07432765685297
1590514966.820081,-1.996418505831852,-2.801432597667259,8.924985908164592,0.5128955951572263,-0.07832550453588479,-0.6436485568515227,-3.118284698434722,-11.502238433855092,136.19886831721806
1590514966.830081,-2.007915673653028,-2.772985945608838,8.923126489520458,0.5133333333333333,-0.0811111111111111,-0.6444444444444445,-2.4253513597790497,-10.681864879613338,133.32164871817716
1590514966.840081,-2.0630738248317613,-2.7590818802691817,8.886147649663522,0.5133333333333333,-0.0811111111111111,-0.6444444444444445,-2.2336577189602984,-10.424026843119105,131.38473156880895
1590514966.850081,-2.1074831325301204,-2.69251686746988,8.95501124497992,0.5133333333333333,-0.0811111111111111,-0.6444444444444445,-2.171910140562249,-10.42219126506024,129.6102535140562
1590514966.860081,-2.144427027368687,-2.6627864863156563,8.937114594526262,0.5136539339415264,-0.08575981992991032,-0.6495740541755333,-2.1520506763162883,-10.02705067631629,128.17601012894255
1590514966.870081,-2.241803096466852,-2.6081969035331483,8.931803096466853,0.5155555555555555,-0.11333333333333333,-0.68,-2.4047116911472806,-10.205942338229455,125.9057488090512
1590514966.880081,-2.2657685388328215,-2.557432207108381,8.927558797718298,0.5155555555555555,-0.11333333333333333,-0.68,-2.5103979267222467,-10.144213470820535,123.91421813295305
1590514966.890081,-2.2447741457436807,-2.4184086180854396,8.73716121861552,0.5155555555555555,-0.11333333333333333,-0.68,-1.8224461369660008,-9.445296246686995,122.01626578129898
1590514966.900081,-2.2985714074139896,-2.3985714074139897,8.81857140741399,0.5155555555555555,-0.11333333333333333,-0.68,-1.9642861109876928,-8.892858332963078,118.78570648390871
1590514966.910081,-2.2923595622102755,-2.3923595622102756,8.812359562210275,0.5155555555555555,-0.11333333333333333,-0.68,-2.080758208557338,-9.242274625672014,116.49508856503903
1590514966.920081,-2.3095814356156135,-2.41937215342342,8.947070049309293,0.5014134076109459,-0.16881406757757117,-0.6593307068501859,-2.2473839725975835,-8.885464109609666,111.58632890427974
1590514966.930081,-2.302161553030303,-2.3651308712121213,8.87161553030303,0.5011111111111111,-0.17,-0.6588888888888889,-1.9070679450757575,-8.826009706439393,107.43380563446969
1590514966.940081,-2.360202974171667,-2.3480965301330547,8.870850247847638,0.5011111111111111,-0.17,-0.6588888888888889,-2.5,-8.384359509522568,99.49921080093921
1590514966.9500809,-2.4670963175797014,-2.2214518412101496,8.907584982992839,0.5011111111111111,-0.17,-0.6588888888888889,-2.481851984873133,-7.676389886548497,92.57546928147381
1590514966.9600809,-2.455277568947098,-2.2232564396787087,9.06501562932774,0.5007527576640859,-0.1707492844801435,-0.6607783888822942,-2.3383502156451548,-6.85117764016935,87.3442384164919
1590514966.9700809,-2.604641316820322,-2.0324027618406997,8.923949867447474,0.49061077478380527,-0.19195524868436675,-0.7142542986146833,-1.3011019665255412,-6.1769662782416015,82.93593335773355
1590514966.9800808,-2.5057701891399233,-2.1771801260932824,9.023080756559693,0.4888888888888889,-0.1955555555555556,-0.7233333333333334,-1.4751941987056207,-5.770069986788635,76.23171626503002
1590514966.9900808,-2.484727494690369,-2.163151663126913,8.938909978761476,0.4888888888888889,-0.1955555555555556,-0.7233333333333334,-0.7299321036172384,-4.937129998160443,73.03147315082697
1590514967.0000808,-2.618740289031827,-1.964448667613399,8.951259710968174,0.4888888888888889,-0.1955555555555556,-0.7233333333333334,-1.7659943822571214,-5.031988764514243,67.04823114192632
1590514967.0100808,-2.4435544231893744,-2.1659124133322196,9.126445576810626,0.4888888888888889,-0.1955555555555556,-0.7233333333333334,-1.3827753007267565,-4.265550601453513,63.3255314927742
1590514967.0200808,-2.6389816199305285,-1.7859264797221135,8.718797819235812,0.4622222222222222,-0.22,-0.7422222222222222,-0.9631147776678706,-3.945168905707253,55.65275701042074
1590514967.0300808,-2.6576413192657404,-1.9205931549150796,9.019392906158862,0.4622222222222222,-0.22,-0.7422222222222222,-2.2645675180133815,-3.9668092726025046,50.07309894493052
1590514967.0400808,-2.604355413543075,-1.9604180902052353,8.82128917291385,0.4622222222222222,-0.22,-0.7422222222222222,-0.875,-2.8939458645692517,45.254571709475236
1590514967.0500808,-2.6650330275803773,-1.8494768806937358,8.74352972482234,0.4622222222222222,-0.22,-0.7422222222222222,-0.9924455279716996,-2.470384747832076,39.658487383777356
1590514967.0600808,-2.7963387909714177,-1.7575628463200075,8.861704911874277,0.4622222222222222,-0.22,-0.7422222222222222,-2.018271804464202,-2.7576161052499764,36.129644992643144
1590514967.0700808,-2.739074577913607,-1.7754627110431964,8.882268644478403,0.39443446428053786,-0.21383747655075597,-0.7956307587823372,-0.530969307890127,-1.4306585665834297,30.35447569975029
1590514967.0800807,-2.8447657537783253,-1.707046849244335,8.894765753778326,0.3888888888888889,-0.21333333333333332,-0.8,-0.7655291144519691,-0.7613287688916252,22.75541179274323
1590514967.0900807,-2.9280636704863663,-1.6903872659027266,8.978063670486367,0.3888888888888889,-0.21333333333333332,-0.8,-1.9108754691875358,-1.1778183524318313,17.49723080054813
1590514967.1000807,-2.647931623931624,-1.865076923076923,8.814649572649573,0.3888888888888889,-0.21333333333333332,-0.8,-0.2961538461538462,0.6970085470085472,12.633333333333333
1590514967.1100807,-2.8329245394565703,-1.667429233570601,8.723183957244544,0.3888888888888889,-0.21333333333333332,-0.8,-0.3102889185801783,1.2926002672216046,7.978331106486627
1590514967.1200807,-2.8884898497442455,-1.756979699488491,9.148327006074169,0.3386031187837454,-0.252843581273089,-0.7649795529624894,-1.8278078045076727,0.5043358375959078,5.842599854140026
1590514967.1300807,-2.74737130604693,-1.823051477581228,8.978262869395307,0.32666666666666666,-0.26222222222222225,-0.7566666666666667,0.37250134011170477,2.0924288011620065,1.6092893517317703
1590514967.1400807,-2.8924249969739413,-1.7650300012104234,8.963757500302606,0.32666666666666666,-0.26222222222222225,-0.7566666666666667,-1.2140234044024831,1.82045313067386,-2.696992097663882
1590514967.1500807,-2.942726513569937,-1.7789093945720251,8.975092275574113,0.32666666666666666,-0.26222222222222225,-0.7566666666666667,-1.3693371607515656,2.432938413361169,-8.36928496868476
1590514967.1600807,-2.9777519832985386,-1.7648992066805846,8.912046430062631,0.32666666666666666,-0.26222222222222225,-0.7566666666666667,-0.4937004175365344,3.177229645093946,-9.901649269311065
1590514967.1700807,-3.118599799398195,-1.8085997993981946,8.987899699097293,0.31555555555555553,-0.31555555555555553,-0.7288888888888889,-0.3125,3.169997492477432,-11.700626880641925
1590514967.1800807,-3.1033019057171516,-1.7933019057171515,8.964952858575728,0.31555555555555553,-0.31555555555555553,-0.7288888888888889,-0.3125,2.9787738214643933,-11.844044633901705
1590514967.1900806,-3.1790765862453854,-1.7946170687730747,8.787702412638447,0.31555555555555553,-0.31555555555555553,-0.7288888888888889,-0.018298703528805707,2.1701859921009703,-11.055743968403881
1590514967.2000806,-3.1700736241092127,-1.8396318794539368,9.05779127672362,0.31555555555555553,-0.31555555555555553,-0.7288888888888889,-0.8060578904438911,2.0013804520477376,-10.38052180819095
1590514967.2100806,-3.230971240595381,-1.8467745822883759,8.93128293652086,0.31555555555555553,-0.31555555555555553,-0.7288888888888889,0.457734179070449,2.2540468358140897,-9.147106960231898
1590514967.2200806,-3.252164725869819,-1.8421647258698193,8.956188015431989,0.3425437220039563,-0.33296727584484637,-0.7341124049756761,0.817647683431848,1.9342658301773263,-7.240297490531979
1590514967.2300806,-3.26539561695814,-1.8618417532167442,9.00618685087442,0.35,-0.3377777777777778,-0.7355555555555555,1.0912773940116265,1.420233563593024,-5.486868508744193
1590514967.2400806,-3.2066208438573973,-1.8866895780713013,8.877645232081486,0.35,-0.3377777777777778,-0.7355555555555555,1.3331901370543662,1.27986418781831,-4.00554324872676
1590514967.2500806,-3.085051964721958,-1.947474017639021,8.947113163016024,0.35,-0.3377777777777778,-0.7355555555555555,0.9532873897561178,1.5512232930313445,-2.920106827874622
1590514967.2600806,-2.5905825060872822,-2.4582412436785916,9.27941562090279,0.35,-0.3377777777777778,-0.7355555555555555,2.408105450458887,2.268390616220266,-1.8161640756696011
1590514967.2700806,-2.7396357703143686,-1.7239096418509434,8.62,0.3,-0.3711111111111111,-0.6933333333333334,3.724047114741472,4.057947128929607,-0.6439411597786651
1590514967.2800806,-2.438486418193304,-2.0172828490208463,8.63576926721415,0.3,-0.3711111111111111,-0.6933333333333334,0.23084629658875552,-0.25961584017687933,-1.9524666377132027
1590514967.2900805,-2.8094289324068225,-1.8516835123183828,8.841112444725205,0.3,-0.3711111111111111,-0.6933333333333334,-2.4601429248262794,-2.8264055590650665,-6.2166495578016425
1590514967.3000805,-2.798142409890022,-1.9805005217949747,9.445572770329935,0.3,-0.3711111111111111,-0.6933333333333334,-3.86369109737497,-1.908625672312756,-15.879633439030265
1590514967.3100805,-2.8378059064669956,-1.914876432694721,9.094382163473606,0.3,-0.3711111111111111,-0.6933333333333334,1.033642181879026,1.77294298502468,-21.457429097297748
1590514967.3200805,-2.903327680422084,-1.975320896928585,8.94599660825325,0.3125168854552688,-0.36051990034126835,-0.6423029541695455,1.6335523836442434,3.9249364047484456,-32.21557848125118
1590514967.3300805,-2.863207096554077,-1.9993585806891845,9.03422722620266,0.3144444444444445,-0.3588888888888889,-0.6344444444444445,0.5561241896963494,3.415088706925964,-40.986864551347665
1590514967.3400805,-3.071632366342649,-2.08384872417983,8.984384872417984,0.3144444444444445,-0.3588888888888889,-0.6344444444444445,1.8741622683778858,4.304810905224787,-46.896541331257595
1590514967.3500805,-2.792925463244228,-2.402370899149453,9.016237089914945,0.3144444444444445,-0.3588888888888889,-0.6344444444444445,2.3220840769289186,4.702963623936816,-50.23107035047084
1590514967.3600805,-2.902931530008453,-2.163070160608622,8.70733727810651,0.3144444444444445,-0.3588888888888889,-0.6344444444444445,2.598330515638208,5.475824175824176,-53.80745984784446
1590514967.3700805,-3.010780057619142,-2.20427459259748,9.008362032944074,0.33186687974508783,-0.32496098856658334,-0.6225238308176885,2.006045061687669,5.149863374458446,-53.92960210903653
1590514967.3800805,-2.9705092012015517,-2.1704243343346263,8.832121671673132,0.33555555555555555,-0.31777777777777777,-0.62,1.6890912537548486,4.566743343346262,-52.75954752252909
1590514967.3900805,-3.0868841262364577,-2.1810386245878477,8.980692416391898,0.33555555555555555,-0.31777777777777777,-0.62,-0.019474211022138484,3.0947067828544514,-52.77787918040509
1590514967.4000804,-3.003533555802744,-2.2083262104092265,8.99739632730324,0.33555555555555555,-0.31777777777777777,-0.62,-0.5253046757605917,2.2802212009445193,-51.78809056846789
1590514967.4100804,-3.1590507971820543,-2.1346601487032375,8.88280467576059,0.33555555555555555,-0.31777777777777777,-0.62,1.111718917705833,3.6103028706359894,-50.713793835255544
1590514967.4200804,-3.1260161502275885,-2.2479676995448226,9.000764469499305,0.3696802754341749,-0.28791864788398586,-0.6015157767324145,1.317530281676729,3.835010093892243,-49.860161502275886
1590514967.4300804,-3.042389614684968,-2.3676103853150323,8.94669092111791,0.3888888888888889,-0.27111111111111114,-0.5911111111111111,2.440259632875806,4.110064908218952,-48.48827931205557
1590514967.4400804,-2.769940948404414,-2.440032209961229,8.800026841634358,0.3888888888888889,-0.27111111111111114,-0.5911111111111111,3.0622651356993735,5.3119967193558,-50.0655196838652
1590514967.4500804,-2.6782075753056964,-2.490068595287802,8.8417238294065,0.3888888888888889,-0.27111111111111114,-0.5911111111111111,2.697416492693111,4.530178198628095,-54.756430808231435
1590514967.4600804,-2.6088018275271274,-2.563997715591091,8.91399771559109,0.3888888888888889,-0.27111111111111114,-0.5911111111111111,2.145017133066819,4.414998572244432,-61.76728298115363
1590514967.4700804,-2.489928368819791,-2.580061398154465,8.880030699077233,0.44222222222222224,-0.24444444444444444,-0.5911111111111111,1.813011651287207,5.000959346163513,-76.13747150012567
1590514967.4800804,-2.4372191303723385,-2.6252407453951387,8.90262037269757,0.44222222222222224,-0.24444444444444444,-0.5911111111111111,2.1895062116261537,5.706886646799038,-85.3145264083875
1590514967.4900804,-2.3662906511458712,-2.814496180429247,8.87898835940342,0.44222222222222224,-0.24444444444444444,-0.5911111111111111,3.0737404510731174,7.8869429792651875,-100.40174608948709
1590514967.5000803,-2.1145411058566754,-3.1196471444161515,8.810329392506365,0.44222222222222224,-0.24444444444444444,-0.5911111111111111,3.8366178610403785,8.697500227355402,-110.7005911240451
1590514967.5100803,-1.8623586040914561,-3.3707231677267777,8.832295570454415,0.44222222222222224,-0.24444444444444444,-0.5911111111111111,4.168238926136038,9.994889261360381,-128.4477107329093
1590514967.5200803,-1.83,-3.3467082387724085,8.786708238772407,0.44222222222222224,-0.2038411977948508,-0.5970324179141768,4.472991578004955,11.757703679027255,-147.25527415727998
1590514967.5300803,-2.0978288381277204,-3.2463465422070636,8.889478077458152,0.44222222222222224,-0.19111111111111112,-0.5988888888888889,3.5728077458151954,12.877740317731005,-174.01553033702822
1590514967.5400803,-2.239000359018086,-3.1804664991248934,8.880066642732128,0.44222222222222224,-0.19111111111111112,-0.5988888888888889,2.6316642732127633,14.054169658484046,-190.07379083830722
1590514967.5500803,-2.3389465756175936,-3.1710534243824062,8.849789315123518,0.44222222222222224,-0.19111111111111112,-0.5988888888888889,4.0131678047800765,16.507900682868044,-201.59814721831694
1590514967.5600803,-2.2968266720224944,-3.213173327977506,8.841365334404498,0.44222222222222224,-0.19111111111111112,-0.5988888888888889,4.539666599718819,16.82379995983129,-208.0214325165696
1590514967.5700803,-2.251973033912588,-3.44386475960553,8.840729724189764,0.4811111111111111,-0.14,-0.6133333333333333,4.522803880930148,17.103546985674267,-213.47668794269705
1590514967.5800803,-2.144079530727781,-3.623383125298411,8.845489166268786,0.4811111111111111,-0.14,-0.6133333333333333,4.838930666393834,17.639096355410043,-215.6065511106564
1590514967.5900803,-1.9438196575949798,-3.7378173385171545,8.69291021531046,0.4811111111111111,-0.14,-0.6133333333333333,5.732947957165268,18.11590557715481,-217.09657992860878
1590514967.6000803,-1.7980930449602337,-3.898601890926798,8.623220256451875,0.4811111111111111,-0.14,-0.6133333333333333,6.0630300478818375,18.751060095763673,-219.2118669858789
1590514967.6100802,-1.77,-3.9459673076014554,8.857493267822553,0.4811111111111111,-0.14,-0.6133333333333333,5.276736783672698,18.076634619927244,-222.71866584778192
1590514967.6200802,-1.712678448867536,-3.91417403054221,8.862678448867536,0.5002182948219325,-0.08904751010447648,-0.6077604047510105,4.525110458133151,18.05412984728895,-225.51521078200068
1590514967.6300802,-1.6308698874045409,-3.888173977480908,8.721739774809082,0.5077777777777778,-0.06888888888888889,-0.6055555555555555,5.014670087071077,18.457606883349456,-227.12553904818756
1590514967.6400802,-1.4495915772745331,-3.9940818434644414,8.631224473579659,0.5077777777777778,-0.06888888888888889,-0.6055555555555555,4.622447357965832,17.919641438220104,-228.56505264203417
1590514967.6500802,-1.402635989156075,-4.153661056930606,8.705251029820793,0.5077777777777778,-0.06888888888888889,-0.6055555555555555,4.8848064024926945,18.75313787275992,-228.5592311991691
1590514967.6600802,-1.3126710021384422,-4.248119635586021,8.796239271172043,0.5077777777777778,-0.06888888888888889,-0.6055555555555555,4.930689208190526,18.61631990215895,-228.4121261387937
1590514967.6700802,-1.1425487889876285,-4.233903554626242,8.654902422024744,0.5333333333333333,0.022222222222222227,-0.6133333333333333,5.403630859034675,18.79556542951734,-227.574196288552
1590514967.6800802,-1.0420580676075972,-4.1516838734971255,8.855883864784806,0.5333333333333333,0.022222222222222227,-0.6133333333333333,4.946854852761805,18.5671774263809,-226.8890322791427
1590514967.6900802,-1.049524736866509,-4.3214452635971625,8.631406315203783,0.5333333333333333,0.022222222222222227,-0.6133333333333333,4.282674340427505,18.741088816247043,-225.50581907543932
1590514967.7000802,-0.9920482773648404,-4.349317240878386,8.658634481756772,0.5333333333333333,0.022222222222222227,-0.6133333333333333,4.491465510979832,18.267068978040335,-223.5661422899063
1590514967.7100801,-0.7756356535535576,-4.234573044221146,8.62702086977747,0.5333333333333333,0.022222222222222227,-0.6133333333333333,4.6545896729181075,18.095410327081893,-221.07809512428298
1590514967.7200801,-0.7292684984608369,-4.359359936153233,8.770548626154373,0.5877777777777777,0.045555555555555564,-0.5933333333333334,5.295926918253335,18.676641774028045,-217.28163977881655
1590514967.7300801,-0.6527563561737544,-4.292411811652035,8.827932732869684,0.5877777777777777,0.045555555555555564,-0.5933333333333334,3.5624486945616236,17.54091466195417,-214.05378377608025
1590514967.74008,-0.5553580206455841,-4.3467851876126495,8.65018023922661,0.5877777777777777,0.045555555555555564,-0.5933333333333334,4.387268556447649,17.67745371128953,-208.25898123873506
1590514967.75008,-0.4360953657602451,-4.312031788586748,8.725428475679816,0.5877777777777777,0.045555555555555564,-0.5933333333333334,4.259524009000383,16.916270705668325,-201.94564163634624
1590514967.76008,-0.3744915068602266,-4.246561722125974,8.745859569468507,0.5877777777777777,0.045555555555555564,-0.5933333333333334,4.051755381643667,16.478510763287332,-195.72722260389907
1590514967.77008,-0.3160696665870932,-4.248827285748389,8.76255152383226,0.7307256880896175,0.03370133860286642,-0.5487056930408566,4.0,15.747423808387046,-189.36300802697542
1590514967.78008,-0.2011446651949963,-4.225824871228845,8.749494922737307,0.8155555555555556,0.02666666666666667,-0.5222222222222223,3.7009676232523914,15.075967623252392,-180.90382266372333
1590514967.79008,-0.10124912545072923,-4.176428071686131,8.630891232979925,0.8155555555555556,0.02666666666666667,-0.5222222222222223,3.4575877240191595,14.255570206124535,-171.5981143372262
1590514967.80008,-0.050570363739335364,-4.143713575826223,8.662572848347553,0.8155555555555556,0.02666666666666667,-0.5222222222222223,3.2321373111423717,13.673202084513218,-165.0552151652447
1590514967.81008,-0.011243829408432469,-4.104991772544577,8.721260284319278,0.8155555555555556,0.02666666666666667,-0.5222222222222223,3.242226066197297,13.04674644600901,-157.58438199670903
1590514967.82008,0.1424240885548898,-4.127979756947971,8.825454453132934,1.355712098815582,0.24188528937183346,-0.2131092003956836,2.7784096679191634,12.278409667919163,-147.21339198063708
1590514967.83008,0.2240589527645551,-4.055941047235445,8.81354245494121,1.3844444444444444,0.2533333333333333,-0.19666666666666666,2.647140343382562,11.889991201838969,-140.58949077464501
1590514967.84008,0.23220233207423221,-3.9230349811134833,8.646248973558876,1.3844444444444444,0.2533333333333333,-0.19666666666666666,2.8199416981441945,11.178939481031367,-133.3530136311381
1590514967.85008,0.30731731066093526,-3.9595855795948416,8.73143942812359,1.3844444444444444,0.2533333333333333,-0.19666666666666666,2.1018268933906477,10.613413446695324,-125.40546850879902
1590514967.86008,0.3695796676441838,-4.006386445096123,8.743613554903877,1.3844444444444444,0.2533333333333333,-0.19666666666666666,2.1223729227761488,9.67542359074617,-118.45012626262626
1590514967.87008,0.4457426909198027,-3.899224169673761,8.822904484866338,0.8724375056255166,0.4752718249584734,-0.5435100768343275,2.3080653030414613,8.669346969585389,-108.6704677259003
1590514967.88008,0.4559922132374963,-3.9019844264749928,8.806031147050014,0.8333333333333334,0.4922222222222222,-0.57,2.200146001796945,8.40029200359389,-103.4810347409404
1590514967.89008,0.493034930537923,-3.91,8.696401030142551,0.8333333333333334,0.4922222222222222,-0.57,1.9529430701149841,8.009120298160978,-95.72946289310457
1590514967.90008,0.527197691127402,-3.888406926617794,8.699174602401422,0.8333333333333334,0.4922222222222222,-0.57,1.9924422781850508,7.31765873499111,-85.95441925034706
1590514967.91008,0.5553768550942138,-3.8863442137735533,8.755376855094214,0.8333333333333334,0.4922222222222222,-0.57,1.6263353030682008,6.847440647407037,-78.15311562031016
1590514967.92008,0.5943879039833709,-3.89,8.82853096956009,0.6582823780749151,0.45807915664550286,-0.6019752518893086,1.588394159854496,6.352166320228649,-70.7626016828893
1590514967.93008,0.6419912649627952,-3.894398252992559,8.837220964089292,0.4744444444444445,0.4222222222222222,-0.6355555555555555,1.510120106761566,5.587663781947589,-62.464028631510836
1590514967.94008,0.684555728760717,-3.9,8.711777084957133,0.4744444444444445,0.4222222222222222,-0.6355555555555555,1.1856488698363212,4.6986067809820735,-53.46870128604832
1590514967.95008,0.7108813729687471,-3.9,8.679016994583327,0.4744444444444445,0.4222222222222222,-0.6355555555555555,1.045974256835992,4.063135202799546,-46.177961487630995
1590514967.96008,0.7509874717920785,-3.917989261536067,8.727001789743989,0.4744444444444445,0.4222222222222222,-0.6355555555555555,0.7624552564002801,3.4376118589992997,-38.432782468290405
1590514967.97008,0.8130650881117355,-3.9404023678323967,8.80492307272628,0.3822629894338662,0.4222222222222222,-0.6384589084692746,0.570044396857439,2.5100591958099185,-27.33394995635332
1590514967.98008,0.8260806257020427,-3.893516245787744,8.819596871489788,0.3333333333333333,0.4222222222222222,-0.64,0.41300391063776676,1.9839726255356327,-20.14053854474352
1590514967.9900799,0.83,-3.8232557668959934,8.76175471836945,0.3333333333333333,0.4222222222222222,-0.64,0.5968553401272948,1.5734669898090579,-14.46128154777234
1590514968.0000799,0.83,-3.7379244308201014,8.761509661419764,0.3333333333333333,0.4222222222222222,-0.64,0.4905646161264768,1.0430415389384493,-8.364966159198154
1590514968.0100799,0.8248435041091099,-3.7103129917817803,8.79327854520021,0.3333333333333333,0.4222222222222222,-0.64,-0.09472809931806259,0.5585876027277497,-1.4744710613743663
1590514968.0200799,0.82,-3.69376085947344,8.759679355394919,0.3194848980554266,0.43388406245624894,-0.6596793553949201,0.03899462829100073,0.02751342927249817,4.816883165329266
1590514968.0300798,0.8467852294325278,-3.6960711376595166,8.78071409177301,0.31222222222222223,0.44,-0.67,-0.1428522943252783,-0.4553522943252783,9.73431984795004
1590514968.0400798,0.8645289814293753,-3.737355092853123,8.724347777152504,0.31222222222222223,0.44,-0.67,-0.375,-0.9268570624648284,15.144703151378728
1590514968.0500798,0.871253390596745,-3.7656266952983724,8.720640257685352,0.31222222222222223,0.44,-0.67,-0.3398331543851718,-1.2305005368444846,20.286014494801083
1590514968.0600798,0.8752691812141576,-3.7558075436424727,8.755269181214157,0.31222222222222223,0.44,-0.67,-0.37163523482303007,-1.4899057044690902,24.688003688452113
1590514968.0700798,0.8613298885706062,-3.7573402228587875,8.758670111429394,0.3154333746034792,0.44224780666687985,-0.6674310780949945,-0.40137453571085924,-1.8861900535902743,29.418966982360438
1590514968.0800798,0.8440838256054605,-3.791832348789079,8.775916174394538,0.3218208053313109,0.4467190081763621,-0.662321133512729,-0.32951594002275186,-2.2814123298748648,33.98198780855525
1590514968.0900798,0.8327434089724117,-3.829026364110353,8.721947271779293,0.3233333333333333,0.4477777777777778,-0.6611111111111111,-0.5392684696121325,-2.737829551379412,37.51159947181103
1590514968.1000798,0.787872520646573,-3.8048937672054777,8.735106232794521,0.3233333333333333,0.4477777777777778,-0.6611111111111111,-0.8005311639726124,-2.875,40.49999117667819
1590514968.1100798,0.7528299194746306,-3.807170080525369,8.778616800875616,0.3233333333333333,0.4477777777777778,-0.6611111111111111,-0.7676869967164413,-3.053855005472598,42.770069042686266
1590514968.1200798,0.7670395579216929,-3.8402796684412697,8.827039557921694,0.3060580602166962,0.40646734206408036,-0.655102320461846,-0.8142479277579352,-3.3142479277579353,45.41797375160051
1590514968.1300797,0.78,-3.857571612601007,8.771855486590935,0.2977777777777777,0.38666666666666666,-0.6522222222222223,-0.5910645274622321,-3.516967736268884,47.9384354139829
1590514968.1400797,0.7728577891379583,-3.874284421724083,8.700004523965708,0.2977777777777777,0.38666666666666666,-0.6522222222222223,-0.8571105431020833,-3.5625,50.196275079734896
1590514968.1500797,0.7378523637161347,-3.88,8.705718109027092,0.2977777777777777,0.38666666666666666,-0.6522222222222223,-0.7990772732258419,-3.7232381814193265,52.040351815290116
1590514968.1600797,0.6914361494945748,-3.860957432996383,8.748563850505425,0.2977777777777777,0.38666666666666666,-0.6522222222222223,-0.7470080218863026,-3.8720080218863027,53.43135027357878
1590514968.1700797,0.10849296300909217,-10.014604558475526,-0.6240478266284715,0.2851430232075393,0.39172056849476206,-0.6320066149098408,-0.6703590110848175,-3.9375,54.85409920288953
1590514968.1800797,1.2727143764556426,-9.664090620368409,-5.894658056320136,0.27555555555555555,0.3955555555555556,-0.6166666666666667,-47.99896781706543,-20.73457018843955,205.97226339191192
1590514968.1900797,2.144844938802514,-5.960262983790936,0.14606061859080377,0.27555555555555555,0.3955555555555556,-0.6166666666666667,-110.56688823188885,-75.915995596262,591.685318805822
1590514968.2000797,3.539825082508251,-10.76406600660066,-0.9278837550421706,0.27555555555555555,0.3955555555555556,-0.6166666666666667,-120.55249587458746,-118.88230198019802,807.6205743491016
1590514968.2100797,2.5696004109741195,-7.275773075641452,-2.038718482727979,0.27555555555555555,0.3955555555555556,-0.6166666666666667,-108.58683390258803,-71.26195434855049,528.7848130484283
1590514968.2200797,-0.9438618931652138,-0.8113599016774018,7.565859298541092,0.3177760075663893,0.39672834588918987,-0.6242898038352894,-97.55229077998042,-1.5422807087420622,168.68570623847782
1590514968.2300797,-0.3647154005049347,-0.6152203350929538,7.504081937112692,0.3555555555555556,0.3977777777777778,-0.6311111111111111,-39.69308727335323,-9.30102780009181,100.90487290566904
1590514968.2400796,-1.1558608288479642,-0.6156057058724144,5.918119524027902,0.3555555555555556,0.3977777777777778,-0.6311111111111111,48.50512900967875,-14.302765441336199,109.77632690497454
1590514968.2500796,-1.6434618410700237,-0.8529206825334382,8.707257081038552,0.3555555555555556,0.3977777777777778,-0.6311111111111111,126.59488099921322,-15.419013694925255,119.67554613739182
1590514968.2600796,-5.167976041743221,1.9449555375909457,9.49,0.3555555555555556,0.3977777777777778,-0.6311111111111111,185.71544058205336,-13.28823399720732,128.69444495480266
1590514968.2700796,-1.4149629127602692,1.6617432885274295,2.5468278173123986,0.40335835100886497,0.34703327183503396,-0.6252276901322422,154.48517922361535,-23.11269720245491,122.14498616288265
1590514968.2800796,-0.252735500554119,0.9079626893239748,6.75942227968641,0.42777777777777776,0.3211111111111111,-0.6222222222222222,56.10950134425153,-13.681349536181916,106.12276171858966
1590514968.2900796,-3.6811724209327603,-1.6215937677933643,17.096647341994927,0.42777777777777776,0.3211111111111111,-0.6222222222222222,-24.595589186810912,-3.947134297841503,93.83906387494177
1590514968.3000796,-1.7962280339726742,-1.0606338379998697,8.638403892521234,0.42777777777777776,0.3211111111111111,-0.6222222222222222,-59.71865428894151,14.532677520255447,86.87001080652519
1590514968.3100796,-1.3670737790351402,-0.5860043180464563,6.789131179273376,0.42777777777777776,0.3211111111111111,-0.6222222222222222,-33.06124599836212,5.235342837998807,86.73922698592912
1590514968.3200796,-2.7088104785818685,-1.27569388749391,11.14334670014616,0.434010043848143,0.26842013433438683,-0.6273213490070665,15.596796181089083,-8.858744331596897,93.2754750215493
1590514968.3300796,-2.6897090533917978,-1.8013995357234975,10.910672169202993,0.44,0.21777777777777774,-0.6322222222222222,6.397746324477691,-5.349542171782306,96.63227366520506
1590514968.3400795,-2.197469898297159,-1.7921240696722909,9.399602930288744,0.44,0.21777777777777774,-0.6322222222222222,-14.83294285547286,-9.799531426567432,97.72060456688618
1590514968.3500795,-5.755611707193193,-10.70280363151546,6.812090978350581,0.44,0.21777777777777774,-0.6322222222222222,-5.894838026157069,-9.946328804520348,103.95076106278967
1590514968.3600795,-8.47337196655564,-17.3278862755761,6.978268642512406,0.44,0.21777777777777774,-0.6322222222222222,1.2643536299367826,-3.1632175752838005,107.11101811569574
1590514968.3700795,-1.3099709371575587,-1.702942970127209,10.645571489828004,0.4567340035256563,0.20428261364418396,-0.6322222222222222,-14.082966077469152,-6.104346324265091,57.777195793034444
1590514968.3800795,-0.7090532595789046,1.3841999478699065,8.097612152104027,0.4744444444444445,0.19,-0.6322222222222222,11.753421037388861,-7.625662486605464,-1.5536089229343446
1590514968.3900795,-1.365566422717615,-0.35436140433712193,7.507090485986982,0.4744444444444445,0.19,-0.6322222222222222,24.58898730228323,-0.07727184580621227,-8.700212471754746
1590514968.4000795,-1.2853469797310857,-2.110473208910295,10.150851695765603,0.4744444444444445,0.19,-0.6322222222222222,-1.8313315271924537,-1.7100742524583588,-7.515871462974112
1590514968.4100795,-1.9456491024503446,-4.745594839942665,9.251499215070643,0.4744444444444445,0.19,-0.6322222222222222,-16.8302035697222,2.0376595454235202,-7.039673059859395
1590514968.4200795,-3.647500215870823,-7.56516449356705,8.030246524479752,0.4744444444444445,0.18327667923514568,-0.6249817229369945,0.6575883991019777,4.548932518780761,-9.19685530178741
1590514968.4300795,-2.228570516551815,-4.847937735884485,8.051606549373792,0.4744444444444445,0.17555555555555555,-0.6166666666666667,4.454733650036616,0.3281763430159419,-24.510532652984587
1590514968.4400795,-1.0010983142279164,-3.18094214430209,9.018831287929872,0.4744444444444445,0.17555555555555555,-0.6166666666666667,0.5742127444369521,-1.3842245448415378,-35.20264497639919
1590514968.4500794,-1.6912710293869888,-4.281846735180149,9.197457941226022,0.4744444444444445,0.17555555555555555,-0.6166666666666667,-0.6743107535680762,4.234561902813546,-36.73681075356808
1590514968.4600794,-1.4052002488529434,-4.205502760712342,8.841741581771522,0.4744444444444445,0.17555555555555555,-0.6166666666666667,-0.17692131969826574,3.1750306205770276,-39.067559685823156
1590514968.4700794,-1.0135072937968643,-3.6414658486707565,8.660575596455352,0.47359512232068474,0.17980216617435432,-0.6192146330379459,0.9466615541922291,3.3674693251533743,-43.238200408997955
1590514968.4800794,-1.1682505308571236,-3.829001314503354,8.836750985877515,0.4722222222222222,0.18666666666666668,-0.6233333333333333,0.8796860780612761,4.204688605952341,-47.245320241666384
1590514968.4900794,-1.29898301791474,-4.172655345276493,9.060338864493064,0.4722222222222222,0.18666666666666668,-0.6233333333333333,0.5734465472350678,4.458686317180274,-49.528249232503015
1590514968.5000794,-1.0710540828305442,-3.936698244560321,8.757657593709903,0.4722222222222222,0.18666666666666668,-0.6233333333333333,1.8088399901717218,4.184571992137378,-54.38099593218488
1590514968.5100794,-0.9653680789901262,-3.7948773070032913,8.76003041286506,0.4722222222222222,0.18666666666666668,-0.6233333333333333,1.4238871182768822,4.589915843852852,-58.391490126234224
1590514968.5200794,-0.9816660203034105,-3.9108310710619367,8.684580586289496,0.46958338719693804,0.18930550169195087,-0.6176158574452175,0.736978156724079,4.997390783620395,-61.59893207482605
1590514968.5300794,-0.9764793283517499,-3.9997189925276246,8.7829586567035,0.4655555555555556,0.19333333333333333,-0.6088888888888889,0.8961260494503909,5.347124650183203,-65.3743977380918
1590514968.5400794,-0.8873845159365521,-3.952769462814712,8.751769678285516,0.4655555555555556,0.19333333333333333,-0.6088888888888889,1.1177889794971243,5.406731183597699,-69.34471910065801
1590514968.5500793,-0.8343077145021098,-4.025876943051899,8.902738485952321,0.4655555555555556,0.19333333333333333,-0.6088888888888889,1.4792305334150828,5.621346070617088,-72.83480677678797
1590514968.5600793,-0.7309912363323642,-3.8929737089970926,8.787189483598837,0.4655555555555556,0.19333333333333333,-0.6088888888888889,1.971063772062738,6.388958137106352,-79.61527268725173
1590514968.5700793,-0.6872111029948867,-3.8767333820306793,8.775577794010227,0.45418764710656606,0.19854362470578688,-0.6150465059654249,1.3391435354273191,7.284861212563915,-86.91833455076699
1590514968.5800793,-0.67,-3.98,8.81,0.4388888888888889,0.20555555555555555,-0.6233333333333333,1.375,7.5,-89.5
1590514968.5900793,-0.6111367274291039,-3.950568363714552,8.721705091143656,0.4388888888888889,0.20555555555555555,-0.6233333333333333,1.7122374991040925,7.775921590176075,-94.49724657763338
1590514968.6000793,-0.49401520588064163,-3.9399945693283422,8.75796524370139,0.4388888888888889,0.20555555555555555,-0.6233333333333333,2.3374253282647066,8.16247284664171,-101.51200445121124
1590514968.6100793,-0.3956081416947911,-3.944094655050624,8.906824425084373,0.4388888888888889,0.20555555555555555,-0.6233333333333333,2.4981424796588443,8.510388051696623,-105.67119600763938
1590514968.6200793,-0.36,-3.862794366855607,8.744081692280723,0.4274184667926268,0.22228325444593777,-0.6204657278092678,1.8212323964237713,9.107535207152457,-111.17690133232045
1590514968.6300793,-0.3237755125573672,-3.8917492677751895,8.757973755217822,0.4122222222222222,0.24444444444444444,-0.6166666666666667,2.1381195083139226,9.476403046516454,-116.39996338875949
1590514968.6400793,-0.22787596048298572,-3.94,8.76900109769484,0.4122222222222222,0.24444444444444444,-0.6166666666666667,2.583201838638858,9.826169731064764,-121.30855515916575
1590514968.6500793,-0.12887835274993226,-3.9273270116499592,8.705345976700082,0.4122222222222222,0.24444444444444444,-0.6166666666666667,2.8723144134380925,10.264020590625847,-126.70807707938228
1590514968.6600792,-0.0670546892159016,-3.9264726553920495,8.777063474632111,0.4122222222222222,0.24444444444444444,-0.6166666666666667,2.9963073797496156,10.882385240500769,-132.0260130683066
1590514968.6700792,-0.012644632968068812,-3.961033050547897,8.848388417579828,0.4122222222222222,0.2616069675189505,-0.6191184556773104,2.5596592582773656,11.272985521974785,-136.95738519205844
1590514968.6800792,0.060868596054538024,-4.0218471597874945,8.79630568042501,0.4122222222222222,0.2911111111111111,-0.6233333333333333,2.3152143626704316,11.455160772002824,-141.97347401270574
1590514968.6900792,0.17761593207129234,-4.116423898106938,8.66,0.4122222222222222,0.2911111111111111,-0.6233333333333333,2.7240896179010194,11.775579660356462,-146.13435634883197
1590514968.7000792,-0.5691168849863251,-5.23966712249892,8.5354408377717,0.4122222222222222,0.2911111111111111,-0.6233333333333333,2.432958921117029,12.474944220526845,-146.98142408593637
1590514968.7100792,-8.803102886368404,-14.523542537229151,8.75069311563221,0.4122222222222222,0.2911111111111111,-0.6233333333333333,-6.199428050531615,8.607614631903324,-55.54627829496136
1590514968.7200792,1.5099175553798752,-0.39389248318033054,14.123749697487941,0.4122222222222222,0.2911111111111111,-0.6233333333333333,0.1869978299801538,-12.666373566092837,47.01718369338991
1590514968.7300792,3.289785586277522,-2.600440134835296,5.8408960573476705,0.36,0.33,-0.6233333333333333,24.162079706434547,-6.219614055299539,38.228839979091994
1590514968.7400792,0.4077133777762426,-1.6903312493523541,7.569057372802321,0.36,0.33,-0.6233333333333333,-7.113137283686228,-0.38495216054713133,-3.333559289834548
1590514968.7500792,0.44213602961489584,-3.247360627658987,8.917265042267529,0.36,0.33,-0.6233333333333333,-12.699655367699872,3.2867354549975136,-21.67049629813802
1590514968.7600791,-0.1200814044439294,-3.961726295663258,8.162848576146471,0.36,0.33,-0.6233333333333333,0.46677554390335757,5.09848199542281,-32.052661215562445
1590514968.7700791,-1.8368704485649592,-6.652244456683597,8.441740815535566,0.3562575389783027,0.33561369153254594,-0.6258283073477982,0.19083134447096262,2.4178179120004897,-27.248472655692225
1590514968.7800791,-0.5043700865429082,-7.225612076369162,8.846717975820836,0.3466666666666667,0.35,-0.6322222222222222,-0.10068458082843379,-0.15081423003237104,2.4315832067120304
1590514968.790079,-0.06020554787968966,-4.256628972260602,8.410411095759379,0.3466666666666667,0.35,-0.6322222222222222,1.9422534275693484,-0.9787384419173132,3.985868583271335
1590514968.800079,-0.0696263915602961,-4.598368595908376,8.680186804219852,0.3466666666666667,0.35,-0.6322222222222222,-1.5621885382059801,-0.3639476598472926,-2.3078298945037012
1590514968.810079,0.07991481344305061,-4.307319763603279,8.726382711476836,0.3466666666666667,0.35,-0.6322222222222222,0.5199459733651105,0.1659567786920884,-0.18643516803813268
1590514968.820079,0.059769710538941305,-4.458848552694707,8.664605789221174,0.3466666666666667,0.35020470174316326,-0.6322222222222222,0.30962138173676634,-0.001439309131616824,0.05818207260514953
1590514968.830079,0.05316452884668777,-4.41,8.799873951912932,0.3466666666666667,0.3588888888888889,-0.6322222222222222,0.04905186295741018,-0.04272169470820145,-0.045886778832805813
1590514968.840079,0.06,-4.383069149928487,8.691544680057211,0.3466666666666667,0.3588888888888889,-0.6322222222222222,-0.1995046561159132,-0.033663562589391204,0.0745046561159132
1590514968.850079,0.06,-4.3178633169579,8.743709346433679,0.3466666666666667,0.3588888888888889,-0.6322222222222222,-0.07724371929606369,-0.1151708538026242,-0.04775628070393631
1590514968.860079,0.041421941135134255,-4.374312235459463,8.712797470216207,0.3466666666666667,0.3588888888888889,-0.6322222222222222,0.053322792567534444,-0.16972573581082184,0.16083860371623276
1590514968.870079,0.04827638051347421,-4.346894477946103,8.774487424621267,0.3466666666666667,0.3588888888888889,-0.6322222222222222,0.31036426925528265,-0.08404524358157245,0.03231786537235867
1590514968.880079,0.05,-4.326100662941377,8.752201325882753,0.3333333333333333,0.34444444444444444,-0.6322222222222222,0.22712251396983718,-0.10974834264655811,0.0
1590514968.890079,0.05,-4.368103306695508,8.836206613391015,0.3333333333333333,0.34444444444444444,-0.6322222222222222,0.06961259989184643,-0.0047417332612309515,0.0
1590514968.900079,0.055816214190344576,-4.381632428380689,8.665816214190345,0.3333333333333333,0.34444444444444444,-0.6322222222222222,-0.25797299196551965,-0.08864866131034643,0.02614866131034644
1590514968.910079,0.06297803189888655,-4.395956063797773,8.687021968101114,0.3333333333333333,0.34444444444444444,-0.6322222222222222,-0.0664835991573879,0.0,-0.04787089978934697
1590514968.920079,0.04,-4.349244870534908,8.71453077679055,0.33434017262012206,0.34553518700513225,-0.6322222222222222,0.125,-0.004719559156822239,0.004719559156822239
1590514968.930079,0.04,-4.3408325477847525,8.765004713291482,0.3455566029536627,0.3576863198664679,-0.6322222222222222,0.125,-0.05729657634529373,0.05729657634529373
1590514968.940079,0.03512122981857915,-4.360242459637158,8.724393850907104,0.3466666666666667,0.3588888888888889,-0.6322222222222222,-0.07850384318305985,0.0,-0.030492313633880296
1590514968.950079,0.0485095657455208,-4.388509565745521,8.65223565138172,0.3466666666666667,0.3588888888888889,-0.6322222222222222,-0.125,0.004657607045247494,0.0625
1590514968.960079,0.032250814587995134,-4.37,8.69350488752797,0.3466666666666667,0.3588888888888889,-0.6322222222222222,-0.06872963530012169,0.006229635300121696,0.04843240882503042
1590514968.970079,0.04,-4.366960838729572,8.741519580635215,0.3462445609346627,0.3593109946208929,-0.6333196971254326,0.1297486894850447,-0.1827513105149553,0.0
1590514968.980079,0.042773930564884086,-4.335547861129768,8.768321791694651,0.3411111111111111,0.3644444444444445,-0.6466666666666666,0.15282586793894898,-0.07298880190842347,0.01733706603052551
1590514968.990079,0.052684474874434645,-4.352684474874435,8.75510182663235,0.3411111111111111,0.3644444444444445,-0.6466666666666666,0.01216609610435044,0.028944064069566955,0.028944064069566955
1590514969.000079,0.0538247410115783,-4.36,8.675438147471054,0.3411111111111111,0.3644444444444445,-0.6466666666666666,-0.125,-0.02390463132236441,-0.02390463132236441
1590514969.010079,0.045856108285197004,-4.36,8.711952036095067,0.3411111111111111,0.3644444444444445,-0.6466666666666666,-0.08839932321751875,0.05029977440583958,0.0625
1590514969.020079,0.06393654625398743,-4.36,8.71797884875133,0.3411111111111111,0.3644444444444445,-0.6466666666666666,0.024603414087421338,0.012632195304192892,0.0625
1590514969.030079,0.03141992180742483,-4.369645019548144,8.748935058644431,0.3336094292403326,0.35158441838025273,-0.6380933159572055,0.1830627443517974,-0.0602813721758987,0.002218627824101302
1590514969.0400789,0.03,-4.352194904375448,8.732194904375449,0.3333333333333333,0.3511111111111111,-0.6377777777777778,0.13185907617327736,-0.0625,0.0
1590514969.0500789,0.04782649406587233,-4.346520517802383,8.674347011868255,0.3333333333333333,0.3511111111111111,-0.6377777777777778,-0.13858441208829794,0.013584412088297948,0.013584412088297948
1590514969.0600789,0.04,-4.366621334551014,8.698446663622466,0.3333333333333333,0.3511111111111111,-0.6377777777777778,-0.1875,0.05194167047191725,0.09417498858424825
1590514969.0700788,0.04,-4.350036227930425,8.740018113965213,0.333347421972943,0.3511352630647277,-0.6377777777777778,-0.18704715086968857,-0.00011321228257785733,0.2497735754348443
1590514969.0800788,0.04,-4.368343554265511,8.749171777132755,0.3404669377699211,0.3633401472881188,-0.6377777777777778,0.0417944283188931,-0.057323607079723275,0.13535278584055344
1590514969.0900788,0.052189977134146345,-4.357810022865854,8.758100228658536,0.3411111111111111,0.3644444444444445,-0.6377777777777778,0.09762528582317073,-0.007750571646341464,0.0
1590514969.1000788,0.059374611585385796,-4.350625388414614,8.680625388414613,0.3411111111111111,0.3644444444444445,-0.6377777777777778,-0.005863016387008144,0.18163698361299185,-0.003908677591338763
1590514969.1100788,0.042363430675128946,-4.374726861350258,8.711817153375645,0.3411111111111111,0.3644444444444445,-0.6377777777777778,-0.14318567484133224,0.029542883439111843,-0.08068567484133224
1590514969.1200788,0.05,-4.3881877355258645,8.749395911841955,0.34064126476596496,0.3648471698831412,-0.6379120195906767,0.0,0.11744889802443759,0.04739779604887519
1590514969.1300788,0.05,-4.36,8.744314137626294,0.3333333333333333,0.3711111111111111,-0.64,0.026963360164329903,0.0,-0.17401831991783506
1590514969.1400788,0.043796321525885556,-4.353796321525886,8.739321071752952,0.3333333333333333,0.3711111111111111,-0.64,0.11207566984559492,-0.03877299046321526,-0.07330267938237967
1590514969.1500788,0.023577899706520352,-4.32821105014674,8.672522648972821,0.3333333333333333,0.3711111111111111,-0.64,0.0401381268342478,-0.1763190634171239,0.125
1590514969.1600788,0.04752542372881356,-4.333169491525424,8.728118644067797,0.3333333333333333,0.3711111111111111,-0.64,-0.0625,-0.10148305084745762,0.125
1590514969.1700788,0.07983898305084747,-4.389718220338983,8.720040254237288,0.3333333333333333,0.3711111111111111,-0.64,-0.0625,-0.0005031779661016922,0.125
1590514969.1800787,0.044409764417439504,-4.372204882208719,8.737795117791281,0.3333333333333333,0.36023631690532876,-0.6251707351739331,0.10432922929325233,-0.05560974309775077,0.06939025690224923
1590514969.1900787,0.05,-4.342356414957575,8.728792265381827,0.3333333333333333,0.3588888888888889,-0.6233333333333333,0.15445518696968405,-0.02945518696968405,0.08081721954547393
1590514969.2000787,0.05128763531799729,-4.35,8.666438176589986,0.3333333333333333,0.3588888888888889,-0.6233333333333333,0.2017136755751015,-0.14109544147496617,-0.05445227926251692
1590514969.2100787,0.05983132309523265,-4.350168676904767,8.710337353809535,0.3333333333333333,0.3588888888888889,-0.6233333333333333,-0.12394576934520404,-0.2468373080356121,0.0010542306547959626
1590514969.2200787,0.05023184491795025,-4.35976815508205,8.7295363101641,0.3333333333333333,0.3588888888888889,-0.6233333333333333,-0.06394903073718902,-0.0668470922115671,0.06105096926281098
1590514969.2300787,0.05,-4.37578480524489,8.74578480524489,0.3280717315850366,0.3527503535158761,-0.6233333333333333,-0.0625,0.03615503278056305,-0.1348100655611261
1590514969.2400787,0.03951607198994027,-4.37,8.755160719899402,0.32666666666666666,0.3511111111111111,-0.6233333333333333,0.05947544993712669,-0.05947544993712669,0.0030245500628733103
1590514969.2500787,0.03127514932411191,-4.37,8.672751493241119,0.32666666666666666,0.3511111111111111,-0.6233333333333333,0.007969683275699468,-0.007969683275699468,0.05453031672430053
1590514969.2600787,0.03835984177686566,-4.351640158223134,8.734920474669403,0.32666666666666666,0.3511111111111111,-0.6233333333333333,-0.020501977789179258,-0.03174703331623111,-0.03075296668376889
1590514969.2700787,0.03141805001572301,-4.358581949984277,8.755745849952831,0.32666666666666666,0.3511111111111111,-0.6233333333333333,-0.10727437480346237,0.09841156220519356,-0.16091156220519356
1590514969.2800786,0.05568265074364422,-4.377121767162429,8.732804417906074,0.3333333333333333,0.3511111111111111,-0.6377777777777778,-0.08902208953036853,-0.10701104476518426,0.0
1590514969.2900786,0.03263535790167778,-4.361756905267786,8.694392263169462,0.3333333333333333,0.3511111111111111,-0.6377777777777778,0.10303868415268516,-0.01098065792365742,0.0
1590514969.3000786,0.034348873733353415,-4.355651126266647,8.657395494933414,0.3333333333333333,0.3511111111111111,-0.6377777777777778,0.0625,-0.04890976958327058,0.0
1590514969.3100786,0.04917518291418585,-4.341649634171628,8.722474451257444,0.3333333333333333,0.3511111111111111,-0.6377777777777778,0.05218978642732308,-0.005155106786338458,0.0
1590514969.3200786,0.04296306170206464,-4.354073876595871,8.741110814893807,0.3333333333333333,0.3511111111111111,-0.6377777777777778,-0.02546172872419207,-0.043980864362096035,0.0
1590514969.3300786,0.031255281830503065,-4.368744718169497,8.758744718169497,0.3508227696723271,0.33945148688511523,-0.6251465181996155,-0.11715448855935581,-0.11715448855935581,0.0
1590514969.3400786,0.06634164630753973,-4.35817082315377,8.728049877845239,0.3533333333333333,0.3377777777777778,-0.6233333333333333,0.034297065866815024,-0.03963528942212331,0.0
1590514969.3500786,0.048299379244261136,-4.35,8.641904345290172,0.3533333333333333,0.3377777777777778,-0.6233333333333333,0.1981288797233679,0.0625,-0.021257759446735826
1590514969.3600786,0.040882402351952965,-4.350441201175976,8.701764804703906,0.3533333333333333,0.3377777777777778,-0.6233333333333333,0.244484985300294,0.065257507349853,-0.11672747795044099
1590514969.3700786,0.05849811003779924,-4.3592490550189,8.736996220075598,0.3533333333333333,0.3377777777777778,-0.6233333333333333,0.1343868122637547,0.12030659386812265,0.04841978160436791
1590514969.3800786,0.06,-4.36,8.771511642232351,0.3437047759845591,0.3587855392660124,-0.6417151246355385,-0.022710822964149308,0.026526118023900466,0.0625
1590514969.3900785,0.023043766264490183,-4.38,8.750215519280813,0.3411111111111111,0.3644444444444445,-0.6466666666666666,-0.04347646084693636,-0.125,0.07201176957653183
1590514969.4000785,0.04287368222891566,-4.37281579442771,8.651494728915663,0.3411111111111111,0.3644444444444445,-0.6466666666666666,0.07148025696536145,-0.09805922910391567,0.1070394860692771
1590514969.4100785,0.06,-4.331781320673008,8.720890660336504,0.3411111111111111,0.3644444444444445,-0.6466666666666666,0.125,0.045800118690554475,-0.005566627103148507
1590514969.4200785,0.06,-4.345236017771504,8.727618008885752,0.3411111111111111,0.3644444444444445,-0.6466666666666666,0.125,-0.08033766660785602,-0.047612555535952006
1590514969.4300785,0.06,-4.377399790985403,8.766533054647203,0.33400746159637706,0.3593704090767773,-0.6334741747107321,0.010834204227488792,-0.2391657957725112,0.05166579577251121
1590514969.4400785,0.043455057360171453,-4.388272471319914,8.728637643400429,0.3333333333333333,0.3588888888888889,-0.6322222222222222,-0.05170294574946421,0.00851472874732112,0.010797054250535787
1590514969.4500785,0.040851011390243476,-4.37,8.671702022780487,0.3333333333333333,0.3588888888888889,-0.6322222222222222,0.0,-0.10904353643293488,0.0625
1590514969.4600785,0.04823495237927575,-4.37,8.686469904758551,0.3333333333333333,0.3588888888888889,-0.6322222222222222,0.0,0.02940535711142017,0.0625
1590514969.4700785,0.05875830086164316,-4.361241699138358,8.751308106031502,0.3333333333333333,0.3588888888888889,-0.6322222222222222,0.054739380385269744,0.007760619614730256,0.0625
1590514969.4800785,0.051956577815993124,-4.368043422184007,8.76,0.33958932836533867,0.3526328938568835,-0.6322222222222222,-0.038042777300085984,-0.10054277730008598,0.0625
1590514969.4900784,0.05,-4.371070309001343,8.757156291983877,0.3411111111111111,0.3511111111111111,-0.6322222222222222,-0.11831056874160323,-0.006689431258396775,0.0625
1590514969.5000784,0.048746166597596355,-4.376238499792789,8.658776833816827,0.3411111111111111,0.3511111111111111,-0.6322222222222222,-0.05466354123497721,-0.07033645876502279,0.05466354123497721
1590514969.5100784,0.040055118110236224,-4.350165354330708,8.719614173228347,0.3411111111111111,0.3511111111111111,-0.6322222222222222,-0.0003444881889763801,-0.12465551181102362,0.0003444881889763801
1590514969.5200784,0.04,-4.358645962990623,8.754583851962492,0.3411111111111111,0.3511111111111111,-0.6322222222222222,0.1621118060741847,-0.1790372686913949,0.0
1590514969.5300784,0.03260796059360063,-4.3673920394064,8.767392039406399,0.33536174712835604,0.3568604750938662,-0.6322222222222222,0.002699014840015862,-0.09509950742000793,-0.046200246289996034
1590514969.5400784,0.050563096635057564,-4.36,8.696058323554597,0.3333333333333333,0.3588888888888889,-0.6322222222222222,-0.125,0.0035193539691097645,0.18046129206178047
1590514969.5500784,0.05721417018172592,-4.36,8.649500808727918,0.3333333333333333,0.3588888888888889,-0.6322222222222222,-0.125,0.045088563635787,0.097322872728426
1590514969.5600784,0.06,-4.359869277916109,8.700522888335568,0.3333333333333333,0.3588888888888889,-0.6322222222222222,-0.06168298697567516,-0.0625,0.06168298697567516
1590514969.5700784,0.06,-4.353174679180234,8.727301283279065,0.3333333333333333,0.3588888888888889,-0.6322222222222222,-0.019841744876460454,-0.0625,0.019841744876460454
1590514969.5800784,0.06903885564390524,-4.36807771128781,8.77615542257562,0.34036355438970406,0.3639104753577252,-0.631217904928455,0.11298569554881548,-0.2319785433232232,0.11298569554881548
1590514969.5900784,0.06254218773542262,-4.347626563206267,8.765084375470845,0.3411111111111111,0.3644444444444445,-0.6311111111111111,0.031777346692782885,0.0762792865752599,-0.014833979960825666
1590514969.6000783,0.041213804823844694,-4.369393097588078,8.661213804823845,0.3411111111111111,0.3644444444444445,-0.6311111111111111,-0.054913719850970655,0.16853429962742664,-0.0625
1590514969.6100783,0.05492156350088241,-4.362539218249559,8.674921563500883,0.3411111111111111,0.3644444444444445,-0.6311111111111111,0.03075977188051507,-0.045649429701287686,-0.0625
1590514969.6200783,0.044383261866035785,-4.36,8.742466952535857,0.3411111111111111,0.3644444444444445,-0.6311111111111111,0.16010461333727638,-0.125,-0.013697693331361817
1590514969.6300783,0.04,-4.366633625326571,8.773267250653142,0.335951624746,0.36075909704079373,-0.635533527995492,0.14603984170892886,-0.0420796834178577,-0.04146015829107115
1590514969.6400783,0.04,-4.37972364910604,8.770276350893958,0.3333333333333333,0.3588888888888889,-0.6377777777777778,-0.11809122765101737,0.06077280691275434,-0.001727193087245657
1590514969.6500783,0.04,-4.371532413679846,8.659921377837994,0.3333333333333333,0.3588888888888889,-0.6377777777777778,-0.125,0.009577585499035188,0.0
1590514969.6600783,0.049905194208228,-4.360094805791772,8.699431165249367,0.3333333333333333,0.3588888888888889,-0.6377777777777778,-0.06309253619857505,0.0,-0.06190746380142496
1590514969.6700783,0.05806125414075667,-4.376122508281513,8.740306270703783,0.3333333333333333,0.3588888888888889,-0.6377777777777778,-0.0625,0.050382838379729185,-0.21364851513918756
1590514969.6800783,0.050600164831930305,-4.361200329663861,8.75939983516807,0.34064431624183195,0.35157790598039024,-0.6576218742437027,0.05499793960087125,0.0037510301995643744,-0.015004120798257498
1590514969.6900783,0.05,-4.352130164678039,8.736390494034119,0.3411111111111111,0.3511111111111111,-0.6588888888888889,-0.03587294152450449,-0.09837294152450449,-0.04918647076225224
1590514969.7000782,0.050046003779563634,-4.35013801133869,8.650046003779565,0.3411111111111111,0.3511111111111111,-0.6588888888888889,-0.125,0.0619249527554546,0.0
1590514969.7100782,0.058052379407104816,-4.374157138221315,8.658052379407104,0.3411111111111111,0.3511111111111111,-0.6588888888888889,-0.125,-0.0381547425888102,0.0
1590514969.7200782,0.04923921887713588,-4.363858828315704,8.703043124491456,0.3411111111111111,0.3511111111111111,-0.6588888888888889,-0.0241176769731489,0.0383823230268511,-0.06725488201790074
1590514969.7300782,0.03453215721304154,-4.355467842786958,8.761871371147834,0.34414880154831023,0.35536387772318995,-0.6394476700908143,-0.005848034836980792,-0.045870087092451994,-0.1591740174184904
1590514969.7400782,0.03,-4.36,8.78,0.3466666666666667,0.3588888888888889,-0.6233333333333333,-0.024526188483599033,-0.11155237696719807,-0.03560475393439613
1590514969.7500782,0.04676481440484097,-4.36,8.687793520773374,0.3466666666666667,0.3588888888888889,-0.6233333333333333,-0.1571701350453841,-0.11489004501512803,-0.04228009003025607
1590514969.7600782,0.04382070349774604,-4.378537889506762,8.70089648251127,0.3466666666666667,0.3588888888888889,-0.6233333333333333,-0.0716381905827383,0.029482412556348925,-0.02387939686091277
1590514969.7700782,0.033837442802120025,-4.37767488560424,8.73848767159364,0.3466666666666667,0.3588888888888889,-0.6233333333333333,0.0,0.04796803502650031,-0.038515982486749846
1590514969.7800782,0.04289644012944984,-4.35710355987055,8.756448220064724,0.3509654800431499,0.35387360661632505,-0.6233333333333333,0.0,0.04030137540453074,-0.022198624595469257
1590514969.7900782,0.04037492855782054,-4.369250142884359,8.702249571346922,0.3533333333333333,0.3511111111111111,-0.6233333333333333,0.12031339302724328,0.0625,-0.06015669651362164
1590514969.8000782,0.047424278127209125,-4.362575721872791,8.670302887491163,0.3533333333333333,0.3511111111111111,-0.6233333333333333,-0.060606953180228046,-0.030303476590114023,-0.01609826170494299
1590514969.8100781,0.03,-4.3500629548762735,8.670220342066958,0.3533333333333333,0.3511111111111111,-0.6233333333333333,-0.12480326601164483,-0.0625,0.0
1590514969.8200781,0.03,-4.365326055312955,8.723641193595343,0.3533333333333333,0.3511111111111111,-0.6233333333333333,-0.077106077147016,-0.0625,0.0
1590514969.8300781,0.038960155191526055,-4.37,8.766880465574578,0.3533333333333333,0.3580801207045203,-0.6233333333333333,-0.006499030052962186,0.04950193989407563,-0.056000969947037814
1590514969.840078,0.04,-4.362423182711199,8.754846365422397,0.3533333333333333,0.3588888888888889,-0.6233333333333333,0.0,0.0625,0.03221021611001963
1590514969.850078,0.04,-4.36,8.661116114313161,0.3533333333333333,0.3588888888888889,-0.6233333333333333,0.0,-0.04860485710854946,-0.04860485710854946
1590514969.860078,0.04,-4.369429170262606,8.668858340525212,0.3533333333333333,0.3588888888888889,-0.6233333333333333,0.0,-0.0625,-0.0035676858587103955
1590514969.870078,0.04503219088496362,-4.364967809115036,8.710257527079708,0.3533333333333333,0.3588888888888889,-0.6233333333333333,0.0,-0.09395119303102262,-0.03145119303102262
1590514969.880078,0.05,-4.36,8.753664459161147,0.3518404055269397,0.35956749243724967,-0.6250977025590712,-0.007634289919058131,-0.14026857983811625,-0.04723142016188374
1590514969.890078,0.05528444574551132,-4.36,8.78,0.3411111111111111,0.3644444444444445,-0.6377777777777778,-0.029472214090554255,-0.11788885636221702,-0.0035555718188914898
1590514969.900078,0.04214810136575353,-4.342148101365753,8.681814557511645,0.3411111111111111,0.3644444444444445,-0.6377777777777778,0.0,0.0,-0.17407436646404043
1590514969.910078,0.04,-4.366728908273136,8.70341113534142,0.3411111111111111,0.3644444444444445,-0.6377777777777778,0.04176391917677525,0.12529175753032573,-0.06220824246967427
1590514969.920078,0.04,-4.367949048002146,8.732050951997856,0.3411111111111111,0.3644444444444445,-0.6377777777777778,-0.012818449986591582,0.07452232502011263,-0.03765922499329579
1590514969.930078,0.035117112251327756,-4.36,8.749765775497345,0.3411111111111111,0.36173172902851547,-0.6307247176963623,-0.031981951570798445,0.0,-0.0625
1590514969.940078,0.03983630411058567,-4.3550818479447075,8.735409239723536,0.3411111111111111,0.3588888888888889,-0.6233333333333333,-0.030738450345580214,0.09221535103674063,-0.0625
1590514969.950078,0.061282620094381485,-4.355641310047191,8.687434759811238,0.3411111111111111,0.3588888888888889,-0.6233333333333333,0.008016375589884231,0.11698362441011577,-0.0625
1590514969.960078,0.06157096065342676,-4.351570960653427,8.686858078693145,0.3411111111111111,0.3588888888888889,-0.6233333333333333,0.11518149591608276,-0.09554448774824828,-0.16786299183216552
1590514969.970078,0.04544629234055539,-4.357276853829722,8.733661122978333,0.3411111111111111,0.3588888888888889,-0.6233333333333333,0.03403932712847116,-0.03403932712847116,-0.005578654256942317
1590514969.980078,0.04,-4.3780374898125505,8.75,0.32808403513537987,0.3588888888888889,-0.6303479127048809,0.11273431132844336,0.0,-0.10660146699266504
1590514969.990078,0.04,-4.354833225597931,8.775166774402068,0.32666666666666666,0.3588888888888889,-0.6311111111111111,0.07256921999569058,0.0,-0.07256921999569058
1590514970.000078,0.04867461995368973,-4.367349239907379,8.675904560555724,0.32666666666666666,0.3588888888888889,-0.6311111111111111,0.22514912413168228,0.054216374710560754,-0.008283625289439246
1590514970.010078,0.041350172161690485,-4.361350172161691,8.720548794868167,0.32666666666666666,0.3588888888888889,-0.6311111111111111,0.03375430404226215,0.17062284797886892,-0.05406142398943446
1590514970.020078,0.046526118528929496,-4.3534738814710705,8.749578355586788,0.32666666666666666,0.3588888888888889,-0.6311111111111111,0.04078824080580932,0.1467117591941907,-0.0625
1590514970.030078,0.05,-4.359621532126255,8.755189233936873,0.33949537616833997,0.35514718195090084,-0.627369404173123,0.0625,0.09493271210545308,-0.03243271210545308
1590514970.040078,0.044178091308398774,-4.37,8.755821908691601,0.3533333333333333,0.3511111111111111,-0.6233333333333333,0.13527385864501532,0.0625,0.0
1590514970.050078,0.031859782277499235,-4.378140217722501,8.662317387329992,0.3533333333333333,0.3511111111111111,-0.6233333333333333,0.08574727846874049,0.011623639234370244,0.050876360765629756
1590514970.060078,0.04617814992269659,-4.363821850077303,8.68853444976809,0.3533333333333333,0.3511111111111111,-0.6233333333333333,0.09620447900561789,0.03370447900561789,-0.03861343701685367
1590514970.070078,0.06369671056738031,-4.364786842269521,8.733696710567381,0.3533333333333333,0.3511111111111111,-0.6233333333333333,0.10189555895387303,0.08560444104612697,-0.125
1590514970.080078,0.05533005025803623,-4.375330050258036,8.754669949741963,0.34844335008601207,0.35681609156631927,-0.618443350086012,0.0625,-0.012530778830910388,-0.03331281411272642
1590514970.0900779,0.0363359222911273,-4.349503883436691,8.76,0.3466666666666667,0.3588888888888889,-0.6166666666666667,0.0625,0.02290048568045437,-0.12810072852068155
1590514970.1000779,0.03801679487572405,-4.34,8.671815256367037,0.3466666666666667,0.3588888888888889,-0.6166666666666667,0.0625,0.0625,-0.08729006405344938
1590514970.1100779,0.03211978495579153,-4.355760430088417,8.673640645132625,0.3466666666666667,0.3588888888888889,-0.6166666666666667,0.0625,0.16100268805260587,0.036002688052605855
1590514970.1200778,0.04273023730944523,-4.347269762690555,8.718190711928337,0.3466666666666667,0.3588888888888889,-0.6166666666666667,-0.017063983184032683,0.10793601681596732,-0.017063983184032683
1590514970.1300778,0.05,-4.3623387019918045,8.762338701991803,0.3466666666666667,0.3481332175595018,-0.6216308226648454,-0.10903896248292513,-0.030577924965850253,0.030577924965850253
1590514970.1400778,0.04426929447956458,-4.37,8.775730705520434,0.3466666666666667,0.34444444444444444,-0.6233333333333333,-0.053366180994557325,-0.0625,0.0625
1590514970.1500778,0.05286579018390716,-4.3635671049080464,8.696372363804603,0.3466666666666667,0.34444444444444444,-0.6233333333333333,0.0,0.01791118864941975,0.022294405675290126
1590514970.1600778,0.05168316076016995,-4.35168316076017,8.69990103543898,0.3466666666666667,0.34444444444444444,-0.6233333333333333,0.05198024524893785,-0.0414604904978757,0.05198024524893785
1590514970.1700778,0.06893836779185504,-4.356312789263952,8.722625578527904,0.3466666666666667,0.34444444444444444,-0.6233333333333333,-0.016409865799396003,-0.0625,0.023045067100302
1590514970.1800778,0.06223805951487872,-4.35111902975744,8.734440485121281,0.3496269900808535,0.34740476785863134,-0.6233333333333333,-0.0625,-0.034746967991998,0.0
1590514970.1900778,0.04,-4.358315334773218,8.721684665226782,0.3533333333333333,0.3511111111111111,-0.6233333333333333,0.013813894888408923,0.0,0.0
1590514970.2000778,0.04,-4.355360698213555,8.644123141960998,0.3533333333333333,0.3511111111111111,-0.6233333333333333,-0.07474345424792037,0.0,0.0
1590514970.2100778,0.04,-4.357224498598232,8.663346991589389,0.3533333333333333,0.3511111111111111,-0.6233333333333333,-0.1701531162389476,0.0903062324778952,0.0
1590514970.2200778,0.04571579185179607,-4.36,8.720010542962573,0.3533333333333333,0.3511111111111111,-0.6233333333333333,-0.1875,0.08927630092627456,-0.07144739814745087
1590514970.2300777,0.05644096814260297,-4.366440968142603,8.769322904427808,0.33186343952465674,0.35612075299980234,-0.6290586383489805,-0.026475796434925647,0.02224394910873141,-0.004231847326194221
1590514970.2400777,0.06,-4.37,8.76740870194046,0.32,0.3588888888888889,-0.6322222222222222,0.023152193563938772,0.0,0.023152193563938772
1590514970.2500777,0.05288292653382594,-4.355765853067652,8.695946338804433,0.32,0.3588888888888889,-0.6322222222222222,-0.04448170916358791,0.04448170916358791,-0.04448170916358791
1590514970.2600777,0.05,-4.357763198850712,8.70105279540285,0.32,0.3588888888888889,-0.6322222222222222,-0.0625,0.11101999281695199,-0.0625
1590514970.2700777,0.04387648152670035,-4.3661235184733,8.734494073893199,0.32,0.3588888888888889,-0.6322222222222222,0.014043980916245605,0.048456019083754395,-0.0625
1590514970.2800777,0.04678870726189338,-4.383577414523787,8.763577414523786,0.3290516096825245,0.3588888888888889,-0.6359937262566074,0.0625,-0.08485884077366727,-0.0625
1590514970.2900777,0.05,-4.379382580301213,8.780617419698787,0.3333333333333333,0.3588888888888889,-0.6377777777777778,-0.03703830967612955,-0.09182056344129015,0.0702177462348394
1590514970.3000777,0.03949790476190476,-4.364748952380952,8.726987428571428,0.3333333333333333,0.3588888888888889,-0.6377777777777778,-0.125,-0.029680952380952384,0.05622380952380954
1590514970.3100777,0.040973289902280136,-4.36,8.6974332247557,0.3333333333333333,0.3588888888888889,-0.6377777777777778,-0.0907084690553746,-0.034291530944625406,-0.028208469055374594
1590514970.3200777,0.05427332882534776,-4.36,8.724273328825348,0.3333333333333333,0.3588888888888889,-0.6377777777777778,-0.14262491547527048,0.044333220633693965,0.0
