time,acc_x,acc_y,acc_z,mag_x,mag_y,mag_z,gyr_x,gyr_y,gyr_z
1590515105.3618708,0.12,-4.3,8.69,0.42777777777777776,0.26222222222222225,-0.6166666666666667,-0.0625,-0.125,0.125
1590515105.3718708,0.1345493964201471,-4.278175905369779,8.806395171361176,0.42777777777777776,0.26222222222222225,-0.6166666666666667,0.02843372762591924,-0.1704668638129596,0.07953313618704039
1590515105.3818707,0.13104869808552025,-4.287902603828959,8.84104869808552,0.4218102431681246,0.2801248260511817,-0.6166666666666667,0.11844563696549841,-0.1875,0.00655436303450159
1590515105.3918707,0.11430097538318626,-4.2821504876915935,8.847849512308407,0.4211111111111111,0.2822222222222222,-0.6166666666666667,0.17405945192754296,-0.08938109614491407,0.04905945192754296
1590515105.4018707,0.09244474363289577,-4.274148247877632,8.773927222409215,0.4211111111111111,0.2822222222222222,-0.6166666666666667,0.22407345076480048,-0.02592654923519952,0.02592654923519952
1590515105.4118707,0.10116960108567552,-4.277056533695225,8.755282668476125,0.4211111111111111,0.2822222222222222,-0.6166666666666667,0.11768999321452805,0.04410333559515731,-0.04410333559515731
1590515105.4218707,0.10367948237059266,-4.286320517629408,8.77,0.4211111111111111,0.2822222222222222,-0.6166666666666667,0.02299676481620405,0.10200323518379595,-0.02299676481620405
1590515105.4318707,0.11687249640994633,-4.281563751795027,8.778436248204972,0.4164243065527927,0.27003653037059433,-0.6044809748150387,0.052726551281082314,0.0722734487189177,0.0
1590515105.4418707,0.10794118116138499,-4.273970590580692,8.743823543484154,0.4155555555555556,0.2677777777777778,-0.6022222222222222,-0.012867617741343845,0.13786761774134385,-0.1507352354826877
1590515105.4518707,0.0934396767365788,-4.283120646526842,8.713439676736579,0.4155555555555556,0.2677777777777778,-0.6022222222222222,-0.02149797960361747,0.10549595920723494,-0.08599191841446988
1590515105.4618707,0.11402460329014412,-4.281991798903285,8.72601640219343,0.4155555555555556,0.2677777777777778,-0.6022222222222222,-0.1501537705634008,-0.03760251370893386,-0.05005125685446693
1590515105.4718707,0.09974339471577262,-4.286752201761409,8.770513210568454,0.4155555555555556,0.2677777777777778,-0.6022222222222222,0.06570756605284228,-0.1469025220176141,-0.02029873899119295
1590515105.4818707,0.10724083219736753,-4.278506111868421,8.79,0.4340734864342096,0.2760789192061399,-0.6022222222222222,0.07974479876645288,-0.22341840041118238,-0.07183680082236475
1590515105.4918706,0.12829597711554477,-4.278295977115545,8.781704022884455,0.4477777777777778,0.2822222222222222,-0.6022222222222222,0.0,-0.19815014302784517,-0.07315014302784517
1590515105.5018706,0.12197720515361744,-4.28,8.731863230921705,0.4477777777777778,0.2822222222222222,-0.6022222222222222,0.0,-0.13735753221010902,-0.11264246778989098
1590515105.5118706,0.12823763073209976,-4.28,8.7364752614642,0.4477777777777778,0.2822222222222222,-0.6022222222222222,0.0,-0.07351480792437651,0.029455576226870478
1590515105.5218706,0.11656448914443954,-4.273282244572219,8.787024287994463,0.4477777777777778,0.2822222222222222,-0.6022222222222222,0.08397194284725294,0.0634579142708794,0.0625
1590515105.5318706,0.11,-4.27,8.81,0.4431674543601149,0.27668983412102677,-0.6022222222222222,0.021267723102585498,0.021267723102585498,0.0625
1590515105.5418706,0.1184033939283352,-4.295210181785006,8.818403393928335,0.44222222222222224,0.27555555555555555,-0.6022222222222222,-0.1575636361562849,0.10504242410418996,0.11502121205209498
1590515105.5518706,0.11289574269100963,-4.28579148538202,8.720540397674135,0.44222222222222224,0.27555555555555555,-0.6022222222222222,-0.009893567275240905,0.125,0.125
1590515105.5618706,0.12273768192582715,-4.28,8.705475363851654,0.44222222222222224,0.27555555555555555,-0.6022222222222222,0.10230525601820983,0.20461051203641967,0.08519474398179017
1590515105.5718706,0.13592017386973354,-4.28,8.7377605216092,0.44222222222222224,0.27555555555555555,-0.6022222222222222,0.125,0.13899673994249623,0.0625
1590515105.5818706,0.11749082583194806,-4.272496941943983,8.772509174168052,0.4313844716968639,0.2805575942595671,-0.6072242609262338,-0.015682338550324637,0.0625,0.10939411285010821
1590515105.5918705,0.11,-4.276768648540982,8.773231351459017,0.42777777777777776,0.2822222222222222,-0.6088888888888889,-0.0625,-0.10671621352454935,-0.0019121601434120006
1590515105.6018705,0.11,-4.28,8.698650248127485,0.42777777777777776,0.2822222222222222,-0.6088888888888889,-0.11204843880035754,-0.23704843880035753,0.18524219400178774
1590515105.6118705,0.08717630794487408,-4.2952157947034175,8.718039486758544,0.42777777777777776,0.2822222222222222,-0.6088888888888889,-0.029901283103641943,-0.34509871689635807,0.01225320775910485
1590515105.6218705,0.10480932288527225,-4.3,8.785820976491863,0.42777777777777776,0.2822222222222222,-0.6088888888888889,0.03876456700823789,-0.375,-0.02373543299176211
1590515105.6318705,0.12492150622610479,-4.285235481321686,8.834764518678314,0.42777777777777776,0.2789412180714857,-0.6023268805874158,0.09325941391315491,-0.3442405860868451,0.09227824173946475
1590515105.6418705,0.13,-4.283378010162751,8.829932984755873,0.42777777777777776,0.27555555555555555,-0.5955555555555555,0.08319371824140218,-0.1870811547242065,0.0620811547242065
1590515105.6518705,0.13,-4.29,8.75701040960673,0.42777777777777776,0.27555555555555555,-0.5955555555555555,-0.009079079992353536,-0.16078953999617676,0.03578953999617677
1590515105.6618705,0.11074179584890304,-4.277161197232601,8.748516408302194,0.42777777777777776,0.27555555555555555,-0.5955555555555555,0.05786377594435606,-0.1875,0.10262125864811869
1590515105.6718705,0.11257159555815313,-4.276285797779076,8.782571595558153,0.42777777777777776,0.27555555555555555,-0.5955555555555555,0.16428623611922852,-0.030355055523085928,0.007141291642314432
1590515105.6818705,0.10633659818442427,-4.28,8.79,0.4330913229282794,0.2801100228274141,-0.6145325025216329,0.14480186932632585,0.019801869326325848,0.022896261347348304
1590515105.6918705,0.10670267610755771,-4.28,8.81681070443023,0.4355555555555555,0.2822222222222222,-0.6233333333333333,0.125,0.0,0.0625
1590515105.7018704,0.11597311658486063,-4.274026883415139,8.746376367811951,0.4355555555555555,0.2822222222222222,-0.6233333333333333,0.08766802134462107,0.0,0.025168021344621067
1590515105.7118704,0.12,-4.27,8.718906311014988,0.4355555555555555,0.2822222222222222,-0.6233333333333333,0.10766611096092037,0.0,0.18066444384368147
1590515105.7218704,0.11059841342837434,-4.279401586571625,8.739401586571626,0.4355555555555555,0.2822222222222222,-0.6233333333333333,0.1543799580363302,-0.08813987410899057,0.13248016785467923
1590515105.7318704,0.1,-4.285991776380817,8.760020559047959,0.4355555555555555,0.2808861476824945,-0.6162076024547855,0.12487150595026292,-0.17497430119005258,0.02505139761989483
1590515105.7418704,0.10787305384880286,-4.266063473075598,8.807873053848803,0.4355555555555555,0.27555555555555555,-0.5877777777777777,-0.10039670672249107,-0.07579341344498214,0.14960329327750893
1590515105.7518704,0.12330041600248824,-4.273201664009953,8.777094591967654,0.4355555555555555,0.27555555555555555,-0.5877777777777777,-0.0625,0.06188280004665449,0.06373439990669102
1590515105.7618704,0.13,-4.290653579938727,8.713366050153182,0.4355555555555555,0.27555555555555555,-0.5877777777777777,-0.0917075626914785,0.1582924373085215,-0.129084874617043
1590515105.7718704,0.12208389599195518,-4.28,8.75583220801609,0.4355555555555555,0.27555555555555555,-0.5877777777777777,-0.0507865249245798,0.0507865249245798,-0.08723782502514006
1590515105.7818704,0.10562505229687892,-4.275625052296879,8.784374947703121,0.4355555555555555,0.2784721873576363,-0.5911805148802053,0.03515657685549326,-0.11718684628901348,-0.125
1590515105.7918704,0.11156766310612465,-4.281567663106125,8.801567663106125,0.4355555555555555,0.2822222222222222,-0.5955555555555555,-0.07229789441327902,-0.006755263966802427,-0.052702105586720976
1590515105.8018703,0.11468791272876966,-4.28468791272877,8.740942865474006,0.4355555555555555,0.2822222222222222,-0.5955555555555555,-0.05859890910962076,-0.007802181780758477,0.0
1590515105.8118703,0.10442991651736364,-4.291140166965273,8.707850417413182,0.4355555555555555,0.2822222222222222,-0.5955555555555555,-0.03481302176647733,-0.22943906529943203,0.10443906529943202
1590515105.8218703,0.10495255206206615,-4.280189791751735,8.759715312372396,0.4355555555555555,0.2822222222222222,-0.5955555555555555,-0.09345345038791343,-0.2196396488362597,0.09463964883625971
1590515105.8318703,0.10608524520407078,-4.267829509591858,8.782170490408141,0.43251074626983277,0.27961238569160274,-0.6007752286167946,-0.125,-0.2473360873727882,-0.02446721747455764
1590515105.8418703,0.1,-4.28,8.76355072086608,0.42777777777777776,0.27555555555555555,-0.6088888888888889,-0.32653997293499193,-0.35688401082600324,-0.022192005413001613
1590515105.8518703,0.10673673435379818,-4.273263265646202,8.706106125169613,0.42777777777777776,0.27555555555555555,-0.6088888888888889,-0.4375,-0.2703954102887614,0.1263137691337158
1590515105.8618703,0.13003476903427236,-4.27,8.726747794413303,0.42777777777777776,0.27555555555555555,-0.6088888888888889,-0.2705435913810639,-0.25,-0.02119551077367013
1590515105.8718703,0.12818506493506493,-4.281814935064935,8.777568181818182,0.42777777777777776,0.27555555555555555,-0.6088888888888889,-0.16288555194805196,-0.27461444805194807,-0.026542207792207798
1590515105.8818703,0.11042264257481649,-4.299577357425183,8.819013833992095,0.42777777777777776,0.27555555555555555,-0.6088888888888889,-0.125880505364201,-0.31161949463579897,0.12147797854319595
1590515105.8918703,0.11868542090063108,-4.278685420900631,8.824342710450315,0.42777777777777776,0.27555555555555555,-0.5877777777777777,-0.03535805968552787,0.07893223874211147,-0.03535805968552787
1590515105.9018703,0.10341030863924192,-4.27,8.760692777753178,0.42777777777777776,0.27555555555555555,-0.5877777777777777,-0.021314428995261925,0.06394328698578576,-0.021314428995261925
1590515105.9118702,0.10586804634297338,-4.2817360926859465,8.741736092685947,0.42777777777777776,0.27555555555555555,-0.5877777777777777,-0.07335057928716725,0.1467011585743345,0.0
1590515105.9218702,0.11506887832948254,-4.279862243341035,8.744931121670518,0.42777777777777776,0.27555555555555555,-0.5877777777777777,-0.2200414686777976,-0.0034439164741270623,-0.03168048955926588
1590515105.9318702,0.12374019939986448,-4.277480398799729,8.747480398799729,0.4232064229557212,0.27264651157788317,-0.5956737542886028,-0.335876246249153,-0.3201287387474591,-0.039123753750846965
1590515105.9418702,0.13,-4.293261260649673,8.77304504259869,0.4155555555555556,0.2677777777777778,-0.6088888888888889,-0.31385136281864157,-0.3152027256372832,-0.0203828790604528
1590515105.9518702,0.13,-4.3,8.770865207069376,0.4155555555555556,0.2677777777777778,-0.6088888888888889,-0.0314207521573652,-0.03648679202622753,-0.08851320797377246
1590515105.9618702,0.12562741890436102,-4.295627418904361,8.751862905478195,0.4155555555555556,0.2677777777777778,-0.6088888888888889,0.29681452739097475,-0.027328631847743687,-0.09767136815225631
1590515105.9718702,0.11120494107983446,-4.281204941079834,8.788795058920165,0.4155555555555556,0.2677777777777778,-0.6088888888888889,0.4924691182510347,-0.11746911825103466,-0.11746911825103466
1590515105.9818702,0.11034298263126373,-4.27,8.810342982631264,0.4155555555555556,0.2697889132894124,-0.6017062620616225,0.5463390896386504,-0.1875,-0.1875
1590515105.9918702,0.12894192785334121,-4.27,8.817883855706683,0.4155555555555556,0.27555555555555555,-0.5811111111111111,0.4654435245416913,-0.11838704908338261,-0.1529435245416913
1590515106.0018702,0.11397752221641401,-4.263977522216414,8.745797699947726,0.4155555555555556,0.27555555555555555,-0.5811111111111111,0.39985951385258756,0.23862388917929955,-0.125
1590515106.0118701,0.11596473607856266,-4.265964736078562,8.715964736078563,0.4155555555555556,0.27555555555555555,-0.5811111111111111,0.4495592009820333,0.5120592009820333,-0.013161198526950121
1590515106.0218701,0.12,-4.274976123449067,8.749856740694401,0.4155555555555556,0.27555555555555555,-0.5811111111111111,0.5622015431133354,0.5936007715566677,0.09360077155666771
1590515106.0318701,0.1088660886920726,-4.274433044346036,8.791133911307927,0.41864830869664654,0.27926685932486467,-0.5928635730472567,0.4510326358136344,0.5902065271627269,0.125
1590515106.04187,0.1,-4.282516871684911,8.806258435842457,0.4211111111111111,0.2822222222222222,-0.6022222222222222,0.39073044803069634,0.6016152240153482,-0.03146089606139263
1590515106.05187,0.09503075657250323,-4.280061513145006,8.750369078870039,0.4211111111111111,0.2822222222222222,-0.6022222222222222,0.3443266857344356,0.469711142890726,-0.125
1590515106.06187,0.09516531681753215,-4.280330633635064,8.710661267270128,0.4211111111111111,0.2822222222222222,-0.6022222222222222,0.12086707956169604,0.15108384945212006,-0.06043353978084802
1590515106.07187,0.12024126503172049,-4.27481905122621,8.75530158128965,0.4211111111111111,0.2822222222222222,-0.6022222222222222,0.031626976612063255,-0.031626976612063255,0.0
1590515106.08187,0.14,-4.26,8.77085901475561,0.41941833606585377,0.27782100710455304,-0.6022222222222222,0.024412561481709193,-0.024412561481709193,-0.019043719259145404
1590515106.09187,0.13758306380476332,-4.264833872390473,8.752416936195237,0.4155555555555556,0.2677777777777778,-0.6022222222222222,-0.03228829755954131,0.03228829755954131,-0.03228829755954131
1590515106.10187,0.11821333421043977,-4.27214222280696,8.7403555570174,0.4155555555555556,0.2677777777777778,-0.6022222222222222,-0.084833322369503,0.084833322369503,0.0870555537282505
1590515106.11187,0.10209676746611053,-4.264193534932221,8.718387069864443,0.4155555555555556,0.2677777777777778,-0.6022222222222222,-0.23387122002085506,0.2862904066736184,0.08568561001042753
1590515106.12187,0.11,-4.275842674284061,8.77910128001157,0.4155555555555556,0.2677777777777778,-0.6022222222222222,0.010533428550766562,0.13553342855076655,-0.03651671427538328
1590515106.13187,0.10667725232999654,-4.276645495340007,8.82,0.42626218693667783,0.27663843823112033,-0.597422697809995,-0.020965654124956858,0.041732827062478425,0.062301518812564724
1590515106.14187,0.11632836396040558,-4.29,8.814557212013199,0.4477777777777778,0.29444444444444445,-0.5877777777777777,-0.07356969967004648,0.03401742491751162,0.11946515016497676
1590515106.15187,0.1417451085431494,-4.2841274457284255,8.739529348741103,0.4477777777777778,0.29444444444444445,-0.5877777777777777,-0.11409307160531619,0.0625,0.0625
1590515106.16187,0.15,-4.2753407241292,8.713296379353999,0.4477777777777778,0.29444444444444445,-0.5877777777777777,-0.0625,0.03337952580750172,0.004259051615003437
1590515106.17187,0.14079865572798259,-4.276134229514678,8.746134229514679,0.4477777777777778,0.29444444444444445,-0.5877777777777777,-0.15834733616684787,0.1533557378669566,-0.024161065533260848
1590515106.18187,0.11176895948789378,-4.277653439231841,8.780577601280266,0.4345166569527178,0.2921580443021927,-0.5937224181476323,-0.42644400320066383,0.5771660048009958,0.11394400320066383
1590515106.19187,0.1,-4.276752458726266,8.826752458726267,0.4155555555555556,0.2888888888888889,-0.6022222222222222,-0.3603961772811165,0.6176980886405582,0.22240095567972087
1590515106.20187,0.11769762845849803,-4.284100790513834,8.763310276679842,0.4155555555555556,0.2888888888888889,-0.6022222222222222,-0.17625988142292492,0.5256299407114624,0.17625988142292492
1590515106.21187,0.11880395239164608,-4.28,8.737990119020886,0.4155555555555556,0.2888888888888889,-0.6022222222222222,-0.125,0.430024702447788,0.020037053671682015
1590515106.22187,0.10575927261683307,-4.2842407273831675,8.76,0.4155555555555556,0.2888888888888889,-0.6022222222222222,-0.09849545385520671,0.29548636156562014,0.07002273072396645
1590515106.23187,0.1060732326537022,-4.286963383673149,8.781256314287958,0.41724256462602843,0.2888888888888889,-0.5978359986389928,-0.1384154081712775,0.22545770408563875,0.26897885204281935
1590515106.24187,0.11306772728299926,-4.2834661363585,8.809203181848998,0.4211111111111111,0.2888888888888889,-0.5877777777777777,-0.3125,0.2908366477593727,0.247509943278118
1590515106.25187,0.10421056033089898,-4.281578879338202,8.732104957021908,0.4211111111111111,0.2888888888888889,-0.5877777777777777,-0.233551993795644,0.22368399793188135,0.15131600206811865
1590515106.26187,0.10496806215836982,-4.28006387568326,8.69509581352489,0.4211111111111111,0.2888888888888889,-0.5877777777777777,0.0007984460407547966,0.1875,0.1875
1590515106.27187,0.09732586809122663,-4.2819776042736795,8.728718923361415,0.4211111111111111,0.2888888888888889,-0.5877777777777777,0.09157335114033285,0.22092664885966715,0.12064670228066571
1590515106.28187,0.09117027209486629,-4.263510816284599,8.771808095335935,0.4211111111111111,0.2888888888888889,-0.5877777777777777,0.014628401185828754,0.29787159881417125,-0.03324319762834249
1590515106.2918699,0.11145971999081937,-4.262919439981639,8.8,0.42777777777777776,0.27555555555555555,-0.5955555555555555,0.05337675005737893,0.14188375028689465,-0.17837675005737894
1590515106.3018699,0.11962805057336078,-4.28,8.795164657453691,0.42777777777777776,0.27555555555555555,-0.5955555555555555,-0.004649367832990296,-0.13662341958247573,-0.11570126433401941
1590515106.3118699,0.11299765852544212,-4.282997658525442,8.690983609678096,0.42777777777777776,0.27555555555555555,-0.5955555555555555,-0.0875292684319735,-0.362558536863947,0.06879390264796026
1590515106.3218699,0.12407718651211802,-4.288640937829294,8.74679531085353,0.42777777777777776,0.27555555555555555,-0.5955555555555555,0.00849413856691254,-0.15352344573234983,-0.07948827713382509
1590515106.3318698,0.14400930517026714,-4.28,8.793993796553154,0.42777777777777776,0.27555555555555555,-0.5982180865909923,0.08746122845722024,0.07498061422861012,-0.11261631462833926
1590515106.3418698,0.11586835443037974,-4.27793417721519,8.79967088607595,0.42777777777777776,0.27555555555555555,-0.6088888888888889,0.12294303797468355,0.16373417721518987,0.1616772151898734
1590515106.3518698,0.08962011307590521,-4.280379886924095,8.734050282689763,0.42777777777777776,0.27555555555555555,-0.6088888888888889,-0.15743714663779623,0.3125,0.0625
1590515106.3618698,0.08981553940749022,-4.285092230296255,8.739446618222471,0.42777777777777776,0.27555555555555555,-0.6088888888888889,-0.1875,0.15913219675796533,0.21586780324203467
1590515106.3718698,0.09644305888029098,-4.28,8.77,0.42777777777777776,0.27555555555555555,-0.6088888888888889,-0.12080735400545566,0.0,0.2860764720072742
1590515106.3818698,0.09469815248503773,-4.28,8.772349076242518,0.423340633764131,0.27555555555555555,-0.6057567872321971,0.0,0.01468172651574291,0.09563654696851417
1590515106.3918698,0.11707370927173934,-4.28,8.78707370927174,0.4088888888888889,0.27555555555555555,-0.5955555555555555,0.04421068294837087,-0.07013204884511262,0.04421068294837087
1590515106.4018698,0.12491807302853636,-4.28,8.764426511199755,0.4088888888888889,0.27555555555555555,-0.5955555555555555,0.07735693464252838,-0.28073795642835225,0.06147591285670451
1590515106.4118698,0.10626864724179522,-4.276268647241795,8.686119469307434,0.4088888888888889,0.27555555555555555,-0.5955555555555555,-0.08582095473877992,-0.30410477369389954,-0.10167904526122008
1590515106.4218698,0.1,-4.27,8.735609204474734,0.4088888888888889,0.27555555555555555,-0.5955555555555555,-0.10162831468860521,-0.5233716853113948,-0.0625
1590515106.4318697,0.1,-4.27,8.754708641338171,0.4088888888888889,0.27555555555555555,-0.5955555555555555,-0.022047327757623594,-0.6029526722423764,-0.0625
1590515106.4418697,0.1219578388507183,-4.28,8.834126483447845,0.4477777777777778,0.2822222222222222,-0.5955555555555555,-0.47289194253591504,-0.5869729856339788,-0.04894597126795753
1590515106.4518697,0.11214459000485202,-4.272857836001941,8.763575934012616,0.4477777777777778,0.2822222222222222,-0.5955555555555555,-1.0089155749636098,-0.37503032508491024,-0.049126637554585156
1590515106.4618697,0.06257525343918433,-4.264978499017376,8.714849493121632,0.4477777777777778,0.2822222222222222,-0.5955555555555555,-1.3744624754343977,0.4053093320101959,0.46807809429299707
1590515106.4718697,0.004399084105886295,-4.276266056070591,8.822800457947057,0.4477777777777778,0.2822222222222222,-0.5955555555555555,-1.6916571261029822,1.009991413492684,0.9900085865073159
1590515106.4818697,-0.08196419711433506,-4.209916049774744,8.829317284220135,0.44276378607356837,0.27950631004910875,-0.5955555555555555,-1.125,0.3472299402623693,1.6175154305674082
1590515106.4918697,-0.22641227524078075,-4.061894752261325,8.731324568791885,0.4211111111111111,0.2677777777777778,-0.5955555555555555,-1.1627192661222396,-0.38558107811183945,2.1674341743875196
1590515106.5018697,-0.3690044226608719,-3.5340138997913115,8.56998736382608,0.4211111111111111,0.2677777777777778,-0.5955555555555555,-3.0248104573912045,-1.9688092320652486,4.131064406195554
1590515106.5118697,-0.26498611720005844,-3.2640778898144087,8.704105655414292,0.4211111111111111,0.2677777777777778,-0.5955555555555555,-5.346037921964051,-0.2318701592868624,7.02253214964197
1590515106.5218697,-0.13731021727200668,-2.9724566573850124,8.878675026930347,0.4211111111111111,0.2677777777777778,-0.5955555555555555,-7.1116008820958925,5.353195311070913,11.93263094246052
1590515106.5318696,-0.29904411764705885,-3.392352941176471,9.200470588235294,0.4236503267973856,0.2677777777777778,-0.5980947712418301,-7.589430147058824,5.5865808823529415,15.362867647058824
1590515106.5418696,-0.1840288471516032,-3.2817071702812077,9.024408218325204,0.42777777777777776,0.2677777777777778,-0.6022222222222222,-3.2437882639825673,0.616417194147556,18.78494863546747
1590515106.5518696,-0.003762262549611842,-2.743467961358928,8.849105613938743,0.42777777777777776,0.2677777777777778,-0.6022222222222222,-0.08042422805222038,-2.248773745038816,22.396602992935772
1590515106.5618696,-0.017914663180990616,-2.615829326361981,9.026042668409504,0.42777777777777776,0.2677777777777778,-0.6022222222222222,-1.5220665468465524,-1.7981332570841697,27.391432472807058
1590515106.5718696,-0.05053331628085433,-2.6502666581404273,8.920755637975871,0.42777777777777776,0.2677777777777778,-0.6022222222222222,-1.060556283838513,-2.554444035895468,31.679721138679284
1590515106.5818696,-0.08291470456627816,-2.6936176514457393,8.78904412861435,0.4311892163199401,0.2677777777777778,-0.6006477121258396,0.21169109969955896,-3.4409558713856514,35.11744502567599
1590515106.5918696,-0.06179600494961994,-2.77718401979848,8.949467915856461,0.44222222222222224,0.2677777777777778,-0.5955555555555555,-1.0464247834541276,-3.25,38.65257645395086
1590515106.6018696,-0.0768410453012399,-2.8202615679518597,8.79973843204814,0.44222222222222224,0.2677777777777778,-0.5955555555555555,-0.6875,-3.314134799699124,41.810739329823114
1590515106.6118696,-0.09,-2.845072181171319,8.790144362342637,0.44222222222222224,0.2677777777777778,-0.5955555555555555,-0.766752830801861,-3.358247169198139,43.6462641540093
1590515106.6218696,-0.09,-2.859420498084291,8.818840996168582,0.44222222222222224,0.2677777777777778,-0.5955555555555555,-0.9909452825670497,-3.1340547174329503,44.76722641283525
1590515106.6318696,-0.08296917828479028,-2.877917808759441,8.9,0.443431887449359,0.2660182647201243,-0.5955555555555555,-0.6058005166531916,-3.5501284238133737,45.64291524521307
1590515106.6418695,-0.10778213799767308,-2.944085701327128,8.9,0.453540871036089,0.2513142885939715,-0.5955555555555555,-0.9676561791327325,-3.4467410916763623,46.31493290410365
1590515106.6518695,-0.12,-2.9196487464807612,8.807427715958351,0.4544444444444444,0.25,-0.5955555555555555,-0.9375,-3.914837221253966,46.4375
1590515106.6618695,-0.13180398116545006,-2.9806569670395375,8.740656967039538,0.4544444444444444,0.25,-0.5955555555555555,-0.9190562794289843,-4.1618874411420315,46.40061255885797
1590515106.6718695,-0.16228351067389413,-3.036850532021682,8.80141755336947,0.4544444444444444,0.25,-0.5955555555555555,-0.8179122331526467,-4.235728058288162,46.25541223315265
1590515106.6818695,-0.16930067590176004,-3.05790202770528,8.8365033795088,0.4544444444444444,0.25,-0.5955555555555555,-0.6424831024559995,-4.1918707756139995,46.079983102456
1590515106.6918695,-0.194432687698617,-3.1222163438493085,8.90773075079447,0.4544444444444444,0.25555555555555554,-0.5955555555555555,-0.8888521490581781,-3.7847957018836436,45.3060699131855
1590515106.7018695,-0.2093253679407744,-3.129662683970387,8.967301471763099,0.4544444444444444,0.25555555555555554,-0.5955555555555555,-0.93539177481492,-3.69171645037016,44.65451515259112
1590515106.7118695,-0.23471437585835717,-3.1023571879291785,8.827071563787536,0.4544444444444444,0.25555555555555554,-0.5955555555555555,-0.8125,-3.389732424557366,43.45178120708214
1590515106.7218695,-0.25,-3.1105875549386997,8.85,0.4544444444444444,0.25555555555555554,-0.5955555555555555,-0.8137240727889583,-3.4423962911558332,42.670362980954586
1590515106.7318695,-0.25322486149143475,-3.1391937846271416,8.853224861491434,0.4565047726195277,0.25394312480983816,-0.5966305093860338,-0.8699611539196332,-3.667344615678533,41.7218007705534
1590515106.7418694,-0.2888384385149334,-3.1302903903712664,8.888838438514934,0.47925789127342966,0.23613633629808883,-0.6085017017272001,-0.8143149398204165,-3.444759759281666,40.7201689167675
1590515106.7518694,-0.3083252143413874,-3.19,8.807105660561184,0.48,0.23555555555555555,-0.6088888888888889,-0.8125,-3.2604674103663287,39.98191037850741
1590515106.7618694,-0.3430180951314337,-3.1930180951314338,8.727545237828584,0.48,0.23555555555555555,-0.6088888888888889,-0.8030684527142697,-3.0342053581428092,39.362047621714154
1590515106.7718694,-0.35643921091787595,-3.206439210917876,8.76109802729469,0.48,0.23555555555555555,-0.6088888888888889,-0.7611274658816377,-2.908382397644913,39.0265197270531
1590515106.7818694,-0.37006347396427214,-3.210063473964272,8.83015868491068,0.48,0.2354779762658896,-0.6089135732083281,-0.5625,-3.0007934245534016,38.4984131508932
1590515106.7918694,-0.38600532117065756,-3.2260053211706574,8.870013302926644,0.48,0.21599349634697412,-0.6151131804552558,-0.5625,-3.2000665146332192,38.09986697073356
1590515106.8018694,-0.39105694371638805,-3.2657722251344476,8.884186809559866,0.48,0.2111111111111111,-0.6166666666666667,-0.5033029491137126,-3.2533029491137126,37.27616755974916
1590515106.8118694,-0.4073432737297843,-3.200626905080863,8.794611994486186,0.48,0.2111111111111111,-0.6166666666666667,-0.554197730405576,-3.304197730405576,36.71632496553867
1590515106.8218694,-0.4342287131882202,-3.21281914212548,8.824228713188221,0.48,0.2111111111111111,-0.6166666666666667,-0.6522607234314981,-3.214760723431498,35.65309198943662
1590515106.8318694,-0.4543677976952625,-3.2262451984635083,8.844367797695263,0.48,0.2111111111111111,-0.6166666666666667,-0.48443501920614596,-3.046935019206146,35.191571302816904
1590515106.8418694,-0.47624874054262,-3.272499496217048,8.847500503782951,0.48,0.1988888888888889,-0.6233333333333333,-0.375,-3.0468907432172494,34.4062562972869
1590515106.8518693,-0.5146672284609889,-3.287866891384396,8.832133108615604,0.48,0.1988888888888889,-0.6233333333333333,-0.375,-2.566659644237639,34.214163857695056
1590515106.8618693,-0.5438745047452318,-3.2879581682484105,8.774083663503179,0.48,0.1988888888888889,-0.6233333333333333,-0.3877614484474339,-2.524215654657698,34.325261448447435
1590515106.8718693,-0.5206866304247674,-3.2802288768082555,8.789542246383487,0.48,0.1988888888888889,-0.6233333333333333,-0.4360695199484014,-2.379291440154796,34.373569519948404
1590515106.8818693,-0.4801573995542318,-3.309973766740961,8.810052466518078,0.48,0.1988888888888889,-0.6233333333333333,-0.437827915737983,-2.6876639578689914,34.31069646344109
1590515106.8918693,-0.5297950649914199,-3.30170082250143,8.82659835499714,0.48,0.1988888888888889,-0.6233333333333333,-0.541239718732125,-2.7393698593660623,33.74193154697331
1590515106.9018693,-0.5413847801086569,-3.2827695602173135,8.83199785858746,0.48,0.1988888888888889,-0.6233333333333333,-0.4115353729626839,-2.579809751358211,32.17785372962684
1590515106.9118693,-0.5497011936392117,-3.2994023872784233,8.723884482690249,0.48,0.1988888888888889,-0.6233333333333333,-0.25560261926478167,-2.6837649204901455,30.618526192647817
1590515106.9218693,-0.565631921251538,-3.273754614167692,8.834368078748462,0.48,0.1988888888888889,-0.6233333333333333,-0.45306732290384955,-2.3905673229038493,28.077605906134647
1590515106.9318693,-0.5902106766648813,-3.289789323335119,8.811158721656847,0.4801404511099208,0.19894741018468926,-0.6237078696264555,-0.25131672915550796,-2.185524906266738,26.2256405106231
1590515106.9418693,-0.6150834470657048,-3.271694482355235,8.91322207057906,0.4933333333333334,0.20444444444444448,-0.6588888888888889,-0.33263794111912653,-2.0,23.67273713199454
1590515106.9518692,-0.6396162994735816,-3.279872099824527,8.880511600701892,0.4933333333333334,0.20444444444444448,-0.6588888888888889,-0.12819750438682004,-2.0,22.394984402417624
1590515106.9618692,-0.6487673627788131,-3.3501389022305044,8.791232637221187,0.4933333333333334,0.20444444444444448,-0.6588888888888889,-0.10101991316209102,-1.5702039826324181,20.424696451557125
1590515106.9718692,-0.6407093043361319,-3.2856744346890547,8.799290695663869,0.4933333333333334,0.20444444444444448,-0.6588888888888889,-0.35283423949587905,-1.6205668478991757,19.115261954621428
1590515106.9818692,-0.64,-3.270831056138837,8.82750683158349,0.4933333333333334,0.20444444444444448,-0.6588888888888889,-0.08847050433865478,-1.2811646052063856,17.395434824296466
1590515106.9918692,-0.6267733227993944,-3.2948400158009084,8.910959905194549,0.4988888888888889,0.18444444444444444,-0.6733333333333333,-0.10483326749621437,-1.1894998024886432,14.628915251168609
1590515107.0018692,-0.6129662913950885,-3.315550562907367,8.786696622555796,0.4988888888888889,0.18444444444444444,-0.6733333333333333,-0.018539321219303448,-0.9306179636579104,12.773595406215025
1590515107.0118692,-0.6190553842401435,-3.3628338472795694,8.765667694559138,0.4988888888888889,0.18444444444444444,-0.6733333333333333,0.2947884545026917,-0.6013846060035889,9.228422969041272
1590515107.0218692,-0.6117481140786425,-3.3847556577640727,8.809511315528145,0.4988888888888889,0.18444444444444444,-0.6733333333333333,0.1577771389745466,-0.41870285196606216,7.127582797609714
1590515107.0318692,-0.6191864114006046,-3.4083728228012093,8.865932057003022,0.4988888888888889,0.18444444444444444,-0.6733333333333333,0.4120753562688931,-0.14533971498488554,3.2949258672808406
1590515107.0418692,-0.6285632661996498,-3.40143673380035,8.9042530647986,0.48842267464487255,0.19015328857754427,-0.6866539696438996,-0.2047449649737304,-0.23204082749562172,-0.10418399737302986
1590515107.0518692,-0.6326881314323483,-3.354480219053914,8.811792087621566,0.4866666666666667,0.19111111111111112,-0.6888888888888889,0.2900989047304315,0.30689972618260786,-4.348113964686998
1590515107.0618691,-0.66,-3.3983491085186,8.8266982170372,0.4866666666666667,0.19111111111111112,-0.6888888888888889,0.057340964120625136,0.29643132291437374,-7.492474686330619
1590515107.0718691,-0.65818606079214,-3.38,8.79453484801965,0.4866666666666667,0.19111111111111112,-0.6888888888888889,0.005668560024562481,0.8181685600245625,-10.414242400982499
1590515107.0818691,-0.6410156585815168,-3.38,8.837460853546208,0.4866666666666667,0.19111111111111112,-0.6888888888888889,0.059326066932760206,0.8718260669327602,-12.560542677310409
1590515107.091869,-0.6281236550240027,-3.4112580698559842,8.895607515312035,0.4988888888888889,0.2111111111111111,-0.7388888888888889,0.21881724879986758,1.2617271560999834,-15.50813193179937
1590515107.101869,-0.6165317993795243,-3.459306359875905,8.780982678386762,0.4988888888888889,0.2111111111111111,-0.7388888888888889,0.6076589968976215,1.347182006204757,-17.65426253877973
1590515107.111869,-0.5728472238848852,-3.4485763880575577,8.681354179136639,0.4988888888888889,0.2111111111111111,-0.7388888888888889,0.32161455215840257,1.7858072760792012,-21.042969030574376
1590515107.121869,-0.5877535181549639,-3.438876759077482,8.806630277232447,0.4988888888888889,0.2111111111111111,-0.7388888888888889,0.014040511531475333,1.6811620461259014,-24.26745202098967
1590515107.131869,-0.5723624387648386,-3.4311812193824194,8.783543658147257,0.4988888888888889,0.2111111111111111,-0.7388888888888889,0.11023475771975855,2.065939030879034,-26.528016806414325
1590515107.141869,-0.602315353549182,-3.47,8.845369292901635,0.4711111111111111,0.20444444444444448,-0.76,-0.007235479841193784,2.117764520158806,-29.59929987507701
1590515107.151869,-0.6166705455541105,-3.47,8.81665890889178,0.4711111111111111,0.20444444444444448,-0.76,-0.052095454856595245,2.072904545143405,-30.98995910055445
1590515107.161869,-0.62,-3.446084784122563,8.731300313370474,0.4711111111111111,0.20444444444444448,-0.76,0.10870147110027856,2.3695671570334262,-32.83692548746518
1590515107.171869,-0.62,-3.4971991643454037,8.826227019498607,0.4711111111111111,0.20444444444444448,-0.76,-0.028212047353760455,2.3239293175487465,-33.567130919220055
1590515107.181869,-0.6028506750306832,-3.51,8.781402700122733,0.4711111111111111,0.20444444444444448,-0.76,-0.1696832810582299,2.473274921587345,-34.60746624846584
1590515107.191869,-0.5928340294312815,-3.51,8.798663882274875,0.442447228836237,0.17578056216957033,-0.76,0.03643658027245403,2.8582985284359266,-35.15308584449042
1590515107.201869,-0.590239960282436,-3.490319947043248,8.858960172109443,0.4311111111111111,0.16444444444444445,-0.76,-0.4375,2.687999917255075,-35.05400140666372
1590515107.211869,-0.6133770962047661,-3.521169461606355,8.758699249779347,0.4311111111111111,0.16444444444444445,-0.76,-0.4375,2.7362022837599294,-34.2345611760812
1590515107.221869,-0.5802255809493925,-3.510451161898785,8.730451161898785,0.4311111111111111,0.16444444444444445,-0.76,-1.0596802381325943,2.8054505953314854,-32.78571226225964
1590515107.231869,-0.5875374370238655,-3.525074874047731,8.74507487404773,0.4311111111111111,0.16444444444444445,-0.76,-0.9682820372016805,2.5769550930042016,-31.917429353415965
1590515107.241869,-0.6202782949534542,-3.568886820186183,8.789721705046546,0.4533333333333333,0.13111111111111112,-0.7244444444444444,-1.1875,2.4305426261636454,-29.628362322390984
1590515107.251869,-0.625345467032967,-3.531551510989011,8.775345467032967,0.4533333333333333,0.13111111111111112,-0.7244444444444444,-1.216590831043956,2.1487122252747253,-27.400884271978022
1590515107.261869,-0.5407417582417583,-3.5601236263736262,8.690370879120879,0.4533333333333333,0.13111111111111112,-0.7244444444444444,-1.7554086538461537,1.4305460164835164,-24.39886675824176
1590515107.271869,-0.5998689980068853,-3.5699126653379234,8.720218336655192,0.4533333333333333,0.13111111111111112,-0.7244444444444444,-2.1866812375430333,0.8796396539228121,-21.298853959050554
1590515107.281869,-0.5770697590143141,-3.5547131726762093,8.758217068309476,0.4533333333333333,0.13111111111111112,-0.7244444444444444,-2.0441859938394638,1.6871127015763725,-18.923933230657727
1590515107.291869,-0.5562844819414162,-3.5842887951464593,8.790573277087876,0.4845742355778852,0.14101676304231048,-0.7244444444444444,-1.6142510546023319,1.8946390060669258,-16.601643224476256
1590515107.301869,-0.5374715003275825,-3.6,8.818792749508626,0.4988888888888889,0.14555555555555555,-0.7244444444444444,-1.2417421926184757,1.9924546844289146,-14.230634417995196
1590515107.311869,-0.5402264058828914,-3.6094905867634943,8.740056601470723,0.4988888888888889,0.14555555555555555,-0.7244444444444444,-0.873231204039911,1.9360849632319288,-10.864740983431483
1590515107.321869,-0.5658224758185091,-3.5518994294083543,8.746455618954627,0.4988888888888889,0.14555555555555555,-0.7244444444444444,-0.6732619076678974,1.7761095261343178,-9.704919064473804
1590515107.331869,-0.6020587888552678,-3.556764648092113,8.823529296184226,0.4988888888888889,0.14555555555555555,-0.7244444444444444,-0.6084558101151413,1.7334558101151414,-7.178311785279208
1590515107.3418689,-0.606917365269461,-3.60897245508982,8.78794491017964,0.4988888888888889,0.08444444444444445,-0.7177777777777777,-0.4422005988023952,1.2675449101796408,-3.6245359281437124
1590515107.3518689,-0.58,-3.5990588259993284,8.76529412999664,0.4988888888888889,0.08444444444444445,-0.7177777777777777,0.03897064998320457,0.8691176624958011,-1.2904415623950285
1590515107.3618689,-0.58,-3.590253191132012,8.72126595566006,0.4988888888888889,0.08444444444444445,-0.7177777777777777,-0.18117022169969768,0.8140824445750756,0.08543888562311053
1590515107.3718688,-0.6104614423277201,-3.6186156730168397,8.625768029096502,0.4988888888888889,0.08444444444444445,-0.7177777777777777,-0.13653605819300466,0.8605799272587442,1.4677821527566373
1590515107.3818688,-0.6239019114607534,-3.57829426561774,8.793773893259416,0.4988888888888889,0.08444444444444445,-0.7177777777777777,-0.4725477865188342,0.44056526685145725,2.34981293961194
1590515107.3918688,-0.611535176081876,-3.60616205979531,8.768443468450318,0.46811418235868235,0.09778015060753395,-0.643918482105282,-0.3364871262793134,-0.09621544846482394,4.654184966556532
1590515107.4018688,-0.6195807609475951,-3.6387422828427853,8.884549892318738,0.4655555555555556,0.09888888888888887,-0.6377777777777778,-0.013101220387652546,-0.42439877961234745,7.207690236898779
1590515107.4118688,-0.6077848088177513,-3.6705111979651344,8.613237587112517,0.4655555555555556,0.09888888888888887,-0.6377777777777778,-0.0625,-0.19069498728208947,8.573149957606965
1590515107.4218688,-0.4950278139669541,-3.696532042930703,8.778036271894452,0.4655555555555556,0.09888888888888887,-0.6377777777777778,-0.0625,-0.35332526831689315,9.115250894389643
1590515107.4318688,-0.4849573850077048,-3.729744310046229,8.770255689953771,0.4655555555555556,0.09888888888888887,-0.6377777777777778,0.06143462519261976,-0.2820490311055352,9.31143462519262
1590515107.4418688,-0.49,-3.765596047638727,8.75865349212909,0.4655555555555556,0.10759385188246441,-0.6323889911627072,0.2457921629034076,-0.16418313483863697,9.565742758387497
1590515107.4518688,-0.5110916386013056,-3.79,8.793598395077128,0.4655555555555556,0.14555555555555555,-0.6088888888888889,0.31544816223857636,-0.22068728950979172,10.230458193006529
1590515107.4618688,-0.5505109706210488,-3.7637225734473785,8.703722573447378,0.4655555555555556,0.14555555555555555,-0.6088888888888889,0.09534678319077725,-0.4375,10.440693566381555
1590515107.4718688,-0.5876670037287492,-3.813778676609998,8.781445680338747,0.4655555555555556,0.14555555555555555,-0.6088888888888889,-0.33611672881248816,-0.495139591101561,11.191675093218732
1590515107.4818687,-0.5580566343042072,-3.7720849514563106,8.797985841423948,0.4655555555555556,0.14555555555555555,-0.6088888888888889,0.07420358009708738,-0.5998230177993528,12.547699231391586
1590515107.4918687,-0.5207079186763539,-3.818584162647292,8.89764027107882,0.4655555555555556,0.17159296117657435,-0.5958701860783795,0.6146761859698394,-0.8691006776970511,14.705755082727883
1590515107.5018687,-0.5107905332856121,-3.829209466714388,8.752648532569793,0.4655555555555556,0.17222222222222222,-0.5955555555555555,-0.06571000357909806,-0.9901183339298497,15.498269170544022
1590515107.5118687,-0.4295496674870399,-3.98419647064984,8.74670419437608,0.4655555555555556,0.17222222222222222,-0.5955555555555555,0.7130242970100016,-0.9580987851495,15.6044012148505
1590515107.5218687,-0.42611887701162926,-4.105148596264537,8.67776224597674,0.4655555555555556,0.17222222222222222,-0.5955555555555555,1.2378714906613415,-0.5424497826853047,14.214106366733231
1590515107.5318687,-0.454632140683758,-4.017629472435908,8.79316070341879,0.4655555555555556,0.17222222222222222,-0.5955555555555555,0.9420982414530248,0.23126667654906607,14.139475439636744
1590515107.5418687,-0.4758171010209565,-3.9250973938742613,8.899085505104782,0.46103114365036724,0.18773449161143949,-0.5994336229028598,0.2410036606663084,-0.7304183738581409,15.42363396695325
1590515107.5518687,-0.5102094004835471,-3.9422931606769662,8.81728803835594,0.4577777777777778,0.1988888888888889,-0.6022222222222222,0.13933225423103718,-1.447905995164529,17.332067266319715
1590515107.5618687,-0.5115734821028627,-3.9884265178971376,8.75,0.4577777777777778,0.1988888888888889,-0.6022222222222222,1.0034944211426478,-1.7682458158569858,19.957817526570835
1590515107.5718687,-0.6114103686635944,-3.916247004608295,8.823752995391706,0.4577777777777778,0.1988888888888889,-0.6022222222222222,0.8320218894009217,-1.409163306451613,20.643575748847926
1590515107.5818686,-0.6509025328630972,-3.9177256332157744,8.791371833921128,0.4577777777777778,0.1988888888888889,-0.6022222222222222,0.9090704151971786,-1.5681408303943571,20.590929584802822
1590515107.5918686,-0.687031588248288,-3.899726308813784,8.78675789706207,0.4577777777777778,0.2026432761455956,-0.5924608153547848,0.8530262867240999,-1.2871051468963994,21.2382897062072
1590515107.6018686,-0.6546579306216117,-3.971615724881099,8.735589516745934,0.4577777777777778,0.20444444444444448,-0.5877777777777777,0.8125,-1.125,21.5625
1590515107.6118686,-0.65,-3.9620659320519573,8.676197796155872,0.4577777777777778,0.20444444444444448,-0.5877777777777777,0.6443681129871023,-1.5173077363634282,23.411950757141874
1590515107.6218686,-0.65,-3.950993865030675,8.724036809815951,0.4577777777777778,0.20444444444444448,-0.5877777777777777,0.5687116564417178,-1.7876533742331289,25.257361963190185
1590515107.6318686,-0.657455047318612,-3.920179810725552,8.774730283911671,0.4577777777777778,0.20444444444444448,-0.5877777777777777,0.3761238170347003,-2.1852523659305993,28.046766561514197
1590515107.6418686,-0.6042706333973128,-3.733523672424824,8.845729366602686,0.4763542333120068,0.19928431790715861,-0.601194106774721,-0.03580854126679467,-2.1963971529110684,30.214631317978245
1590515107.6518686,-0.6592578541284795,-3.863911931454879,8.79074214587152,0.4777777777777778,0.1988888888888889,-0.6022222222222222,0.14913519331599812,-2.1345912016710002,30.894496781618994
1590515107.6618686,-0.6560211635953972,-3.8830105817976985,8.745052908988493,0.4777777777777778,0.1988888888888889,-0.6022222222222222,0.1875,-2.387103182586304,30.86894840870685
1590515107.6718686,-0.5919560473336407,-3.954627939142462,8.746583986476102,0.4777777777777778,0.1988888888888889,-0.6022222222222222,0.2393249577378208,-2.0335753803596126,29.5687010142923
1590515107.6818686,-0.5692864188443136,-3.9860703717335295,8.787497534044903,0.4777777777777778,0.1988888888888889,-0.6022222222222222,0.21652005888847994,-1.90402005888848,28.00678229665072
1590515107.6918685,-0.5639032076533483,-4.031225661226787,8.804387169386606,0.4777777777777778,0.19325092227849686,-0.6022222222222222,0.23629009566685424,-1.6798396173325831,25.7040377039955
1590515107.7018685,-0.5793602448265811,-4.098720489653163,8.794040367239871,0.4777777777777778,0.18444444444444444,-0.6022222222222222,0.3125,-1.3457492349169338,21.681192618770037
1590515107.7118685,-0.5811507068181029,-4.15097252613664,8.832123232954743,0.4777777777777778,0.18444444444444444,-0.6022222222222222,0.257191917613143,-1.2295378764197145,17.251717116460004
1590515107.7218685,-0.5501955634880163,-4.2824207037225905,8.622346761856196,0.4777777777777778,0.18444444444444444,-0.6022222222222222,1.2602403110657827,-0.6711483299337073,11.67679755226925
1590515107.7318685,-0.4353319572544614,-4.292618556162308,8.65700206411831,0.4777777777777778,0.18444444444444444,-0.6022222222222222,-0.05657219188461826,-0.7645876335798082,3.47402052360672
1590515107.7418685,-0.4251877665661084,-4.254812233433892,8.668020389056487,0.5001669036143186,0.15179363593282244,-0.615282545626871,1.044158951419952,0.9091334650993446,-5.046941641527099
1590515107.7518685,-0.8445840681211266,-3.8624540232780773,8.678025394266136,0.5044444444444445,0.14555555555555555,-0.6177777777777778,0.36107157252985345,1.0810119287549755,-11.432300851514082
1590515107.7618685,-0.7495681077558114,-3.8695641972626547,8.828692591787965,0.5044444444444445,0.14555555555555555,-0.6177777777777778,0.5597762328915925,1.5787937214859875,-14.374951118835542
1590515107.7718685,-0.8037766745295958,-3.8427659224312904,8.645904053979923,0.5044444444444445,0.14555555555555555,-0.6177777777777778,1.032247723407757,1.6875,-15.22406947720665
1590515107.7818685,-0.81,-3.9346821364568516,8.884913444306909,0.5044444444444445,0.14555555555555555,-0.6177777777777778,0.3796961313207826,1.8695810316477912,-15.25
1590515107.7918684,-0.7906424561154147,-3.9603212280577074,8.68963684173122,0.5797237817733873,-0.02543608209161477,-0.5597051461240219,1.0928771942292659,1.9979923246393292,-14.52409210432805
1590515107.8018684,-0.7966334233112968,-3.9002991901983286,8.806035042914639,0.5822222222222222,-0.031111111111111114,-0.5577777777777778,0.42019877317471344,1.3781165645659237,-14.375623312913184
1590515107.8118684,-0.8,-3.8150813513279194,8.821183423402594,0.5822222222222222,-0.031111111111111114,-0.5577777777777778,0.5201554056006705,1.405741554200503,-13.816706643932607
1590515107.8218684,-0.8222890937100186,-3.638835739836549,8.745421812579963,0.5822222222222222,-0.031111111111111114,-0.5577777777777778,0.5338863286247683,1.2070794929371524,-13.685742447583488
1590515107.8318684,-0.8247684008083969,-3.5533788056587783,8.740463198383207,0.5822222222222222,-0.031111111111111114,-0.5577777777777778,0.4375,1.2913824646326357,-13.815394989895038
1590515107.8418684,-0.8146023911841042,-3.525397608815896,8.820168914606647,0.7465494239506067,-0.27040510194916023,-0.20213533024152947,0.47123505509934904,1.601205165298047,-13.976205165298047
1590515107.8518684,-0.7550943729052743,-3.6162802711488546,8.88,0.8866666666666667,-0.4744444444444445,0.10111111111111112,0.6960915253383061,1.785545762669153,-13.866408474661695
1590515107.8618684,-0.707273119375772,-3.6138184955006176,8.703274844629169,0.8866666666666667,-0.4744444444444445,0.10111111111111112,1.0363602054619954,1.89431720156057,-14.098860205461996
1590515107.8718684,-0.6343830212948406,-3.6,8.707329712734028,0.8866666666666667,-0.4744444444444445,0.10111111111111112,0.5357385307989138,1.3291892954123194,-14.901761469201086
1590515107.8818684,-0.6034069639996628,-3.6593373240030354,8.815930360003373,0.8866666666666667,-0.4744444444444445,0.10111111111111112,0.6208582750189697,1.6393906500295086,-15.393532375010539
1590515107.8918684,-0.5293297303648006,-3.669808494389943,8.875239382012571,0.970797940041904,0.060069579066230616,-0.09519519343110955,0.780950772484286,1.6851061798742877,-16.099435322798566
1590515107.9018683,-0.4728753672491109,-3.7015014689964434,8.848498531003557,1.0533333333333332,0.5844444444444444,-0.2877777777777778,0.9109420906138859,1.7593841812277717,-17.934801202257617
1590515107.9118683,-0.48,-3.7575678498626996,8.78140501019222,1.0533333333333332,0.5844444444444444,-0.2877777777777778,0.9310803753432504,1.9030401876716252,-19.865553243821495
1590515107.9218683,-0.43577123050259964,-3.7104976479326566,8.73736320871503,1.0533333333333332,0.5844444444444444,-0.2877777777777778,1.032959891062144,2.111939836593216,-22.731028719980195
1590515107.9318683,-0.42961993226515616,-3.643840090313125,8.762699887108594,1.0533333333333332,0.5844444444444444,-0.2877777777777778,1.3293742944287101,2.45437429442871,-25.774493226515617
1590515107.9418683,-0.45558095116826897,-3.63,8.787790475584133,0.7486391771538521,0.4095915480005376,-0.5396698216647922,1.2914285827974787,2.6598809448016807,-29.19833314764118
1590515107.9518683,-0.4667237835449603,-3.670342701269762,8.79,0.6622222222222223,0.36,-0.6111111111111112,1.0819054113759918,2.729523647156002,-31.766064122020094
1590515107.9618683,-0.48132199071967974,-3.644712037121281,8.76735601856064,0.6622222222222223,0.36,-0.6111111111111112,1.0353812209989992,2.9622873259939952,-34.173511281957964
1590515107.9718683,-0.49,-3.578605672863066,8.762557730854773,0.6622222222222223,0.36,-0.6111111111111112,1.140985817842335,3.203485817842335,-36.72524472116203
1590515107.9818683,-0.4805252794927415,-3.555262639746371,8.788949441014516,0.6622222222222223,0.36,-0.6111111111111112,1.1875,3.546085015851827,-38.27310403804439
1590515107.9918683,-0.4787723440134907,-3.5368414839797637,8.853861720067455,0.6071513959153082,0.3219865092748735,-0.6432763724939105,1.1600864249578415,3.6831049747048903,-39.528530775716696
1590515108.0018682,-0.46187848424568384,-3.512969621061421,8.776422800167,0.5366666666666666,0.2733333333333333,-0.6844444444444444,1.608338552027309,3.6571993418305953,-40.125
1590515108.0118682,-0.4559435727938834,-3.533774291175533,8.761605009557183,0.5366666666666666,0.2733333333333333,-0.6844444444444444,1.4038793704205161,3.861441989885314,-40.49647329961771
1590515108.0218682,-0.4539335133310834,-3.56819946000675,8.747534593317583,0.5366666666666666,0.2733333333333333,-0.6844444444444444,1.200831083361458,3.785837833277084,-40.71208445831927
1590515108.0318682,-0.4791985211179346,-3.469045619751849,8.83679408447174,0.5366666666666666,0.2733333333333333,-0.6844444444444444,0.9945129402180725,3.723998151397418,-41.0889796653716
1590515108.0418682,-0.4215214002583174,-3.4292392998708414,8.841521400258317,0.5268568416989563,0.2864130999569471,-0.6904393374802674,1.2110241393132322,3.719344296975905,-41.58958992116867
1590515108.0518682,-0.37232112580535776,-3.502321125805358,8.811713801288573,0.5166666666666667,0.3,-0.6966666666666667,1.3421901492031196,3.8491056290267887,-42.09530985079688
1590515108.0618682,-0.32212934433290263,-3.587870655667097,8.8347791803333,0.5166666666666667,0.3,-0.6966666666666667,1.4811711062518635,4.0027602458337475,-41.79317827916377
1590515108.0718682,-0.22879523336643498,-3.6864055610724926,8.824799205561073,0.5166666666666667,0.3,-0.6966666666666667,1.717495034756703,3.9324801390268123,-40.98494041708044
1590515108.0818682,-0.15809066484882509,-3.737961143636218,8.814012952121262,0.5166666666666667,0.3,-0.6966666666666667,1.7249190492421205,3.8499190492421205,-40.213390458336676
1590515108.0918682,-0.09239281059202853,-3.80265006517116,8.749828496947247,0.4890880611008209,0.29582142339911427,-0.6966666666666667,1.4209370926802496,3.733973039720107,-39.74946405296014
1590515108.1018682,-0.08,-3.82,8.73,0.48,0.29444444444444445,-0.6966666666666667,1.3125,3.6875,-39.6875
1590515108.1118681,-0.0658151512313887,-3.7561681805412492,8.751277273152917,0.48,0.29444444444444445,-0.6966666666666667,1.4898106096076411,3.6875,-42.08119322970315
1590515108.1218681,-0.10452845230656525,-3.634581887914503,8.702749132748702,0.48,0.29444444444444445,-0.6966666666666667,1.8010452802137424,4.085075467022904,-44.573286774687034
1590515108.1318681,-0.15138528508023216,-3.55326839364971,8.739502176510754,0.48,0.29444444444444445,-0.6966666666666667,1.3026243491806078,3.8446968888699216,-46.8743238413281
1590515108.141868,-0.1632372699180438,-3.462372699180438,8.969068252048906,0.4529490796721752,0.29594727335154586,-0.6666100885246391,1.2149376931344888,4.11377300819562,-49.0971424492812
1590515108.151868,-0.13222508812655834,-3.4369437279683606,8.813913249075746,0.44,0.2966666666666667,-0.6522222222222223,2.3922625956495573,4.350703400395495,-50.25687279683604
1590515108.161868,4.456288759894459,-9.812862480211082,2.7409277044854887,0.44,0.2966666666666667,-0.6522222222222223,-30.98298284960422,39.97331794195251,-171.51667941952508
1590515108.171868,5.372996744354297,-5.828374244225106,-0.3034587359826364,0.44,0.2966666666666667,-0.6522222222222223,-142.4161186760374,79.2897783060307,-440.91909978812464
1590515108.181868,1.196223053584871,0.16789606953030545,0.13898464767205787,0.44,0.2966666666666667,-0.6522222222222223,-191.996347263727,31.962135296667206,-303.7553322535758
1590515108.191868,-0.04247789610462982,-0.0934524448461908,-0.12993503008389595,0.4310966733519769,0.3330219171460944,-0.6529641661095575,-182.54356162255303,0.18216469873732422,-96.27183730685574
1590515108.201868,0.019065305546028588,-0.17871144107975062,-0.04302176851534288,0.4266666666666667,0.3511111111111111,-0.6533333333333333,-185.63668368067465,6.99251392055198,-82.19577919785341
1590515108.211868,1.0928016068887245,-1.8069629442813135,9.65085748770514,0.4266666666666667,0.3511111111111111,-0.6533333333333333,-181.02773661976906,3.741041190034408,-74.01486079335628
1590515108.221868,1.555134354347224,-2.5285325893387154,14.760644267679766,0.4266666666666667,0.3511111111111111,-0.6533333333333333,-102.76979698444734,-12.475572836281609,-70.38513099054177
1590515108.231868,0.202640193230187,-0.15616883994324704,1.6703195730018234,0.4266666666666667,0.3511111111111111,-0.6533333333333333,50.648284955408414,-15.445578001486387,-67.91961058374434
1590515108.241868,1.0195639937458119,-1.3429291936564662,8.054509716327898,0.39789055170873355,0.4086633410269774,-0.6233060829424466,106.5798721241903,21.547855706946613,-60.75600290373018
1590515108.251868,0.5229721362229102,-1.5116895179124281,6.19375497567448,0.35,0.5044444444444445,-0.5733333333333334,198.5295499778859,28.890645731977003,-59.021920610349405
1590515108.261868,0.501352493660186,-1.8741761059453368,6.852536207382361,0.35,0.5044444444444445,-0.5733333333333334,281.8317290081713,16.01598337559876,-55.60970872076641
1590515108.271868,4.72462535060772,0.32119674101776363,13.05859222652598,0.35,0.5044444444444445,-0.5733333333333334,292.05568819286765,-7.3198711099238665,-47.41699779618005
1590515108.281868,5.2266790369028895,1.695022117982365,10.369050262743816,0.35,0.5044444444444445,-0.5733333333333334,189.858710254431,-27.43165506338509,-28.220085057744264
1590515108.291868,-0.025074418991393982,0.3080638589780901,0.009383029143973709,0.346533095894714,0.5029586283993218,-0.5832387736341506,25.39327864507546,-19.966488068016464,1.4284600673512653
1590515108.301868,1.4391217273391046,-1.0203807238969438,6.876875630193664,0.3422222222222222,0.5011111111111111,-0.5955555555555555,-27.997440109871004,9.54410269114426,23.697798233719276
1590515108.311868,1.6241054001301236,-2.9035461095448083,13.586734379141667,0.3422222222222222,0.5011111111111111,-0.5955555555555555,-64.22356562808743,48.38735120123376,42.389194619147446
1590515108.321868,1.27531883646011,-3.18,14.243886678036763,0.3422222222222222,0.5011111111111111,-0.5955555555555555,-27.567871186280087,1.9169331533068004,40.982856026151225
1590515108.331868,0.9335945358939186,-3.3491097012650513,12.302497523243407,0.3422222222222222,0.5011111111111111,-0.5955555555555555,24.492288713610726,-10.879314081313824,43.205068301326016
1590515108.341868,0.37495757575757577,-2.019745454545455,5.376072727272727,0.3343407407407407,0.4595542087542087,-0.6134680134680134,28.096212121212123,-9.411060606060605,47.36681818181818
1590515108.351868,0.48519776304514495,-3.20042890001353,11.539047039191809,0.33,0.43666666666666665,-0.6233333333333333,-18.083668763811843,-9.562395706489875,52.59326235737158
1590515108.361868,0.35289425414835984,-2.973258115428913,10.937890912710262,0.33,0.43666666666666665,-0.6233333333333333,-20.99169439349344,-0.8369431528956763,58.16359805343457
1590515108.371868,0.051218627997769106,-1.658170663692136,5.459138315672058,0.33,0.43666666666666665,-0.6233333333333333,-6.62449456218628,7.814940044617959,63.2029071388734
1590515108.381868,0.31,-2.9738397464916253,8.991350656405613,0.33,0.43666666666666665,-0.6233333333333333,7.23761656858307,-9.761875282933454,66.73311679492983
1590515108.3918679,0.30848766767633057,-2.9211726525313715,8.68267416702726,0.3307281600076927,0.4363866051252464,-0.6233333333333333,-2.588219385547382,-2.7861991562094333,71.80143877109477
1590515108.4018679,0.24300845341373634,-3.0129701633340114,8.974889106749783,0.34444444444444444,0.4311111111111111,-0.6233333333333333,-1.5449931558794696,-6.375767651356801,76.58154214683414
1590515108.4118679,-0.21033466231726472,-4.203664371148967,7.410262172284645,0.34444444444444444,0.4311111111111111,-0.6233333333333333,-0.5671363416696873,-5.907522351093391,80.66906034795215
1590515108.4218678,2.5141122391330395,-6.846010340518053,8.538804677201211,0.34444444444444444,0.4311111111111111,-0.6233333333333333,-14.017464604269744,-10.877832300422865,132.44695990481245
1590515108.4318678,7.702986926233419,-8.29431593345421,8.480149823456436,0.34444444444444444,0.4311111111111111,-0.6233333333333333,-15.766765674205555,-20.896477478767057,208.50144932722588
1590515108.4418678,4.422811791383221,-8.678707482993197,9.657732426303856,0.35970017636684304,0.4215217939027463,-0.626384479717813,3.9805839002267573,-20.51360544217687,140.63803854875283
1590515108.4518678,-2.2666203351793537,2.258729503746335,9.207712020849169,0.38333333333333336,0.4066666666666667,-0.6311111111111111,18.02189886705035,13.486539436058928,-26.025032124371087
1590515108.4618678,-1.8840891781875482,0.1821062109587499,8.009227147385994,0.38333333333333336,0.4066666666666667,-0.6311111111111111,10.107803091410457,10.039756420116678,-40.39442683224221
1590515108.4718678,-1.4846697652387577,-2.125116492495337,9.941214067912016,0.38333333333333336,0.4066666666666667,-0.6311111111111111,-11.152713224192546,-3.875804863968738,-34.50986559696853
1590515108.4818678,-0.8509041126718302,-2.6356581587682615,9.520764023029463,0.38333333333333336,0.4066666666666667,-0.6311111111111111,-5.251408866717927,1.2151346510886485,-25.71920536166382
1590515108.4918678,-0.4113361392768318,-2.5080091830878133,8.000030610292711,0.3900744425313012,0.4009626511914631,-0.6368151265863146,5.241481729481539,1.6000191314329444,-16.27481346852879
1590515108.5018678,-1.8839675960813864,-8.704086284853052,8.814107950263754,0.3977777777777778,0.3944444444444444,-0.6433333333333333,-2.483073897889977,0.1863755180859079,-6.175701770911831
1590515108.5118678,1.5799958762886601,-11.33739734904271,9.168739322533137,0.3977777777777778,0.3944444444444444,-0.6433333333333333,-5.5959167893961705,-4.139112665684831,30.117488954344626
1590515108.5218678,3.051358059230247,-5.37549478438112,8.818549018824188,0.3977777777777778,0.3944444444444444,-0.6433333333333333,0.3390302146197195,-4.515187242716118,40.44638753447104
1590515108.5318677,-0.4150860287459075,-2.473042236515197,8.213295098335152,0.3977777777777778,0.3944444444444444,-0.6433333333333333,6.875716906215896,0.8427072932872037,6.239246406761559
1590515108.5418677,-0.5655411215385326,-4.971710508067126,8.68943738153576,0.40500721700851144,0.3944444444444444,-0.6381120716666924,2.9860645601220464,2.856736281263002,-13.087256137025566
1590515108.5518677,-0.29911725644128323,-6.731978573325857,9.385309152082165,0.4177777777777778,0.3944444444444444,-0.6288888888888889,-3.988192825310628,-1.4955490216332674,-6.375186302865743
1590515108.5618677,0.03,-3.7278744394618832,8.413608968609864,0.4177777777777778,0.3944444444444444,-0.6288888888888889,1.481311659192825,-0.20232062780269056,0.9777690582959642
1590515108.5718677,0.022379503554645137,-3.7219887938305822,8.19480464513797,0.4177777777777778,0.3944444444444444,-0.6288888888888889,1.4490742484034222,-0.18166533618508252,1.080194149897578
1590515108.5818677,0.010615139095426353,-4.436309165427442,8.563383265024845,0.4177777777777778,0.3944444444444444,-0.6288888888888889,-1.3288645678430235,-1.160587664575097,-0.30481076130717055
1590515108.5918677,0.03,-4.339548265169446,8.683963046549605,0.41405429869788324,0.3944444444444444,-0.632922657892108,0.3518995064310747,-0.24268476725197702,-0.01013857543898277
1590515108.6018677,0.03094841100185264,-4.392845233005557,8.724742055009264,0.4044444444444445,0.3944444444444444,-0.6433333333333333,0.9137897249536839,-0.06842756876157902,0.11907243123842098
1590515108.6118677,0.02921335855456265,-4.384044528515209,8.766404452851521,0.4044444444444445,0.3944444444444444,-0.6433333333333333,0.4852504728980497,-0.10252783032200552,0.04002783032200552
1590515108.6218677,0.016738620112787025,-4.380647581015084,8.692613798872129,0.4044444444444445,0.3944444444444444,-0.6433333333333333,-0.08558187852459459,-0.10461637570491891,-0.02105818785245946
1590515108.6318676,0.026438443241469815,-4.432330421587927,8.599177124343832,0.4044444444444445,0.3944444444444444,-0.6433333333333333,-0.18836378362860895,-0.12072081077755906,-0.04024027025918635
1590515108.6418676,0.022922313683101908,-4.345067764197222,8.687533882098611,0.4044444444444445,0.3921715338020318,-0.6433333333333333,0.4297933815581608,0.018264460519386936,-0.018264460519386936
1590515108.6518676,0.01711773019944511,-4.309765481861488,8.815881798670366,0.4044444444444445,0.38666666666666666,-0.6433333333333333,0.7235283725069361,0.00882387583102131,-0.0625
1590515108.6618676,0.009377778812355967,-4.304733350403874,8.808088875439372,0.4044444444444445,0.38666666666666666,-0.6433333333333333,0.3513888242277521,-0.09180555878861239,-0.003888882422775207
1590515108.6718676,0.04250605982161768,-4.4214842444637945,8.688004847857295,0.4044444444444445,0.38666666666666666,-0.6433333333333333,-0.3968977243310663,-0.09686742522297791,-0.07816287388511048
1590515108.6818676,0.05972425809663413,-4.391102967613463,8.697155322620793,0.4044444444444445,0.38666666666666666,-0.6433333333333333,-0.5321116934480183,-0.046444153275990815,-0.23394415327599083
1590515108.6918676,0.036523771330586055,-4.483904914677655,8.668154714163233,0.4044444444444445,0.38666666666666666,-0.6433333333333333,-0.6046132145919185,-0.01019339270404071,-0.1976933927040407
1590515108.7018676,0.02,-4.31,8.74204914689688,0.3977777777777778,0.3944444444444444,-0.6433333333333333,0.4518430086329957,-0.11219283189450072,-0.08811433621099857
1590515108.7118676,0.02,-4.3054824411864985,8.722894647118991,0.3977777777777778,0.3944444444444444,-0.6433333333333333,0.7782347425843846,0.05043897033753836,-0.1875
1590515108.7218676,0.016479381069720248,-4.30704123786056,8.704082475721119,0.3977777777777778,0.3944444444444444,-0.6433333333333333,0.48244197528627336,0.0334729218002609,-0.14349226337150311
1590515108.7318676,0.01,-4.343703381815393,8.722098872728203,0.3977777777777778,0.3944444444444444,-0.6433333333333333,-0.125,-0.24012359091025282,-0.0526235909102528
1590515108.7418675,0.015612941433157746,-4.422289997818159,8.682806470716578,0.3959067973000585,0.39600359484254377,-0.6411505227759942,-0.0372977901069102,-0.2225808839572359,0.017540441978617958
1590515108.7518675,0.02111592530670874,-4.33109426142652,8.712210186733229,0.3911111111111111,0.4,-0.6355555555555555,0.4373646007488168,-0.2847372665834648,0.006974533166929621
1590515108.7618675,0.01,-4.326241798319614,8.74,0.3911111111111111,0.4,-0.6355555555555555,0.6718603541421682,-0.25,-0.0625
1590515108.7718675,0.009342772957930921,-4.241172859715174,8.738685545915862,0.3911111111111111,0.4,-0.6355555555555555,0.46303097888361433,-0.23767699296120479,-0.0625
1590515108.7818675,0.0030702134836875328,-4.38771914606525,8.72,0.3911111111111111,0.4,-0.6355555555555555,-0.13925533709218832,-0.0625,-0.0625
1590515108.7918675,0.009807720109874222,-4.360769119560503,8.72,0.3911111111111111,0.4,-0.6355555555555555,-0.30769300274685557,-0.0625,-0.0625
1590515108.8018675,0.024954625209893777,-4.409727751259363,8.710090749580212,0.41,0.38666666666666666,-0.6288888888888889,0.2038339810954097,-0.12443281512367224,-0.046166018904590295
1590515108.8118675,0.011750028397258718,-4.32,8.740875014198629,0.41,0.38666666666666666,-0.6288888888888889,0.45937535496573395,0.0625,0.16562464503426602
1590515108.8218675,0.03,-4.3031271867612295,8.745781796690308,0.41,0.38666666666666666,-0.6288888888888889,0.5029536052009457,-0.12204639479905435,-0.0888637706855792
1590515108.8318675,0.03,-4.311715456886858,8.736828454311315,0.41,0.38666666666666666,-0.6288888888888889,0.11124487611999853,-0.375,-0.125
1590515108.8418674,0.03,-4.385401609792907,8.727299195103546,0.4088996720792227,0.38736687534352493,-0.6309895149194639,-0.1875,-0.3468666156619435,-0.10811996939716609
1590515108.8518674,0.03,-4.43815125345854,8.70092437327073,0.3981543742954827,0.39420479211499576,-0.6515032652338765,-0.1875,-0.07212888823677371,0.0567226670579358
1590515108.8618674,0.009343694636817522,-4.378198045847426,8.69,0.3977777777777778,0.3944444444444444,-0.6522222222222223,0.42929618296021904,-0.23053396950663016,-0.08606793901326032
1590515108.8718674,0.02457403583560914,-4.3218610537534135,8.711703856657563,0.3977777777777778,0.3944444444444444,-0.6522222222222223,0.6366315859588356,-0.13663158595883568,-0.01695613801372144
1590515108.8818674,0.010605142210084594,-4.300907713315127,8.76757943115966,0.3977777777777778,0.3944444444444444,-0.6522222222222223,0.5056732082195431,-0.005673208219543063,-0.06060893059348564
1590515108.8918674,0.002677803709617983,-4.397322196290382,8.765983294435573,0.39688517654123845,0.39518827880822716,-0.6490981178943346,-0.041840682962780984,-0.2042362731851124,-0.14565931703721902
1590515108.9018674,0.02327391874180865,-4.389821756225426,8.726904325032764,0.3911111111111111,0.4,-0.6288888888888889,-0.2511140235910878,-0.3125,0.08407601572739187
1590515108.9118674,0.03335370773330725,-4.389877753600157,8.68658516906677,0.3911111111111111,0.4,-0.6288888888888889,0.0426853866653627,-0.2705786533336593,-0.020960673333170338
1590515108.9218674,0.029990052675604187,-4.356673298216264,8.690029841973187,0.3911111111111111,0.4,-0.6288888888888889,0.3958540569258246,-0.16664594307417538,-0.0625
1590515108.9318674,0.01,-4.361904560947898,8.752023859763025,0.3911111111111111,0.4,-0.6288888888888889,0.4248508764810907,-0.09970175296218146,-0.04985087648109073
1590515108.9418674,0.01,-4.334673267326733,8.758831683168317,0.3911111111111111,0.4,-0.6288888888888889,0.3823019801980198,-0.014603960396039617,-0.0073019801980198085
1590515108.9518673,0.02,-4.401365371572522,8.721365371572523,0.3977777777777778,0.38666666666666666,-0.6433333333333333,-0.025600716984788295,-0.15336571068694893,-0.05396642767173723
1590515108.9618673,0.02,-4.409493072376708,8.729493072376709,0.3977777777777778,0.38666666666666666,-0.6433333333333333,-0.17799510706326907,0.049826809417692075,-0.0031682976455769812
1590515108.9718673,0.022591827620855195,-4.386673551412303,8.685550965725131,0.3977777777777778,0.38666666666666666,-0.6433333333333333,0.42359676789103495,-0.15739784526068995,0.04630107736965502
1590515108.9818673,0.02902340615758465,-4.320488296921208,8.733418078448453,0.3977777777777778,0.38666666666666666,-0.6433333333333333,0.5533444327273561,-0.24389628848490405,-0.00305185575754797
1590515108.9918673,0.01,-4.330484583386938,8.799806166645226,0.3978423888960361,0.3867958889031834,-0.6431933425771069,0.3701541661306231,-0.12439427076632789,-0.06310572923367211
1590515109.0018673,0.01,-4.375451134268193,8.781819546292722,0.40383792901353693,0.3987869691381849,-0.6302030056558553,-0.07951134268193316,-0.06818608216475835,-0.11931391783524165
1590515109.0118673,0.02,-4.385096546097362,8.662355180853957,0.4044444444444445,0.4,-0.6288888888888889,-0.07721988033723143,-0.07842670655425618,-0.03185341310851238
1590515109.0218673,0.01708912893360955,-4.3796239025352675,8.657465226398342,0.4044444444444445,0.4,-0.6288888888888889,0.20804355331952254,-0.17957883249482096,-0.08861411167011937
1590515109.0318673,0.014915547775563791,-4.337373321663346,8.729493286653382,0.4044444444444445,0.4,-0.6288888888888889,0.5010556528054526,-0.2817778264027263,0.0
1590515109.0418673,0.03,-4.3580577816687995,8.8190288908344,0.4034193847696441,0.39973024745399993,-0.6295902455084892,0.30036113542999526,-0.1875,0.0
1590515109.0518672,0.026885070550751025,-4.344919435593992,8.781310423304507,0.38333333333333336,0.3944444444444444,-0.6433333333333333,0.004095072826581704,-0.0901584547109695,0.0194683090578061
1590515109.0618672,0.014510190664036818,-4.397255095332018,8.709806048652203,0.38333333333333336,0.3944444444444444,-0.6433333333333333,-0.09068869165023011,0.10784434582511505,0.028188691650230115
1590515109.0718672,0.007375133547008547,-4.3850832443019945,8.659500534188036,0.38333333333333336,0.3944444444444444,-0.6433333333333333,0.13828375400641024,0.0471351384437322,-0.03177027688746439
1590515109.0818672,0.02838732267552372,-4.363549290702095,8.75483803197343,0.38333333333333336,0.3944444444444444,-0.6433333333333333,0.5826584665559535,-0.03023769983393025,0.042341533444046495
1590515109.0918672,0.02,-4.330007487365071,8.780014974730141,0.38334913999292863,0.3944444444444444,-0.6433275098271667,0.6873128158732139,-0.18735961190491046,-0.062453203968303485
1590515109.1018672,0.02,-4.34,8.780847136107354,0.4044444444444445,0.3944444444444444,-0.6355555555555555,0.38308845485043824,-0.021764618059824704,-0.032646927089737064
1590515109.1118672,0.02,-4.34,8.699809249468673,0.4044444444444445,0.3944444444444444,-0.6355555555555555,0.15286718599055032,-0.11385312560377987,-0.17077968840566984
1590515109.1218672,0.02,-4.38197881010595,8.637809290953545,0.4044444444444445,0.3944444444444444,-0.6355555555555555,0.13736756316218418,-0.21289731051344743,-0.02473512632436838
1590515109.1318672,0.02,-4.389575115457756,8.706176039119805,0.4044444444444445,0.3944444444444444,-0.6355555555555555,0.18484447161097528,-0.07046658516707416,-0.11968894322195056
1590515109.1418672,0.01,-4.31074912891986,8.770249709639954,0.40458317202219646,0.3944444444444444,-0.6352226093689508,0.375,-0.1875,-0.17813588850174217
1590515109.1518672,0.01,-4.339977700348432,8.779992566782811,0.4099958704348948,0.3944444444444444,-0.6222321331784747,0.375,-0.1875,0.1872212543554007
1590515109.1618671,0.027831114789525713,-4.364337770420949,8.723973377474309,0.41,0.3944444444444444,-0.6222222222222222,0.09788893486907144,-0.0625,-0.07605553256546428
1590515109.1718671,0.017923638375800376,-4.375847276751601,8.652839977866197,0.41,0.3944444444444444,-0.6222222222222222,0.025954520302495322,-0.0625,-0.11202273984875234
1590515109.1818671,0.012215958936070928,-4.362215958936071,8.742215958936072,0.41,0.3944444444444444,-0.6222222222222222,0.22194820345310312,-0.07634974335044331,-0.07634974335044331
1590515109.191867,0.019843193623207345,-4.369686387246415,8.750313612753585,0.40995644267311315,0.3945402705635954,-0.6223877400643922,0.5620099800725229,-0.1259800398549541,-0.12352994021756884
1590515109.201867,0.006971784315694346,-4.334647856210463,8.792323928105231,0.4044444444444445,0.4066666666666667,-0.6433333333333333,0.45642634802691034,-0.19190179736921378,0.01892634802691033
1590515109.211867,0.03,-4.35,8.784123766337691,0.4044444444444445,0.4066666666666667,-0.6433333333333333,0.2814917311283009,-0.006201653774339824,-0.11879834622566017
1590515109.221867,0.02828012878516866,-4.356879484859325,8.65203909850382,0.4044444444444445,0.4066666666666667,-0.6433333333333333,0.010749195092695861,-0.08399839018539172,-0.05175080490730414
1590515109.231867,0.021100158982511923,-4.388349761526232,8.712200317965024,0.4044444444444445,0.4066666666666667,-0.6433333333333333,0.08312798092209857,-0.18062400635930048,0.0034379968203497617
1590515109.241867,0.03888203497615263,-4.361676947535772,8.747764069952305,0.4044444444444445,0.4066666666666667,-0.6433333333333333,0.4165381558028617,-0.0694872813990461,0.05900635930047695
1590515109.251867,0.028156528826355526,-4.333686942347289,8.768156528826355,0.4044444444444445,0.4,-0.65,0.4144566103294441,-0.16445661032944406,-0.0625
1590515109.261867,0.01891569936559825,-4.351084300634401,8.745904091752777,0.4044444444444445,0.4,-0.65,0.2853924841399562,-0.06927687896501095,-0.0625
1590515109.271867,0.01,-4.36781462680353,8.636251701442824,0.4044444444444445,0.4,-0.65,0.033195149486764775,-0.11523171649558826,-0.04296343299117652
1590515109.281867,0.01,-4.4013975050843115,8.66311800406745,0.4044444444444445,0.4,-0.65,-0.09274064406616811,-0.07325311864461062,0.040993762710778744
1590515109.291867,0.018554937069840138,-4.350115440511119,8.72988455948888,0.4044444444444445,0.4,-0.65,0.03540507005950258,-0.16943671337300173,-0.15137342674600346
1590515109.301867,0.02,-4.357354249479463,8.792062748438388,0.4044444444444445,0.4057847498264875,-0.6442152501735126,0.33366014811660044,-0.29596405924664015,0.029428118493280336
1590515109.311867,0.028817013003686515,-4.341182986996313,8.759353117033179,0.4044444444444445,0.4066666666666667,-0.6433333333333333,0.5584569814573667,-0.07728733745391853,-0.17271266254608147
1590515109.321867,0.021124296168589404,-4.3488757038314105,8.690118665517303,0.4044444444444445,0.4066666666666667,-0.6433333333333333,0.1257416594831539,-0.1734462978926325,-0.07655370210736752
1590515109.331867,0.021787721084587246,-4.371787721084587,8.698938605422937,0.4044444444444445,0.4066666666666667,-0.6433333333333333,0.05132674322132971,-0.25,-0.01780697288531885
1590515109.341867,0.029696421163781725,-4.379696421163781,8.738482105818909,0.4044444444444445,0.4066666666666667,-0.6433333333333333,0.0018973677263642158,-0.25,0.17991052909454314
1590515109.351867,0.01,-4.362103419316137,8.775276064787041,0.4044444444444445,0.3944444444444444,-0.6433333333333333,0.3125,0.08556088782243551,0.0
1590515109.361867,0.014139764005040668,-4.37,8.707580707984878,0.4044444444444445,0.3944444444444444,-0.6433333333333333,0.2736897124527437,-0.0625,0.01293676251575209
1590515109.371867,0.03,-4.36533795383735,8.6662160615502,0.4044444444444445,0.3944444444444444,-0.6433333333333333,0.08614961531124818,-0.07221259617218796,0.08192519234437591
1590515109.381867,0.03,-4.3415693328087235,8.70039233320218,0.4044444444444445,0.3944444444444444,-0.6433333333333333,-0.11519166994547805,-0.125,0.17769166994547805
1590515109.391867,0.03,-4.373003203867124,8.708250800966782,0.4044444444444445,0.3944444444444444,-0.6433333333333333,0.08127002416952392,-0.125,-0.01877002416952392
1590515109.401867,0.03,-4.35686735876274,8.763976162886939,0.3881659191293358,0.3944444444444444,-0.632195394959838,0.125,-0.07680699742237568,-0.0625
1590515109.411867,0.03,-4.356444351230425,8.767111297539149,0.38333333333333336,0.3944444444444444,-0.6288888888888889,0.326385975950783,-0.0625,0.0180543903803132
1590515109.421867,0.03,-4.334554333696378,8.709108667392755,0.38333333333333336,0.3944444444444444,-0.6288888888888889,0.4375,-0.009488195200786989,0.009488195200786989
1590515109.431867,0.02,-4.362669221175918,8.678007663527753,0.38333333333333336,0.3944444444444444,-0.6288888888888889,0.07084131617474289,-0.016682632349485787,-0.09163473530102842
1590515109.4418669,0.02,-4.377831077050987,8.723493231152963,0.38333333333333336,0.3944444444444444,-0.6288888888888889,0.11822211578433676,-0.11144423156867353,0.09788846313734706
1590515109.4518669,0.02,-4.358511834068545,8.771488165931455,0.3911111111111111,0.3944444444444444,-0.6522222222222223,0.25,-0.0970968887852053,0.0625
1590515109.4618669,0.02,-4.350330784148706,8.77702294266164,0.3911111111111111,0.3944444444444444,-0.6522222222222223,0.24793259907058435,0.05836519814116872,0.06456740092941564
1590515109.4718668,0.02,-4.358004500713528,8.70795949357825,0.3911111111111111,0.3944444444444444,-0.6522222222222223,0.19997187054045154,-0.03755625891909693,0.11252812945954846
1590515109.4818668,0.03947873207691939,-4.359478732076919,8.72895746415384,0.3911111111111111,0.3944444444444444,-0.6522222222222223,0.0625,-0.12174207548074617,-0.11522622644223852
1590515109.4918668,0.03277418117297271,-4.352774181172973,8.715548362345945,0.3911111111111111,0.3944444444444444,-0.6522222222222223,0.0625,-0.07983863233107946,0.010484103006761614
1590515109.5018668,0.03890740472395305,-4.367814809447906,8.727814809447906,0.3970493809270798,0.38751646299248094,-0.6373765476823005,0.006828720475293433,-0.17384255904941315,0.11817127952470657
1590515109.5118668,0.01200291606895092,-4.358664722620699,8.726661806551748,0.3977777777777778,0.38666666666666666,-0.6355555555555555,0.008345483620628837,-0.17498177456905675,0.06667274181031442
1590515109.5218668,0.038342545490119354,-4.340552484836627,8.680552484836626,0.3977777777777778,0.38666666666666666,-0.6355555555555555,0.12154696977108198,-0.006906060457836039,0.11118787908432792
1590515109.5318668,0.010587328311918475,-4.3511746566238365,8.691761984935756,0.3977777777777778,0.38666666666666666,-0.6355555555555555,0.047816792202038105,-0.11765839610101905,-0.11765839610101905
1590515109.5418668,0.01802073548958795,-4.366041470979176,8.714062206468764,0.3977777777777778,0.38666666666666666,-0.6355555555555555,-0.13801838723969873,-0.024740806380150637,-0.024740806380150637
1590515109.5518668,0.01269505566237034,-4.35539011132474,8.741914833012888,0.3831678891025184,0.3964065924501729,-0.6306855926638025,-0.0048763915592584806,-0.13696770633055616,0.0
1590515109.5618668,0.029647624457337606,-4.3792952489146755,8.756828620116039,0.37777777777777777,0.4,-0.6288888888888889,0.06910704142491987,-0.18089295857508014,-0.004404694283279912
1590515109.5718668,0.02113888099971599,-4.362277761999432,8.680249928997444,0.37777777777777777,0.4,-0.6288888888888889,0.22864598125532518,-0.021354018744674824,-0.11076398750355013
1590515109.5818667,0.010058289092003722,-4.340116578184007,8.739591976355975,0.37777777777777777,0.4,-0.6288888888888889,0.1257286136500465,0.0,-0.06286430682502325
1590515109.5918667,0.01,-4.331293916381541,8.74,0.37777777777777777,0.4,-0.6288888888888889,-0.09265209046148712,0.05441302261537178,-0.0625
1590515109.6018667,0.010579703606794036,-4.38,8.758260889179617,0.37777777777777777,0.38,-0.6355555555555555,-0.1730074098301491,-0.05525370491507455,0.18387685245753727
1590515109.6118667,0.020030446034404018,-4.379969553965596,8.72984776982798,0.37777777777777777,0.38,-0.6355555555555555,0.06288057543005024,0.06211942456994977,0.12442913685492464
1590515109.6218667,0.02712487948444715,-4.372875120515553,8.694375602577765,0.37777777777777777,0.38,-0.6355555555555555,0.15156099355558939,-0.026560993555589385,-0.008591490333384078
1590515109.6318667,0.04820404291031161,-4.342693935634532,8.72551010727578,0.37777777777777777,0.38,-0.6355555555555555,0.01683709771582864,0.051275268189447554,-0.005612365905276223
1590515109.6418667,0.03729930998986698,-4.3590510350152,8.755401380020267,0.37777777777777777,0.38,-0.6355555555555555,-0.07937931256333135,0.0625,0.039689656281665674
1590515109.6518667,0.015191338794661745,-4.362595669397331,8.777404330602668,0.4016361763863783,0.39480866120533825,-0.6355555555555555,-0.2175541325333641,-0.07633119880004616,0.0625
1590515109.6618667,0.01762732434658229,-4.352372675653418,8.74949070261367,0.41,0.4,-0.6355555555555555,-0.05931689133544277,-0.17267077716613932,-0.032841554332278616
1590515109.6718667,0.02967475106907638,-4.340325248930924,8.672276742516464,0.41,0.4,-0.6355555555555555,0.0,-0.06656561163654526,-0.002032805818272629
1590515109.6818666,0.010696604290063007,-4.34,8.698955093564905,0.41,0.4,-0.6355555555555555,0.18096933478065932,0.058146223187106216,-0.18096933478065932
1590515109.6918666,0.02666028530846662,-4.348330142654233,8.749980855925399,0.41,0.4,-0.6355555555555555,-0.020753566355832753,0.010436608411041812,-0.03130982523312542
1590515109.7018666,0.01031708168489644,-4.359841459157552,8.76,0.3914105771468466,0.3868780544565976,-0.6355555555555555,-0.0625,-0.12301823946939726,-0.18452735920409588
1590515109.7118666,0.019914263818373405,-4.36,8.750085736181626,0.3911111111111111,0.38666666666666666,-0.6355555555555555,-0.0005358511351662015,0.1228565954593352,0.060356595459335194
1590515109.7218666,0.011122472941528082,-4.368877527058472,8.670102256473752,0.3911111111111111,0.38666666666666666,-0.6355555555555555,0.11096908823089896,-0.04145363234634844,0.0625
1590515109.7318666,0.01,-4.37,8.707062219371393,0.3911111111111111,0.38666666666666666,-0.6355555555555555,0.0661722257857601,-0.003672225785760104,0.1801555484284798
1590515109.7418666,0.01,-4.353702683818996,8.734445974271505,0.3911111111111111,0.38666666666666666,-0.6355555555555555,-0.039358226131272864,-0.05092911306563643,0.08564177386872714
1590515109.7518666,0.001248638163314112,-4.367502723673372,8.783756809183428,0.3969453523355684,0.3934732814285334,-0.6355555555555555,-0.22658803443786038,0.04689202295857359,0.1171960114792868
1590515109.7618666,0.023619989852866563,-4.37,8.742760020294266,0.3977777777777778,0.3944444444444444,-0.6355555555555555,-0.053166751226111975,0.013291687806527994,-0.07183324877388803
1590515109.7718666,0.02303530079951068,-4.363035300799511,8.660353007995107,0.3977777777777778,0.3944444444444444,-0.6355555555555555,0.13058811000917472,0.0,-0.125
1590515109.7818666,0.029807055342959125,-4.379807055342959,8.70038588931408,0.3977777777777778,0.3944444444444444,-0.6355555555555555,0.37339212785799275,0.12540196803550183,-0.06290196803550181
1590515109.7918665,0.009575360967295877,-4.359575360967296,8.740849278065408,0.3977777777777778,0.3944444444444444,-0.6355555555555555,0.20479467472746568,0.16755133131813357,-0.10505133131813357
1590515109.8018665,0.01651800067292235,-4.35,8.776518000672922,0.38584811062511165,0.3944444444444444,-0.6474852227082217,-0.02985625630864705,0.03264374369135295,0.02985625630864705
1590515109.8118665,0.02,-4.356214333333333,8.761357,0.38333333333333336,0.3944444444444444,-0.65,-0.1401791666666667,-0.07767916666666667,-0.015179166666666674
1590515109.8218665,0.01230993801239752,-4.367690061987602,8.680789442111578,0.38333333333333336,0.3944444444444444,-0.65,-0.04331133773245349,-0.0769371125774845,-0.0625
1590515109.8318665,0.01,-4.357223301656834,8.6983300950295,0.38333333333333336,0.3944444444444444,-0.65,-0.039927182322393756,-0.022572817677606244,-0.10242718232239376
1590515109.8418665,0.022525711621944465,-4.35,8.751314279054862,0.38333333333333336,0.3944444444444444,-0.65,-0.10164284881857646,0.039142848818576464,-0.125
1590515109.8518665,0.01794742833488565,-4.35,8.77,0.3994034288868191,0.3897573332413444,-0.6459824761116285,-0.04967142709303529,0.0625,-0.08733571354651765
1590515109.8618665,0.01,-4.3557411147011305,8.77,0.41,0.38666666666666666,-0.6433333333333333,-0.0717639337641357,0.1342639337641357,-0.09838196688206785
1590515109.8718665,0.016655252050649043,-4.366655252050649,8.696792227442861,0.41,0.38666666666666666,-0.6433333333333333,-0.0834046746834435,0.06271402405033048,0.08297662658278249
1590515109.8818665,0.010494655004859087,-4.37,8.726537414965987,0.41,0.38666666666666666,-0.6433333333333333,0.11572521865889213,0.059408406219630706,0.009274781341107874
