time,acc_x,acc_y,acc_z,mag_x,mag_y,mag_z,gyr_x,gyr_y,gyr_z
1589541118.376118,-0.67,-4.14,8.9,0.4566666666666666,0.1955555555555556,-0.67,0.0625,-0.0625,0.125
1589541118.386118,-0.6417739294286547,-4.111773929428655,8.796504407905067,0.4566666666666666,0.1955555555555556,-0.67,-0.05510862738060521,-0.0036956863096973963,0.125
1589541118.396118,-0.64,-4.100103977844914,8.829584088620342,0.4566666666666666,0.1955555555555556,-0.67,-0.0006498615307150082,0.12370027693856998,0.0012997230614300165
1589541118.406118,-0.64,-4.1,8.862796853776416,0.4566666666666666,0.1955555555555556,-0.67,0.0,0.125,-0.040996067220519954
1589541118.416118,-0.64,-4.107897747306563,8.895795494613125,0.4663194689302427,0.20082072042659704,-0.6463067580803135,-0.049360920666013705,0.2237218413320274,-0.013139079333986295
1589541118.426118,-0.659645173507551,-4.100709652984897,8.86645173507551,0.4688888888888889,0.20222222222222225,-0.64,0.060282334422193815,0.37278233442219383,0.11612933768877527
1589541118.436118,-0.649793636551867,-4.120412726896266,8.771444544136932,0.4688888888888889,0.20222222222222225,-0.64,-0.005159086203326661,0.3099204568983367,-0.11984091379667333
1589541118.4461179,-0.6425565946580164,-4.134886810683967,8.822103837393884,0.4688888888888889,0.20222222222222225,-0.64,-0.18608513354958933,0.21945743322520533,0.06108513354958933
1589541118.4561179,-0.6165366317792579,-4.124357754519505,8.879105613701237,0.4688888888888889,0.20222222222222225,-0.64,-0.1522359657469077,0.23638201712654616,0.07611798287345385
1589541118.4661179,-0.6314648661020829,-4.12,8.911464866102083,0.4776338343378856,0.19188728669158972,-0.6463599603265431,-0.08028152895399404,0.29471847104600596,-0.07165541313801785
1589541118.4761178,-0.6711391746833563,-4.110569587341678,8.834873713924896,0.4811111111111111,0.18777777777777774,-0.6488888888888888,-0.29114047468707055,0.360760316458047,0.055380158229023514
1589541118.4861178,-0.6867180477658508,-4.118359023882926,8.764768785053672,0.4811111111111111,0.18777777777777774,-0.6488888888888888,0.0009633956097017671,0.1660244029268655,-0.041987798536567256
1589541118.4961178,-0.6501493051151498,-4.149701389769701,8.760597220460598,0.4811111111111111,0.18777777777777774,-0.6488888888888888,-0.00466578484842994,0.12033421515157006,0.0625
1589541118.5061178,-0.6577491891500118,-4.134501621699976,8.790996756600048,0.4811111111111111,0.18777777777777774,-0.6488888888888888,-0.24216216093786805,-0.11716216093786805,0.0625
1589541118.5161178,-0.6879811243331965,-4.082018875666804,8.853701272055806,0.4688888888888889,0.1955555555555556,-0.6344444444444445,-0.13972096840377513,-0.375,-0.11869101354123923
1589541118.5261178,-0.6306114074681987,-4.139388592531801,8.958879086308304,0.4688888888888889,0.1955555555555556,-0.6344444444444445,-0.5580418205443852,-0.375,0.06058935166187937
1589541118.5361178,-0.6564964055996974,-4.122335729600202,8.799342918400807,0.4688888888888889,0.1955555555555556,-0.6344444444444445,-0.8307478875015765,-0.5474445075040989,-0.010948732500945893
1589541118.5461178,-0.6035981838819523,-4.157601210745365,8.94040484298146,0.4688888888888889,0.1955555555555556,-0.6344444444444445,-1.106259458948165,-1.263774593265229,-0.17625567536889897
1589541118.5561178,-0.637693457403211,-4.13487102839786,8.893459813895182,0.4688888888888889,0.1955555555555556,-0.6344444444444445,-0.6930958005882069,-0.7628037462031725,-0.030443927486620698
1589541118.5661178,-0.6537439717963216,-4.126256028203678,8.872512056407357,0.4814009452962458,0.1906897558415834,-0.6462613866069482,-0.39839982372700966,-0.39839982372700966,-0.01570035254598065
1589541118.5761178,-0.6693799807712851,-4.120620019228715,8.78751992308514,0.4888888888888889,0.18777777777777774,-0.6533333333333333,-0.132750240358936,-0.13662536053840402,0.0038751201794680053
1589541118.5861177,-0.6604187586796283,-4.129581241320372,8.751675034718513,0.4888888888888889,0.18777777777777774,-0.6533333333333333,-0.24476551650464695,-0.3046482747569704,0.05988275825232347
1589541118.5961177,-0.6690045717631692,-4.120995428236831,8.75900457176317,0.4888888888888889,0.18777777777777774,-0.6533333333333333,-0.5876714411188433,-0.42505714703961445,0.0062214264801927835
1589541118.6061177,-0.6290896205843872,-4.12,8.82545660706498,0.4888888888888889,0.18777777777777774,-0.6533333333333333,-0.5738620257304841,-0.38636202573048406,0.05113797426951592
1589541118.6161177,-0.6263550235434276,-4.088224882282862,8.859065070630283,0.4719421594397484,0.2047245072269183,-0.6279132391596225,-0.6022188971464231,-0.05724882282861521,-0.05665669143926931
1589541118.6261177,-0.6137900457665904,-4.126734839816933,8.894314931350115,0.4622222222222222,0.21444444444444444,-0.6133333333333333,-0.42237557208237986,0.17565610697940504,-0.125
1589541118.6361177,-0.6360530759522921,-4.107433655059634,8.867433655059635,0.4622222222222222,0.21444444444444444,-0.6133333333333333,0.11349517410547649,0.30962379352636915,-0.16570793117545637
1589541118.6461177,-0.6587763364779875,-4.098776336477987,8.832447327044026,0.4622222222222222,0.21444444444444444,-0.6133333333333333,0.48470420597484276,0.7041126179245283,-0.29720420597484276
1589541118.6561177,-0.6744834017157777,-4.114483401715778,8.83,0.4622222222222222,0.21444444444444444,-0.6133333333333333,0.3642181089145841,0.6594787392763894,-0.4030212607236106
1589541118.6661177,-0.66,-4.15035850043592,8.84035850043592,0.4755555555555556,0.20222222222222225,-0.64,0.5,0.42853748910200523,-0.42853748910200523
1589541118.6761177,-0.66,-4.157672013949433,8.847672013949433,0.4755555555555556,0.20222222222222225,-0.64,0.5,0.2456996512641674,-0.2456996512641674
1589541118.6861176,-0.6694375495114867,-4.13168735146554,8.755624504885134,0.4755555555555556,0.20222222222222225,-0.64,0.32304594665962505,-0.04843873778716662,-0.06953063110641669
1589541118.6961176,-0.6621138657520823,-4.137886134247918,8.805202939735423,0.4755555555555556,0.20222222222222225,-0.64,0.26321166095051446,-0.16107667809897108,-0.013211660950514452
1589541118.7061176,-0.639769495487306,-4.129884747743653,8.855403382897215,0.4755555555555556,0.20222222222222225,-0.64,0.21838983669891565,-0.2507203266021687,0.03161016330108434
1589541118.7161176,-0.6244528798853468,-4.12,8.903358639656041,0.4755555555555556,0.2076646309709795,-0.6459371731804625,0.1875,-0.22900850214974627,0.006839001433164196
1589541118.7261176,-0.6398260467432678,-4.110173953256733,8.910173953256733,0.4755555555555556,0.21444444444444444,-0.6533333333333333,0.1260872078545765,0.120651168581694,0.1217383764362705
1589541118.7361176,-0.6652194192083063,-4.101593526930564,8.83434174237508,0.4755555555555556,0.21444444444444444,-0.6533333333333333,0.2300809133679429,0.17754045668397145,0.125
1589541118.7461176,-0.6415270236404644,-4.128472976359536,8.85796396847938,0.4755555555555556,0.21444444444444444,-0.6533333333333333,0.13136259850193524,0.1875,0.06568129925096762
1589541118.7561176,-0.6835795763172189,-4.079157160963244,8.751051059206953,0.4755555555555556,0.21444444444444444,-0.6533333333333333,0.07960460800289698,0.23289539199710302,0.017104608002896975
1589541118.7661176,-0.6425733672967013,-4.123169295973629,8.882279898109896,0.4787459240390722,0.21125407596092785,-0.6533333333333333,-0.2605248089560545,-0.03713316351649293,-0.035891645439561616
1589541118.7761176,-0.6260091202138532,-4.100642346096391,8.93197263935844,0.4811111111111111,0.2088888888888889,-0.6533333333333333,-0.3916286657756113,-0.033257331551222596,-0.0625
1589541118.7861176,-0.6787880177772154,-4.077802995555697,8.767537444446202,0.4811111111111111,0.2088888888888889,-0.6533333333333333,-0.375,0.11434691666534866,0.05184691666534866
1589541118.7961175,-0.6229182984993602,-4.136985924231261,8.857560587847532,0.4811111111111111,0.2088888888888889,-0.6533333333333333,-0.375,-0.3986268370235372,0.04126759471092327
1589541118.8061175,-0.6255356204635233,-4.124464379536477,8.891454202261183,0.4811111111111111,0.2088888888888889,-0.6533333333333333,-0.13105917608826792,-0.24027515616182454,0.0
1589541118.8161175,-0.6686892655367233,-4.118689265536723,8.813276836158192,0.4696898932831136,0.19642937853107348,-0.6284143126177025,-0.23361581920903954,0.40882768361581917,0.058403954802259885
1589541118.8261175,-0.6562277866146715,-4.140658320077993,8.851316640155986,0.4688888888888889,0.1955555555555556,-0.6266666666666667,-0.2069618331708485,0.17927099902509108,0.0625
1589541118.8361175,-0.65,-4.122709818349046,8.769936000613168,0.4688888888888889,0.1955555555555556,-0.6266666666666667,-0.1875,0.0625,0.005645454893845332
1589541118.8461175,-0.6700337387607753,-4.099966261239224,8.800067477521551,0.4688888888888889,0.1955555555555556,-0.6266666666666667,-0.31271086725484576,0.0625,0.04173695575161524
1589541118.8561175,-0.662560418027433,-4.101626387981711,8.843252775963423,0.4688888888888889,0.1955555555555556,-0.6266666666666667,-0.774657086871326,-0.19182723709993466,0.02616753755715219
1589541118.8661175,-0.6729769503546099,-3.933843380614657,8.898294917257683,0.4688888888888889,0.2006615445232467,-0.6436866298923036,-1.014631353427896,-0.327131353427896,0.0
1589541118.8761175,-0.65335378429888,-3.8444717123985064,8.85670756859776,0.4688888888888889,0.20222222222222225,-0.6488888888888888,-0.6669223037359998,-0.42352589875466673,0.6661553925280004
1589541118.8861175,-0.658067909168809,-3.928747000856898,8.737049271636677,0.4688888888888889,0.20222222222222225,-0.6488888888888888,-0.4737267030848329,-0.6896221615252784,1.0021221615252784
1589541118.8961174,-0.685880256779772,-4.25193632909734,8.770387265819467,0.4688888888888889,0.20222222222222225,-0.6488888888888888,-0.5453344032490501,-0.6421655967509499,1.008582798375475
1589541118.9061174,-0.6825059724349158,-4.367446248085757,8.772505972434915,0.4688888888888889,0.20222222222222225,-0.6488888888888888,0.04638973966309334,-0.15662327718223584,0.9531623277182236
1589541118.9161174,-0.6447163753121655,-4.384119395885361,8.83468664526103,0.47280929163198165,0.20614262496531496,-0.6351674792880644,-0.1542915328814366,-0.4410453085979308,0.7169773457010347
1589541118.9261174,-0.6483404768282882,-4.259552973479775,8.872914880792928,0.4755555555555556,0.2088888888888889,-0.6255555555555555,-0.12752603469059737,-0.395744039646397,0.25252603469059737
1589541118.9361174,-0.6655130204013933,-4.171408857190247,8.82038281638746,0.4755555555555556,0.2088888888888889,-0.6255555555555555,-0.13782551003483165,-0.2844563775087079,-0.01282551003483165
1589541118.9461174,-0.6539120570440795,-4.134637352348026,8.82826382886776,0.4755555555555556,0.2088888888888889,-0.6255555555555555,-0.2835165478248343,-0.413049643474503,-0.024450356525496972
1589541118.9561174,-0.64,-4.135024460232675,8.885073380698024,0.4755555555555556,0.2088888888888889,-0.6255555555555555,-0.21829137063734894,-0.37438849418313197,0.031097123545782993
1589541118.9661174,-0.6760915217050619,-4.088440683278483,8.879376273311394,0.4784199620400843,0.2157634644517578,-0.6398775879781992,-0.06055085409810375,-0.25,0.1288982918037925
1589541118.9761174,-0.7475422468813461,-3.986368218740934,8.870726356251813,0.4811111111111111,0.2222222222222222,-0.6533333333333333,-0.3351986328691616,-0.5181589062953293,0.25
1589541118.9861174,-0.824814235432147,-3.8631755964020336,8.854391865467345,0.4811111111111111,0.2222222222222222,-0.6533333333333333,-1.3052160735236606,-1.030088971450919,0.7301525224872898
1589541118.9961174,-0.9142260026034701,-3.7324190873589043,8.810806362452968,0.4811111111111111,0.2222222222222222,-0.6533333333333333,-2.0524204693378985,-1.0050397653310508,1.9852852672123253
1589541119.0061173,-0.8967010978815525,-3.750562239059842,8.824526673882788,0.4811111111111111,0.2222222222222222,-0.6533333333333333,-2.0247777176434205,-0.8390347147054276,4.377868408844905
1589541119.0161173,-0.8259067523429328,-3.81,8.880116559571334,0.47374928543811834,0.21419113966986647,-0.6533333333333333,-1.6242715026791623,-0.737208601071665,7.431993574280042
1589541119.0261173,-0.7705309934260645,-3.7968436644753547,8.886843664475355,0.4688888888888889,0.2088888888888889,-0.6533333333333333,-1.3766593544564512,-0.48193225742741863,10.516223231667748
1589541119.0361173,-0.7269637890182342,-3.8360724219635314,8.764818945091172,0.4688888888888889,0.2088888888888889,-0.6533333333333333,-1.216515787575976,-0.375,13.17972371742042
1589541119.0461173,-0.7941295647823913,-3.3310930465232618,8.9112056028014,0.4688888888888889,0.2088888888888889,-0.6533333333333333,-1.0845422711355677,-0.6323943221610806,15.489260255127563
1589541119.0561173,-0.8651417339944294,-3.0201112142701936,8.874180115757659,0.4688888888888889,0.2088888888888889,-0.6533333333333333,-1.7086921952472198,-0.730579479683148,20.69990172451257
1589541119.0661173,-0.872689691606683,-2.7568969160668297,8.909241233573269,0.47946741068480486,0.2088888888888889,-0.6600651199307344,-2.2704735686455786,-1.669610133394968,32.341574902595255
1589541119.0761173,-0.8247604826185642,-2.594281447855692,8.957699597817864,0.4811111111111111,0.2088888888888889,-0.6611111111111111,-1.8883795245490385,-2.33086946999562,42.67190548719787
1589541119.0861173,-0.81,-2.6143662073966643,8.862722987672226,0.4811111111111111,0.2088888888888889,-0.6611111111111111,-1.3924099589074208,-2.4553012448634277,53.92116721053904
1589541119.0961173,-0.7790818878910896,-2.6523672448435645,8.78908188789109,0.4811111111111111,0.2088888888888889,-0.6611111111111111,-0.09057079591585682,-2.5534429204084144,63.858746463279616
1589541119.1061172,-0.7258375027457106,-2.76818124130525,8.861099992678104,0.4811111111111111,0.2088888888888889,-0.6611111111111111,0.447070326800576,-3.123203084958387,72.77718711102433
1589541119.1161172,-0.6757941923594163,-2.916565971011605,8.917897096179708,0.4858177959301135,0.20082028634202767,-0.6537148921098216,0.2746784255615879,-3.462178425561588,79.76579855058027
1589541119.1261172,-0.6414131770657072,-2.9507065885328534,8.89605988279928,0.4888888888888889,0.1955555555555556,-0.6488888888888888,0.5113771975134924,-3.5246257325044974,83.41863745257646
1589541119.1361172,-0.62,-2.978701066167494,8.817110767477823,0.4888888888888889,0.1955555555555556,-0.6488888888888888,0.5706183364531618,-3.6854704158867095,85.97158582241393
1589541119.1461172,-0.60993272886809,-3.1005381690552793,8.84060544018719,0.4888888888888889,0.1955555555555556,-0.6488888888888888,0.24957955542556304,-3.812920444574437,86.65477844398947
1589541119.1561172,-0.6132028673352629,-3.197603823113684,8.88158948643737,0.4888888888888889,0.1955555555555556,-0.6488888888888888,0.46255973615130913,-3.6824581846940836,85.47479092347042
1589541119.1661172,-0.6512107369612137,-3.2412107369612135,8.915448316325461,0.49242401171575784,0.18495018707494873,-0.6488888888888888,0.4810822349810364,-3.6694924355132743,82.52662762190138
1589541119.1761172,-0.6948738853503185,-3.272436942675159,8.981344585987262,0.4955555555555556,0.17555555555555555,-0.6488888888888888,0.14863455414012738,-3.6418073248407645,78.86240047770701
1589541119.1861172,-0.7699581256231306,-3.250020937188435,8.85757851445663,0.4955555555555556,0.17555555555555555,-0.6488888888888888,0.4528959995014955,-3.265788571784646,74.61143600448654
1589541119.1961172,-0.8100620675193961,-3.2132505766408053,8.853436779198994,0.4955555555555556,0.17555555555555555,-0.6488888888888888,0.3953161040050325,-3.0203161040050324,71.40981337806669
1589541119.2061172,-0.8453239960481199,-3.2,8.875064799209625,0.4955555555555556,0.17555555555555555,-0.6488888888888888,0.18588001975940024,-3.0324649851804497,68.6031302667519
1589541119.2161171,-0.9936312825860272,-3.2618156412930137,8.886868404588114,0.4955555555555556,0.13892406441895494,-0.6519415131502723,0.0625,-2.9962174139728885,65.34918143899895
1589541119.2261171,-1.0573742933013535,-3.2457542401918795,8.86787712009594,0.4955555555555556,0.12222222222222222,-0.6533333333333333,-0.02967866626691794,-3.0296786662669177,63.79539200359774
1589541119.2361171,-1.089288797888349,-3.23,8.808744603695388,0.4955555555555556,0.12222222222222222,-0.6533333333333333,0.07479124010163554,-3.1997912401016357,63.042362532994545
1589541119.246117,-1.114682850800548,-3.2006342983989042,8.804682850800548,0.4955555555555556,0.12222222222222222,-0.6533333333333333,0.21676781750342416,-3.0664643649931516,62.41616091248288
1589541119.256117,-1.0822222222222222,-3.196296296296296,8.885555555555555,0.4955555555555556,0.12222222222222222,-0.6533333333333333,0.17129629629629628,-2.9606481481481484,61.699074074074076
1589541119.266117,-1.1137659707463432,-3.2358439804975623,8.947921990248782,0.5154688780542012,0.10629156422330568,-0.6533333333333333,0.23701243905488184,-2.6388001625203152,60.142863170396296
1589541119.276117,-1.1673775526215506,-3.2715850350810336,8.971585035081034,0.5288888888888889,0.09555555555555556,-0.6533333333333333,0.38490646925646144,-2.292687061487077,57.17650915693439
1589541119.286117,-1.168953665745066,-3.2192451615978643,8.919245161597864,0.5288888888888889,0.09555555555555556,-0.6533333333333333,0.29942082181332824,-2.256539589093336,53.45025294355992
1589541119.296117,-1.1433874293911952,-3.149234286738994,8.861693714695598,0.5288888888888889,0.09555555555555556,-0.6533333333333333,0.2653714247287725,-2.2346285752712274,49.94837151439075
1589541119.306117,-1.1313746269565748,-3.1455929106522933,8.898342164565442,0.5288888888888889,0.09555555555555556,-0.6533333333333333,0.2683628722821122,-2.0361357269017604,45.935988793470976
1589541119.316117,-1.1291914917311654,-3.168921988974887,8.982345156560314,0.5266067771652715,0.09175203601619326,-0.6563761489648232,0.10697398704456447,-1.5343676336841323,39.924704651335446
1589541119.326117,-1.07,-3.0707859488579756,8.905196487214495,0.5222222222222223,0.08444444444444445,-0.6622222222222223,0.34252195490941295,-0.9249451127264676,34.24125954761817
1589541119.336117,-1.0917463486178731,-3.031746348617873,8.846507302764254,0.5222222222222223,0.08444444444444445,-0.6622222222222223,0.35595119268297654,-0.7962317430893646,25.966425872359494
1589541119.346117,-1.1115094452415113,-3.0430188904830224,8.836698051171687,0.5222222222222223,0.08444444444444445,-0.6622222222222223,0.14386806551889048,-0.8579010491391679,19.215805834528933
1589541119.356117,-1.1141987025719113,-3.0058012974280888,8.857403892284266,0.5222222222222223,0.08444444444444445,-0.6622222222222223,0.08874189107444568,-0.483774326776663,12.022372551678105
1589541119.366117,-1.1830747217806041,-3.0059224165341814,8.868382193958665,0.5287091326620739,0.07736781487369723,-0.6663502561384915,0.021641494435612085,-0.3201868044515103,5.1828298887122415
1589541119.376117,-1.218456475583864,-2.9622823779193204,8.902684713375796,0.5344444444444445,0.07111111111111111,-0.67,0.05536756900212314,0.10360270700636942,-0.27514596602972397
1589541119.386117,-1.193061030938405,-2.863536769794684,8.935170584164254,0.5344444444444445,0.07111111111111111,-0.67,-0.13010566990490346,0.11181529233845128,-4.383529208212647
1589541119.396117,-1.2723536622031038,-2.9873910127431254,8.877646337796897,0.5344444444444445,0.07111111111111111,-0.67,-0.12247045491338837,0.2454077915770485,-7.676252919817757
1589541119.406117,-1.3593044932590916,-3.1437828632034104,8.916174712925004,0.5344444444444445,0.07111111111111111,-0.67,-0.0883163535866528,0.3513571049786861,-10.079357370127884
1589541119.416117,-1.3929314783513196,-3.1670685216486802,8.982584579378495,0.5291760643753883,0.06871639289790375,-0.6666473945015098,-0.5194057989858276,-0.09052463918866208,-12.434301456247562
1589541119.426117,-1.3674073025757147,-3.116872346447778,8.849012170959524,0.5222222222222223,0.06555555555555556,-0.6622222222222223,-0.5200608547976224,0.12783045570336826,-14.489456552504953
1589541119.436117,-1.3353598934809285,-3.1209597159491427,8.851919431898285,0.5222222222222223,0.06555555555555556,-0.6622222222222223,-0.5729968931937446,0.015504660209383125,-16.20849378638749
1589541119.446117,-1.314516736188829,-3.1087463967171973,8.847205717773935,0.5222222222222223,0.06555555555555556,-0.6622222222222223,-0.5564592023603623,0.16351697358157835,-17.604605419337336
1589541119.456117,-1.2475161281073486,-3.026433179459242,8.732483871892653,0.5222222222222223,0.06555555555555556,-0.6622222222222223,0.47053573988588465,1.508755770278407,-18.67157259798721
1589541119.466117,-1.2028513667756475,-3.0434135536166838,8.854256833878237,0.5185096051537018,0.07240961783590094,-0.665649253362395,1.2432253680524656,1.610945328974096,-20.360439921843263
1589541119.476117,-1.2448598901098902,-3.1363550824175825,8.999905906593407,0.5077777777777778,0.09222222222222222,-0.6755555555555556,-1.0035027472527474,0.28446514423076924,-22.314839457417584
1589541119.486117,-1.28,-3.1483206464457196,8.79622145450287,0.5077777777777778,0.09222222222222222,-0.6755555555555556,0.19433872038099703,1.4574586700238124,-24.04675606042862
1589541119.4961169,-1.2773112759079672,-3.2326887240920326,8.977311275907967,0.5077777777777778,0.09222222222222222,-0.6755555555555556,0.5389094884959118,1.4495864232743867,-24.89652262787602
1589541119.5061169,-1.2305582669418778,-3.2093230965103494,8.978764829568473,0.5077777777777778,0.09222222222222222,-0.6755555555555556,0.008461293620633137,1.6685712012191594,-25.28934055440884
1589541119.5161169,-1.22188279871954,-3.224447638335402,9.05282419807931,0.5138275153706002,0.09222222222222222,-0.6843974797296807,-0.12824198079310123,1.1564602796106356,-25.840297739596263
1589541119.5261168,-1.3377968697649931,-3.3038531246509995,9.032112509772013,0.5222222222222223,0.09222222222222222,-0.6966666666666667,-0.759179709312529,0.17373043603120664,-26.360664058137495
1589541119.5361168,-1.4312499542476482,-3.313749862742945,8.845000549028219,0.5222222222222223,0.09222222222222222,-0.6966666666666667,-0.28906564547417735,0.8203099264302185,-26.000016013323084
1589541119.5461168,-1.4147980997624703,-3.3472005429250085,8.801204614862572,0.5222222222222223,0.09222222222222222,-0.6966666666666667,0.17748982015609094,0.9974762470308789,-21.02485578554462
1589541119.5561168,-1.357869226802858,-3.36,8.905147690721144,0.5222222222222223,0.09222222222222222,-0.6966666666666667,0.013317332482137165,0.4375,-16.533230412257225
1589541119.5661168,-1.328819392012716,-3.348975759984105,8.878975759984105,0.5207523235534363,0.09050734044197187,-0.6966666666666667,0.22243939996026227,0.42371969998013115,-12.325742598847606
1589541119.5761168,-1.3484463708388106,-3.309037197569901,8.843851209720397,0.5155555555555555,0.08444444444444445,-0.6966666666666667,0.11898248481188048,0.35694745443564146,-9.12691405833659
1589541119.5861168,-1.2524357718677013,-3.33316205831387,8.805385368793791,0.5155555555555555,0.08444444444444445,-0.6966666666666667,0.1661314322308446,0.26522357417313347,-4.251883522941309
1589541119.5961168,-1.2576544846095226,-3.349136211523806,8.808023259666678,0.5155555555555555,0.08444444444444445,-0.6966666666666667,0.042441850833305705,0.047072247440442694,-1.8881229084523374
1589541119.6061168,-1.2291413165123615,-3.2788550886831485,9.049427544341574,0.5155555555555555,0.08444444444444445,-0.6966666666666667,-0.5616055380337097,-0.6870527690168549,-0.9272136873876624
1589541119.6161168,-1.0986377634923008,-3.1540867095230976,8.905613993123039,0.518080497001711,0.09454421022906596,-0.7055039617282105,0.22529712961578718,0.061468455673493794,0.9260838690387203
1589541119.6261168,-1.0712140144046163,-3.2495369351792274,8.905431827144607,0.5222222222222223,0.1111111111111111,-0.72,0.571182465389485,0.5834634903173582,1.3229817451586792
1589541119.6361167,-1.0548534886927745,-3.28198721042471,8.960229074738002,0.5222222222222223,0.1111111111111111,-0.72,-0.34283430432984,-0.21966569567015995,0.7284229781439603
1589541119.6461167,-1.0403943739658026,-3.231380308880309,8.73611279646994,0.5222222222222223,0.1111111111111111,-0.72,-0.25246483728626584,-0.31003516271373416,0.1410214423607281
1589541119.6561167,-1.1733811155491576,-3.306332191155897,8.946188844508425,0.5222222222222223,0.1111111111111111,-0.72,-0.7517918330934085,-0.709527888728939,-1.209527888728939
1589541119.6661167,-1.1828502237753662,-3.2714008951014653,8.931304027956594,0.5222222222222223,0.1111111111111111,-0.7314008951014652,-0.7862332168475262,-0.6434193182514867,-1.303744405615842
1589541119.6761167,-1.1577280133116095,-3.2741824106492876,8.998683225292059,0.5222222222222223,0.1111111111111111,-0.76,-0.18949002495926787,0.30055985024439286,-0.9636400665580476
1589541119.6861167,-1.0965549291482555,-3.2560521103154048,8.86453755904312,0.5222222222222223,0.1111111111111111,-0.76,0.0126085631570928,1.0966402559804966,-0.6318280511960993
1589541119.6961167,-1.1749429767298978,-3.571379694339912,8.844942976729898,0.5222222222222223,0.1111111111111111,-0.76,0.4913769103755472,0.9295897012518239,-1.4001564779970816
1589541119.7061167,-1.22,-3.6145459700283515,8.89,0.5222222222222223,0.1111111111111111,-0.76,0.0653199675982179,0.05396921830700689,-3.3125708788983395
1589541119.7161167,-1.2230238943475005,-3.581617690439992,8.917215049127504,0.5202062926572218,0.10909518154611077,-0.7670557534775012,-0.5058019809843655,-0.017405942953096304,-6.3446683042501535
1589541119.7261167,-1.2052923009044783,-3.3782285462166337,8.96941098610192,0.5155555555555555,0.10444444444444444,-0.7833333333333333,-0.39706044562100157,0.3308791087579969,-9.253736487977058
1589541119.7361166,-1.1550252085221067,-3.2000504170442134,8.95,0.5155555555555555,0.10444444444444444,-0.7833333333333333,-0.4685924467368323,0.43655468042099393,-11.371848934736647
1589541119.7461166,-1.099582816272196,-3.157916337627761,8.748331265088783,0.5155555555555555,0.10444444444444444,-0.7833333333333333,0.10156866947947929,1.6276144491324653,-11.914061618645789
1589541119.7561166,-1.0361105930825112,-3.1666728830098667,8.591677545267267,0.5155555555555555,0.10444444444444444,-0.7833333333333333,0.25339775561097255,2.2047801691423614,-12.079896725577361
1589541119.7661166,-1.0898174706649284,-3.3396957844415476,8.919391568883094,0.5155555555555555,0.09646878168912067,-0.7917520884639528,-0.7994676227727076,0.7515210777922643,-13.222794437201216
1589541119.7761166,-1.1709261400128452,-3.4582414900449585,8.979542710340398,0.5155555555555555,0.08444444444444445,-0.8044444444444444,-0.9774325626204239,0.11342324983943482,-15.049751123956327
1589541119.7861166,-1.124765820521988,-3.3769360028602073,8.705659635323562,0.5155555555555555,0.08444444444444445,-0.8044444444444444,-0.875,0.5680863425098319,-16.5492045048266
1589541119.7961166,-1.1160461593132214,-3.3560461593132214,8.779115903267437,0.5155555555555555,0.08444444444444445,-0.8044444444444444,-1.1244166962799484,0.5636666074401032,-18.056391091701425
1589541119.8061166,-1.2277537534362444,-3.4755075068724888,8.923599598223726,0.5155555555555555,0.08444444444444445,-0.8044444444444444,-1.6175008370339043,-0.4063480210756326,-19.360960958976527
1589541119.8161166,-1.2942736307887504,-3.6085472615775007,9.211852400084585,0.5155555555555555,0.08444444444444445,-0.8044444444444444,-1.016974166490449,0.9332883978289983,-19.77671019242969
1589541119.8261166,-1.1763819263978539,-3.3511683711962443,8.622110822365663,0.5077777777777778,0.057777777777777775,-0.7955555555555556,0.5425564800067063,3.8251412000167657,-19.615028240003355
1589541119.8361166,-1.2026027672618849,-3.4013698951388656,9.126096016616971,0.5077777777777778,0.057777777777777775,-0.7955555555555556,0.2641273577004255,3.3082201246272906,-19.59332180307548
1589541119.8461165,-1.09,-3.249658394160584,8.655768613138685,0.5077777777777778,0.057777777777777775,-0.7955555555555556,-2.0253786496350363,-0.03806797445255472,-19.824121806569345
1589541119.8561165,-1.0934898676437599,-3.193758319000972,8.79590592985867,0.5077777777777778,0.057777777777777775,-0.7955555555555556,-1.0184560308083452,1.4865774321393854,-19.10989961115681
1589541119.8661165,-1.2078705523267967,-3.3172640799431368,8.993625245641175,0.509866738210385,0.05737346285533767,-0.7947469257106754,-1.691290452397876,1.0303236191830079,-18.479110047246728
1589541119.8761165,-1.0325015679223983,-3.133126646318518,8.756877116695238,0.5400691744133648,0.05152783004185773,-0.7830556600837155,-1.7460932600242505,1.4687460801940042,-17.27344827946649
1589541119.8861165,-1.0178932667151879,-3.1432507819108126,9.03128705470425,0.5422222222222223,0.05111111111111112,-0.7822222222222223,-0.7087111749316444,1.8546826130574188,-15.733257765013672
1589541119.8961165,-1.0703622753433848,-3.2703622753433845,9.171569859821334,0.5422222222222223,0.05111111111111112,-0.7822222222222223,-1.513349193178207,1.5277356025564068,-15.33240572366795
1589541119.9061165,-0.8735083679658542,-3.0867016735931707,8.449369875322926,0.5422222222222223,0.05111111111111112,-0.7822222222222223,0.7493436201280467,5.396927299786589,-14.12696913961586
1589541119.9161165,-0.8359212666378996,-3.08,8.667889600690412,0.536783911072755,0.04861855183427196,-0.7792764703495941,0.1867137451455505,4.116832492448634,-14.247095628505992
1589541119.9261165,-0.8159956299748055,-3.039956299748055,8.921860159193775,0.5155555555555555,0.03888888888888889,-0.7677777777777778,-3.0255735658067824,-1.2638110075583597,-17.113510568326237
1589541119.9361165,-0.8837861222088778,-3.0869898772028725,8.811164734429765,0.5155555555555555,0.03888888888888889,-0.7677777777777778,-3.6049765312875315,-3.0163836736194516,-19.283977548469323
1589541119.9461164,-1.0279028585324874,-3.2807417151194924,8.885549709283046,0.5155555555555555,0.03888888888888889,-0.7677777777777778,-2.891942829350253,-2.176628512369288,-20.759271438993654
1589541119.9561164,-1.0789087027502198,-3.321609946000251,8.78890870275022,0.5155555555555555,0.03888888888888889,-0.7677777777777778,-2.1318206078111266,-0.356665201557202,-20.86493783749843
1589541119.9661164,-1.1365493446950399,-3.39964803408512,8.8481866808688,0.5133724406572089,0.023789010841990973,-0.7639573267056711,-1.6794664358819988,0.8852333510860001,-19.937165690269996
1589541119.9761164,-1.163681928233296,-3.4863108445054745,8.876310844505475,0.5022222222222222,-0.05333333333333334,-0.7444444444444445,-1.0,0.9375,-17.0625
1589541119.9861164,-1.1182119755718571,-3.3877926137390237,8.777792613739024,0.5022222222222222,-0.05333333333333334,-0.7444444444444445,-1.0,0.9375,-17.0625
1589541119.9961164,-1.0995007459144233,-3.2668902149589747,8.882111276869873,0.5022222222222222,-0.05333333333333334,-0.7444444444444445,-0.9243045195633011,0.4375,-13.9850191988201
1589541120.0061164,-1.1634946090730318,-3.380657082796501,8.896332135349564,0.5022222222222222,-0.05333333333333334,-0.7444444444444445,-0.8354241540652336,0.4375,-9.674321472163829
1589541120.0161164,-1.07,-3.3842820577024737,8.95,0.5011104001088142,-0.05238034295041223,-0.7393618290688653,-0.4776642879002866,-0.13840142725982807,-6.169551442561834
1589541120.0261164,-1.0744910901467506,-3.301017819706499,8.929790094339621,0.4866666666666667,-0.04,-0.6733333333333333,-0.3278465670859539,-0.34056931341719077,-3.7791830450733754
1589541120.0361164,-1.09,-3.2953409013198387,8.862111741776653,0.4866666666666667,-0.04,-0.6733333333333333,-0.7597064555836696,-0.25272259454284346,-1.3831677836285303
1589541120.0461164,-1.09,-3.3813895917390413,8.869282465978253,0.4866666666666667,-0.04,-0.6733333333333333,-0.5804383505436641,0.37471577309717563,0.4991473192915272
1589541120.0561163,-1.0364115524788016,-3.37,8.826148013845394,0.4866666666666667,-0.04,-0.6733333333333333,0.017644405985019138,-0.3172833910224713,2.525564071571159
1589541120.0661163,-1.0210486603300186,-3.37,8.895281028514917,0.4866666666666667,-0.04,-0.6733333333333333,-0.1743917458747688,-0.6053376188121532,3.4377357929051517
1589541120.0761163,-0.989533882178555,-3.375813552871422,8.82906776435711,0.4666666666666667,0.04,-0.6611111111111111,-0.7412602908479058,-0.5886652945536126,4.513082647276806
1589541120.0861163,-0.9522241565614119,-3.375569095929883,8.76112078280706,0.4666666666666667,0.04,-0.6611111111111111,-0.00463365950294153,-0.7060346380117661,4.520797064473526
1589541120.0961163,-0.9776845070422535,-3.521374647887324,8.879160563380282,0.4666666666666667,0.04,-0.6611111111111111,-0.10591549295774648,-0.7059507042253521,3.8118661971830985
1589541120.1061163,-0.9709459959312002,-3.354324024412798,8.804324024412798,0.4666666666666667,0.04,-0.6611111111111111,-0.22043762714999077,-0.02027464398002589,3.193412474570002
1589541120.1161163,-0.9787031625670427,-3.3077810245977437,8.757781024597744,0.4666666666666667,0.04,-0.6611111111111111,0.02197383022008509,-0.6990267246162382,3.241894766044017
1589541120.1261163,-1.0490608936338475,-3.515815292605773,8.844958728746539,0.4666666666666667,0.06302029787794913,-0.6409683504679057,0.38622293890865955,0.1047149935745354,3.681630585211546
1589541120.1361163,-1.0358155916106055,-3.4561701622477248,8.641595567867036,0.4666666666666667,0.06666666666666668,-0.6377777777777778,-0.4647605856747131,-0.9749554808072813,3.4375
1589541120.1461163,-1.0690114760585676,-3.6055516422635536,9.164430747922438,0.4666666666666667,0.06666666666666668,-0.6377777777777778,-0.620366294024535,-1.5455097447566284,3.4375
1589541120.1561162,-1.0581668938768458,-3.4318331061231544,8.768153261266106,0.4666666666666667,0.06666666666666668,-0.6377777777777778,0.4364739540331407,0.00940482133599585,3.6760430867302856
1589541120.1661162,-1.0501134770837735,-3.4398865229162268,9.243304852057372,0.4666666666666667,0.06666666666666668,-0.6377777777777778,-0.11719845049058197,-1.0476061327547475,3.6257092317735835
1589541120.1761162,-1.08,-3.43,8.8,0.4933333333333334,0.08666666666666667,-0.6377777777777778,1.9375,1.5,4.9375
1589541120.1861162,-0.9199639921722114,-3.3499819960861057,8.654512720156555,0.4933333333333334,0.08666666666666667,-0.6377777777777778,0.8463454011741682,-0.09126712328767117,4.43738747553816
1589541120.1961162,-0.9429131851851852,-3.264724543209877,8.897105580246913,0.4933333333333334,0.08666666666666667,-0.6377777777777778,-0.469362962962963,-2.0262024691358027,2.9544814814814817
1589541120.2061162,-0.9301686500416888,-3.2200674600166757,8.701113090275145,0.4933333333333334,0.08666666666666667,-0.6377777777777778,1.4919891230197835,-0.3825892518759946,2.375
1589541120.2161162,-0.9895627501556524,-3.2572267188472828,8.796789469002935,0.4933333333333334,0.08666666666666667,-0.6377777777777778,0.6158654273770346,-0.9334007827092413,2.0957996086453794
1589541120.2261162,-0.9230242913900222,-3.186048582780044,8.9263906887449,0.5011111111111111,0.09888888888888887,-0.6322222222222222,0.4448127483134683,-0.7615890728741701,2.149696357624723
1589541120.2361162,-0.9330353821780359,-3.2176784607260123,8.843035382178035,0.5011111111111111,0.09888888888888887,-0.6322222222222222,1.1439711386127247,-0.19754810231212544,1.8794615181502996
1589541120.2461162,-0.9278247093632784,-3.2357468024136242,8.8932793607157,0.5011111111111111,0.09888888888888887,-0.6322222222222222,1.1485392446939868,-0.14042151061202618,1.7122565407823311
1589541120.2561162,-0.9843124576315377,-3.3252929290295667,9.121367002137978,0.5011111111111111,0.09888888888888887,-0.6322222222222222,1.8480471398028888,1.2524663333680972,1.8186279462376806
1589541120.2661161,-0.8968264066329457,-3.2432747562183866,8.738615529019137,0.5011111111111111,0.09888888888888887,-0.6322222222222222,2.3948349585440893,2.3118677321791727,1.8528021849090055
1589541120.2761161,-0.7314357227852776,-3.0512789791145214,8.628721020885479,0.5044618604078618,0.10760083706044068,-0.6496461185653258,0.488244224693283,-0.3926336629600753,0.5933383939928603
1589541120.2861161,-0.8359711649617205,-3.276748096931097,9.19160272209741,0.5066666666666667,0.11333333333333333,-0.6611111111111111,-1.307949538683011,-3.1529134948851616,-1.7457549021746244
1589541120.296116,-0.9794483036582186,-3.374374451741388,8.880753692595842,0.5066666666666667,0.11333333333333333,-0.6611111111111111,1.097999004243818,0.8103143744517414,-1.8137624765878755
1589541120.306116,-0.8512009303843956,-3.0732102342283523,8.89840651269077,0.5066666666666667,0.11333333333333333,-0.6611111111111111,0.007505814902472864,-0.7462470925487635,-0.9799360360727984
1589541120.316116,-0.8683163306945237,-3.2614796376397615,9.018214314861666,0.5066666666666667,0.11333333333333333,-0.6611111111111111,0.1144770668407737,-0.6927614665796131,0.19674773524851052
1589541120.326116,-0.9442624366268901,-3.3115565985521043,8.91147512674622,0.5133333333333333,0.12555555555555556,-0.6488888888888888,1.383964942770484,0.8573247138524209,1.6349833403440412
1589541120.336116,-0.9021603663154996,-3.480960889623356,8.940801831577499,0.5133333333333333,0.12555555555555556,-0.6488888888888888,1.4095013082696413,1.100501144735936,3.2224983646629486
1589541120.346116,-0.8010789781725539,-3.2354775184190596,8.435394890862769,0.5133333333333333,0.12555555555555556,-0.6488888888888888,1.048496350616264,0.7846218067892309,3.67375456172967
1589541120.356116,-0.8489486582526651,-3.458247763754442,9.028598211003553,0.5133333333333333,0.12555555555555556,-0.6488888888888888,-1.3114814360985174,-3.4014367111873547,3.305929114079157
1589541120.366116,-0.8232514397745374,-3.415419066290896,8.994335253032716,0.5133333333333333,0.12555555555555556,-0.6488888888888888,0.24105884695502988,-0.9923224788628846,3.145321498590859
1589541120.376116,-0.84,-3.3758451857598484,8.957800189638824,0.52,0.09888888888888887,-0.6533333333333333,0.2004837945004741,-0.681008102749763,3.5194756917507113
1589541120.386116,-0.84,-3.346921472286872,8.733641410223257,0.52,0.09888888888888887,-0.6533333333333333,0.2908703991035256,-0.6358148004482372,3.6550555986552884
1589541120.396116,-0.8820381823070718,-3.4234128798063996,8.914644393654209,0.52,0.09888888888888887,-0.6533333333333333,-0.5124403401452003,-1.5417660997579994,3.5749403401452002
1589541120.406116,-0.7696065894235272,-3.1894379848907533,8.979044574314281,0.52,0.09888888888888887,-0.6533333333333333,-0.6808260705776945,-1.244028589464253,3.747541183897045
1589541120.416116,-0.7098210104054247,-3.1040300148648923,8.833851025270318,0.52,0.09888888888888887,-0.6533333333333333,0.3333935734794029,-0.3365689079394816,3.373881315033904
1589541120.426116,-0.6761273552780931,-3.058169807037457,8.802042451759364,0.5615560852566528,0.06263783579265986,-0.6533333333333333,0.4005306469920545,-0.38643870601589103,1.6215209988649262
1589541120.436116,-0.63,-3.038926170199142,8.984476745426992,0.5722222222222222,0.05333333333333334,-0.6533333333333333,-0.10613967684787945,-0.8008326930054854,-2.583597468570575
1589541120.446116,-0.6282688672014716,-2.800247304685504,8.262612538960708,0.5722222222222222,0.05333333333333334,-0.6533333333333333,0.9675412600275919,0.23377063001379592,-4.190591308568801
1589541120.456116,-0.5011094671429477,-2.819305658303566,9.271388683392868,0.5722222222222222,0.05333333333333334,-0.6533333333333333,-1.5946225507810023,-1.0017451015620047,-4.723915949779121
1589541120.466116,-0.6429555494493882,-2.810440278159413,9.289119443681173,0.5722222222222222,0.05333333333333334,-0.6533333333333333,-1.2067621694743293,-0.2260243389486588,-8.380885259242037
1589541120.476116,-0.4869981018846943,-3.154254270759438,8.916242882067603,0.7444444444444445,-0.13666666666666666,-0.5822222222222222,1.261053166401442,1.253225837375616,-12.780953419483483
1589541120.486116,-0.5191648292654869,-3.0818791341526546,9.036868109745575,0.7444444444444445,-0.13666666666666666,-0.5822222222222222,-0.6991067833656075,-0.45563155472899153,-17.80700457273233
1589541120.496116,-0.5058755286450509,-3.117318758521874,8.621751057290101,0.7444444444444445,-0.13666666666666666,-0.5822222222222222,0.1501366388574334,1.551555891936863,-25.64556371472811
1589541120.506116,-0.6213510305697082,-3.22,8.809288298981011,0.7444444444444445,-0.13666666666666666,-0.5822222222222222,-0.8614294450555813,0.39724065684344606,-32.71328414485873
1589541120.516116,-0.8034796201945346,-3.22,8.803217345993517,0.7444444444444445,-0.13666666666666666,-0.5822222222222222,-1.2788074629458082,0.5869579377026402,-35.06577842751274
1589541120.526116,-0.7300082118661465,-3.0581030589201394,8.864758776431945,1.2715089304044345,-0.2760779214854353,-0.059654873514450535,-0.48814411825087256,1.092242352699651,-36.211314411825086
1589541120.536116,-0.622413530701357,-3.0064827061402712,8.961103763158372,1.3955555555555557,-0.3088888888888889,0.06333333333333334,-0.20775845668834816,1.1030169133766963,-37.28578012610295
1589541120.5461159,-0.5708502846224274,-3.181922296086939,8.779778273157916,1.3955555555555557,-0.3088888888888889,0.06333333333333334,-0.30718572110982845,1.6609286055491421,-41.821971657179255
1589541120.5561159,-0.6722112276064086,-3.343316841409613,8.799203207887546,1.3955555555555557,-0.3088888888888889,0.06333333333333334,-0.22123997535142087,1.596239975351421,-46.60863124475325
1589541120.5661159,-0.7174669523836028,-3.3327974285475745,8.996673809590071,1.3955555555555557,-0.3088888888888889,0.06333333333333334,-0.887526785962764,1.5158315476024824,-52.23265000139148
1589541120.5761158,-0.740366511627907,-3.099546046511628,8.835968372093024,1.0817604134366925,0.035833178294573664,-0.4141482170542636,-0.40368604651162787,2.0091627906976743,-54.19895348837209
1589541120.5861158,-0.8550268443030423,-3.0262567110757606,8.861283555378805,0.9333333333333332,0.1988888888888889,-0.64,-0.17190296281566914,1.3200748160668125,-52.64014963213363
1589541120.5961158,-0.7517240444564922,-2.867370561127677,8.769116291677962,0.9333333333333332,0.1988888888888889,-0.64,-0.3723061805367308,1.649515451341827,-48.771279479533746
1589541120.6061158,-0.7069754181928029,-2.928048559453234,8.970878299286335,0.9333333333333332,0.1988888888888889,-0.64,0.0893285315107805,1.4576213986330855,-43.33781104859721
1589541120.6161158,-0.8099205150473888,-3.0468313635162176,8.836257788014953,0.9333333333333332,0.1988888888888889,-0.64,0.4852712117207265,1.754578408790545,-40.021791101838915
1589541120.6261158,-0.4889986588165761,-2.8304005364733698,8.967797049396468,0.6177777777777778,0.21666666666666667,-0.6977777777777778,-0.9762181468936828,0.6912550294378396,-34.39619467618377
1589541120.6361158,-0.44132640767429704,-2.8494694369302813,8.862918096883453,0.6177777777777778,0.21666666666666667,-0.6977777777777778,0.15599781773544596,0.8700259712213863,-32.429714316564755
1589541120.6461158,-0.4694702353706425,-3.0169980004336407,8.761765882097858,0.6177777777777778,0.21666666666666667,-0.6977777777777778,0.4944816184441928,1.1819816184441927,-33.72571912115445
1589541120.6561158,-0.5684401500131381,-3.0396880300026274,8.612339774980292,0.6177777777777778,0.21666666666666667,-0.6977777777777778,-0.7920269689224375,1.1875,-34.8574516876478
1589541120.6661158,-0.6166540493206406,-3.0050094630095194,8.802447953447642,0.6177777777777778,0.21666666666666667,-0.6977777777777778,-0.3386698115872433,1.2968454280952515,-34.8021030479365
1589541120.6761158,-0.6712414028792345,-3.006551753599043,8.955931052159427,0.5699846212995002,0.22433717326194577,-0.7048582454041893,0.0,1.0099133880131572,-33.45560201204665
1589541120.6861157,-0.6561824933107628,-3.0553631300169277,8.885456233276907,0.5277777777777778,0.2311111111111111,-0.7111111111111111,-0.15851956260579914,0.634660145798067,-29.089268893682082
1589541120.6961157,-0.589858273589988,-3.0374468525962453,8.779787410384982,0.5277777777777778,0.2311111111111111,-0.7111111111111111,-0.3754428950312876,0.2960999336952468,-25.868799469561974
1589541120.7061157,-0.5511054357422122,-3.080385504687434,8.787789128515577,0.5277777777777778,0.2311111111111111,-0.7111111111111111,0.034864106444696674,0.3449547021482322,-23.18927092529533
1589541120.7161157,-0.5732449788222435,-3.1365959830577945,8.896436944937832,0.5277777777777778,0.2311111111111111,-0.7111111111111111,0.06316265883317393,0.47905622352780436,-20.670532176526848
1589541120.7261157,-0.583683224790363,-3.15,8.85788192227472,0.5284796416899596,0.24093720588165743,-0.7195334780572937,-0.1809395351806921,0.3420806197590772,-18.476745732771462
1589541120.7361157,-0.6061095803306485,-3.2631415147661436,8.679452098346758,0.5288888888888889,0.2466666666666667,-0.7244444444444444,0.5115294263105835,1.0659243853327682,-14.524487335735481
1589541120.7461157,-0.561324697033013,-3.245231926452152,8.451391558712912,0.5288888888888889,0.2466666666666667,-0.7244444444444444,1.1899811951525283,1.6655610112829085,-11.32451420810698
1589541120.7561157,-0.501390056129804,-3.2068340336778824,9.209418765144312,0.5288888888888889,0.2466666666666667,-0.7244444444444444,-0.8790966322117599,-0.8759585007514645,-8.58060224519216
1589541120.7661157,-0.5844500946343465,-3.3731585068296353,9.168778874877432,0.5288888888888889,0.2466666666666667,-0.7244444444444444,0.45440306250427565,-0.014946240850112869,-6.0097114222516135
1589541120.7761157,-0.55,-3.1718504326328802,9.044710754017306,0.4955555555555556,0.2288888888888889,-0.7111111111111111,1.4088766996291717,-0.9823624845488257,-2.6436959208899875
1589541120.7861156,-0.55,-3.194069927600212,8.741044322797105,0.4955555555555556,0.2288888888888889,-0.7111111111111111,2.5661420625110365,0.7303902525163342,0.13374095002648767
1589541120.7961156,-0.6539988726042841,-3.303998872604284,8.91999718151071,0.4955555555555556,0.2288888888888889,-0.7111111111111111,1.141685456595265,-1.0874753382187148,3.5291378945885006
1589541120.8061156,-22.444777368597254,-29.188115165718113,6.557388684298628,0.4955555555555556,0.2288888888888889,-0.7111111111111111,-23.596041178439908,-0.15833193839973214,-10.967588717777033
1589541120.8161156,-11.251066261436668,-8.914746889543167,7.631162820147528,0.4955555555555556,0.2288888888888889,-0.7111111111111111,-112.5073695270206,-21.498296371925157,-175.04706643555892
1589541120.8261156,-2.803048693867887,3.948896693236524,2.9109320495619917,0.4877877743578951,0.23030121274300897,-0.7026371679863906,-185.7606197222003,14.627545181911458,-390.906454699708
1589541120.8361156,-3.8382613829845664,-1.5558480254847038,9.189886032844509,0.4833333333333333,0.2311111111111111,-0.6977777777777778,-149.8441859586972,88.67264994232988,-374.97610122480364
1589541120.8461156,-2.09398741028828,-1.584400785854617,6.153739224569985,0.4833333333333333,0.2311111111111111,-0.6977777777777778,-71.14449099875706,64.66980574155006,-332.0874188083878
1589541120.8561156,-1.523762773511922,-0.9977299232145951,8.35456815426361,0.4833333333333333,0.2311111111111111,-0.6977777777777778,19.583949757519775,40.726094769355115,-278.6068807372553
1589541120.8661156,-1.035668016194332,-1.1298830409356726,8.819248762932974,0.4833333333333333,0.2311111111111111,-0.6977777777777778,89.77235155195682,24.14785762483131,-248.84553531264058
1589541120.8761156,0.04975501957317844,-2.167305215304963,13.221962789914551,0.4388888888888889,0.41,-0.6622222222222223,183.2089357873469,6.265363892747401,-212.17876573220525
1589541120.8861156,-0.5858252304583911,4.824077535042303,6.062857473586733,0.4388888888888889,0.41,-0.6622222222222223,238.82220766510923,14.596320295070926,-180.51009702403502
1589541120.8961155,1.4483575439974055,1.8031625215506208,11.641509311575032,0.4388888888888889,0.41,-0.6622222222222223,97.15822529573427,0.9147416912756263,-124.85356140006488
1589541120.9061155,0.6813650844860264,-0.8207484776384241,8.978759124087592,0.4388888888888889,0.41,-0.6622222222222223,-62.858546396741545,-1.814881840545227,-49.720674375932575
1589541120.9161155,2.0088977632640215,-6.8663879763145985,10.866952766903388,0.4388888888888889,0.41,-0.6622222222222223,-18.34797523262447,6.924465898137037,-41.93837787460902
1589541120.9261155,2.9509742547855624,-12.851449477794356,7.586518840671724,0.3540743680094812,0.42654917480573806,-0.7025608358112089,53.12558133075141,20.49615091584394,-26.76097782610076
1589541120.9361155,1.4204702753652458,-2.5211021342489737,6.185691779438497,0.3477777777777778,0.42777777777777776,-0.7055555555555556,33.28075767521713,14.702905137009358,11.18793341412509
1589541120.9461155,2.2759358288770053,-2.9566063348416294,9.894109419991773,0.3477777777777778,0.42777777777777776,-0.7055555555555556,-18.35630913204443,-15.08818387494858,45.99915158371041
1589541120.9561155,2.2186973223364594,-5.735250442511203,8.515734380296012,0.3477777777777778,0.42777777777777776,-0.7055555555555556,-5.835133977328365,-3.472346580424059,49.88621930666968
1589541120.9661155,1.7935028138259157,-5.2277757460633065,7.608701556924497,0.3477777777777778,0.42777777777777776,-0.7055555555555556,6.866129125317332,5.724867519394984,51.93671332706066
1589541120.9761155,1.5662968874700718,-3.655415003990423,8.421580207501995,0.3520164937483373,0.4314866542520173,-0.6986676421033963,3.6674730646448523,1.0942737430167595,51.10906324820431
1589541120.9861155,1.118010958597747,-4.169620921975902,8.524258197981606,0.3566666666666667,0.4355555555555555,-0.6911111111111111,-3.500789745883537,-2.6572799893768693,41.03574823180789
1589541120.9961154,0.9360080590741705,-4.201522162453968,8.643704667707791,0.3566666666666667,0.4355555555555555,-0.6911111111111111,1.8523820540999099,-0.25333906915765314,38.48919471918561
1589541121.0061154,0.8445213542346534,-4.127023697919757,8.766189583358056,0.3566666666666667,0.4355555555555555,-0.6911111111111111,3.282701823921015,-0.04614908803949258,37.20681315193013
1589541121.0161154,0.7350213008342332,-4.122046422765193,8.72637138212154,0.3566666666666667,0.4355555555555555,-0.6911111111111111,1.665087398687536,-0.854956300656232,35.77584654499282
1589541121.0261154,0.6247390672479851,-4.059089796098119,8.755682652926412,0.3566666666666667,0.4362806770305779,-0.6896608681610663,0.5241390320165588,-1.3234602765666974,34.79321519795658
1589541121.0361154,0.5139106883339939,-3.9556499757783943,8.833262518166205,0.3566666666666667,0.4375121034629556,-0.687198015296311,-0.28398456423129437,-1.5543527326375126,34.123627075351216
1589541121.0461154,0.40308230942000267,-3.852210155458669,8.910842383405997,0.3566666666666667,0.4387435298953333,-0.6847351624315556,-1.0921081604791474,-1.7852451887083278,33.45403895274585
