time,acc_x,acc_y,acc_z,mag_x,mag_y,mag_z,gyr_x,gyr_y,gyr_z
1589541321.7177682,-0.55,-4.2,8.78,0.5222222222222223,0.2088888888888889,-0.6255555555555555,-0.1875,-0.125,0.6875
1589541321.7277682,-0.6014027865737809,-4.251402786573781,8.716493033565547,0.5222222222222223,0.2088888888888889,-0.6255555555555555,-0.08041086130462319,-0.1027054306523116,1.4952402628245725
1589541321.7377682,-0.624193902526816,-4.293161219494637,8.692708048376646,0.5222222222222223,0.2088888888888889,-0.6255555555555555,-0.019757621841480097,-0.2995914620977611,2.0362881092074003
1589541321.7477682,-0.5859733530717987,-4.303019985196151,8.858053293856402,0.5222222222222223,0.2088888888888889,-0.6255555555555555,-0.043625092524056254,-0.8376665433012583,2.2940414507772022
1589541321.7577682,-0.55,-4.328567493112947,8.934297520661158,0.5242913988368534,0.2088888888888889,-0.6273063973063973,0.16081267217630854,-0.9908746556473829,2.669593663911846
1589541321.7677681,-0.546144849936593,-4.320642525010568,8.965782725095112,0.5366666666666666,0.2088888888888889,-0.6377777777777778,0.3629526560518529,-0.5745473439481471,2.554468437367902
1589541321.7777681,-0.47896296827902973,-4.337358021147313,9.002172862542462,0.5366666666666666,0.2088888888888889,-0.6377777777777778,0.09552473565858094,-0.5890432874025167,2.345524735658581
1589541321.7877681,-0.4663402577772331,-4.3436597422227665,8.92,0.5366666666666666,0.2088888888888889,-0.6377777777777778,-0.14175322221541353,-0.2134334722307331,1.929927027799906
1589541321.797768,-0.4856926783563111,-4.322409762191585,8.916204881095792,0.5366666666666666,0.2088888888888889,-0.6377777777777778,-0.3362194931512961,0.0,1.3038415205461116
1589541321.807768,-0.5065870535036873,-4.293412946496312,8.889761160511062,0.5321160713382497,0.21021614585967718,-0.6341752231427811,-0.41616908439804556,0.03199637340293163,0.9253417953931595
1589541321.817768,-0.49,-4.31,8.823453468186278,0.51,0.21666666666666667,-0.6166666666666667,-0.32973597063929355,0.2564438825571741,0.47632014680353235
1589541321.827768,-0.49310983062685526,-4.310621966125371,8.772536406495547,0.51,0.21666666666666667,-0.6166666666666667,-0.3555635585821547,0.4724855945521215,0.25
1589541321.837768,-0.5297284791339271,-4.3179456958267854,8.684651650078575,0.51,0.21666666666666667,-0.6166666666666667,-0.1266970054129562,0.8844453902566789,0.25
1589541321.847768,-0.5322049786289509,-4.31,8.716614935886854,0.51,0.21666666666666667,-0.6166666666666667,0.010335837323207309,0.9271641626767927,0.2396641626767927
1589541321.857768,-0.5629814906536055,-4.31,8.808944471960817,0.51,0.21666666666666667,-0.6166666666666667,0.15460073743877606,0.7828992625612239,0.09539926256122394
1589541321.867768,-0.5607773659778377,-4.298445268044325,8.884664195867026,0.5166666666666667,0.2088888888888889,-0.6166666666666667,0.2645756120844564,0.2930658505540581,0.22570731319257262
1589541321.877768,-0.568628331835879,-4.282743336328243,8.931769991015274,0.5166666666666667,0.2088888888888889,-0.6166666666666667,0.41178122192273137,0.09679170410302484,-0.019635369871218944
1589541321.887768,-0.5562808946877913,-4.262479403541472,8.873719105312208,0.5166666666666667,0.2088888888888889,-0.6166666666666667,0.25,-0.09349254426840634,0.11725186393289841
1589541321.897768,-0.5328272134203169,-4.278115191053122,8.897172786579683,0.5166666666666667,0.2088888888888889,-0.6166666666666667,0.25,-0.28893988816402605,0.06839002795899349
1589541321.907768,-0.5397201507286095,-4.250839547814172,8.938880602914438,0.5166666666666667,0.2088888888888889,-0.6166666666666667,0.18924905794619096,-0.37325094205380904,-0.05900188410761811
1589541321.917768,-0.54,-4.279029230356664,8.926440511307767,0.51,0.21666666666666667,-0.6166666666666667,-0.010112183784750156,-0.5483429427013498,0.0
1589541321.927768,-0.54,-4.2450523868000944,8.797735740600423,0.51,0.21666666666666667,-0.6166666666666667,-0.2970387087502939,-0.04769354375146971,0.06184516499882423
1589541321.937768,-0.5374455591849433,-4.235108881630114,8.735108881630113,0.51,0.21666666666666667,-0.6166666666666667,-0.23403474490589515,0.1875,0.21806948981179033
1589541321.947768,-0.5308543466554284,-4.249145653344572,8.758543466554283,0.51,0.21666666666666667,-0.6166666666666667,-0.18216033340357285,0.1981793331928543,0.15169833298213575
1589541321.957768,-0.54,-4.243302100346715,8.852476575260036,0.5105503500577858,0.21602459159924992,-0.618592891868917,-0.125,0.3176595317917419,0.4375
1589541321.967768,-0.5459569062099873,-4.285956906209988,8.887942541613317,0.5166666666666667,0.2088888888888889,-0.64,-0.11258977872919335,0.3998204425416133,0.47473066381241996
1589541321.977768,-0.57,-4.311698215251487,8.914339282495042,0.5166666666666667,0.2088888888888889,-0.64,-0.04481025779700739,0.49292410311880297,0.632075896881197
1589541321.987768,-0.57,-4.333831168831169,8.834393939393939,0.5166666666666667,0.2088888888888889,-0.64,0.2628517316017316,0.4264069264069264,0.7628517316017316
1589541321.997768,-0.5695746631868519,-4.309149326373704,8.889787331593427,0.5166666666666667,0.2088888888888889,-0.64,0.3151583550821754,0.6196832898356492,0.8138291775410876
1589541322.007768,-0.554782041334556,-4.279564082669111,8.88239102066728,0.5166666666666667,0.2088888888888889,-0.64,0.40761224165902515,0.4347755166819497,0.8600561208295125
1589541322.017768,-0.5401149265166818,-4.240344779550045,8.889885073483319,0.5166666666666667,0.2165772793759142,-0.6180331700370706,0.12859145364630492,-0.1192536741659121,0.998563418541478
1589541322.027768,-0.5073655523968239,-4.24,8.922634447603176,0.5166666666666667,0.21666666666666667,-0.6177777777777778,0.125,-0.17599132437996273,1.1529739731398883
1589541322.037768,-0.4793502704673919,-4.218700540934783,8.784548106728256,0.5166666666666667,0.21666666666666667,-0.6177777777777778,-0.13718242873640066,-0.17531757126359934,0.9537432383152009
1589541322.0477679,-0.47085273202455474,-4.20170546404911,8.844030875828116,0.5166666666666667,0.21666666666666667,-0.6177777777777778,-0.2965112745395977,-0.015988725460402337,1.1661816993861303
1589541322.0577679,-0.49185157736604906,-4.187869203805708,8.852498147220832,0.5163580704389918,0.21630663773437936,-0.6187035664608023,-0.32696544817225837,0.33160365548322485,1.3865723585378067
1589541322.0677679,-0.5254563845768653,-4.330689634451677,9.07933059589384,0.5107572692371891,0.20977236966560953,-0.6355059700662105,-0.5895030045067602,-0.45600901352028045,1.596602403605408
1589541322.0777678,-0.5717280645939837,-4.258271935406016,8.835807095684226,0.51,0.2088888888888889,-0.6377777777777778,-0.7237943480264168,-1.0725886960528337,2.681304440836387
1589541322.0877678,-0.5737788423934298,-4.2520737192021905,8.735552894016426,0.51,0.2088888888888889,-0.6377777777777778,-0.038882235041063744,0.3166766474384044,3.25
1589541322.0977678,-0.5267042444533916,-4.2744694963022605,8.871117374075565,0.51,0.2088888888888889,-0.6377777777777778,-0.3400820601385858,-0.13861488419402004,3.3058687037782626
1589541322.1077678,-0.5800072748435908,-4.31,8.880014549687182,0.510019399582909,0.20889454710057068,-0.6377583781948688,-0.0625454677724429,0.24977266113778554,3.749954532227557
1589541322.1177678,-0.5882935314449881,-4.304880594334964,8.894880594334964,0.5366666666666666,0.21666666666666667,-0.6111111111111112,-0.125,-0.0625,3.751492570812946
1589541322.1277678,-0.5863694592594483,-4.282547783703779,8.864904432592441,0.5366666666666666,0.21666666666666667,-0.6111111111111112,-0.14888547222293108,-0.1182327685201725,4.05453817592569
1589541322.1377678,-0.6255059742469355,-4.302996017168709,8.83,0.5366666666666666,0.21666666666666667,-0.6111111111111112,-0.36867532191330576,-0.5655378755655234,3.9812748926955646
1589541322.1477678,-0.6011780286918526,-4.319214647538765,8.83,0.5366666666666666,0.21666666666666667,-0.6111111111111112,-0.6727746413518425,-0.920320414910483,3.8799084528827192
1589541322.1577678,-0.6184254585744183,-4.277007263326357,8.836141819524807,0.5366666666666666,0.21666666666666667,-0.6111111111111112,-0.7258863720300381,-0.7839545118798473,3.683068139849809
1589541322.1677678,-0.6174284649776453,-4.218571162444113,8.890286140089419,0.5150156896837225,0.21666666666666667,-0.6201905530717006,-0.9071441877794337,-0.9232162816691505,3.208925577496274
1589541322.1777678,-0.6037286207437628,-4.1372862074376275,8.838472069668915,0.5022222222222222,0.21666666666666667,-0.6255555555555555,-0.804019398242586,-0.7097349168366547,3.195980601757414
1589541322.1877677,-0.6164571223537855,-4.108228561176893,8.79,0.5022222222222222,0.21666666666666667,-0.6255555555555555,-0.6360714926444205,-0.2428574632221026,3.8782135809113742
1589541322.1977677,-0.6127446328791295,-4.088233898637388,8.811766101362611,0.5022222222222222,0.21666666666666667,-0.6255555555555555,-0.7156920890108813,-0.32353813351632194,4.453460445054406
1589541322.2077677,-0.618067673297341,-4.112270693189364,8.860338366486705,0.5022222222222222,0.21666666666666667,-0.6255555555555555,-0.6491540837832376,-0.3245770418916188,5.381344371625718
1589541322.2177677,-0.5748886613770157,-4.12,8.877518556437165,0.5172593350965504,0.20747731991013285,-0.6188723942780764,-0.7189819554645508,-0.5944458663936524,5.844445866393652
1589541322.2277677,-0.5593026086036299,-4.154184348378221,8.862328694639928,0.5222222222222223,0.20444444444444448,-0.6166666666666667,-0.5319891264088047,-0.8706413037726863,5.309619556590296
1589541322.2377677,-0.5519048626911477,-4.198570823853114,8.780953489602624,0.5222222222222223,0.20444444444444448,-0.6166666666666667,-0.208337742737711,-0.824405391819673,4.6160808772950945
1589541322.2477677,-0.6008127058323595,-4.403657176245618,8.84040635291618,0.5222222222222223,0.20444444444444448,-0.6166666666666667,-0.10976176564325932,-0.6224602942738765,3.074205885477531
1589541322.2577677,-0.6156655688940826,-4.470495060023373,8.847832784447041,0.5222222222222223,0.20444444444444448,-0.6166666666666667,0.16872941676404973,-0.5760450972059917,2.145901944119834
1589541322.2677677,-0.6104895619877049,-4.49,8.85,0.5222222222222223,0.20444444444444448,-0.6113830899931695,0.30944023757684425,-0.2652988121157787,0.9833964363473361
1589541322.2777677,-0.6011701988201879,-4.481170198820188,8.841170198820187,0.5222222222222223,0.20444444444444448,-0.6111111111111112,0.4228725147476513,-0.3603725147476513,0.27526491151409216
1589541322.2877676,-0.5373930305814412,-4.321751214070088,8.766945301220632,0.5222222222222223,0.20444444444444448,-0.6111111111111112,0.2880596617010106,-0.5625,-1.0623759269589186
1589541322.2977676,-0.5236303976899855,-4.225412783829899,8.856402415015095,0.5222222222222223,0.20444444444444448,-0.6111111111111112,0.15903497834361466,-0.5625,-2.0515651660322876
1589541322.3077676,-0.529322525133593,-4.060162122996105,8.898645050267186,0.5222222222222223,0.20444444444444448,-0.6111111111111112,0.18326578208495609,-0.3294368716601757,-4.23527080880355
1589541322.3177676,-0.5729707964410191,-3.9554642478297577,8.925782477864612,0.5279516617476914,0.20444444444444448,-0.6158856440490021,0.026359513346178004,-0.258786504448726,-5.825264379884398
1589541322.3277676,-0.62730822612502,-3.94,8.93,0.5288888888888889,0.20444444444444448,-0.6166666666666667,-0.059135282656275025,-0.13172943468744996,-7.3043409357817755
1589541322.3377676,-0.64,-3.9,8.84,0.5288888888888889,0.20444444444444448,-0.6166666666666667,-0.375,-0.1875,-7.9375
1589541322.3477676,-0.6347421243941842,-3.894742124394184,8.84,0.5288888888888889,0.20444444444444448,-0.6166666666666667,-0.21069138731825524,0.04253205775444266,-8.003223445072697
1589541322.3577676,-0.6578778268584589,-3.9039389134292297,8.874847283573073,0.5288888888888889,0.20444444444444448,-0.6166666666666667,-0.10605910446634198,0.293559104466342,-7.888263582134632
1589541322.3677676,-0.6835036881958169,-3.948832103934728,8.901167896065273,0.5288888888888889,0.19111111111111112,-0.6255555555555555,-0.5291974016318065,0.2833025983681935,-6.97490779510458
1589541322.3777676,-0.7081234224891897,-3.9406255258369365,8.909374474163064,0.5288888888888889,0.19111111111111112,-0.6255555555555555,-0.7343618540765814,0.07813814592341858,-6.359414437770256
1589541322.3877676,-0.6539550147359285,-3.8909606378939374,8.853955014735929,0.5288888888888889,0.19111111111111112,-0.6255555555555555,-1.0564960131628909,0.1938554342126675,-6.00600398683711
1589541322.3977675,-0.5607394846606635,-3.8106338439948546,8.889366156005146,0.5288888888888889,0.19111111111111112,-0.6255555555555555,-1.55853847503216,0.5591987291934666,-5.627641016645227
1589541322.4077675,-0.4996107982775754,-3.69784862537264,8.915881086452467,0.5288888888888889,0.19111111111111112,-0.6255555555555555,-1.9938514408744616,0.5085810698906923,-5.355405349453461
1589541322.4177675,-0.4871541715859898,-3.4272333726879185,8.909430834317199,0.4955555555555556,0.21666666666666667,-0.6255555555555555,-1.6499009986225894,0.9339427144824872,-4.375990013774104
1589541322.4277675,-0.4445672853337843,-3.0454327146662155,8.894671500443918,0.4955555555555556,0.21666666666666667,-0.6255555555555555,-2.086287944446793,0.8274241111064136,0.3922745000634169
1589541322.4377675,-0.49776518834820105,-2.992234811651799,8.832607280260433,0.4955555555555556,0.21666666666666667,-0.6255555555555555,-2.363360355980214,0.27327928803957213,7.873229611465776
1589541322.4477675,-0.5084404999474845,-2.956238000210062,8.75403550047264,0.4955555555555556,0.21666666666666667,-0.6255555555555555,-1.2671843818926585,-0.013765623358890866,14.51787496061338
1589541322.4577675,-0.5726154444156517,-3.0394506348795023,8.901011142783105,0.4955555555555556,0.21666666666666667,-0.6255555555555555,-0.6711534724021767,-1.0129129955947138,22.228577675563617
1589541322.4677675,-0.57,-3.06,8.91,0.5022222222222222,0.2088888888888889,-0.6111111111111112,-0.5,-1.6875,30.0625
1589541322.4777675,-0.5640606788401088,-3.0718786423197826,8.898121357680218,0.5022222222222222,0.2088888888888889,-0.6111111111111112,-0.3143962137533995,-1.8359830289972805,33.84881723943065
1589541322.4877675,-0.5155392216516173,-3.154101297247305,8.845539221651617,0.5022222222222222,0.2088888888888889,-0.6111111111111112,0.04406655389782657,-1.9838133107795652,40.69832459172001
1589541322.4977674,-0.566571671629094,-3.216311820888597,8.866311820888598,0.5022222222222222,0.2088888888888889,-0.6111111111111112,0.049350373148756815,-2.189124067128108,44.45698880553729
1589541322.5077674,-0.6313479468359453,-3.24,8.93981187595054,0.5022222222222222,0.2088888888888889,-0.6111111111111112,-0.2668493354493156,-2.090125553792237,47.627545791178996
1589541322.5177674,-0.7215011885895404,-3.1705003961965135,8.97075059429477,0.5288888888888889,0.2088888888888889,-0.6044444444444445,-0.3687450475435816,-2.567191214342314,51.48133419175911
1589541322.5277674,-0.7713541996830429,-3.1871180665610144,8.995677099841522,0.5288888888888889,0.2088888888888889,-0.6044444444444445,-0.1610241679873217,-2.7229818740095086,55.01258914421553
1589541322.5377674,-0.826448285101822,-3.2736069131832797,8.851365487674169,0.5288888888888889,0.2088888888888889,-0.6044444444444445,-0.415301781886388,-3.0983621382636657,60.385949222936766
1589541322.5477674,-0.83,-3.3238252877665744,8.84,0.5288888888888889,0.2088888888888889,-0.6044444444444445,-0.5470632194164362,-3.289344829124654,65.13252877665745
1589541322.5577674,-0.8152606222546103,-3.3373696888726947,8.88421813323617,0.5288888888888889,0.2088888888888889,-0.6044444444444445,-0.654621110908686,-3.7270449990890873,69.20454165907573
1589541322.5677674,-0.791543512910424,-3.4322824354478803,8.863087025820848,0.5534975383416569,0.1863309602238515,-0.6352052562604045,-0.4567939113802997,-3.932676522154925,73.84041480714058
1589541322.5777674,-0.8218135716010625,-3.44,8.853637285679786,0.5555555555555556,0.18444444444444444,-0.6377777777777778,-0.1988982129920309,-3.857966070997344,75.99404733156243
1589541322.5877674,-0.8872104749512036,-3.463605237475602,8.842131587508133,0.5555555555555556,0.18444444444444444,-0.6377777777777778,-0.3083878903708523,-4.1075654684450225,78.04605156148341
1589541322.5977674,-0.8825316515944788,-3.47,8.82253165159448,0.5555555555555556,0.18444444444444444,-0.6377777777777778,-0.15664564493098523,-4.023734233698239,79.8409804854831
1589541322.6077673,-0.8875106125546008,-3.500042450218403,8.910127350655209,0.5555555555555556,0.18444444444444444,-0.6377777777777778,-0.07805867153374485,-4.09388265693251,80.81356125546009
1589541322.6177673,-0.9092872859053454,-3.490712714094655,8.920712714094655,0.5555555555555556,0.1630141267718385,-0.6299199946311556,-0.2634092281806808,-4.165181845636136,80.94195446309159
1589541322.6277673,-0.9769047441165484,-3.508452372058274,9.004841240194247,0.5555555555555556,0.1511111111111111,-0.6255555555555555,-0.375,-4.1875,79.80803604781472
1589541322.6377673,-0.9334794991876135,-3.3549316639587117,8.808411163146324,0.5555555555555556,0.1511111111111111,-0.6255555555555555,-0.375,-4.235958855012902,78.58698747969034
1589541322.6477673,-0.9376112002333381,-3.3452224004666764,8.899695201983375,0.5555555555555556,0.1511111111111111,-0.6255555555555555,-0.15485999708327255,-3.6996499927081814,76.26873997374945
1589541322.6577673,-1.0087118247468432,-3.449250413523218,8.950538588776375,0.5555555555555556,0.1511111111111111,-0.6255555555555555,-0.5067323597046839,-4.2453150845201115,73.90047202162424
1589541322.6677673,-0.9819846818788533,-3.3071448547638718,8.844763236509248,0.5555555555555556,0.13830702627880534,-0.6458286898733729,-0.26488511409140025,-3.2971361946227673,70.60915750333693
1589541322.6777673,-1.0229397488656748,-3.291412050226865,8.788472301361189,0.5555555555555556,0.13777777777777778,-0.6466666666666666,-0.0889759417537195,-3.3036746860820934,67.92361506805952
1589541322.6877673,-1.0638888221298277,-3.3577776442596554,8.788472205532456,0.5555555555555556,0.13777777777777778,-0.6466666666666666,-0.32725642288927875,-3.2065974308442886,64.95833834026293
1589541322.6977673,-1.1484446948172822,-3.37,8.842296463211522,0.5555555555555556,0.13777777777777778,-0.6466666666666666,-0.7018528950720093,-3.677779342608014,61.83070135691192
1589541322.7077672,-1.242691427779126,-3.3572782418801346,8.894526153419529,0.5555555555555556,0.13777777777777778,-0.6466666666666666,-0.5909780235016812,-3.5909780235016813,59.72801375264307
1589541322.7177672,-1.3058856319441812,-3.35,8.975599711804634,0.561733301311626,0.10688904899742561,-0.6581396230707974,-0.20214440104660425,-2.805003602442077,57.01250900610519
1589541322.7277672,-1.257040823725618,-3.244081647451236,8.831122471176855,0.5633333333333334,0.09888888888888887,-0.6611111111111111,-0.125,-2.625,56.5625
1589541322.7377672,-1.27594776119403,-3.2559477611940295,8.974335820895522,0.5633333333333334,0.09888888888888887,-0.6611111111111111,-0.3952891791044776,-2.8952891791044775,55.751632462686565
1589541322.7477672,-1.2920386959272703,-3.2720386959272703,9.042135435745447,0.5633333333333334,0.09888888888888887,-0.6611111111111111,-0.7008464734090379,-3.5018138715907954,53.781574686136736
1589541322.7577672,-1.2797655242048578,-3.1940034778706456,8.928358669434004,0.5633333333333334,0.09888888888888887,-0.6611111111111111,-0.8117672631401807,-3.4956035788410835,51.77209078925226
1589541322.7677672,-1.3089141363362156,-3.1534792322988583,8.94761221708336,0.5687682373706906,0.08439581145593612,-0.6641305022429762,-0.9877770516343812,-3.5326178028017963,50.18476439439641
1589541322.7777672,-1.3810191427232417,-3.2132643570424313,8.979187786149463,0.5733333333333334,0.07222222222222223,-0.6666666666666666,0.16958749414182184,-2.663314737373373,48.82145625292909
1589541322.7877672,-1.471152010906612,-3.307394473284044,8.868847989093387,0.5733333333333334,0.07222222222222223,-0.6666666666666666,0.28939227098736303,-2.3125,47.76666142310314
1589541322.7977672,-1.5859516129032258,-3.3673279569892474,8.885951612903225,0.5733333333333334,0.07222222222222223,-0.6666666666666666,-0.332997311827957,-2.770497311827957,46.883602150537634
1589541322.8077672,-1.5770204831028747,-3.2776573526880486,8.91,0.5733333333333334,0.07222222222222223,-0.6666666666666666,-0.17020483102874517,-2.690153623271559,47.07979516897125
1589541322.8177671,-1.6206728443536986,-3.313425160986336,8.940336422176848,0.5885015444217581,0.05199794077098931,-0.6717227370294749,0.2844039579079629,-1.8040894455787655,47.29740065965133
1589541322.8277671,-1.6477732389251996,-3.277814088598402,8.841174655047205,0.5933333333333334,0.045555555555555564,-0.6733333333333333,0.22925177015250545,-1.8539964596949892,47.11816902687001
1589541322.8377671,-1.642421933962264,-3.2827341981132077,8.93882712264151,0.5933333333333334,0.045555555555555564,-0.6733333333333333,-0.28612912735849055,-2.5532178655660376,46.9677741745283
1589541322.847767,-1.608927257566096,-3.243390886349144,8.816868102222005,0.5933333333333334,0.045555555555555564,-0.6733333333333333,-0.2918465198410752,-2.5072441997351254,46.40343723941728
1589541322.857767,-1.672393233041274,-3.2797703477158757,8.837868655976195,0.5933333333333334,0.045555555555555564,-0.6733333333333333,-0.2782786066567477,-2.2961069667162617,46.02377114674602
1589541322.867767,-1.747346484494934,-3.3281900521952714,8.90903361989561,0.5923023061440317,0.04508690683314571,-0.6740831712891892,-0.30722770187288917,-2.1408168943813326,45.72363850936445
1589541322.877767,-1.6533918502819211,-3.2289279001879474,8.85508777542288,0.5811111111111111,0.04,-0.6822222222222222,-0.5889988303275083,-3.1260971927860197,45.00810148158516
1589541322.887767,-1.7665048118985127,-3.2836504811898513,8.871437007874016,0.5811111111111111,0.04,-0.6822222222222222,-0.8224518810148731,-3.672695209973753,44.409708552055996
1589541322.897767,-1.862814851981937,-3.298203712995484,8.995333667837432,0.5811111111111111,0.04,-0.6822222222222222,0.01759282488710487,-2.4326392373306573,44.995139237330655
1589541322.907767,-1.9848717143361927,-3.436410160774229,9.13179482146012,0.5811111111111111,0.04,-0.6822222222222222,0.6458329243634794,-1.019231807385014,45.690704687776055
1589541322.917767,-1.9718605765544734,-3.4371459786858853,8.975010925400598,0.5811111111111111,0.030016462640667194,-0.6927930264850451,1.2714051598558613,0.3883440830330446,46.46604021314115
1589541322.927767,-1.9026949552725216,-3.343853214060058,8.983050447274783,0.5811111111111111,0.021111111111111112,-0.7022222222222222,0.7957999401416648,-0.3891914136543513,46.64908258787536
1589541322.937767,-1.827976271906031,-3.2135186451871594,8.917037290374319,0.5811111111111111,0.021111111111111112,-0.7022222222222222,0.1875,-1.2415677996084629,46.26521186640564
1589541322.947767,-1.8074427510544158,-3.058358734183766,8.688587729966104,0.5811111111111111,0.021111111111111112,-0.7022222222222222,-0.5102579113514633,-2.9856877636039023,45.72232805909903
1589541322.957767,-1.9168771448181194,-3.108016472203157,8.960631434454358,0.5811111111111111,0.021111111111111112,-0.7022222222222222,-0.789293067947838,-3.900051475634866,46.3876544269046
1589541322.967767,-1.9938070091214595,-3.1945175228036486,8.963605376860299,0.5811111111111111,0.01267349442577479,-0.7129610070944684,-0.20844335093614974,-2.29347695631301,48.25570091214594
1589541322.977767,-2.1035143926839748,-3.2488178972564907,8.867060700914504,0.5811111111111111,0.008888888888888889,-0.7177777777777777,-0.3014177867795986,-2.0256590253483093,49.481529644632666
1589541322.987767,-2.105323772874505,-3.181151130921071,8.771151130921071,0.5811111111111111,0.008888888888888889,-0.7177777777777777,-0.9271580244179286,-3.7221214805791645,51.09397407325378
1589541322.997767,-2.109049965483587,-3.169049965483587,9.056812111690352,0.5811111111111111,0.008888888888888889,-0.7177777777777777,-1.0342188578637912,-4.601952855340523,53.09460770311124
1589541323.007767,-2.203501563442866,-3.2134006253771465,9.040830727595223,0.5811111111111111,0.008888888888888889,-0.7177777777777777,-0.19977668367253643,-2.7391301863331323,55.051485042148954
1589541323.017767,-2.27,-3.2289446890908526,8.90236172272713,0.5761976395959344,-0.0027806059596558984,-0.7570855498991917,0.4375,-0.807473687498048,57.84579663637216
1589541323.027767,-2.3290768024333444,-3.22,8.958769069911126,0.5722222222222222,-0.012222222222222223,-0.7888888888888889,0.31442332826386576,-1.2794855876621833,61.690058991968066
1589541323.037767,-2.27069918567106,-3.1920934955222062,8.977674796417766,0.5722222222222222,-0.012222222222222223,-0.7888888888888889,-0.029065044777937976,-2.2107469589586337,64.88368905225109
1589541323.047767,-2.2217353614214566,-3.164566159644636,9.019772243909006,0.5722222222222222,-0.012222222222222223,-0.7888888888888889,-0.48773051554717994,-2.7608460088841027,67.63157558217794
1589541323.057767,-2.0626298101954843,-2.9589804515548823,8.85124343257443,0.5722222222222222,-0.012222222222222223,-0.7888888888888889,-0.4288351398684148,-2.468526648364652,69.79606368627822
1589541323.067767,-2.043035345320262,-2.8254229129115926,8.884379038994153,0.5577611211246416,-0.03692660326392247,-0.7684023290006496,-0.3177864113949092,-2.526432056974546,71.88433502220073
1589541323.077767,-2.143938753959873,-2.8230306230200632,8.823949313621965,0.5455555555555556,-0.057777777777777775,-0.7511111111111111,0.9753167898627244,-1.4621832101372756,75.1779303062302
1589541323.087767,-2.0946170752324598,-2.742463905325444,8.73,0.5455555555555556,-0.057777777777777775,-0.7511111111111111,-0.5143596787827556,-2.986474006762468,76.71344357565512
1589541323.0977669,-1.995301496736879,-2.6313791082105595,9.015647739262965,0.5455555555555556,-0.057777777777777775,-0.7511111111111111,-1.807649282894994,-4.079738852631991,78.47899243815702
1589541323.1077669,-1.7755906327852515,-2.38379591429995,8.913847533632287,0.5455555555555556,-0.057777777777777775,-0.7511111111111111,-0.05225087194818134,-3.6080132037867463,81.37915670154459
1589541323.1177669,-1.7683221197773902,-2.351767311792231,9.24816540687211,0.5419139955638004,-0.09200844170027657,-0.7642207270814297,-0.49846159703186865,-4.381850998144918,83.91442914693911
1589541323.1277668,-1.6787449596774193,-2.2810483870967744,9.056496975806452,0.54,-0.11,-0.7711111111111111,-0.8157762096774194,-3.139742943548387,86.11189516129032
1589541323.1377668,-1.658246331702979,-2.155261004891063,8.674029346376168,0.54,-0.11,-0.7711111111111111,-0.37855574699866607,-3.180388506002668,87.46356297243219
1589541323.1477668,-1.6497385559447957,-2.1672767027954762,8.971721251733948,0.54,-0.11,-0.7711111111111111,-1.4319175698869113,-4.957108304140315,88.44567012672513
1589541323.1577668,-1.863714393623154,-2.301857196811577,9.025771363826108,0.54,-0.11,-0.7711111111111111,-1.021249527898702,-3.3105345677539906,89.938482716123
1589541323.1677668,-1.9841224982658068,-2.32904272538088,8.808244996531613,0.5326625502773282,-0.14330073335674137,-0.7677245958544934,-1.5834403822932457,-4.0091350229941165,91.16073722477712
1589541323.1777668,-1.9235449885298366,-2.25063496558951,8.945290435866209,0.5255555555555556,-0.17555555555555555,-0.7644444444444445,-3.2784382168852133,-7.306876433770427,92.48643936390155
1589541323.1877668,-1.9522462576982926,-2.2335507484603414,8.705943410699804,0.5255555555555556,-0.17555555555555555,-0.7644444444444445,0.4904743901637185,-2.268136191290245,95.40035368312621
1589541323.1977668,-2.018199545272168,-2.257542597298382,8.851168115554367,0.5255555555555556,-0.17555555555555555,-0.7644444444444445,-1.0135365119700412,-2.8649658954125985,95.91286445098301
1589541323.2077668,-2.0162432130466317,-2.3353311641217633,9.407926181468921,0.5255555555555556,-0.17555555555555555,-0.7644444444444445,-3.1329397553756593,-3.64624046886332,96.00793975537566
1589541323.2177668,-1.8121980711947385,-2.1483776211401775,8.766030613147727,0.5192954912620469,-0.21311594131660783,-0.7595755055494933,-0.3074678532456425,-2.162615757808122,96.27337459816557
1589541323.2277668,-1.9158324014371029,-2.177096052725499,9.132065954460016,0.5155555555555555,-0.23555555555555555,-0.7566666666666667,-1.5270363915391756,-5.541313735753884,93.9437263556116
1589541323.2377667,-1.8786547582680835,-2.113963856777658,9.21101869865106,0.5155555555555555,-0.23555555555555555,-0.7566666666666667,-3.6665896265093174,-5.490911941090406,92.02863783623005
1589541323.2477667,-1.7202516662417597,-1.9275055541391994,8.755766107003678,0.5155555555555555,-0.23555555555555555,-0.7566666666666667,-2.754996448992971,-3.9264896019230067,90.30949302545798
1589541323.2577667,-1.6317622071837585,-1.8112587194169705,8.647734305049454,0.5155555555555555,-0.23555555555555555,-0.7566666666666667,1.1523165018219677,-3.5939679854242583,87.4736881832379
1589541323.2677667,-1.527057705105048,-1.73254808758754,8.904711474474759,0.4868835581469862,-0.25751708548552354,-0.7731378141141426,-2.496452847228824,-3.6850956206229997,84.11268102164337
1589541323.2777667,-1.643345794832005,-1.7751571794690932,9.189861512778913,0.4633333333333333,-0.27555555555555555,-0.7866666666666666,-4.2811331734499545,-5.912027403540947,81.54441907079541
1589541323.2877667,-1.961770175861238,-1.8426716453866538,9.119710431221392,0.4633333333333333,-0.27555555555555555,-0.7866666666666666,0.23557877619850665,-1.6809323054685619,80.87748132980005
1589541323.2977667,-1.795649269048716,-1.7099388430444435,8.45707012105726,0.4633333333333333,-0.27555555555555555,-0.7866666666666666,1.997493245507477,1.127506754492523,79.80247298202991
1589541323.3077667,-1.7445664739884394,-1.6801734104046244,8.498381502890172,0.4633333333333333,-0.27555555555555555,-0.7866666666666666,-0.9830202312138727,-2.4060693641618496,77.58562138728324
1589541323.3177667,-1.7956592171204118,-1.7044743329269945,8.883422998780983,0.4271493972639848,-0.3040641112465574,-0.7515792135085105,-3.4556023973994314,-5.629126032778004,75.35690945415143
1589541323.3277667,-1.5074752294608023,-1.6022948887080024,8.803408650742414,0.3533333333333333,-0.3622222222222222,-0.68,-0.2055340752799843,-2.294465924720016,73.64221657731495
1589541323.3377666,-1.555004788966222,-1.665002873379733,9.115031607177063,0.3533333333333333,-0.3622222222222222,-0.68,-1.4684087861566948,-4.0935045654811315,70.53157924142775
1589541323.3477666,-1.6759713959145395,-1.6391873040063303,9.139222179889218,0.3533333333333333,-0.3622222222222222,-0.68,-2.033571700712171,-4.158571700712171,67.96775812549457
1589541323.3577666,-1.7000618717712548,-1.5563613791998718,9.157982659885468,0.3533333333333333,-0.3622222222222222,-0.68,-0.5726330042849705,-2.105894087141084,66.13227093428377
1589541323.3677666,-1.735340481756276,-1.5689180811058034,9.076422400650472,0.3708706846901785,-0.357064177705503,-0.6660732798048583,0.47982200935054375,-1.6227100060981807,64.13852398617746
1589541323.3777666,-1.6249246649055864,-1.5885789061735642,9.119796986596224,0.3911111111111111,-0.3511111111111111,-0.65,-0.6311805963212991,-4.420678015849721,60.768090817923884
1589541323.3877666,-1.4828624203243046,-1.4967730018622538,8.950729155626883,0.3911111111111111,-0.3511111111111111,-0.65,-2.2923312616390863,-5.339219745946192,57.0903590516132
1589541323.3977666,-1.6797212675437931,-1.4523210041030143,8.645915456706385,0.3911111111111111,-0.3511111111111111,-0.65,-2.01450627564384,-2.8784841557025844,54.15335205680631
1589541323.4077666,-1.5189948950268772,-1.4858849183542377,9.251179891138984,0.3911111111111111,-0.3511111111111111,-0.65,-1.5451566144900097,-5.034595912640725,48.64175174955205
1589541323.4177666,-1.7104247946178033,-1.6347748402582913,9.449699787011056,0.3911111111111111,-0.3511111111111111,-0.65,-0.880469463132628,-1.090785481253592,45.45125342303661
1589541323.4277666,-1.606744240020255,-1.4004983542915013,8.410731074352265,0.3922222222222223,-0.3466666666666667,-0.6444444444444445,1.570389642585872,0.4204033568233606,37.23615521352013
1589541323.4377666,-1.7739683551024743,-1.446984177551237,8.969947258504124,0.3922222222222223,-0.3466666666666667,-0.6444444444444445,-0.7751318537396906,-2.4884229761778345,29.90841253406959
1589541323.4477665,-1.6900820397329686,-1.4266484356148958,8.936511702726616,0.3922222222222223,-0.3466666666666667,-0.6444444444444445,-0.6052491353655594,-2.9405764899863267,20.9637456768278
1589541323.4577665,-1.691153544849197,-1.4082001566784175,8.864093223658442,0.3922222222222223,-0.3466666666666667,-0.6444444444444445,0.3250954759106933,-0.6110580689385037,15.54760330983157
1589541323.4677665,-1.9308981628032775,-1.3758682106865947,8.595388976819665,0.4038655927981355,-0.3426746538977821,-0.6417831025985214,-0.466316390519504,-2.3585313445394984,9.28480681385611
1589541323.4777665,-2.0903855062872267,-1.5617314692256783,9.37923229649239,0.4311111111111111,-0.3333333333333333,-0.6355555555555555,-2.735564195896757,-6.3148887326273995,3.9711283917935143
1589541323.4877665,-2.1379714384033037,-1.5690519614590501,9.199989676531315,0.4311111111111111,-0.3333333333333333,-0.6355555555555555,0.5203243289745354,-2.053133602890571,-0.4122075017205782
1589541323.4977665,-2.179281767955801,-1.5720153735287052,9.513605572904156,0.4311111111111111,-0.3333333333333333,-0.6355555555555555,1.3484566418448236,-0.5634158059092,-4.0944481143406195
1589541323.5077665,-1.8680305704808644,-1.5237481814831337,9.172128101177428,0.4311111111111111,-0.3333333333333333,-0.6355555555555555,-0.2779021104494404,-0.7287754834830174,-9.198689940449635
1589541323.5177665,-1.5250590034965035,-1.409512674825175,8.428605769230769,0.4357609751359751,-0.33891317016317013,-0.6355555555555555,-1.4894968312937062,0.004725743006992911,-14.744960118006993
1589541323.5277665,-1.7222613419882875,-1.503549001622804,9.371620687222183,0.44222222222222224,-0.3466666666666667,-0.6355555555555555,-1.205716855993791,-0.955677167854371,-20.798287236294364
1589541323.5377665,-1.447511076361741,-1.6628563982277822,9.441998957518894,0.44222222222222224,-0.3466666666666667,-0.6355555555555555,0.09719507427677876,-0.25,-26.518862392494135
1589541323.5477664,-1.0297134742943843,-2.104670972008792,9.080894201404423,0.44222222222222224,-0.3466666666666667,-0.6355555555555555,0.6735870664669611,2.1066593398043145,-34.70235756385069
1589541323.5577664,-0.6742785243605044,-2.408176723914284,8.316988273750843,0.44222222222222224,-0.3466666666666667,-0.6355555555555555,2.1577530742489492,5.982277668240544,-47.1525450111555
1589541323.5677664,-0.7913061447760287,-1.9791326809700358,9.287266759861424,0.44533479203387427,-0.3376119181236789,-0.6338577902037453,0.6936766851030207,4.154090439433538,-67.8712848720598
1589541323.5777664,-1.028161736008118,-2.1112606353914605,9.054879400515182,0.4544444444444444,-0.3111111111111111,-0.6288888888888889,-2.495306767621575,2.695442393255796,-91.67541565841854
1589541323.5877664,-1.2605945775960825,-1.6578853972461196,8.641783732788246,0.4544444444444444,-0.3111111111111111,-0.6288888888888889,1.9860944203598465,6.438878624856803,-114.19437768143939
1589541323.5977664,-1.2935090671860523,-1.7736060737855266,9.105048503299736,0.4544444444444444,-0.3111111111111111,-0.6288888888888889,0.5875245825690674,2.4852646408108465,-122.82804374751811
1589541323.6077664,-1.1520321972078984,-2.020150924412024,9.260020123254936,0.4544444444444444,-0.3111111111111111,-0.6288888888888889,-3.7869717645579173,0.3516098603949187,-130.36405955225757
1589541323.6177664,-1.078387789507486,-2.5690878256332037,8.95714044876169,0.46236411601261274,-0.31246876909422566,-0.6331881391687517,0.15806632079637128,8.010076315578212,-138.255329797696
1589541323.6277664,-0.30659639691672036,-2.3896139236288514,7.609870493369171,0.4933333333333334,-0.31777777777777777,-0.65,6.991522647000022,12.579168702934448,-145.83997989648356
1589541323.6377664,-0.6140622431525868,-2.7529826509985114,10.386380256347602,0.4933333333333334,-0.31777777777777777,-0.65,-0.11280183041961855,5.940701568296422,-163.71725542572807
1589541323.6477664,-1.283024021059559,-2.471543636430112,8.59688311213484,0.4933333333333334,-0.31777777777777777,-0.65,-0.4940952798800775,11.26731883660561,-185.74016717853095
1589541323.6577663,-1.8362464715208229,-2.8977077452534705,9.7453433741928,0.4933333333333334,-0.31777777777777777,-0.65,-0.392011619813619,7.801309162445381,-201.02516458180273
1589541323.6677663,-1.9643557830640033,-2.8386580347284958,8.63457860751447,0.5001278062163338,-0.3400485500053903,-0.6428280564012774,2.203076382615678,11.903756398675098,-207.29998912643447
1589541323.6777663,-1.9631483367087756,-2.826731042508196,7.9213390249633555,0.5133333333333333,-0.38333333333333336,-0.6288888888888889,2.7719387441116243,13.896561804164662,-211.1200997806895
1589541323.6877663,-1.7613436125812623,-3.0660808315896655,8.282710275145181,0.5133333333333333,-0.38333333333333336,-0.6288888888888889,0.8066892504279912,12.04864063846214,-212.64536804444396
1589541323.6977663,-2.0156174629827506,-3.468920775454129,8.777154632880476,0.5133333333333333,-0.38333333333333336,-0.6288888888888889,1.243254846588307,11.461723401007479,-213.7676308960464
1589541323.7077663,-2.6719025056812273,-3.872437357969314,9.168679727301082,0.5133333333333333,-0.38333333333333336,-0.6288888888888889,3.3609510300473806,12.327437357969314,-213.68504556121616
1589541323.7177663,-2.678132250063125,-3.716693748421881,8.869651996970012,0.5133333333333333,-0.38333333333333336,-0.6288888888888889,1.0637327892227488,12.171693748421882,-212.2444171729024
1589541323.7277663,-2.4790030674846624,-3.5519938650306746,9.154049079754602,0.86,-0.9633333333333334,-0.14888888888888888,-1.5223830521472392,8.768884202453988,-203.71434049079755
1589541323.7377663,-2.4735506107147174,-3.5737392671423387,8.75785584713992,0.86,-0.9633333333333334,-0.14888888888888888,1.4556173660660296,7.869746946426412,-189.11116821864798
1589541323.7477663,-2.494036882009161,-3.5516642315589952,8.57043180382246,0.86,-0.9633333333333334,-0.14888888888888888,0.6579331859105986,7.324054010030011,-178.98920490443848
1589541323.7577662,-2.378099036487127,-3.7090084504817566,9.009339361870161,0.86,-0.9633333333333334,-0.14888888888888888,-1.8264492181329963,4.684397705733691,-168.01651595324594
1589541323.7677662,-2.740375626658803,-4.179301828369213,8.782187407844294,0.8705130820144827,-0.8306304679052394,-0.2450935073233068,3.008893025656149,10.540184495723976,-150.2103960852256
1589541323.7777662,-2.4388832571512826,-3.916462326747272,8.055513491595399,0.9160375708574985,-0.2559911653396244,-0.6616855278678856,3.5886860439398407,10.443552326010026,-140.83707562297258
1589541323.7877662,-2.5475581288484515,-4.310139509236283,9.211534601599118,0.9188888888888888,-0.22,-0.6877777777777778,-3.4747082069662714,0.7896815550041356,-129.51307899090156
1589541323.7977662,-2.492139789990257,-4.211458160430123,8.23591888283477,0.9188888888888888,-0.22,-0.6877777777777778,0.542439468841338,5.551552971529607,-120.62570138563129
1589541323.8077662,-1.9412904076787272,-3.913032326142982,8.788405405953855,0.9188888888888888,-0.22,-0.6877777777777778,2.4162460175734086,5.754322327969318,-107.65772058077478
1589541323.8177662,-1.8089068322981365,-3.8214813664596274,8.956838509316771,0.8484844720496894,-0.16527156659765355,-0.6877777777777778,-2.09902950310559,0.8192740683229813,-101.06504270186335
1589541323.8277662,-2.143753310872375,-4.205066217447503,8.621445341470134,0.6344444444444445,0.0011111111111111113,-0.6877777777777778,0.6259932617125421,4.743284226474265,-92.39564395143347
1589541323.8377662,-2.1081551692967277,-4.268842170510602,9.041501330096336,0.6344444444444445,0.0011111111111111113,-0.6877777777777778,0.95093655569617,5.04214177793848,-84.99252305069862
1589541323.8477662,-2.002459887068821,-4.1546167607759825,9.038912618102533,0.6344444444444445,0.0011111111111111113,-0.6877777777777778,-0.9787205791915916,2.4087570581986917,-78.54500824621233
1589541323.8577662,-1.9182739844192251,-4.151483677925439,8.814935709086988,0.6344444444444445,0.0011111111111111113,-0.6877777777777778,2.163070800873386,4.848520432919104,-73.31767225112543
1589541323.8677661,-1.5348366990775368,-3.790441286462229,9.148243580154574,0.6268745671625253,0.016006676085210114,-0.6987663093160476,0.6408314634754426,2.293302792321117,-68.63807342308651
1589541323.8777661,-1.3986608806772802,-3.6698434588147597,8.878104467280762,0.6,0.06888888888888889,-0.7377777777777778,-1.1244575634950216,0.9621725413982214,-65.73076180714551
1589541323.8877661,-1.3998224030161723,-3.8035027284452823,8.64455600754043,0.6,0.06888888888888889,-0.7377777777777778,1.24563696795317,3.213908869927572,-63.16338798491914
1589541323.897766,-1.4738393508654155,-4.009598377163539,8.810401622836462,0.6,0.06888888888888889,-0.7377777777777778,0.5839858001809638,0.6314249438136657,-62.6085344852748
1589541323.907766,-1.4511174738219896,-3.9929722949389177,8.860725894415356,0.6,0.06888888888888889,-0.7377777777777778,1.018505262870855,2.9536294720767886,-61.60419052683246
1589541323.917766,-1.3505373122075364,-3.845193333880634,9.137888925375584,0.5997821744246504,0.06910671446423848,-0.7374238112178346,1.272973791150152,4.294415996223627,-61.20128427469009
1589541323.927766,-1.720693498070766,-4.378906904195058,9.766293613003858,0.5921303669649455,0.07675852192394349,-0.7249896240958141,2.080000359165914,5.8546673610541005,-61.68550021549955
1589541323.937766,-1.1161154413313672,-3.544173161997051,8.795878449547082,0.5911111111111111,0.07777777777777778,-0.7233333333333334,3.022803876132294,8.519854645038972,-62.35449362755425
1589541323.947766,-1.3040045327398575,-3.671115829879331,10.286343794025768,0.5911111111111111,0.07777777777777778,-0.7233333333333334,-1.8394399411968885,-5.6704014129081,-66.20404986013843
1589541323.957766,-1.195763146541393,-4.333890992761613,8.12909759838934,0.5911111111111111,0.07777777777777778,-0.7233333333333334,1.3342031781793777,-0.31379877522649924,-67.87890531374335
1589541323.967766,1.3002303871701275,-4.6031757524983545,7.0609616420321935,0.5829256178565018,0.08748615349836103,-0.719335766860152,-2.277104152953145,5.474941655197176,-102.87185461671953
1589541323.977766,2.307914276874747,12.963833027915943,-2.351580475499179,0.5433333333333333,0.13444444444444445,-0.7,-62.55019752968895,18.662959018539233,-296.22845766201004
1589541323.987766,-1.3061230756109001,-2.0011516482579212,-1.0838769243890995,0.5433333333333333,0.13444444444444445,-0.7,-101.03684458825536,43.2123784596358,-328.74258630432
1589541323.997766,-2.221167476020388,-1.9168475338122566,0.48028574868563634,0.5433333333333333,0.13444444444444445,-0.7,-98.98587560701529,-15.771330818316812,-340.9408235341333
1589541324.007766,-3.2140753996659512,-1.3141923168694822,4.365058458601766,0.5433333333333333,0.13444444444444445,-0.7,-94.41885886423287,9.779907838224768,-305.58778483655453
1589541324.017766,-2.2649813823281604,-0.863587367162232,4.985794036909194,0.5426771698722885,0.13911960910438884,-0.6992618161063245,70.76659622754329,51.25539334927839,-241.11827827304106
1589541324.027766,1.145356217436126,-0.5069777938759019,14.867975258421332,0.5255555555555556,0.2611111111111111,-0.68,129.23667144966706,15.588821013624585,-179.93992574740184
1589541324.037766,-0.456135339997803,3.4291178732286056,6.003562561792815,0.5255555555555556,0.2611111111111111,-0.68,121.84176919696804,26.85839833022081,-129.02839723168188
1589541324.047766,2.3756113701308466,-0.8049405925703114,9.035927207098812,0.5255555555555556,0.2611111111111111,-0.68,-14.624530004511957,-6.331779214919537,-69.79048541134006
1589541324.057766,0.9606971842514529,-0.7877705246787263,7.675969550626176,0.5255555555555556,0.2611111111111111,-0.68,-33.38044579274781,-11.143336385773921,-31.88893422075796
1589541324.067766,1.6479342525136975,-1.3899777229213077,10.192982720211933,0.5196412253062263,0.2655124731571237,-0.6833010215345094,12.582869227527244,17.85495815521705,-29.81949169125173
1589541324.077766,0.39793832853025934,-2.3198651296829973,9.00905590778098,0.4777777777777778,0.2966666666666667,-0.7066666666666667,21.992770172910664,6.667146974063401,-34.505659221902015
1589541324.087766,0.2953326684712922,-2.3437768912950565,9.121986037897138,0.4777777777777778,0.2966666666666667,-0.7066666666666667,-7.9583541102721185,-2.4971862088616614,-28.724159424419433
1589541324.097766,0.2285546991695047,-2.4111587102427756,8.227057019378224,0.4777777777777778,0.2966666666666667,-0.7066666666666667,-6.230065374121208,1.16764254844556,-15.191448338013583
1589541324.107766,0.17370365284262565,-2.9989813924745947,9.351904696511946,0.4777777777777778,0.2966666666666667,-0.7066666666666667,8.281496755698983,3.887565229332601,-9.224618494232354
1589541324.117766,-0.02789000274649825,-2.646192495193628,9.092712853611644,0.4777777777777778,0.2966666666666667,-0.7066666666666667,3.2866539498077456,0.28767852238396063,-4.409770023688547
1589541324.127766,-0.08,-2.431689189189189,8.914797297297296,0.4533333333333333,0.3288888888888889,-0.68,-1.8760557432432432,0.13555743243243243,5.499577702702703
1589541324.137766,-0.08,-2.446683826683827,8.77984555984556,0.4533333333333333,0.3288888888888889,-0.68,0.8885805448305448,0.22927391677391679,12.153448090948093
1589541324.1477659,-0.33529093670135934,-2.4633423460128157,8.64962109707767,0.4533333333333333,0.3288888888888889,-0.68,-0.4424052742694174,-1.0844892403422348,20.70872763806067
1589541324.1577659,-0.2886858772547132,-2.5953900144449795,8.84380884477203,0.4533333333333333,0.3288888888888889,-0.68,-0.49095221119300714,-0.06500356494684989,26.485813131967852
1589541324.1677659,-0.35146294744403206,-2.8329258948880645,8.958777684664192,0.4529269590433244,0.33018928661691743,-0.6793498011359858,2.2972809170357955,-0.3627888183886029,37.336682928289235
1589541324.1777658,-0.37,-2.87,9.07,0.4477777777777778,0.3466666666666667,-0.6711111111111111,1.3125,-1.0,45.5625
1589541324.1877658,10.000189582917582,-35.20802279429699,8.886621876316548,0.4477777777777778,0.3466666666666667,-0.6711111111111111,-0.48078532783432004,-0.81303770593583,56.48149903545533
1589541324.1977658,3.555146677309917,-2.350394243774808,5.994257744074148,0.4477777777777778,0.3466666666666667,-0.6711111111111111,-9.839117829663628,-0.9292902835983059,133.55695802567686
1589541324.2077658,2.7331036955586367,-5.922743223215567,11.746880527800354,0.4477777777777778,0.3466666666666667,-0.6711111111111111,-7.499569727972463,-38.196843476597984,113.93006286752403
1589541324.2177658,-2.2297013903361216,-2.236107058858555,7.05765399386704,0.4483905776031174,0.3463725227505037,-0.6714297670202877,24.669996129685313,21.89886011789574,67.97282778588229
1589541324.2277658,-0.0590827396548364,-4.299694246551613,10.088390247071306,0.4755555555555556,0.3333333333333333,-0.6855555555555556,0.5365328814880579,-0.32711369394339673,35.02517945691951
1589541324.2377658,-0.33122854740590535,-4.376396706068549,8.423212077748653,0.4755555555555556,0.3333333333333333,-0.6855555555555556,-13.568119714130273,-13.852865806914288,16.295427568128986
1589541324.2477658,-0.540958177029292,-4.339844361082289,8.518730545135286,0.4755555555555556,0.3333333333333333,-0.6855555555555556,1.6507477651847713,2.6708112179742995,-0.47911595099369464
1589541324.2577658,-0.4154204246148934,-4.272890893127943,8.510361361640992,0.4755555555555556,0.3333333333333333,-0.6855555555555556,2.6445883051320935,-1.147628751296991,-1.5775712846196823
1589541324.2677658,-0.23295747308981826,-4.510777836597847,8.814513146285512,0.4755555555555556,0.3333333333333333,-0.6855555555555556,-0.5435261161108169,-0.2945054702664549,-0.42996294335627305
1589541324.2777658,-0.16937903791486691,-4.272354635064791,8.996274227489202,0.4963978620330376,0.30519621958873255,-0.6855555555555556,-0.7612392476095544,-1.1646177132942002,-0.11335696090375455
1589541324.2877657,-0.39450227853942743,-4.25,8.806463552983253,0.4977777777777778,0.3033333333333333,-0.6855555555555556,1.2962485819216645,0.6369803584132907,0.0201523352625608
1589541324.2977657,-0.2501598279285242,-4.4698325612177365,8.730015221707479,0.4977777777777778,0.3033333333333333,-0.6855555555555556,-1.1227167438782262,-0.9983351257445401,0.0625
1589541324.3077657,-0.29355701792362976,-4.433702485063642,8.751778508961815,0.4977777777777778,0.3033333333333333,-0.6855555555555556,-1.3064875746817906,-0.5009091696250758,0.0625
1589541324.3177657,-0.25382362882163156,-4.33974804117376,8.880377938239361,0.4977777777777778,0.3033333333333333,-0.6855555555555556,0.3303541250576125,-0.1118701029343985,0.11265747426640038
1589541324.3277657,-0.2480169747861222,-4.328016974786122,8.918016974786122,0.501340877682721,0.3095687581669839,-0.6739754808644901,0.9504243696530552,0.13792436965305524,-0.07542436965305524
1589541324.3377657,-0.27042892895212495,-4.340428928952125,8.84857023682625,0.5022222222222222,0.3111111111111111,-0.6711111111111111,-0.2508936019835936,-0.43213838809843813,0.05981919404921908
1589541324.3477657,-0.2995870602956852,-4.369587060295685,8.75137646568105,0.5022222222222222,0.3111111111111111,-0.6711111111111111,-0.31163970894934423,-0.06766174630393473,-0.12241912684803263
1589541324.3577657,-0.260791458621056,-4.370791458621056,8.765144481036863,0.5022222222222222,0.3111111111111111,-0.6711111111111111,-0.30508007542760013,-0.11758007542760013,0.007419924572399873
1589541324.3677657,-0.27564432168277914,-4.385644321682779,8.861688090938065,0.5022222222222222,0.3111111111111111,-0.6711111111111111,-0.16583448422394562,0.021665515776054384,0.14666551577605438
1589541324.3777657,-0.2798654079466182,-4.281211328480437,8.880403776160147,0.5022222222222222,0.2966666666666667,-0.6944444444444444,0.43581759933272674,0.0025236010009099183,0.0008412003336366394
1589541324.3877656,-0.27191442978465274,-4.352770131938126,8.904256710646042,0.5022222222222222,0.2966666666666667,-0.6944444444444444,0.3364303723081589,0.15160444153776162,0.05053481384592053
1589541324.3977656,-0.2600951788491446,-4.360095178849145,8.731713219284604,0.5022222222222222,0.2966666666666667,-0.6944444444444444,-0.36845645412130634,-0.2458359253499222,0.0005948678071539676
1589541324.4077656,-0.26,-4.400615915874905,8.794985465399849,0.5022222222222222,0.2966666666666667,-0.6944444444444444,-0.5273096845308933,0.05461936906178666,0.05076989484363112
1589541324.4177656,-0.26,-4.389637131067502,8.81,0.5022222222222222,0.2966666666666667,-0.6944444444444444,-0.02161129398053352,0.09318301729297257,0.09431698270702743
1589541324.4277656,-0.26,-4.360803773423827,8.855981132880864,0.49660230598122773,0.30228658290766114,-0.6837155134389095,0.58621462415162,0.033761791949460024,0.125
1589541324.4377656,-0.26614622681104677,-4.35,8.866976412322673,0.49,0.3088888888888889,-0.6711111111111111,0.07287731889532445,-0.07682783513808444,0.125
1589541324.4477656,-0.27,-4.383823202438586,8.780809395732472,0.49,0.3088888888888889,-0.6711111111111111,-0.4710462614308768,-0.3363950152411691,-0.03354626143087683
1589541324.4577656,-0.2631388205268435,-4.383138820526844,8.74941646158053,0.49,0.3088888888888889,-0.6711111111111111,-0.28558814146385925,-0.2034705131710874,-0.0625
1589541324.4677656,-0.26676803897952484,-4.3867680389795245,8.807680389795248,0.49,0.3088888888888889,-0.6711111111111111,0.02400121811014999,-0.25190073086609,0.022100487244059996
1589541324.4777656,-0.2764557314539106,-4.357721342730446,8.891645851631285,0.4950211244641527,0.30530237141449407,-0.6854571810086902,0.2056966431738823,-0.11075839206529423,0.1431966431738823
1589541324.4877656,-0.2710450602919399,-4.34,8.92,0.4977777777777778,0.3033333333333333,-0.6933333333333334,0.1940316268246245,-0.22387349270150203,0.1315316268246245
1589541324.4977655,-0.28361450201707966,-4.33319274899146,8.790662230837743,0.4977777777777778,0.3033333333333333,-0.6933333333333334,-0.19540786923036624,-0.33509063760674807,0.08245468119662597
1589541324.5077655,-0.29,-4.377828987265009,8.777828987265009,0.4977777777777778,0.3033333333333333,-0.6933333333333334,-0.49457246816252276,-0.13585506367495453,-0.05707246816252273
1589541324.5177655,-0.2824139659204811,-4.3875860340795185,8.802758102238556,0.4977777777777778,0.3033333333333333,-0.6933333333333334,-0.12069829602405613,-0.21982542599398597,0.12715085198797194
1589541324.5277655,-0.2896005573618207,-4.370798885276359,8.877203901532745,0.5073783351395985,0.31506734788666974,-0.6858662331630284,0.24001393404551788,-0.00998606595448212,0.06749303297724106
1589541324.5377655,-0.28052845717474195,-4.32264228587371,8.898943085650517,0.5077777777777778,0.31555555555555553,-0.6855555555555556,0.1908028573421371,-0.11839428531572584,-0.055894285315725836
1589541324.5477655,-0.28,-4.357741413757017,8.749034344971934,0.5077777777777778,0.31555555555555553,-0.6855555555555556,-0.10735479497669109,-0.125,-0.0035290410046617815
1589541324.5577655,-0.2563092981020616,-4.375793801265292,8.80317520506117,0.5077777777777778,0.31555555555555553,-0.6855555555555556,-0.42113377372423016,-0.125,0.09871125790807671
1589541324.5677655,-0.2698410024218174,-4.373386332526061,8.806772665052122,0.5077777777777778,0.31555555555555553,-0.6855555555555556,-0.16931662630304306,-0.042329156575760765,0.08366457828788038
1589541324.5777655,-0.27411923872757454,-4.358238477455149,8.86468837399668,0.5018970165053523,0.31555555555555553,-0.6901294809896643,0.25728330566861457,-0.03675475795265923,0.0625
1589541324.5877655,-0.29477505892139194,-4.35,8.852191529183418,0.4977777777777778,0.31555555555555553,-0.6933333333333334,0.4375,-0.21734411825869956,0.1141147060862332
1589541324.5977654,-0.27248689603775933,-4.35,8.81248689603776,0.4977777777777778,0.31555555555555553,-0.6933333333333334,-0.19300863246801636,-0.13536206682399704,0.010362066823997026
1589541324.6077654,-0.27,-4.362862021289001,8.784275957421999,0.4977777777777778,0.31555555555555553,-0.6933333333333334,-0.29019381652812715,-0.08480618347187287,0.0
1589541324.6177654,-0.27,-4.375814605945532,8.828146059455323,0.4977777777777778,0.31555555555555553,-0.6933333333333334,-0.23981742568084563,-0.09884128715957718,0.0
1589541324.6277654,-0.27512378617893846,-4.369752427642124,8.844381069105308,0.5029015639567163,0.30303074489592824,-0.6893481663052702,-0.027381681908173833,-0.060952672763269544,-0.03202366361836523
1589541324.6377654,-0.26131737918215614,-4.347544919454771,8.882275402726146,0.5077777777777778,0.2911111111111111,-0.6855555555555556,0.28068850681536556,-0.11676638011152415,0.054266380111524154
1589541324.6477654,-0.2796182855040471,-4.34,8.823740572111847,0.5077777777777778,0.2911111111111111,-0.6855555555555556,0.18988571559970566,-0.14122142889992642,-0.013835713300220737
1589541324.6577654,-0.26593657604856225,-4.348021141317146,8.814063423951438,0.5077777777777778,0.2911111111111111,-0.6855555555555556,-0.3261891990894581,-0.07486786676783799,0.13802853292864806
1589541324.6677654,-0.27392212840915997,-4.36392212840916,8.82,0.5077777777777778,0.2911111111111111,-0.6855555555555556,-0.2634733948855008,0.02451330255724958,0.013473394885500839
1589541324.6777654,-0.2721459189922142,-4.37,8.835708162015571,0.503414399440119,0.3068192731266828,-0.6925369608958096,0.10702803779196918,-0.13385202519464615,0.03567601259732307
1589541324.6877654,-0.28353793157441476,-4.3632310342127925,8.833231034212792,0.5022222222222222,0.3111111111111111,-0.6944444444444444,0.1451939638299538,-0.2298060361700462,-0.06441810851013857
1589541324.6977654,-0.26700479161016183,-4.3523349305367205,8.807004791610163,0.5022222222222222,0.3111111111111111,-0.6944444444444444,0.02918663170900762,-0.10627994756351142,-0.07709331585450381
1589541324.7077653,-0.2772336458018345,-4.3413831770990825,8.791383177099082,0.5022222222222222,0.3111111111111111,-0.6944444444444444,-0.21542057252293115,-0.2779205725229311,-0.008644856869267213
1589541324.7177653,-0.28,-4.371808662873896,8.815446930299117,0.5022222222222222,0.3111111111111111,-0.6944444444444444,-0.21023917140762977,-0.27273917140762977,0.03976082859237025
1589541324.7277653,-0.27093039253622253,-4.380930392536222,8.848139214927555,0.49667968432769155,0.3075840415418643,-0.683863235736704,-0.1024724300270863,-0.10828738337847715,0.0058149533513908655
1589541324.7377653,-0.2655188080443643,-4.364481191955636,8.87,0.49,0.3033333333333333,-0.6711111111111111,0.17246275138638337,-0.006485100554553355,-0.028007449722723322
1589541324.7477653,-0.27,-4.344646557059441,8.800909506767484,0.49,0.3033333333333333,-0.6711111111111111,0.26452049081075263,-0.014520490810752629,0.0
1589541324.7577653,-0.28626654295062753,-4.348133271475313,8.804399814425942,0.49,0.3033333333333333,-0.6711111111111111,-0.004164733603555237,-0.10166589344142209,0.0
1589541324.7677653,-0.26976519174041297,-4.356744936086529,8.830234808259586,0.49,0.3033333333333333,-0.6711111111111111,-0.2732792527040315,-0.16715585054080628,-0.04215585054080629
1589541324.7777653,-0.26,-4.374318098514112,8.84,0.49,0.3033333333333333,-0.6878155593775748,-0.15127971071700455,-0.1875,-0.017755942143400913
1589541324.7877653,-0.26,-4.357534719774409,8.86246528022559,0.49,0.3033333333333333,-0.6944444444444444,0.07790800140994009,-0.1406973328633533,0.1404080014099401
1589541324.7977653,-0.2761729321362966,-4.3419135339318515,8.781048873250368,0.49,0.3033333333333333,-0.6944444444444444,0.22608082585185377,-0.17554041292592687,0.1875
1589541324.8077652,-0.28,-4.355089979907399,8.805269939722198,0.49,0.3033333333333333,-0.6944444444444444,-0.12724949768498295,-0.1875,0.046031438368131394
1589541324.8177652,-0.27410370654887656,-4.36,8.83768888035337,0.49,0.3033333333333333,-0.6944444444444444,-0.25,-0.0769444977914346,-0.0368518340695218
1589541324.8277652,-0.262498268129945,-4.37500346374011,8.857501731870055,0.5033364122134312,0.3033333333333333,-0.6986120732611416,-0.1562283516243118,-0.28131494512706456,-0.015614175812155906
1589541324.8377652,-0.2658717914393762,-4.3682564171212475,8.842384625681872,0.5077777777777778,0.3033333333333333,-0.7,-0.014903910511696386,-0.375,-0.036698696496101205
1589541324.8477652,-0.27,-4.347484057971014,8.798710144927536,0.5077777777777778,0.3033333333333333,-0.7,0.21894927536231884,-0.14032608695652174,-0.02338768115942029
1589541324.8577652,-0.26272566208784887,-4.325451324175698,8.794548675824302,0.5077777777777778,0.3033333333333333,-0.7,0.1306415521962219,0.0,0.0
1589541324.8677652,-0.2841495657058033,-4.350186957132254,8.830186957132254,0.5077777777777778,0.3033333333333333,-0.7,-0.2016358749072235,0.0,0.037733696415317645
1589541324.8777652,-0.2862734302505413,-4.3837265697494585,8.84313671512527,0.491000859195106,0.3071462693748496,-0.7,-0.2463134085988246,-0.1286865914011754,0.019604469532941537
1589541324.8877652,-0.2731639474645859,-4.362655789858343,8.860508157606242,0.4833333333333333,0.3088888888888889,-0.7,-0.059324014960985355,-0.10204934330732357,-0.08545065669267643
1589541324.8977652,-0.26341922695738357,-4.35,8.810773042616452,0.4833333333333333,0.3088888888888889,-0.7,0.04112983151635283,0.019759663032705654,-0.125
1589541324.9077652,-0.2670220021724304,-4.357022002172431,8.829154015207012,0.4833333333333333,0.3088888888888889,-0.7,0.01861248642231035,-0.025275027155379298,-0.08111248642231035
