time,acc_x,acc_y,acc_z,mag_x,mag_y,mag_z,gyr_x,gyr_y,gyr_z
1589543999.7396786,-0.06,-4.15,8.7,0.4711111111111111,0.2488888888888889,-0.6966666666666667,-0.125,-0.5625,0.1875
1589543999.7496786,-0.0012178828365878719,-4.179391058581706,8.778376156217883,0.4711111111111111,0.2488888888888889,-0.6966666666666667,-0.06376862795477903,-0.13388039568345322,0.003805883864337084
1589543999.7596786,-0.006598550934181567,-4.18,8.799795652802544,0.4711111111111111,0.2488888888888889,-0.6966666666666667,-0.35118660337044355,-0.537409433386348,-0.041240943338634796
1589543999.7696786,-0.01,-4.18,8.840731671228824,0.4711111111111111,0.2377913409451473,-0.7077642146104083,-0.35594529111489237,-0.4618905822297847,-0.014481763704964123
1589543999.7796786,-0.016630428722751854,-4.173369571277248,8.843369571277249,0.4711111111111111,0.2344444444444445,-0.7111111111111111,-0.22961964096560183,-0.29211964096560183,0.04144017951719908
1589543999.7896786,0.005492666214624742,-4.178497555404874,8.755024445951252,0.4711111111111111,0.2344444444444445,-0.7111111111111111,-0.1343902787195318,-0.25,0.009390278719531783
1589543999.7996786,0.0030039862797812183,-4.18,8.788972096041531,0.4711111111111111,0.2344444444444445,-0.7111111111111111,-0.16872508575136738,-0.16254982849726524,-0.08745017150273476
1589543999.8096786,0.0059798819867118895,-4.185979881986712,8.81,0.4711111111111111,0.2344444444444445,-0.7111111111111111,-0.1875,-0.125,0.024497049667797227
1589543999.8196785,0.0049723497602285486,-4.179944699520457,8.835138251198858,0.4845181784171683,0.24170660590189214,-0.7038489496536635,-0.15607718600142842,-0.18784562799714316,0.09357718600142842
1589543999.8296785,-0.013730177329896101,-4.190595265994844,8.811944379345363,0.4977777777777778,0.2488888888888889,-0.6966666666666667,-0.21081360831185064,-0.20709319584407468,-0.06622041246777596
1589543999.8396785,-0.02,-4.2,8.76364373413459,0.4977777777777778,0.2488888888888889,-0.6966666666666667,-0.0852733383411905,0.141953323317619,0.0397266616588095
1589543999.8496785,-0.03887616538305634,-4.181123834616943,8.778876165383055,0.4977777777777778,0.2488888888888889,-0.6966666666666667,0.05547603364410214,0.010535949533846761,0.0625
1589543999.8596785,-0.010511821252273318,-4.187372044686932,8.802116134060796,0.4977777777777778,0.2488888888888889,-0.6966666666666667,0.01642472070667706,0.09215055858664588,0.0625
1589543999.8696785,0.0,-4.184694750510818,8.831220997956729,0.493651472619525,0.25242572188167695,-0.6890035285156259,0.09947342792216472,0.058684381385223514,-0.03697342792216472
1589543999.8796785,-0.014250646525183696,-4.187125323262592,8.828624030212225,0.49,0.25555555555555554,-0.6822222222222222,0.05390018882640288,0.0890665407823981,-0.035933459217601896
1589543999.8896785,-0.0035700178688987116,-4.181785008934449,8.746065080410045,0.49,0.25555555555555554,-0.6822222222222222,0.1540310824790746,0.07365630584030847,0.10268738831938305
1589543999.8996785,0.0,-4.186661301582377,8.796613015823766,0.49,0.25555555555555554,-0.6822222222222222,0.06260059533043748,0.2290325395594167,0.08336686511014582
1589543999.9096785,0.0,-4.185045485512764,8.834954514487237,0.49,0.25555555555555554,-0.6822222222222222,0.12386286218090008,0.40539714663567505,0.03153428445477498
1589543999.9196784,0.0,-4.17332337595093,8.84,0.4818396817178034,0.2414604603408523,-0.6777711395228422,0.16654219938662523,0.5,-0.04172890030668738
1589543999.9296784,-0.006135458894854096,-4.17,8.84,0.4777777777777778,0.2344444444444445,-0.6755555555555556,0.0866533819071619,0.4233067638143238,-0.024153381907161903
1589543999.9396784,-0.01844303591743865,-4.1784430359174385,8.738683568990737,0.4777777777777778,0.2344444444444445,-0.6755555555555556,0.11526897448399155,0.42776897448399154,0.0
1589543999.9496784,-0.013405716856421081,-4.18,8.759565698861474,0.4777777777777778,0.2344444444444445,-0.6755555555555556,0.28985707858947296,0.3550714607052635,0.04121426964736824
1589543999.9596784,-0.01,-4.1746962115796995,8.7906075768406,0.4777777777777778,0.2344444444444445,-0.6755555555555556,0.375,0.17990528949249462,0.09564867762687634
1589543999.9696784,-0.00520344321712116,-4.174796556782879,8.809593113565759,0.4873708913435355,0.24137280424193613,-0.6856816198749665,0.28506456032102173,0.15243543967897827,0.0650430402140145
1589543999.9796784,-0.0066252834256402635,-4.18,8.80674943314872,0.4977777777777778,0.2488888888888889,-0.6966666666666667,0.1875,0.25,0.0828160428205033
1589543999.9896784,-0.018071718040034386,-4.188071718040034,8.759641409799828,0.4977777777777778,0.2488888888888889,-0.6966666666666667,0.2379482377502149,0.4013447132506447,0.024103524499570178
1589543999.9996784,-0.02,-4.181859598853868,8.774421203438395,0.4977777777777778,0.2488888888888889,-0.6966666666666667,0.09736747851002867,0.4883775071633238,0.05087750716332378
1589544000.0096784,-0.046983468625940626,-4.159762398530544,8.699049594122178,0.4977777777777778,0.2488888888888889,-0.6966666666666667,-0.06398500918409672,0.3313533210878711,0.02033833027196777
1589544000.0196784,0.18968491159268402,-4.304976841678218,9.331566313938943,0.4910812475818054,0.2488888888888889,-0.6717938402244836,-0.9859824537678757,-1.1490964873727982,0.053811403360492234
1589544000.0296783,-0.1138114554240369,-4.111973223389636,8.651749346100988,0.49,0.2488888888888889,-0.6677777777777778,-0.6533074544487298,-0.9557177372877599,0.010089717160969992
1589544000.0396783,-0.047914381894014785,-4.150718988842546,8.654099887790316,0.49,0.2488888888888889,-0.6677777777777778,0.3088981750047636,0.8219332881671713,0.04586306184235598
1589544000.0496783,-0.03931288343558283,-4.18,8.716552147239264,0.49,0.2488888888888889,-0.6677777777777778,-0.1940184049079755,0.04516871165644165,0.021549079754601227
1589544000.0596783,-0.0900863243980009,-4.145615629259427,8.677019536574285,0.49,0.2488888888888889,-0.6677777777777778,-0.2757837346660609,-0.09651862789641064,0.026862789641072242
1589544000.0696783,-0.09463612060002971,-4.137889870785682,8.690727758799941,0.48831600574285855,0.24524023466508246,-0.6714264320015843,0.07698787687509283,0.40332596910738155,0.0625
1589544000.0796783,-0.035015373821168407,-4.191480014032481,8.755950803772262,0.4833333333333333,0.2344444444444445,-0.6822222222222222,-0.6438845209352235,-0.887653738211684,0.006230782723539489
1589544000.0896783,-0.037254338581772205,-4.166885032371758,8.667909435697046,0.4833333333333333,0.2344444444444445,-0.6822222222222222,-0.17264777994866487,-0.045600601463433366,0.04738679462130789
1589544000.0996783,0.005606813598386632,-4.216820440795161,8.786068135983866,0.4833333333333333,0.2344444444444445,-0.6822222222222222,0.07948898012100258,0.3067334701815039,0.0549148300201671
1589544000.1096783,-0.0422497766467228,-4.182500203048434,8.701750548230772,0.4833333333333333,0.2344444444444445,-0.6822222222222222,-0.36874949237891547,-0.15781262690527115,0.029687373094728863
1589544000.1196783,-0.07313278131887771,-4.143433609340561,8.707769702746173,0.4833333333333333,0.2389223142246315,-0.6919242734126275,-0.9617803210817895,-0.838660496217311,-0.021460058378507188
1589544000.1296782,-0.08354135471918381,-4.126458645280817,8.693681699362992,0.4833333333333333,0.2411111111111111,-0.6966666666666667,-0.20661022003400764,-0.05947675303910871,0.03558897799659924
1589544000.1396782,-0.0052911392405063234,-4.176472573839662,8.754708860759493,0.4833333333333333,0.2411111111111111,-0.6966666666666667,-0.15809599156118143,-0.014715189873417744,0.10661919831223629
1589544000.1496782,0.10378336363396833,-4.266405027270571,8.989215081811714,0.4833333333333333,0.2411111111111111,-0.6966666666666667,-0.9878336363396832,-1.3700942613232157,-0.05945840908492081
1589544000.1596782,0.012005122425980952,-4.18511566437865,8.810899702899293,0.4833333333333333,0.2411111111111111,-0.6966666666666667,-1.20902955639791,-1.3618251203770106,-0.0430591127958201
1589544000.1696782,0.126138774730001,-4.266107235018637,9.14436586065182,0.47354784584833326,0.25267577813883846,-0.6851019996389393,-1.2875788492784097,-0.7747240275255662,0.0
1589544000.1796782,-0.10243707503280444,-4.044590242156746,8.69809853274484,0.4711111111111111,0.25555555555555554,-0.6822222222222222,-0.461134140522486,0.32349695812954793,0.10642073243468925
1589544000.1896782,-0.08956161883182276,-3.9822240055387716,8.706655966767372,0.4711111111111111,0.25555555555555554,-0.6822222222222222,-0.6902398823011078,-0.03327983383685795,0.23609996538267874
1589544000.1996782,0.0025673096446700502,-3.9282091370558376,8.817194720812184,0.4711111111111111,0.25555555555555554,-0.6822222222222222,-0.9936598984771574,-0.5097055837563451,0.9822715736040609
1589544000.2096782,-0.02449656968618981,-3.9,8.741475987803328,0.4711111111111111,0.25555555555555554,-0.6822222222222222,-0.6124142421547453,-0.15603560538686317,2.1090534080802947
1589544000.2196782,0.00055547510188882,-3.9050925791836484,8.830925791836481,0.4745061639002099,0.25555555555555554,-0.6788271694331235,-0.7181713801021992,-0.37268552040879654,3.070600678569212
1589544000.2296782,0.0028723226082587386,-3.8659175242384203,8.842699443586357,0.4777777777777778,0.25555555555555554,-0.6755555555555556,-0.6875,-0.3135804938868936,3.8602894653590636
1589544000.2396781,-0.08033286144687649,-3.7380006533812478,8.749000326690624,0.4777777777777778,0.25555555555555554,-0.6755555555555556,-0.847914171113289,-0.597914171113289,4.839579022832044
1589544000.2496781,-0.2463919790264295,-3.286482321264083,8.694753773116984,0.4777777777777778,0.25555555555555554,-0.6755555555555556,-1.8360554099057607,-1.655213721391625,6.787374672287962
1589544000.2596781,-0.3175739247311828,-2.772460863377609,8.78987824161923,0.4777777777777778,0.25555555555555554,-0.6755555555555556,-2.3130435641998734,-2.26614138598988,9.872717030360532
1589544000.269678,-0.15926724797307634,-2.8575615725868135,8.903411350772526,0.48021688508150184,0.25555555555555554,-0.6784824843200244,-0.19508184182346633,-0.5792412421600122,16.748575416857886
1589544000.279678,-0.11181283891288113,-2.929122966522713,8.763625677825761,0.4833333333333333,0.25555555555555554,-0.6822222222222222,1.005481459233042,-0.09978244634217615,22.649129785368704
1589544000.289678,-0.14931077434087606,-3.049310774340876,8.820130008303924,0.4833333333333333,0.25555555555555554,-0.6822222222222222,-0.28502893398380735,-1.4528606368071415,28.48520701422047
1589544000.299678,-0.20822771325382597,-3.1576262114480214,8.841772286746174,0.4833333333333333,0.25555555555555554,-0.6822222222222222,0.2019334450593706,-1.4155477823680722,33.67185835476914
1589544000.309678,-0.22,-3.1999825559595036,8.810034888080992,0.4833333333333333,0.25555555555555554,-0.6822222222222222,0.5626090252531016,-1.25,37.49585704038214
1589544000.319678,-0.21586953320571345,-3.2058695332057137,8.823043734354291,0.4833333333333333,0.25280191102603117,-0.6849758667517466,0.13858415549992636,-1.6888620968929464,41.68207922250037
1589544000.329678,-0.18759817331925985,-3.2224018266807404,8.83639725997889,0.4833333333333333,0.2488888888888889,-0.6888888888888889,-0.16498287486806107,-2.4175085625659696,46.14015412618745
1589544000.339678,-0.1642559325200865,-3.2802084723593947,8.798511865040172,0.4833333333333333,0.2488888888888889,-0.6888888888888889,0.2513029522462163,-2.3922987347516216,49.204618556976214
1589544000.349678,-0.18950464337727677,-3.2706604754969644,8.78508255943712,0.4833333333333333,0.2488888888888889,-0.6888888888888889,0.4375,-2.40470201055399,51.32775410905789
1589544000.359678,-0.2317218367918365,-3.239377469433469,8.80578804094204,0.4833333333333333,0.2488888888888889,-0.6888888888888889,0.3349339280714308,-2.543956887969387,52.79602576766325
1589544000.369678,-0.2643440251376661,-3.2654752201101327,8.877556855302865,0.4833333333333333,0.2488888888888889,-0.6888888888888889,0.04948978004542204,-2.6662900942662477,54.14169103692873
1589544000.379678,-0.27041157252347586,-3.2990878829597055,8.87867631043623,0.4977777777777778,0.2288888888888889,-0.6888888888888889,0.25,-2.4917269402264366,57.07536164135862
1589544000.389678,-0.32,-3.3875582591423403,8.910843471783776,0.4977777777777778,0.2288888888888889,-0.6888888888888889,0.2614456602702799,-2.746184779909907,58.72801094243252
1589544000.399678,-0.3228087725349939,-3.3443824549300123,8.775617545069988,0.4977777777777778,0.2288888888888889,-0.6888888888888889,0.472609656687424,-2.634835514968864,60.7513707085928
1589544000.409678,-0.3315045303582369,-3.3360181214329474,8.796770386612065,0.4977777777777778,0.2288888888888889,-0.6888888888888889,0.5342900557830588,-2.5329116015864317,61.945524860542356
1589544000.419678,-0.36081700479151796,-3.4181127535936384,8.877295748802121,0.5010829736862972,0.2249827482697296,-0.6909921953761284,0.1875,-2.9375,62.96461412988072
1589544000.429678,-0.39,-3.4377486662281664,8.874502667543666,0.51,0.21444444444444444,-0.6966666666666667,0.25785418036980196,-2.9234291639260395,63.50163752466565
1589544000.439678,-0.4056048007825727,-3.426098799804357,8.83928439745664,0.51,0.21444444444444444,-0.6966666666666667,0.47561749877723014,-2.8993825012227696,64.15694251100493
1589544000.449678,-0.44399515026820485,-3.433995150268205,8.79148908810346,0.51,0.21444444444444444,-0.6966666666666667,0.37189773311778973,-2.98123484458814,64.6530719560585
1589544000.459678,-0.47,-3.4646072582177467,8.873036291088733,0.51,0.21444444444444444,-0.6966666666666667,0.33638609158274746,-3.0337046361390843,64.70713708911268
1589544000.469678,-0.4885798938174345,-3.493224867271793,8.881420106182565,0.5156771897775494,0.20309006488934558,-0.6930539095354988,0.5245932522692242,-2.8838756636410343,64.11815807501284
1589544000.479678,-0.5373795400145697,-3.4789306899781454,8.846310229992715,0.5222222222222223,0.19,-0.6888888888888889,0.5394389374544698,-2.7785203541818433,63.75
1589544000.489678,-0.5792859020415315,-3.4269046993194894,8.811428195916937,0.5222222222222223,0.19,-0.6888888888888889,0.5148825170127632,-2.7738087414936183,63.73065437074681
1589544000.499678,-0.6255512564818508,-3.4309505384922216,8.78460071798963,0.5222222222222223,0.19,-0.6888888888888889,0.5962455125648185,-2.8243817311527724,63.710313621858795
1589544000.509678,-0.6726378990784975,-3.4526378990784976,8.83110319262798,0.5222222222222223,0.19,-0.6888888888888889,0.40452626151878246,-2.9635787845563475,63.75
1589544000.5196779,-0.682823938017633,-3.4515281859471014,8.89,0.5241048475673108,0.18592097841897468,-0.6888888888888889,0.34779922522041146,-2.7051496126102057,63.608803099118354
1589544000.5296779,-0.7066750734355992,-3.4341687683589,8.887915615820551,0.5288888888888889,0.17555555555555555,-0.6888888888888889,0.47658220336468565,-2.75,63.26302740112156
1589544000.5396779,-0.7657938388625593,-3.4373815165876778,8.842144549763033,0.5288888888888889,0.17555555555555555,-0.6888888888888889,0.519845971563981,-2.7762885071090047,63.39136552132702
1589544000.5496778,-0.791256164260737,-3.4418793149825158,8.811879314982516,0.5288888888888889,0.17555555555555555,-0.6888888888888889,0.375,-2.8515702053259213,63.558605307988884
1589544000.5596778,-0.8539343674347709,-3.48575405720434,8.855754057204338,0.5288888888888889,0.17555555555555555,-0.6888888888888889,0.375,-2.9299179592934634,63.67612693894019
1589544000.5696778,-0.9203608164318189,-3.494072163286364,8.887783510140908,0.539747990985859,0.1565521268858579,-0.6920561270005051,0.44909795892045273,-2.800902041079547,64.54155918485796
1589544000.5796778,-0.9726943454387824,-3.5226943454387825,8.888155476351026,0.5555555555555556,0.1288888888888889,-0.6966666666666667,0.318264136403044,-3.01683965899239,65.30051897697717
1589544000.5896778,-1.0,-3.5468609751592943,8.869192677070828,0.5555555555555556,0.1288888888888889,-0.6966666666666667,0.3088567157632284,-3.148262189491181,65.8321189052544
1589544000.5996778,-1.0,-3.5115704401418686,8.822644339787196,0.5555555555555556,0.1288888888888889,-0.6966666666666667,0.5263423745566602,-2.995868219082505,65.85278940636084
1589544000.6096778,-0.9892227875704162,-3.4348531709976378,8.874853170997637,0.5555555555555556,0.1288888888888889,-0.6966666666666667,0.7324050517899328,-2.717832318735235,65.70023737052517
1589544000.6196778,-0.9845376749583001,-3.3875770541736165,8.86634418739575,0.5539402583379667,0.12431221343905367,-0.7087813957985835,0.6610658858510406,-2.664651171223439,65.30313565160635
1589544000.6296778,-1.0476162377066331,-3.3755959405733416,8.940363465160075,0.5488888888888889,0.11,-0.7466666666666667,0.21502537141661435,-3.2648985143335425,64.60492388575015
1589544000.6396778,-1.0578192114542153,-3.3537589486056203,8.853457634362647,0.5488888888888889,0.11,-0.7466666666666667,0.32612992841115507,-3.048870071588845,64.37311678598141
1589544000.6496778,-1.04,-3.3338344942989453,8.803834494298947,0.5488888888888889,0.11,-0.7466666666666667,0.4854311787368175,-2.9135344106315912,63.85198174884228
1589544000.6596777,-1.0773770013848734,-3.3474754002769744,8.839901601107899,0.5488888888888889,0.11,-0.7466666666666667,0.46905749653781675,-2.9372950023081223,63.17233624480672
1589544000.6696777,-1.1731208146041647,-3.3598724887624987,8.936751674158334,0.5488888888888889,0.09687174469212814,-0.7417904575523143,0.31409389046876435,-2.9984061095312358,62.58120814604165
1589544000.6796777,-1.1252258377853326,-3.2661291889266635,8.881053909664885,0.5488888888888889,0.07111111111111111,-0.7322222222222222,0.5932795046138902,-2.78077950461389,61.66518941233608
1589544000.6896777,-1.1499396435553362,-3.221951714844269,8.837957750488735,0.5488888888888889,0.07111111111111111,-0.7322222222222222,0.5251508911116595,-2.9123491088883404,60.48836762389204
1589544000.6996777,-1.1993379574512137,-3.254006936176821,8.84268285107925,0.5488888888888889,0.07111111111111111,-0.7322222222222222,0.44163776592991355,-2.7792894947978675,59.291811170350435
1589544000.7096777,-1.1618827320100242,-3.2018827320100245,8.783292095946537,0.5488888888888889,0.07111111111111111,-0.7322222222222222,0.48971220016707107,-2.2874865746449737,57.867670750626516
1589544000.7196777,-1.1649052830600297,-3.1895789550230886,8.92490528306003,0.5501660828919673,0.06834385743777446,-0.7362666698986373,0.17289477511544196,-2.966710449769116,55.985131167508996
1589544000.7296777,-1.2532120954003407,-3.1754393100511074,8.937666524701873,0.5555555555555556,0.05666666666666665,-0.7533333333333333,0.4536933028109029,-2.300188990630324,53.078029173764904
1589544000.7396777,-1.2566028609120774,-3.1038004087017255,8.81,0.5555555555555556,0.05666666666666665,-0.7533333333333333,0.3724795649137329,-2.198778098243617,51.42118103158385
1589544000.7496777,-1.3332319637657717,-3.1556939501779357,8.905541895826593,0.5555555555555556,0.05666666666666665,-0.7533333333333333,0.08846247169200906,-2.573075056615982,49.93363798123585
1589544000.7596776,-1.3768169127208751,-3.188169127208751,8.9763382544175,0.5555555555555556,0.05666666666666665,-0.7533333333333333,0.4433087279124914,-2.181691272087509,49.07376845406563
1589544000.7696776,-1.3799714919227115,-3.127977193538169,8.867920177383592,0.5528964910428326,0.05201330376940132,-0.7573219301024179,0.9629632562559391,-1.6620367437440609,48.41292762115933
1589544000.7796776,-1.441893285174848,-3.165473321293712,8.977263339353145,0.5422222222222223,0.03333333333333333,-0.7733333333333333,0.2782917419142998,-2.2611876128714496,47.69277109670005
1589544000.7896776,-1.496981776391397,-3.1792454440978495,8.970377277951076,0.5422222222222223,0.03333333333333333,-0.7733333333333333,0.19221597438844196,-2.132073961582663,47.39150591035955
1589544000.7996776,-1.4631127362247485,-3.1310375787415827,8.814834552168561,0.5422222222222223,0.03333333333333333,-0.7733333333333333,0.40300756643255375,-1.9892386503511694,47.357753783216275
1589544000.8096776,-1.5761271903918095,-3.173063595195905,8.895676314235086,0.5422222222222223,0.03333333333333333,-0.7733333333333333,0.3125,-2.1576589879897616,47.41047696396929
1589544000.8196776,-1.6272201632903278,-3.178108228606459,8.942277983670966,0.5450064244867378,0.02978980317849546,-0.7735864426301075,0.28402520411291,-2.207287806169365,47.88682357120963
1589544000.8296776,-1.5244617632732587,-3.040813443740867,8.931758402338042,0.5544444444444444,0.017777777777777778,-0.7744444444444445,0.32431198246468584,-2.0396980029225524,48.90452995616172
1589544000.8396776,-1.4760065599702241,-2.9660393598213455,8.868052479761793,0.5544444444444444,0.017777777777777778,-0.7744444444444445,0.5625,-2.0,49.549918000372195
1589544000.8496776,-1.4938824226520506,-2.953882422652051,8.81658822533542,0.5544444444444444,0.017777777777777778,-0.7744444444444445,0.43455845007830024,-1.893382041731917,49.4970584500783
1589544000.8596776,-1.5528493324353236,-3.0,8.846406441900085,0.5544444444444444,0.017777777777777778,-0.7744444444444445,0.2142694425735906,-1.9016555405887248,49.196461114852816
1589544000.8696775,-1.595200338004366,-2.995200338004366,8.966400957679037,0.5544444444444444,0.0163556557049973,-0.7750666228512859,0.3174996479121189,-2.622504577142455,49.00999929582424
1589544000.8796775,-1.5337736740559909,-2.9306605110839863,8.847357955664055,0.5544444444444444,0.0,-0.7822222222222223,0.35554273142497145,-1.8166281942749143,48.9887991199748
1589544000.8896775,-1.5098660844250364,-2.91,8.91581251819505,0.5544444444444444,0.0,-0.7822222222222223,0.27449781659388645,-1.7761717612809316,48.4088173216885
1589544000.8996775,-1.4978764663634188,-2.91,8.853030883409145,0.5544444444444444,0.0,-0.7822222222222223,0.037886042614316495,-2.0814430213071584,46.615588340914535
1589544000.9096775,-1.5563083051355635,-2.9015889264859154,8.844205536757043,0.5544444444444444,0.0,-0.7822222222222223,-0.0987153952684856,-1.934288488171214,44.944515533758796
1589544000.9196775,-1.574273354178267,-2.877635527762311,8.856182236118844,0.5544444444444444,0.0,-0.7822222222222223,-0.023861024257220767,-1.7471525606430518,43.89655433960109
1589544000.9296775,-1.5739145770290848,-2.8339145770290846,8.929786442572711,0.5544444444444444,-0.01888888888888889,-0.7944444444444444,0.23368926237881388,-1.4538107376211862,41.70648020546229
1589544000.9396775,-1.622419482296706,-2.882419482296706,9.051048705741765,0.5544444444444444,-0.01888888888888889,-0.7944444444444444,0.031585490430391466,-1.6559145095696086,40.39280568779755
1589544000.9496775,-1.6261899266342428,-2.83,8.832860440194544,0.5544444444444444,-0.01888888888888889,-0.7944444444444444,-0.1011870414640178,-1.1220323963399554,37.967212101228256
1589544000.9596775,-1.6123599043772154,-2.83,8.915840573736707,0.5544444444444444,-0.01888888888888889,-0.7944444444444444,-0.014749402357596239,-1.3381264941060094,36.71386633418515
1589544000.9696774,-1.6639638823780096,-2.8528313445557214,8.893114479011293,0.5541927693728247,-0.019455157800033148,-0.795451144730923,0.10907368687406777,-1.1875,34.055985976454295
1589544000.9796774,-1.7932229046466903,-2.9364458092933807,8.969503070910106,0.5455555555555556,-0.03888888888888889,-0.83,-0.3845539425522675,-1.1133755195731745,31.369823655313606
1589544000.9896774,-1.7637536039993567,-2.8643695940009652,8.827507207998714,0.5455555555555556,-0.03888888888888889,-0.83,-0.10153997500402162,-0.7969200499919568,29.437139600064345
1589544000.9996774,-1.7741338646009925,-2.8487992030985114,8.848267729201984,0.5455555555555556,-0.03888888888888889,-0.83,-0.0366633462437974,-0.9266733075124052,28.399113539900757
1589544001.0096774,-1.7365122615803814,-2.8213623978201636,8.866212534059946,0.5455555555555556,-0.03888888888888889,-0.83,-0.2717983651226158,-0.8835149863760218,26.686478201634877
1589544001.0196774,-1.7487407063646296,-2.8249002716787035,8.908740706364629,0.5498600784849589,-0.04451788041195472,-0.83,-0.4375,-0.6448719436145836,24.025714002571764
1589544001.0296774,-1.8014578801326488,-2.845176107743326,8.961457880132649,0.555717542236961,-0.05217764070303444,-0.83,-0.4375,-0.4167687878875772,21.33916572400924
1589544001.0396774,-1.8425969420650272,-2.8496122317398913,8.945464216634429,0.56,-0.057777777777777775,-0.83,-0.4375,-0.18507644837432072,18.693302707930368
1589544001.0496774,-1.8538424640737654,-2.820960616018441,8.802488008239736,0.56,-0.057777777777777775,-0.83,-0.4615154004610329,-0.012007700230516456,16.497838295159156
1589544001.0596774,-1.8702995732993282,-2.825074893324832,8.855973613222815,0.56,-0.057777777777777775,-0.83,-0.5643723331208004,-0.06343616656040021,15.417840502231595
1589544001.0696774,-1.8867566825248907,-2.829189170631223,8.909459218205896,0.56,-0.057777777777777775,-0.83,-0.667229265780568,-0.11486463289028398,14.337842709304036
1589544001.0796773,-1.936879959166628,-2.8456266530555427,8.961671074814781,0.5495822312963049,-0.09887008766457515,-0.8375239440637798,-0.8177221087961889,0.167999744791425,12.041446259260978
1589544001.0896773,-1.932307569064567,-2.8374088485042686,8.977408848504268,0.54,-0.13666666666666666,-0.8444444444444444,-0.8590585017509327,0.5473180975486942,9.136637122061751
1589544001.0996773,-1.8111084539649427,-2.784072302643295,8.912345383773882,0.54,-0.13666666666666666,-0.8444444444444444,-0.67630527005368,0.8676706757066172,5.886997703971303
1589544001.1096773,-1.9071440201490828,-2.848096013432722,8.923016002238787,0.54,-0.13666666666666666,-0.8444444444444444,-0.9097250489734653,0.8343249930037907,4.519824713155417
1589544001.1196773,-1.9620883380650798,-2.871539455485186,8.890441690325398,0.54,-0.13666666666666666,-0.8444444444444444,-1.0130521129067482,1.026774177404091,2.866799064570139
1589544001.1296773,-1.9455905194421304,-2.82319458253836,8.78559051944213,0.53920135436541,-0.13666666666666666,-0.8438676448194627,-0.8824873028242818,1.6100253943514364,0.6027497111224572
1589544001.1396773,-2.078843470333228,-2.8988434703332278,8.915759391221835,0.52,-0.13666666666666666,-0.83,-1.0649094368057752,1.2475905631942248,-2.9760509888924034
1589544001.1496773,-2.071039685935959,-2.8910396859359593,8.887145515098517,0.52,-0.13666666666666666,-0.83,-1.0811673209667516,1.2313326790332484,-3.236177135468026
1589544001.1596773,-2.0632359015386905,-2.8832359015386904,8.8585316389752,0.52,-0.13666666666666666,-0.83,-1.097425205127728,1.215074794872272,-3.496303282043649
1589544001.1696773,-2.0554321171414216,-2.875432117141422,8.829917762851881,0.52,-0.13666666666666666,-0.83,-1.1136830892887044,1.1988169107112956,-3.756429428619272
1589544001.1796772,-2.036202838941118,-2.8483187469074718,8.83168125309253,0.5215330178954313,-0.14476976125680355,-0.834599053686294,-1.0510866371845622,1.212137787605146,-3.7527165929614053
1589544001.1896772,-1.9908043666501731,-2.776978290450272,8.903021709549728,0.5265772925944252,-0.17143235609434274,-0.8497318777832756,-0.8078805356259278,1.2932064881246907,-3.1447013390648193
1589544001.1996772,-1.9661361615372936,-2.773863838462706,8.843748888455115,0.5277777777777778,-0.17777777777777778,-0.8533333333333334,-0.8799734855878717,1.1825265144121284,-2.9133510096080855
1589544001.2096772,-2.029238286739746,-2.846191433698731,8.936191433698731,0.5277777777777778,-0.17777777777777778,-0.8533333333333334,-0.9422607078765864,0.375,-2.7208249551361052
1589544001.2196772,-2.020169726059977,-2.8008486302998854,8.890848630299885,0.5277777777777778,-0.17777777777777778,-0.8533333333333334,-0.9989392121251432,0.375,-3.1175744848760027
1589544001.2296772,-2.1315630902688714,-2.92101695310496,8.92305085931488,0.4711111111111111,-0.2222222222222222,-0.8033333333333333,-0.8222693141804445,0.28954801436466665,-3.549317328545111
1589544001.2396772,-2.0804877461601428,-2.8265852953921713,8.745122056911745,0.4711111111111111,-0.2222222222222222,-0.8033333333333333,-0.7103661105493765,0.3033532548509798,-3.5731709518994657
1589544001.2496772,-1.9787066102543105,-2.724192711887539,8.9442013557163,0.4711111111111111,-0.2222222222222222,-0.8033333333333333,-1.1229925845047997,-0.28629555070287976,-3.693522246485601
1589544001.2596772,-1.901058758944459,-2.706143754969144,9.106104948320903,0.4711111111111111,-0.2222222222222222,-0.8033333333333333,-1.1369294949456707,-0.14567163896566088,-2.7455076572142505
1589544001.2696772,-1.9725173210161662,-2.7458429561200925,8.69323325635104,0.4711111111111111,-0.2222222222222222,-0.8033333333333333,0.4014145496535797,1.7400404157043878,-1.504907621247113
1589544001.2796772,-2.0675904520008292,-2.905716359112586,9.049023170226,0.4657042930863686,-0.2168154041974797,-0.7460210622710622,-0.47155394723201316,-0.008954488907319202,-0.7059062694381091
1589544001.2896771,-2.147670510708402,-2.9202273476112026,8.942102141680396,0.4655555555555556,-0.21666666666666667,-0.7444444444444445,-0.8030889621087315,-0.13813838550247118,-0.3947075782537067
1589544001.2996771,-2.1891298187808896,-2.9755064250411865,8.845363756177925,0.4655555555555556,-0.21666666666666667,-0.7444444444444445,-0.41440794892915983,0.46647652388797356,0.5122147858319606
1589544001.3096771,-2.1042657982128246,-2.9338392183915425,9.012321563216915,0.4655555555555556,-0.21666666666666667,-0.7444444444444445,-0.7393355044679384,-0.013330619415077086,2.246154725426339
1589544001.319677,-2.171554393339002,-2.994398954005102,8.891202091989797,0.4655555555555556,-0.21666666666666667,-0.7444444444444445,-0.5711140166524955,-0.22360747918438065,3.171372908411275
1589544001.329677,-2.1640454674917793,-3.0405056834364723,8.933539784055306,0.4722222222222222,-0.17777777777777778,-0.7088888888888889,-0.13764208591180963,-0.13764208591180963,4.781605214779524
1589544001.339677,-2.2446741393823935,-3.0488314651544015,8.968449559168844,0.4722222222222222,-0.17777777777777778,-0.7088888888888889,-0.35308997164503125,-0.33848328607505207,5.491853484559833
1589544001.349677,-2.2865991784037556,-3.0455839201877937,8.737614436619719,0.4722222222222222,-0.17777777777777778,-0.7088888888888889,-0.19067268192488263,-0.09105413732394366,6.438453638497653
1589544001.359677,-2.403875750088246,-3.144488175079421,8.882449699964702,0.4722222222222222,-0.17777777777777778,-0.7088888888888889,-0.26913828097423226,-0.659448905753618,7.739829685845393
1589544001.369677,-2.3216248970467115,-3.07046240734204,8.915350041181316,0.4722222222222222,-0.17777777777777778,-0.7088888888888889,-0.5261721967290269,-1.1221099541122486,9.282033180374162
1589544001.379677,-2.26989420935412,-3.051978841870824,8.863851893095768,0.4936119772333581,-0.15638802276664193,-0.7088888888888889,-0.26170657015590204,-0.7864420935412026,11.405025055679287
1589544001.389677,-2.336465193742885,-3.066465193742885,8.954108656238143,0.4988888888888889,-0.1511111111111111,-0.7088888888888889,0.28549800775814815,-0.5870472656744108,14.121413437618585
1589544001.399677,-2.2568836699413923,-2.9868836699413923,8.821472783235654,0.4988888888888889,-0.1511111111111111,-0.7088888888888889,-0.3224164101699203,-1.1396967365181094,15.447772167643462
1589544001.409677,-2.2995301113996147,-2.989177694949326,8.899177694949326,0.4988888888888889,-0.1511111111111111,-0.7088888888888889,-0.12353159812379597,-1.125734200938102,17.402899635647877
1589544001.419677,-2.2643990283943376,-2.9276982996900913,8.837698299690091,0.4988888888888889,-0.1511111111111111,-0.7088888888888889,-0.013746963732305897,-1.1806265181338471,19.488807689086187
1589544001.429677,-2.208445253059874,-2.8314488918293086,9.048445253059874,0.5066666666666667,-0.12444444444444445,-0.7022222222222222,-0.3319343367515713,-2.0194343367515715,21.963777704267283
1589544001.439677,-2.1911019682434665,-2.736060825339067,9.031101968243465,0.5066666666666667,-0.12444444444444445,-0.7022222222222222,-0.5487253969566656,-2.2362253969566654,24.34847936652332
1589544001.449677,-2.0724055985928667,-2.6491538490325963,8.772762246921896,0.5066666666666667,-0.12444444444444445,-0.7022222222222222,-0.10314686950338686,-1.8365821825530482,27.853277852625276
1589544001.459677,-2.2026877484839047,-2.7804479580806505,9.15790513182243,0.5066666666666667,-0.12444444444444445,-0.7022222222222222,0.5485013099796633,-2.508399214012202,31.97859030615049
1589544001.469677,-2.2487950019237464,-2.7881325003206245,8.950422491343142,0.5066666666666667,-0.12444444444444445,-0.7022222222222222,0.3083593649804877,-2.6524843810117074,33.755640699144394
1589544001.479677,-2.3726957412556713,-2.8916142250841506,9.04998390165374,0.5244444444444445,-0.11888888888888888,-0.7111111111111111,1.0050947607200351,-1.3074052392799649,37.165657471096154
1589544001.489677,-2.2323917543016036,-2.7425412389454538,8.725530931822458,0.5244444444444445,-0.11888888888888888,-0.7111111111111111,1.5531572097593611,-0.7593427902406389,39.522326001965254
1589544001.499677,-2.2797178639601468,-2.8071786396014713,9.205611061967504,0.5244444444444445,-0.11888888888888888,-0.7111111111111111,0.985893198007356,-2.308973299501839,41.42966385772149
1589544001.509677,-2.2704283963308556,-2.710272615846908,8.709961054879013,0.5244444444444445,-0.11888888888888888,-0.7111111111111111,0.5019472560493436,-2.1862829649691604,43.320045617191205
1589544001.519677,-2.361637671991143,-2.768314882176182,8.701669302546259,0.5244444444444445,-0.11888888888888888,-0.7111111111111111,0.9165348726870157,-1.9271657045706152,44.92657263166218
1589544001.529677,-2.5836619243638816,-2.8909154810909703,9.204436821453504,0.5188888888888888,-0.13111111111111112,-0.7111111111111111,-0.1302824318143521,-4.748682024987362,47.33142257047255
1589544001.539677,-2.58554587421811,-2.8722686304682346,8.98865484921761,0.5188888888888888,-0.13111111111111112,-0.7111111111111111,0.5267866064469714,-2.7279397070285176,50.26785981934091
1589544001.549677,-2.241881332560603,-2.5956605847438996,8.376764323827414,0.5188888888888888,-0.13111111111111112,-0.7111111111111111,1.4173806930594135,-1.2610788584903776,52.93964207917824
1589544001.559677,-2.0514723241346307,-2.4915337374381883,9.469417371191577,0.5188888888888888,-0.13111111111111112,-0.7111111111111111,-0.254601012920721,-5.398964647471686,54.81269191657362
1589544001.5696769,-2.2856412505981814,-2.5082600893284415,8.80872647152656,0.5188888888888888,-0.13111111111111112,-0.7111111111111111,-0.9863789081193173,-5.660313895756899,54.13318387103206
1589544001.5796769,-1.92,-1.86,8.96,0.5188888888888888,-0.1511111111111111,-0.7033333333333334,1.0,-1.75,52.6875
1589544001.5896769,-1.8863851744186046,-1.8944767441860466,8.947071220930233,0.5188888888888888,-0.1511111111111111,-0.7033333333333334,1.070030886627907,-1.723065043604651,51.06062863372093
1589544001.5996768,-1.6373569628523428,-2.2816683778234084,8.871065428411425,0.5188888888888888,-0.1511111111111111,-0.7033333333333334,1.4493084398917304,-1.4498115783087548,31.934984307914878
1589544001.6096768,-2.6222770764211076,-2.472257940168234,9.40631840522048,0.5188888888888888,-0.1511111111111111,-0.7033333333333334,-1.8180730894723076,-1.5311901992097692,14.476750829467075
1589544001.6196768,-2.6511487258559687,-2.3740943320897063,9.106053251097926,0.5188888888888888,-0.1511111111111111,-0.7033333333333334,-1.096281853600782,-1.13420501948043,11.012152897283753
1589544001.6296768,-2.1625443374438973,-2.2782840210902435,8.992461545165366,0.5188888888888888,-0.15886390595571823,-0.7082669300526288,1.7140534445945357,0.5522190509390388,15.410355571048846
1589544001.6396768,-2.0459311696196942,-2.5563051277805378,9.40112187448253,0.5188888888888888,-0.16333333333333333,-0.7111111111111111,-2.2038606695368994,-4.064976955345808,19.018511618921455
1589544001.6496768,-2.3585480383070743,-2.58,8.730278035217793,0.5188888888888888,-0.16333333333333333,-0.7111111111111111,-0.35090361445783147,-1.526181649675626,15.501390176088972
1589544001.6596768,-2.4376192054199346,-2.4935711918700982,8.5935711918701,0.5188888888888888,-0.16333333333333333,-0.7111111111111111,2.018235207481866,0.6681601863102471,13.539429839095696
1589544001.6696768,-2.3552519957824973,-2.3552519957824973,9.051509865943666,0.5188888888888888,-0.16333333333333333,-0.7111111111111111,-1.0530501581563492,-2.087673218858262,11.716728799518
1589544001.6796768,-2.403854200162672,-2.390426163769459,8.988721508691622,0.5256029070854954,-0.18123738185761754,-0.7155871232421821,-0.8250468155938488,-2.1821729528817597,13.241892390338018
1589544001.6896768,-2.2925798968041278,-2.4003439862405505,8.8606879724811,0.5288888888888889,-0.19,-0.7177777777777777,0.9170758169673212,-0.27687392504299835,17.626227450901965
1589544001.6996768,-2.4359993706500815,-2.5152626610395377,9.067472789871168,0.5288888888888889,-0.19,-0.7177777777777777,-0.4552571542277506,-1.9789399155930698,20.376962090922554
1589544001.7096767,-2.5353406455656535,-2.4116483860858664,8.834849890316516,0.5288888888888889,-0.19,-0.7177777777777777,-0.47147445941711064,-1.6929489188342213,25.856866969602006
1589544001.7196767,-2.4314859769031347,-2.376746995050672,9.298313103935895,0.5288888888888889,-0.19,-0.7177777777777777,-0.4375,-2.690762726844214,31.288151072354466
1589544001.7296767,-2.192376382088778,-2.201923737881392,8.738034434681106,0.5288888888888889,-0.2108722155572128,-0.7034967881860006,0.921940355371097,-1.887730618332739,39.6707872637074
1589544001.7396767,-2.1515731416640493,-2.2537976016703314,8.983617265017276,0.5288888888888889,-0.2111111111111111,-0.7033333333333334,0.7453657083202454,-1.4907314166404908,43.01628295855583
1589544001.7496767,-2.0834108179165733,-2.2888630606944758,8.965684696527623,0.5288888888888889,-0.2111111111111111,-0.7033333333333334,-0.019864776042835652,-2.377100099394017,45.88630606944756
1589544001.7596767,-2.0218275728905195,-2.2318275728905195,8.552793010233636,0.5288888888888889,-0.2111111111111111,-0.7033333333333334,0.6040590606294651,-0.8619967657849006,47.45431067773701
1589544001.7696767,-2.191999697999245,-2.3221426953567383,8.908570781426954,0.5288888888888889,-0.2111111111111111,-0.7033333333333334,0.4714288410721027,-1.6955341638354096,46.92410815402039
1589544001.7796767,-2.065807809387801,-2.1951114284640534,8.81952647600436,0.53368229629908,-0.30013153444323354,-0.6992246984103123,-0.3183321432597994,-3.1359244052764104,45.946204761546845
1589544001.7896767,-2.034628537025888,-2.1455020211576503,8.931134600498838,0.5366666666666666,-0.3555555555555556,-0.6966666666666667,-0.2723810957254666,-2.527568375333276,45.153112367764685
1589544001.7996767,-2.1995148828887445,-2.193680465191932,8.880342794404683,0.5366666666666666,-0.3555555555555556,-0.6966666666666667,-0.34896511060507485,-2.8659040541639555,43.90406687134028
1589544001.8096766,-1.7619000736462653,-1.941388038296058,8.750997325477732,0.5366666666666666,-0.3555555555555556,-0.6966666666666667,-1.9397747974727704,-4.103099926353734,41.82117523935036
1589544001.8196766,-1.6395669098265186,-1.8498556366088397,8.78,0.5366666666666666,-0.3555555555555556,-0.6966666666666667,1.007158784405076,-1.0809668669159564,41.071041883773674
1589544001.8296766,-1.7975585878968294,-1.8960156234391545,8.910078117195772,0.5373893228733099,-0.593309447541162,-0.6048893284229828,2.5812988232473577,0.0467529418816055,39.417724711805484
1589544001.8396766,-1.6286190407187364,-1.8214476162874946,9.227946674395016,0.5377777777777778,-0.7211111111111111,-0.5555555555555556,-1.4705477467033763,-2.276309592812636,35.622047529343575
1589544001.8496766,-1.5434907567616794,-1.80293634459521,9.048090337856298,0.5377777777777778,-0.7211111111111111,-0.5555555555555556,-1.3377823058009288,-2.474204307440124,33.704825380202166
1589544001.8596766,-1.4871968493933811,-1.7097913358317982,8.394145652035824,0.5377777777777778,-0.7211111111111111,-0.5555555555555556,1.243971527027885,0.5352855237248302,29.8846947849838
1589544001.8696766,-1.7171392916567625,-1.9055811742334205,9.053278266381428,0.5377777777777778,-0.7211111111111111,-0.5555555555555556,-1.7981068259250454,-2.4055195705570083,18.004226586641312
1589544001.8796766,-1.7474427296452621,-1.8559487063827045,8.895288848793376,1.1563996735079636,-0.9425439887159769,-0.1226195257989568,-0.283055304958598,-0.46121765956761296,9.212478251764024
1589544001.8896766,-1.8364606167880728,-1.9276914698073389,9.19953502621009,1.23,-0.9688888888888888,-0.07111111111111111,0.6105716862958677,-0.44615018040710736,5.070226870447273
1589544001.8996766,-1.485847044286922,-1.797505365155752,8.727519672237758,1.23,-0.9688888888888888,-0.07111111111111111,-0.3020460753072771,-0.005226962346361441,1.6433390778435326
1589544001.9096766,-1.3198220099848057,-1.9091282287822877,9.335641143911438,1.23,-0.9688888888888888,-0.07111111111111111,0.6436842033861516,1.495663867484263,-5.484880345126981
1589544001.9196765,-1.1361868422100416,-1.8257121053260248,9.067543233307232,1.23,-0.9688888888888888,-0.07111111111111111,0.1917387221787198,0.25974906101105555,-11.40316635035237
1589544001.9296765,-0.9026814866273011,-1.7246474470302189,8.765908301493573,1.171648720620586,-0.8831693103315194,-0.1702566477557794,-0.8054228898923237,-1.4779654393886767,-18.436436262591176
1589544001.9396765,-0.59,-1.743075169269034,9.290797291695453,0.8533333333333334,-0.4155555555555556,-0.7111111111111111,-1.427533853806826,0.39991536548293505,-38.478362063009534
1589544001.9496765,-0.5505958935421678,-1.707163244618473,8.67013019021685,0.8533333333333334,-0.4155555555555556,-0.7111111111111111,-0.44308650195782234,2.717372940311264,-51.75865367414681
1589544001.9596765,-0.36568186475409836,-1.7721590676229508,8.610716700819673,0.8533333333333334,-0.4155555555555556,-0.7111111111111111,-0.13150134477459013,3.7964923796106556,-66.53288614241804
1589544001.9696765,-0.4250349547787827,-1.9615536543632364,9.083329259349792,0.8533333333333334,-0.4155555555555556,-0.7111111111111111,-0.0625,4.650919701784405,-83.37068565142997
1589544001.9796765,-0.5345415031693329,-2.0645415031693326,8.930640305865783,0.7138880057238042,-0.3151293333780506,-0.7424543269499503,-0.31436512727638594,5.558633916893047,-98.40229776637489
1589544001.9896765,-0.6901348400291172,-2.3358102533883325,9.16547194010191,0.6111111111111112,-0.2411111111111111,-0.7655555555555555,-1.8555712503033033,4.164700249575375,-118.6663554195986
1589544001.9996765,-0.6655171540914997,-2.4357294496852693,8.973315220142768,0.6111111111111112,-0.2411111111111111,-0.7655555555555555,-1.6946278498742764,5.442807389844237,-132.53233795163442
1589544002.0096765,-0.8336724682969369,-2.6092656516841686,8.917627266451074,0.6111111111111112,-0.2411111111111111,-0.7655555555555555,-0.5074147923403947,7.579802696122961,-147.09710993423204
1589544002.0196764,-0.8939337902495796,-2.708524505366611,8.813276865382129,0.6111111111111112,-0.2411111111111111,-0.7655555555555555,-0.42110920729341783,8.21516552437605,-159.44882322513902
1589544002.0296764,-1.0055654882291076,-2.944265027101367,9.13379661839657,0.5839705525442925,-0.18682999397747396,-0.7765814074733256,-2.023324366960602,6.323555436453361,-174.05306255561848
1589544002.0396764,-1.115009907026368,-3.0688976951345492,9.10663364324544,0.5755555555555556,-0.17,-0.78,-1.6734735135226677,8.05598210807973,-181.94187348642652
1589544002.0496764,-1.2985444005832356,-3.2417923823749066,8.888719726875067,0.5755555555555556,-0.17,-0.78,-0.7654988619794445,10.364302162239056,-188.8386100145809
1589544002.0596764,-1.2087658394468042,-3.246658008354102,8.897583628768999,0.5755555555555556,-0.17,-0.78,-1.1383362876899854,9.202439976833164,-193.82808935027555
1589544002.0696764,-1.09,-3.2109820518365204,9.060802570201723,0.5755555555555556,-0.17,-0.78,-2.557748447684656,7.204527200271849,-198.93301295913008
1589544002.0796764,-1.156114110726086,-3.2640760738173906,9.077357361592393,0.5939205863128016,-0.11919008157161917,-0.7604106338589375,-2.3764014525747443,8.049549470142638,-201.97949195140623
1589544002.0896764,-1.230382328539823,-3.3747352046460177,8.840147262168141,0.6088888888888889,-0.07777777777777778,-0.7444444444444445,-0.5858467574668141,9.86452139795354,-202.28529452433628
1589544002.0996764,-1.2723487474007327,-3.6364412318051293,8.751912813149817,0.6088888888888889,-0.07777777777777778,-0.7444444444444445,-0.6304491781364492,10.22608983562729,-200.7602872190316
1589544002.1096764,-1.0642673329752703,-3.658039604885225,8.542257431753963,0.6088888888888889,-0.07777777777777778,-0.7444444444444445,-1.0995668215678491,9.500928239497465,-197.7907797795577
1589544002.1196764,-1.1100640358600815,-3.770076843032098,8.890256143440327,0.6088888888888889,-0.07777777777777778,-0.7444444444444445,-1.354273393100136,7.9783128551989115,-194.9152525414232
1589544002.1296763,-1.0943357550596784,-3.618415210747852,9.09,0.5951075041483275,-0.025894917578017394,-0.7655218564005971,-1.7567011906821195,7.4037003401948915,-192.3076943867843
1589544002.1396763,-0.9941671606401896,-3.657196206283343,9.069318316538235,0.59,-0.006666666666666667,-0.7733333333333333,-1.314871072910492,7.825281564908121,-190.41430794309426
1589544002.1496763,-1.8334879286084573,-4.568340739095016,9.135735947567207,0.59,-0.006666666666666667,-0.7733333333333333,-0.08424401059023934,8.97825598940976,-187.57197821780346
1589544002.1596763,-21.022151771569877,-18.72592055948379,15.365749777829297,0.59,-0.006666666666666667,-0.7733333333333333,4.692974575943743,55.56963844132761,-157.4744165604111
1589544002.1696763,-16.863967837163408,-12.461512566666121,9.874267610457817,0.59,-0.006666666666666667,-0.7733333333333333,-30.230727985908374,13.975137817428617,-277.6854480289661
1589544002.1796763,-0.3696514765402488,0.4728736321391094,1.790577874381652,0.5860379086926831,0.05078365728942854,-0.7708570262662603,-66.8764521810823,-34.080001124269224,-358.4628335332034
1589544002.1896763,0.6692903930131004,-2.6626663459403446,13.016055066242322,0.5811111111111111,0.12222222222222222,-0.7677777777777778,-22.281844423062687,-5.121667067574569,-277.1480009344238
1589544002.1996763,0.5802540449520464,-2.3063730873416795,11.317921516948532,0.5811111111111111,0.12222222222222222,-0.7677777777777778,70.19524672377187,21.975679954608683,-248.50582948971373
1589544002.2096763,0.1326605552737006,-1.0663928202795612,4.088673921030073,0.5811111111111111,0.12222222222222222,-0.7677777777777778,55.099952327635975,33.24614247476426,-212.92290416542747
1589544002.2196763,0.9221058622652248,-1.041787137165623,9.313978372225383,0.5811111111111111,0.12222222222222222,-0.7677777777777778,-12.551899544678431,8.644778030734207,-172.21720261809904
1589544002.2296762,1.2245647727047049,-1.2634210474053185,10.731933151947253,0.5613011693002955,0.17504873371773058,-0.7677777777777778,-13.85846796615892,1.675270093142414,-140.2105472861597
1589544002.2396762,0.7874517359489335,-1.7384205200062277,8.965858243811303,0.5377777777777778,0.23777777777777775,-0.7677777777777778,4.705971216721158,7.56383796512533,-119.6888598591001
1589544002.2496762,0.23650175152358566,-2.5162570180910793,8.702947358318537,0.5377777777777778,0.23777777777777775,-0.7677777777777778,-4.206973703152743,4.248470416046835,-90.6565514180143
1589544002.2596762,-0.024919173316963375,-2.712761748857513,8.525825659914059,0.5377777777777778,0.23777777777777775,-0.7677777777777778,1.4804540959006882,4.3683241252302025,-64.94988830911943
1589544002.2696762,-0.1347233589635366,-2.945458866276402,9.126315857082561,0.5377777777777778,0.23777777777777775,-0.7677777777777778,1.7772431780228652,2.840882085772485,-43.43530476391463
1589544002.2796762,0.0933595235077937,-2.789655725932497,8.882326701305285,0.520703943076266,0.28899928188231316,-0.7475996094941729,-1.6598313479491404,1.413643708021797,-15.989703459637562
1589544002.2896762,0.0535738659827425,-2.7734723641026755,9.225185941880936,0.5133333333333333,0.3111111111111111,-0.7388888888888889,-1.005496207263796,-0.372745006411789,-1.621055119650503
1589544002.2996762,-0.11652388172858227,-2.6454956963831777,8.563206751995718,0.5133333333333333,0.3111111111111111,-0.7388888888888889,0.703029534406636,0.5815485216072782,7.643666659233822
1589544002.3096762,-0.2710284622731614,-2.862450811843362,8.754901623686724,0.5133333333333333,0.3111111111111111,-0.7388888888888889,1.212800859598854,-0.278720152817574,15.402626552053487
1589544002.3196762,-0.29094120948968977,-3.053818659094286,8.976500140331181,0.5133333333333333,0.3111111111111111,-0.7388888888888889,1.6105696207756186,-0.5999085783625828,23.16874824586023
1589544002.3296762,-0.12475078833104952,-2.894552838817256,8.27019085040696,0.5133333333333333,0.3111111111111111,-0.7388888888888889,2.779096019547308,1.8669804857109837,31.997614369912995
1589544002.3396761,0.024831682742916066,-2.9679801929149927,9.227643558400825,0.4888888888888889,0.33555555555555555,-0.7533333333333333,-0.8728960342864508,-2.77741331714967,42.735891211411634
1589544002.3496761,1.5491307135986319,-6.680139655848089,8.639184153336421,0.4888888888888889,0.33555555555555555,-0.7533333333333333,0.23809407175175468,-1.0790284655669957,47.69419555381381
1589544002.3596761,3.403859691507155,-16.922159078238245,8.771302174317041,0.4888888888888889,0.33555555555555555,-0.7533333333333333,-3.050012776435606,-8.075911772904664,19.5703458929567
1589544002.369676,-0.2010582169194796,-11.251217698902812,9.521428742730379,0.4888888888888889,0.33555555555555555,-0.7533333333333333,-8.219010432280113,-9.11134885184963,-50.853595839079084
1589544002.379676,-0.27220715017785013,-0.330903719780551,7.472515825646591,0.4965317551228204,0.32992396990950074,-0.7533333333333333,7.461637879061916,17.427563754747695,-105.86176297703021
1589544002.389676,-0.8478269880257906,-2.617404820386859,9.160494703715075,0.51,0.32,-0.7533333333333333,6.006749884863371,10.930862853085662,-79.19405559180227
1589544002.399676,-0.6626340769953913,-2.6444995758145504,9.198478664618348,0.51,0.32,-0.7533333333333333,-7.480033189645289,-1.0885702084240938,-40.16858218879692
1589544002.409676,1.0585083139207967,-10.149150935818138,8.29431279620853,0.51,0.32,-0.7533333333333333,2.070864125632581,0.9737227889790345,-26.803232187324284
1589544002.419676,0.3336102809324566,-7.411578003586372,8.887644949193067,0.51,0.32,-0.7533333333333333,0.27446951583980894,1.9713837417812312,-36.84731769276748
1589544002.429676,-0.04283707596751063,-5.57171906354515,8.768971810797899,0.5063258480649785,0.3376359292881032,-0.7489243510113075,2.0609472049689446,3.2066710463449595,-30.800203057811757
1589544002.439676,-0.19889558232931737,-5.7029317269076305,8.519779116465864,0.5044444444444445,0.3466666666666667,-0.7466666666666667,0.5710341365461851,2.1585717871485945,-19.57065763052209
1589544002.449676,-0.46266158053836187,-4.474407657981863,8.766107672376567,0.5044444444444445,0.3466666666666667,-0.7466666666666667,-2.5060097883978694,0.17295685187850873,-11.199375629768245
1589544002.459676,-0.013023134230819503,-4.5100483596915435,8.76437328453797,0.5044444444444445,0.3466666666666667,-0.7466666666666667,0.7037723826950726,0.2802248072147433,-2.1968125081688665
1589544002.469676,0.023151016456921587,-4.106532863771405,8.621946790399573,0.5044444444444445,0.3466666666666667,-0.7466666666666667,1.7247554828587641,1.3331034900023366,0.04888986714290483
1589544002.479676,0.22616650532429813,-4.127534466068031,9.013976699936576,0.5044444444444445,0.3466666666666667,-0.7466666666666667,0.23714198684781507,-0.8108100777781488,0.005136529024935735
1589544002.489676,0.11553033511897347,-4.18829550267846,8.773408994643079,0.4833333333333333,0.3622222222222222,-0.7466666666666667,-0.4095645944935842,0.2047822972467921,0.027935405506415843
1589544002.499676,0.13899686301847333,-4.218996863018473,8.716504705472289,0.4833333333333333,0.3622222222222222,-0.7466666666666667,-0.6686911815963751,0.10942401533635412,-0.0625
1589544002.509676,0.13354883340670398,-4.217661625055029,8.691774416703351,0.4833333333333333,0.3622222222222222,-0.7466666666666667,-0.3609010439594994,0.040319791208100114,-0.011090104395949943
1589544002.519676,0.11682445759368837,-4.190445759368837,8.708662721893491,0.4833333333333333,0.3622222222222222,-0.7466666666666667,0.43471400394477316,0.1875,0.07103057199211045
1589544002.529676,0.15262173104278368,-4.127540577014261,8.872784039099828,0.48688583320162265,0.3605826068983964,-0.7412012822539139,0.6741574570521939,0.20287139366086734,0.10962860633913266
1589544002.539676,0.13062338478731578,-4.121246769574632,8.820623384787316,0.4977777777777778,0.3555555555555556,-0.7244444444444444,0.23181794370328979,0.24480512677236851,0.06120128169309213
1589544002.549676,0.14145721271393644,-4.18,8.79437163814181,0.4977777777777778,0.3555555555555556,-0.7244444444444444,-0.5284229828850856,0.0,0.03863080684596577
1589544002.559676,0.11758047801023383,-4.18,8.708677051622514,0.4977777777777778,0.3555555555555556,-0.7244444444444444,-0.2026220124360386,-0.043951195025584554,0.10302440248720772
1589544002.569676,0.1384122984759052,-4.168412298475905,8.787725134349396,0.4977777777777778,0.3555555555555556,-0.7244444444444444,0.16898731389304908,-0.004294775790679231,-0.009923134525592459
1589544002.579676,0.12523352103345478,-4.129065915866181,8.828784365684001,0.49399801258694936,0.3555555555555556,-0.7282242096352729,0.40479049354090757,0.12208098708181517,-0.07593574031136138
1589544002.589676,0.1248280484422668,-4.110458537487289,8.8644841453268,0.4833333333333333,0.3555555555555556,-0.7388888888888889,-0.19323171859110655,-0.0625,0.03089176758805584
1589544002.599676,0.12414959274979925,-4.168866123666399,8.758685098084204,0.4833333333333333,0.3555555555555556,-0.7388888888888889,-0.7759349546862453,-0.15093495468624527,0.029478318228748423
1589544002.609676,0.13614765784114055,-4.19385234215886,8.713114052953156,0.4833333333333333,0.3555555555555556,-0.7388888888888889,-0.561997199592668,-0.17776858452138494,0.038422861507128314
1589544002.6196759,0.13,-4.194699385396787,8.760601229206426,0.4833333333333333,0.3555555555555556,-0.7388888888888889,0.03688652381023938,-0.007285264549867013,0.0
1589544002.6296759,0.13,-4.175791095015553,8.798417809968894,0.4833333333333333,0.3555555555555556,-0.7388888888888889,0.3914169684583828,0.18967609358799042,0.0
1589544002.6396759,0.11949116748951229,-4.131526497531463,8.836438172426586,0.4833333333333333,0.3555555555555556,-0.7466666666666667,0.5275177649039696,0.19386040638109642,0.12181979680945179
1589544002.6496758,0.11900062180461518,-4.172000829072821,8.751998756390769,0.4833333333333333,0.3555555555555556,-0.7466666666666667,-0.2937616588365345,0.2937487045737184,0.04374870457371839
1589544002.6596758,0.14,-4.203399557806596,8.713399557806596,0.4833333333333333,0.3555555555555556,-0.7466666666666667,-0.5175221096702366,0.20750552741755915,0.042494472582440844
1589544002.6696758,0.14,-4.209976479074216,8.719976479074218,0.4833333333333333,0.3555555555555556,-0.7466666666666667,-0.1886760462891819,0.12529401157229547,0.12470598842770453
1589544002.6796758,0.14,-4.146631002243088,8.856631002243086,0.48127450137077543,0.3566785548078599,-0.747789665918971,0.16711247196141096,0.01052811799035274,0.05197188200964726
1589544002.6896758,0.13996248196248198,-4.129981240981241,8.840056277056277,0.4711111111111111,0.3622222222222222,-0.7533333333333333,0.37453102453102455,0.06261724386724386,-0.0002344877344877345
1589544002.6996758,0.11659649039149302,-4.130210528825521,8.818947355872394,0.4711111111111111,0.3622222222222222,-0.7533333333333333,-0.19407902579752995,0.08245612989366269,-0.06118419484049402
1589544002.7096758,0.11355062551297038,-4.167753127564852,8.73065187653891,0.4711111111111111,0.3622222222222222,-0.7533333333333333,-0.7903085905439351,-0.022191409456064865,0.04030859054393514
1589544002.7196758,0.12849262755913865,-4.191507372440862,8.761323503412184,0.4711111111111111,0.3622222222222222,-0.7533333333333333,-0.5022983628584562,-0.0625,0.0
1589544002.7296758,0.15,-4.169473644436048,8.793684488947665,0.471754434578164,0.36187131851292065,-0.7525730419631799,0.13815888909880975,-0.059210277725297564,0.0
1589544002.7396758,0.13522194240665716,-4.16,8.837832913609986,0.4833333333333333,0.3555555555555556,-0.7388888888888889,0.35190928501040186,0.04618142997919632,-0.02309071498959816
1589544002.7496758,0.12344616013907353,-4.163361540034768,8.769746139687085,0.4833333333333333,0.3555555555555556,-0.7388888888888889,0.14442299826158095,0.08298074956539524,-0.04149037478269762
1589544002.7596757,0.1342639743905442,-4.185736025609455,8.713934006402365,0.4833333333333333,0.3555555555555556,-0.7388888888888889,-0.28585016005909875,0.024587540014774683,0.024587540014774683
1589544002.7696757,0.1195289389657577,-4.200471061034242,8.739057877931515,0.4833333333333333,0.3555555555555556,-0.7388888888888889,-0.21912848203471944,0.0625,0.02279608764267626
1589544002.7796757,0.13896818684535817,-4.174840934226791,8.786190878927851,0.4827601038029767,0.3562434309919835,-0.7388888888888889,0.28224416108255806,0.06894883221651162,-0.06894883221651162
1589544002.7896757,0.13,-4.1302386557350435,8.840238655735043,0.4777777777777778,0.3622222222222222,-0.7388888888888889,0.5550420082798928,0.12350840165597857,-0.125
1589544002.7996757,0.13,-4.144273261367979,8.807267386320214,0.4777777777777778,0.3622222222222222,-0.7388888888888889,0.08975269870080246,0.0625,-0.018168465800534966
1589544002.8096757,0.13,-4.163824629450063,8.744470148219975,0.4777777777777778,0.3622222222222222,-0.7388888888888889,-0.24596550768804543,0.0625,0.14228078681257791
1589544002.8196757,0.13,-4.196102876668052,8.73155884933278,0.4777777777777778,0.3622222222222222,-0.7388888888888889,-0.5284001708454541,0.0625,0.18262859583506488
1589544002.8296757,0.13103739561435654,-4.178962604385643,8.792074791228712,0.4783541086746425,0.36349015019532466,-0.7396957521444996,-0.3596953289232609,0.07546744517945653,0.0
1589544002.8396757,0.13912653565022856,-4.170873464349771,8.808253071300458,0.482848075361238,0.37337687690583493,-0.7459873055057333,0.2469901737671405,0.17658169562785675,0.0
1589544002.8496757,0.15,-4.154142983035912,8.823070610266578,0.4833333333333333,0.3744444444444445,-0.7466666666666667,0.18526589006389071,-0.04955317801277814,0.036606356025556286
1589544002.8596756,0.15,-4.169543952412425,8.722964309319234,0.4833333333333333,0.3744444444444445,-0.7466666666666667,-0.05537425644415067,-0.0014251487111698533,-0.059649702577660293
1589544002.8696756,0.13709121201172267,-4.18163515195311,8.740361515917941,0.4833333333333333,0.3744444444444445,-0.7466666666666667,-0.40114015014653337,-0.01817992492673331,0.0625
1589544002.8796756,0.12785473411154347,-4.20356420233463,8.794290531776912,0.48214151895085744,0.3732526300619686,-0.7480968439256377,-0.19182879377431905,-0.0625,0.0625
1589544002.8896756,0.12289743925172515,-4.168410242993099,8.81,0.4777777777777778,0.3688888888888889,-0.7533333333333333,0.2681089953232822,-0.09871799064656442,0.02628200935343559
1589544002.8996756,0.12975602577100437,-4.1409758969159824,8.81,0.4777777777777778,0.3688888888888889,-0.7533333333333333,0.3109751610687772,-0.18445032213755436,-0.05945032213755437
1589544002.9096756,0.14378654903228788,-4.156213450967712,8.721359647096865,0.4777777777777778,0.3688888888888889,-0.7533333333333333,-0.09466372580719665,-0.023665931451799162,0.023665931451799162
1589544002.9196756,0.14713349088968514,-4.16146603644126,8.754332545551573,0.4777777777777778,0.3688888888888889,-0.7533333333333333,-0.3037470458184036,-0.026668636121064265,0.04458431806053213
1589544002.9296756,0.14,-4.186186816435117,8.793813183564883,0.4766126383551746,0.36687637534075607,-0.750579367425362,-0.4017514040792196,0.05654190067986994,0.0
1589544002.9396756,0.14,-4.150763481271906,8.829236518728095,0.46578884149974903,0.34818072622683915,-0.7249958475852653,-0.06965763692411636,0.0011929394873527316,0.0
1589544002.9496756,0.12319100490598812,-4.143617990188024,8.828089950940118,0.4655555555555556,0.3477777777777778,-0.7244444444444444,0.33778109668787115,0.1875,-0.03988756132485153
1589544002.9596756,0.13216462241261023,-4.138658489650441,8.76432924482522,0.4655555555555556,0.3477777777777778,-0.7244444444444444,0.030297769448302397,0.17397110992118606,-0.09794221984237211
1589544002.9696755,0.1391830792657419,-4.1667323170629675,8.778366158531483,0.4655555555555556,0.3477777777777778,-0.7244444444444444,-0.2767597178762069,0.1301057545891133,-0.010211509178226608
1589544002.9796755,0.14,-4.188763760069322,8.76618119965339,0.47036315528597056,0.3477777777777778,-0.7271916442903958,-0.39114100259956996,0.125,0.07795299913347668
1589544002.9896755,0.13102232763556065,-4.168029770180747,8.81,0.5044444444444445,0.3477777777777778,-0.7466666666666667,-0.00638954772225403,0.125,0.13138954772225403
1589544002.9996755,0.1176427219288632,-4.141910680482216,8.798535917106706,0.5044444444444445,0.3477777777777778,-0.7466666666666667,0.11305824698615125,0.13694175301384875,0.02388350602769752
1589544003.0096755,0.14426013137948457,-4.151913289540172,8.751913289540171,0.5044444444444445,0.3477777777777778,-0.7466666666666667,0.002709701869631126,0.16358388074785246,0.11304194037392623
1589544003.0196755,0.12092898143478156,-4.160464490717391,8.760928981434782,0.5044444444444445,0.3477777777777778,-0.7466666666666667,-0.2558061339673848,0.04798466508153806,0.0625
1589544003.0296755,0.14069539302123432,-4.171390786042469,8.782781572084938,0.5021264677069968,0.3492458297114947,-0.746125805427929,-0.375,-0.2282689680864274,0.06684620638271452
1589544003.0396755,0.14603674888263532,-4.1880183744413175,8.823963251117364,0.4711111111111111,0.3688888888888889,-0.7388888888888889,-0.27591872206588314,0.05011484025823539,0.125
1589544003.0496755,0.13215063731170337,-4.181075318655852,8.837849362688296,0.4711111111111111,0.3688888888888889,-0.7388888888888889,0.07123406720741599,0.006720741599073002,0.125
1589544003.0596755,0.14715025906735751,-4.15,8.757150259067357,0.4711111111111111,0.3688888888888889,-0.7388888888888889,0.17875647668393782,0.14281088082901555,0.0
1589544003.0696754,0.13295805657829007,-4.154694628947807,8.759389257895613,0.4711111111111111,0.3688888888888889,-0.7388888888888889,-0.08802429277137412,0.14348785361431293,0.0
1589544003.0796754,0.1101260413051024,-4.170126041305102,8.79,0.4712651615951251,0.36880486135215396,-0.7388888888888889,-0.37342448368622005,-0.002363274470669906,-0.0007877581568899687
1589544003.0896754,0.11922509545296772,-4.179225095452967,8.79,0.4823862277758494,0.3627388252535771,-0.7388888888888889,-0.2596863068379035,-0.17297053974314475,-0.05765684658104825
1589544003.0996754,0.12551332181504046,-4.1681622260616535,8.815297808493225,0.4833333333333333,0.3622222222222222,-0.7388888888888889,0.034458261344002906,0.03952782577066473,0.011486087114667635
1589544003.1096754,0.14839756297171955,-4.160534145676094,8.754273165408748,0.4833333333333333,0.3622222222222222,-0.7388888888888889,0.17748476857324724,-0.055823179048831495,0.05916158952441575
1589544003.1196754,0.12237222200824249,-4.17,8.767116666024727,0.4833333333333333,0.3622222222222222,-0.7388888888888889,-0.16947916265454685,-0.125,0.01482638755151562
1589544003.1296754,0.13,-4.17068189118944,8.789318108810559,0.4833333333333333,0.3622222222222222,-0.7398738428291914,-0.3082381800659989,-0.11647636013199777,0.0625
1589544003.1396754,0.13,-4.182015060240964,8.784030120481928,0.4833333333333333,0.3622222222222222,-0.7533333333333333,-0.2248117469879518,0.012594126506024097,0.024717620481927716
1589544003.1496754,0.13062248135128185,-4.188132555946155,8.796887593243591,0.4833333333333333,0.3622222222222222,-0.7533333333333333,-0.10165694932693131,0.0702810168910229,-0.10943796621795421
1589544003.1596754,0.13778580607618263,-4.157785806076183,8.752214193923818,0.4833333333333333,0.3622222222222222,-0.7533333333333333,0.2223225759522828,0.17366128797614142,0.08348386392842422
1589544003.1696754,0.13,-4.153780157250236,8.769450393125588,0.4833333333333333,0.3622222222222222,-0.7533333333333333,0.08956102577904226,0.11318700859301409,-0.05068700859301409
1589544003.1796753,0.13,-4.16990618812357,8.809765470308927,0.4833333333333333,0.3622222222222222,-0.7533333333333333,-0.06162051365847093,0.062793162113843,-0.000293162113843011
1589544003.1896753,0.1388261032222385,-4.1888261032222385,8.795869483888806,0.4833333333333333,0.3622222222222222,-0.7466666666666667,-0.2353262902779811,0.10298943541697164,0.11766314513899055
1589544003.1996753,0.13200377364628574,-4.182003773646286,8.829981131768571,0.4833333333333333,0.3622222222222222,-0.7466666666666667,-0.15004717057857153,-0.024929244132142675,0.07502358528928577
1589544003.2096753,0.11078291046758768,-4.167651268597237,8.724697462805526,0.4833333333333333,0.3622222222222222,-0.7466666666666667,0.12989319042242295,0.125,0.057606809577577044
1589544003.2196753,0.11774740967056323,-4.14675777098831,8.76648445802338,0.4833333333333333,0.3622222222222222,-0.7466666666666667,0.1734213104410202,0.125,0.014078689558979812
1589544003.2296753,0.1374375518480966,-4.148718775924048,8.788718775924048,0.4833333333333333,0.3622222222222222,-0.7466666666666667,-0.08496174762650938,0.17949234952530188,0.16347704857590561
1589544003.2396753,0.12925483948966676,-4.1661177407654995,8.7738822592345,0.4803485665249074,0.3586405020521112,-0.7466666666666667,-0.09142137340520859,0.08676412021562575,0.12034274681041716
1589544003.2496753,0.12159132037816903,-4.176817359243662,8.752043398109155,0.4777777777777778,0.3555555555555556,-0.7466666666666667,-0.05255424763644359,0.019891504727112826,0.07244575236355641
1589544003.2596753,0.128685033910058,-4.162629932179884,8.71657483044971,0.4777777777777778,0.3555555555555556,-0.7466666666666667,-0.008218538062137432,0.10856292387572514,0.11678146193786257
1589544003.2696753,0.13485387215447533,-4.154853872154476,8.784853872154475,0.4777777777777778,0.3555555555555556,-0.7466666666666667,0.3244388317242152,0.020224467310313916,0.10477553268968609
1589544003.2796752,0.15835178994939214,-4.178351789949392,8.808351789949393,0.4777777777777778,0.3555555555555556,-0.7466666666666667,0.07966885469383184,0.11813245812246727,0.006867541877532732
1589544003.2896752,0.13,-4.177627499261302,8.798813749630652,0.4655555555555556,0.3622222222222222,-0.7388888888888889,-0.25,0.125,0.125
1589544003.2996752,0.13,-4.161103122229883,8.79055156111494,0.4655555555555556,0.3622222222222222,-0.7388888888888889,-0.25,0.125,0.125
1589544003.3096752,0.15481997353576155,-4.17827332451192,8.726906701952318,0.4655555555555556,0.3622222222222222,-0.7388888888888889,0.03237516540149036,0.021583443600993568,-0.051708278199503216
1589544003.3196752,0.1289367874249477,-4.168936787424948,8.767442488025365,0.4655555555555556,0.3622222222222222,-0.7388888888888889,0.1875,0.13164507859407676,0.006645078594076773
1589544003.3296752,0.12186281454496391,-4.161862814544964,8.816960298185252,0.4655555555555556,0.3622222222222222,-0.7388888888888889,0.1875,0.17585740909397557,0.050857409093975584
1589544003.3396752,0.12932010135135136,-4.178640202702702,8.820679898648649,0.4655555555555556,0.3560088213213214,-0.7254265202702703,-0.22025443412162166,-0.0455025337837838,0.0625
