time,acc_x,acc_y,acc_z,mag_x,mag_y,mag_z,gyr_x,gyr_y,gyr_z
1589543988.5267758,0.17,-4.17,8.84,0.4711111111111111,0.2788888888888889,-0.6844444444444444,0.125,0.0,-0.0625
1589543988.5367758,0.17,-4.17,8.733575152242112,0.4711111111111111,0.2788888888888889,-0.6844444444444444,-0.05640599049640155,-0.12093732699760103,-0.0625
1589543988.5467758,0.18759429449948753,-4.177594294499487,8.82,0.4711111111111111,0.2788888888888889,-0.6844444444444444,-0.09492868124359413,0.047464340621797066,-0.0625
1589543988.5567758,0.18042944994875298,-4.170429449948753,8.82,0.4711111111111111,0.2788888888888889,-0.6844444444444444,-0.005368124359412377,0.0026840621797061884,-0.0625
1589543988.5667758,0.15560821831105917,-4.17,8.831587672533411,0.4566666666666666,0.2644444444444444,-0.6844444444444444,-0.16005136444411988,0.009922953333820206,-0.08994863555588013
1589543988.5767758,0.17,-4.173026666340772,8.77670667025151,0.4566666666666666,0.2644444444444444,-0.6844444444444444,-0.2689166646298243,-0.2574166524087699,0.037833329259648524
1589543988.5867758,0.17291460234680575,-4.18,8.72623142112125,0.4566666666666666,0.2644444444444444,-0.6844444444444444,-0.3853650586701434,-0.5625,0.10678373533246414
1589543988.5967758,0.1816443278087958,-4.181644327808796,8.791644327808795,0.4566666666666666,0.2644444444444444,-0.6844444444444444,-0.5625,-0.5933311464149216,0.0625
1589543988.6067758,0.1890316501400215,-4.189031650140022,8.799031650140021,0.4566666666666666,0.2644444444444444,-0.6844444444444444,-0.5625,-0.7318434401254029,0.0625
1589543988.6167758,0.20657012581271636,-4.186570125812716,8.871425314531791,0.4711111111111111,0.27111111111111114,-0.6844444444444444,-0.3321265726589547,-0.310689858988432,-0.19640821582369333
1589543988.6267757,0.19240378282529763,-4.172403782825298,8.836009457063245,0.4711111111111111,0.27111111111111114,-0.6844444444444444,-0.15504728531622056,-0.04507092797433082,0.024940893354724325
1589543988.6367757,0.2,-4.1883135321580385,8.763372935683924,0.4711111111111111,0.27111111111111114,-0.6844444444444444,0.22891915197547208,0.29216169604905584,0.010540424012263953
1589543988.6467757,0.2,-4.181006898473973,8.777986203052052,0.4711111111111111,0.27111111111111114,-0.6844444444444444,0.13758623092467426,0.4748275381506515,0.05620688453766288
1589543988.6567757,0.18,-4.18,8.831381705125876,0.4701132129646453,0.271648440882285,-0.6834465462979786,0.178864342963277,0.4375,0.058182171481638505
1589543988.6667757,0.18,-4.18,8.848317081541598,0.45788210777551214,0.27823442059951053,-0.6712154411088456,0.07301824036500919,0.4375,0.005259120182504594
1589543988.6767757,0.16335063144142836,-4.175025947162142,8.801571527072145,0.4566666666666666,0.2788888888888889,-0.67,-0.0625,0.07264638372768181,0.1560878302366091
1589543988.6867757,0.17857163594135578,-4.197857453912034,8.717856002322543,0.4566666666666666,0.2788888888888889,-0.67,-0.0625,-0.16518181158368417,0.01339091304978951
1589543988.6967757,0.18,-4.183193666540743,8.782268777819752,0.4566666666666666,0.2788888888888889,-0.67,-0.07089930686727001,-0.332460415879638,-0.028359722746908005
1589543988.7067757,0.18,-4.162526320976299,8.7891578930079,0.4566666666666666,0.2788888888888889,-0.67,-0.2861841564968875,-0.20328950610186752,-0.114473662598755
1589543988.7167757,0.1676493139628733,-4.182350686037126,8.763545197740113,0.4755555555555556,0.2588888888888889,-0.6977777777777778,-0.47410966505246166,-0.7019521791767555,0.0
1589543988.7267756,0.20978094194961666,-4.220421686746988,8.837217962760132,0.4755555555555556,0.2588888888888889,-0.6977777777777778,-0.948144852135816,-1.458789704271632,-0.03457009857612267
1589543988.7367756,0.2597932865995167,-4.244685025241046,8.984694834557503,0.4755555555555556,0.2588888888888889,-0.6977777777777778,-0.48406733736871066,-0.5824924635739407,-0.10771407038782688
1589543988.7467756,0.10315070566423247,-4.131004578304135,8.608516024064475,0.4755555555555556,0.2588888888888889,-0.6977777777777778,0.11201473759884972,0.5293947935979417,-0.02097601119981838
1589543988.7567756,0.28776943191140275,-4.238986105414274,8.985944421657097,0.4753077146568226,0.25900154384285845,-0.6975074058882509,-0.7972915812141099,-1.1009200035890074,0.1237326317678425
1589543988.7667756,0.1790127970749543,-4.188025594149909,8.788025594149907,0.4633333333333333,0.2644444444444444,-0.6844444444444444,-0.0625,0.0501599634369287,0.05632998171846435
1589543988.7767756,0.17321502454062387,-4.174822536810936,8.771607512270311,0.4633333333333333,0.2644444444444444,-0.6844444444444444,-0.08259390337889912,-0.10268780675779823,-0.01004695168944956
1589543988.7867756,0.18983857093703407,-4.199677141874068,8.779838570937033,0.4633333333333333,0.2644444444444444,-0.6844444444444444,-0.1875,-0.3054374784952403,-0.0625
1589543988.7967756,0.18154644398954173,-4.18,8.776185775958167,0.4633333333333333,0.2644444444444444,-0.6844444444444444,-0.1875,0.125,-0.0625
1589543988.8067756,0.19005175159235668,-4.18,8.810258757961783,0.463373584571833,0.2644444444444444,-0.6845536978060863,-0.1884703423566879,0.1246765525477707,-0.0628234474522293
1589543988.8167756,0.19932789278131635,-4.18,8.856639463906582,0.4705883610521349,0.2644444444444444,-0.7041366625383345,-0.3623979896496815,0.06670067011677283,-0.12079932988322717
1589543988.8267756,0.18305654428963694,-4.178890470863419,8.799448794874403,0.4711111111111111,0.2644444444444444,-0.7055555555555556,-0.489575917827723,-0.09372775348316892,-0.10764136072409235
1589543988.8367755,0.1475104240821723,-4.122016678531476,8.643045865961557,0.4711111111111111,0.2644444444444444,-0.7055555555555556,-0.7561718193837079,-0.8935154581511238,-0.018776060205430697
1589543988.8467755,0.3314058045178741,-4.233925725564735,9.157625922947583,0.4711111111111111,0.2644444444444444,-0.7055555555555556,-0.2002236548724322,-0.6069294173550699,-0.40347316141530815
1589543988.8567755,0.08610717157686965,-4.203263396447109,8.59037283427151,0.4711111111111111,0.2644444444444444,-0.7055555555555556,0.997523576284816,1.6927452664668468,-0.547202829154178
1589543988.8667755,0.3762075425951641,-4.224075470034605,9.230471687716282,0.4566666666666666,0.27111111111111114,-0.6766666666666666,-1.175943375432564,-1.6270636337587339,-0.48696935131918273
1589543988.8767755,0.1797960812585288,-4.139796081258529,8.77804706609336,0.4566666666666666,0.27111111111111114,-0.6766666666666666,-0.30284314735188855,0.251274492134195,-0.9735784263240557
1589543988.8867755,0.10146451781845883,-3.9847551598543096,8.563295165091533,0.4566666666666666,0.27111111111111114,-0.6766666666666666,-0.1341532363653677,0.6501431309067536,-1.226372985454805
1589543988.8967755,0.2552053021759627,-3.792463626111553,8.896026510879814,0.4566666666666666,0.27111111111111114,-0.6766666666666666,-1.0251104619992235,-0.4977098777985247,-1.434933722800466
1589543988.9067755,0.23194283707086208,-3.513314044850345,8.77971418535431,0.4566666666666666,0.27111111111111114,-0.6766666666666666,-0.5404757723096264,0.4230960326117099,-1.7257145366142241
1589543988.9167755,0.1598874521615073,-3.244718630403768,8.832865780475101,0.4755555555555556,0.2644444444444444,-0.6844444444444444,-1.110605991983514,-0.14291112796938335,-1.5754871600353269
1589543988.9267755,0.06477150470061838,-3.039543009401237,8.99747775375798,0.4755555555555556,0.2644444444444444,-0.6844444444444444,-1.746773038057413,-1.2139095570861194,-0.5938426926750792
1589543988.9367754,-0.14974640607333226,-2.6130705863350023,9.11208366984332,0.4755555555555556,0.2644444444444444,-0.6844444444444444,-2.6522875948958164,-2.5080964303020514,0.9838071393958973
1589543988.9467754,-0.1161593200237201,-2.7068847598339594,8.783442379916979,0.4755555555555556,0.2644444444444444,-0.6844444444444444,-1.959459626408381,-1.4569702510377545,3.266091371812611
1589543988.9567754,-0.09766167656476642,-2.8223383234352335,8.844092066011658,0.4755555555555556,0.2644444444444444,-0.6842171074437967,-0.9561564355893702,-0.7225977722433564,5.611047442458743
1589543988.9667754,-0.018323229182859217,-2.9201212498056894,8.961555521011451,0.4755555555555556,0.2644444444444444,-0.6766666666666666,0.5419192704285196,0.08270182392870096,12.622098295248458
1589543988.9767754,-0.01580552639749257,-3.022902763198746,8.85113203920815,0.4755555555555556,0.2644444444444444,-0.6766666666666666,0.6592886500391786,-0.5100690799686571,19.755898039592545
1589543988.9867754,-0.040609559573618774,-3.0353047797868093,8.77051893138574,0.4755555555555556,0.2644444444444444,-0.6766666666666666,0.2717256316622067,-0.8201194946702346,23.78655343071305
1589543988.9967754,-0.059062586926286506,-3.0853129346314323,8.830625869262866,0.4755555555555556,0.2644444444444444,-0.6766666666666666,0.29492350486787205,-1.2207058414464533,31.20318150208623
1589543989.0067754,-0.06,-3.0964638163312364,8.852927632662473,0.4755555555555556,0.2644444444444444,-0.6766666666666666,0.39329770414045256,-1.2903988520702263,36.09477831944399
1589543989.0167754,-0.06790516276016528,-3.1158103255203304,8.836284511719503,0.48609577256910924,0.280254769964775,-0.6766666666666666,0.48690726725103295,-1.2630927327489672,43.32881945785226
1589543989.0267754,-0.08959803579574423,-3.129799017897872,8.869196071591487,0.4888888888888889,0.28444444444444444,-0.6766666666666666,0.4387561381382993,-1.9849263423404084,50.25943529127646
1589543989.0367754,-0.17669141106904326,-3.14,8.728748670608756,0.4888888888888889,0.28444444444444444,-0.6766666666666666,0.11121421278768026,-2.8400715744246394,56.40482489258519
1589543989.0467753,-0.1499508917032825,-3.139926337554924,8.879680796071337,0.4888888888888889,0.28444444444444444,-0.6766666666666666,0.0015346342724218143,-3.0609653657275784,61.701465171879036
1589543989.0567753,-0.1318829154820367,-3.112824373223055,8.762238950633238,0.4888888888888889,0.28444444444444444,-0.6766666666666666,0.5661588911863531,-2.496341108813647,66.83954590979582
1589543989.0667753,-0.13757576368585545,-3.1327272910575665,8.856060691601977,0.4779461191204311,0.26929291707273356,-0.6876094364351245,0.4356059078536143,-3.195076368585543,70.59469956648856
1589543989.0767753,-0.1439793609843223,-3.208953562214725,8.890103195078389,0.4744444444444445,0.2644444444444444,-0.6911111111111111,0.26243550307600716,-4.018975739233975,75.32986331613415
1589543989.0867753,-0.17727406231395118,-3.2838666402063903,8.723629688430245,0.4744444444444445,0.2644444444444444,-0.6911111111111111,0.36648144473109745,-3.654814943441159,77.5668510617186
1589543989.0967753,-0.18986885730576733,-3.34,8.811573712330793,0.4744444444444445,0.2644444444444444,-0.6911111111111111,0.4383196418389542,-3.8108607163220913,80.01885176229595
1589543989.1067753,-0.1810113403585834,-3.34,8.917863915697,0.4744444444444445,0.2644444444444444,-0.6911111111111111,0.49367912275885373,-3.7001417544822925,81.29211982345363
1589543989.1167753,-0.22198435216232482,-3.3609921760811625,8.86396870432465,0.4811111111111111,0.2588888888888889,-0.6977777777777778,0.7938966984782048,-3.2309077035508555,81.73808679391281
1589543989.1267753,-0.23998169264567423,-3.3698657460682777,8.899816926456742,0.4811111111111111,0.2588888888888889,-0.6977777777777778,0.625076280643024,-3.624656737106392,81.06211859678488
1589543989.1367753,-0.21804268228894236,-3.208979670118911,8.680426822889423,0.4811111111111111,0.2588888888888889,-0.6977777777777778,0.7164888237960735,-3.213300292917669,80.60505588101964
1589543989.1467752,-0.2716000351205807,-3.202057188012175,8.85,0.4811111111111111,0.2588888888888889,-0.6977777777777778,0.18892860278623272,-4.242856986068836,79.42321397213767
1589543989.1567752,-0.31456435846405995,-3.2572970323109343,8.85,0.4811111111111111,0.2588888888888889,-0.6977777777777778,0.2272896057714821,-4.05105197114259,79.03960394228518
1589543989.1667752,-0.39069793033393996,-3.333455368857663,8.907940491810217,0.5004246083811835,0.22428553961334255,-0.6929494034602597,0.34053201845346426,-3.982766009226732,78.45037192618614
1589543989.1767752,-0.42342249332247245,-3.3365775066775276,8.903155013355056,0.5077777777777778,0.2111111111111111,-0.6911111111111111,0.5008358748981796,-3.7902735418363673,77.85110179204001
1589543989.1867752,-0.43911085578740594,-3.293556576850376,8.808002297913347,0.5077777777777778,0.2111111111111111,-0.6911111111111111,0.44861430265742563,-3.8013856973425746,76.88474296727327
1589543989.1967752,-0.5046898808132741,-3.3824141154475345,8.836965646179014,0.5077777777777778,0.2111111111111111,-0.6911111111111111,0.2642235335358729,-3.6392235335358727,75.77284120121524
1589543989.2067752,-0.5674675407331975,-3.4638868380855397,8.85641929735234,0.5077777777777778,0.2111111111111111,-0.6911111111111111,0.3526206084521385,-3.4710690873217924,74.55867330702648
1589543989.2167752,-0.6068612202357091,-3.459854084823218,8.873430610117856,0.5159853728498001,0.1894729059212343,-0.7105108812813454,0.375,-3.353558686763409,73.3891455543975
1589543989.2267752,-0.5518610379391742,-3.4,8.885533508945983,0.52,0.17888888888888888,-0.72,0.3680211077280969,-3.4421525948479355,71.39531661592146
1589543989.2367752,-0.5877330573705997,-3.4,8.79944066231056,0.52,0.17888888888888888,-0.72,0.2335010348602511,-3.5318326434264993,69.37751552290376
1589543989.2467752,-0.7082970678461867,-3.409845187986017,8.809380751944069,0.52,0.17888888888888888,-0.72,0.31056484982521226,-3.131773025611757,65.5493463294571
1589543989.2567751,-0.7678764640267708,-3.484412596605848,8.867876464026772,0.52,0.17888888888888888,-0.72,0.36417541430961675,-3.0216491713807665,63.48465884192495
1589543989.2667751,-0.78,-3.391006407390851,8.909725525257041,0.52,0.15246619977151943,-0.7056877100614249,0.49885635523766947,-2.752287289524661,61.26658284905379
1589543989.2767751,-0.7804697516025642,-3.3603131677350424,8.936711738782051,0.52,0.15222222222222226,-0.7055555555555556,0.31347864917200857,-2.8681494557959404,59.34661917401175
1589543989.286775,-0.801474859775641,-3.3743165731837608,8.789675981570513,0.52,0.15222222222222226,-0.7055555555555556,0.35723929119925213,-2.561824961605235,58.07756055522169
1589543989.296775,-0.9459096221269965,-3.418831320607713,8.83678613167121,0.52,0.15222222222222226,-0.7055555555555556,0.253652123100896,-2.558847876899104,55.74228184651344
1589543989.306775,-0.9216168729156905,-3.3462038695807954,8.868383127084309,0.52,0.15222222222222226,-0.7055555555555556,0.3919156354215473,-2.4915421822892263,55.22627418487997
1589543989.316775,-0.8957952104383802,-3.2521568939454215,8.898409579123241,0.5312127721643196,0.14427984193916252,-0.7022851636742957,0.5262799347601241,-2.4900598695202483,54.454521043838014
1589543989.326775,-0.9779574591138387,-3.2791617132024546,8.927591491822767,0.5466666666666666,0.13333333333333333,-0.6977777777777778,0.4525531761077017,-2.3426063522154035,52.995425408861614
1589543989.336775,-1.0252865094579302,-3.2811783726355173,8.912356745271035,0.5466666666666666,0.13333333333333333,-0.6977777777777778,0.4375,-2.588175855140079,52.26851311869183
1589543989.346775,-1.03,-3.2571268625827816,8.879502483443709,0.5466666666666666,0.13333333333333333,-0.6977777777777778,0.5328047392384105,-2.5296952607615895,51.61567156456954
1589543989.356775,-1.044751827998644,-3.2131204300033898,8.788864946007457,0.5466666666666666,0.13333333333333333,-0.6977777777777778,0.5625,-1.992905912546608,51.11480376252966
1589543989.366775,-0.9566102882305845,-3.056802441953563,8.859615692554042,0.55565975002224,0.11396361533671383,-0.7289076817009164,0.3290257205764612,-2.2016237990392313,50.494139061249
1589543989.376775,-0.9800728900038987,-3.0201457800077978,8.84997084399844,0.5611111111111111,0.10222222222222224,-0.7477777777777778,0.6864977624463919,-2.000455562524367,49.74790441238791
1589543989.386775,-1.0156220229518758,-3.0912440459037516,8.83575119081925,0.5611111111111111,0.10222222222222224,-0.7477777777777778,0.19769718441170986,-2.2226376434492225,48.72586684013358
1589543989.396775,-1.1121287399992694,-3.193003324443795,8.930379571110217,0.5611111111111111,0.10222222222222224,-0.7477777777777778,0.11406769444342965,-2.084364611113141,47.399958444452565
1589543989.406775,-1.1432417873023957,-3.107032850790417,8.808296538619757,0.5611111111111111,0.10222222222222224,-0.7477777777777778,0.36710195106662225,-1.5782960978667555,47.021977658720054
1589543989.416775,-1.2240030385900942,-3.200254937708903,9.056761774536614,0.5477494513656774,0.06522070292717513,-0.7477777777777778,0.3218702522029778,-2.5359826040717106,46.64842563050745
1589543989.426775,-1.2735885827858444,-3.2245295275952817,8.941969487844826,0.5466666666666666,0.06222222222222223,-0.7477777777777778,0.4033095474705092,-2.1255474889121992,46.30716658385322
1589543989.436775,-1.3342758575586149,-3.212289656976554,8.934275857558614,0.5466666666666666,0.06222222222222223,-0.7477777777777778,0.4375,-2.158879287793074,46.298189643896535
1589543989.446775,-1.3253061692531152,-3.136530846265576,8.903265423132789,0.5466666666666666,0.06222222222222223,-0.7477777777777778,0.07015423132788012,-2.37117288433606,46.358418221084015
1589543989.456775,-1.2506570786072602,-3.0059856179108904,8.869197123582177,0.5466666666666666,0.06222222222222223,-0.7477777777777778,0.2842146069636988,-2.0041067412953764,46.67837528109324
1589543989.466775,-1.162191187160991,-2.869157579824414,8.95910082200973,0.5466666666666666,0.067727823444985,-0.7716353830764164,0.489115011463401,-2.122190068780406,46.864115011463404
1589543989.476775,-1.4212832324618363,-3.1475364485065302,9.006253216044694,0.5466666666666666,0.06888888888888889,-0.7766666666666666,0.22652899953443922,-2.1328057999068877,46.656223199627554
1589543989.486775,-1.3295665512901196,-2.863916378225299,8.6839163782253,0.5466666666666666,0.06888888888888889,-0.7766666666666666,0.23278939191315293,-1.2192121617369414,46.896736351478914
1589543989.496775,-1.403594006303334,-2.8944925078791677,8.678444256040695,0.5466666666666666,0.06888888888888889,-0.7766666666666666,0.604045330556426,-1.357789087122399,47.86902035682032
1589543989.506775,-1.52,-3.055681886603111,8.98863723030607,0.5466666666666666,0.06888888888888889,-0.7766666666666666,0.41477044656297035,-2.4005707476166585,49.96165328650276
1589543989.516775,-1.5032917429715642,-3.0588611619810426,8.991778591696685,0.5460478423322801,0.057750050869931735,-0.7884243290200104,0.007117737618482223,-2.554602443098348,52.65659022760661
1589543989.526775,-1.3765304424003506,-2.901616732369689,9.076939115199298,0.5455555555555556,0.048888888888888885,-0.7977777777777778,-0.37392137538326764,-3.7774748138414367,55.29336946999562
1589543989.5367749,-1.454977050456558,-2.943318033637705,8.98969573608836,0.5455555555555556,0.048888888888888885,-0.7977777777777778,-0.08133606078790728,-3.406393434646512,56.370622962518446
1589543989.5467749,-1.6001237579366503,-3.0285281773505037,8.864539225885139,0.5455555555555556,0.048888888888888885,-0.7977777777777778,0.2983149191089428,-2.1525966746780503,57.87156078487642
1589543989.5567749,-1.6338422954931031,-3.0253691819724127,8.956996385631038,0.5455555555555556,0.048888888888888885,-0.7977777777777778,0.14408608099136977,-2.4427417570258907,59.46706959504315
1589543989.5667748,-1.5794443113772456,-2.8836107784431135,8.92888862275449,0.539002040363717,0.032973209137280995,-0.8155658904413395,-0.1053243512974052,-2.7696756487025946,61.925351796407185
1589543989.5767748,-1.6031226846807585,-2.9345260405317064,8.959684027021138,0.5377777777777778,0.03,-0.8188888888888889,0.0820167792547396,-2.8535083896273696,64.26841359773371
1589543989.5867748,-1.820614532050172,-3.0763687192301035,8.793083793077855,0.5377777777777778,0.03,-0.8188888888888889,-0.03296089903762897,-2.7696927339749142,66.95160621953934
1589543989.5967748,-1.8740351915414053,-3.0719296169171897,8.86526393656054,0.5377777777777778,0.03,-0.8188888888888889,-0.0625,-3.0131598414013494,69.65571862547836
1589543989.6067748,-1.893820036580025,-3.046179963419975,8.889269945129962,0.5377777777777778,0.03,-0.8188888888888889,-0.23525045725031557,-3.3841256858754734,73.25944447306732
1589543989.6167748,-1.8291278344305322,-2.936913213717138,9.079730648423045,0.5299030927145036,0.0006489011277961837,-0.8360700199360326,-0.15142689643302784,-3.580536551783486,76.93413310528807
1589543989.6267748,-1.8942178228651116,-2.949478548576741,8.863450821689318,0.5255555555555556,-0.015555555555555557,-0.8455555555555555,0.5888613929069482,-2.53939767848842,81.00479375734872
1589543989.6367748,-1.9601069111178853,-2.9397861777642293,8.626167748116536,0.5255555555555556,-0.015555555555555557,-0.8455555555555555,0.958778796324522,-1.6017166202151287,84.36574870443758
1589543989.6467748,-2.0314368820747957,-2.966077661556097,8.933262071930075,0.5255555555555556,-0.015555555555555557,-0.8455555555555555,-0.3439317953861585,-4.014866026651383,87.69338551368391
1589543989.6567748,-2.1162452047287243,-2.946877397635638,8.914134111015423,0.5255555555555556,-0.015555555555555557,-0.8455555555555555,-0.21175771157911216,-4.150047952712754,90.98340493619354
1589543989.6667747,-2.1406424173534147,-2.9253212086767073,8.920181869849388,0.5255555555555556,-0.0431084377927231,-0.8356781072063822,0.12098489154115752,-3.5200755422942125,94.33022875816994
1589543989.6767747,-2.170399475142149,-2.9452496719638432,9.005049934392769,0.5255555555555556,-0.07444444444444444,-0.8244444444444444,-0.03343462968362734,-3.408434629683627,98.55028748724304
1589543989.6867747,-2.21,-2.9174666596104997,8.769847586790855,0.5255555555555556,-0.07444444444444444,-0.8244444444444444,-0.3907143046147333,-3.531190463590178,103.06416701947502
1589543989.6967747,-2.264705758633744,-2.913676439658436,8.847279056072015,0.5255555555555556,-0.07444444444444444,-0.8244444444444444,-0.3947611260673874,-4.012866487191351,105.94622707483279
1589543989.7067747,-2.284839093245368,-2.8890345594722104,8.878712745962947,0.5255555555555556,-0.07444444444444444,-0.8244444444444444,-0.21372166391776304,-3.766164991753289,108.29424935752368
1589543989.7167747,-2.3474132675930077,-2.8824710891976695,8.952355445988346,0.5164006673639125,-0.14352223716320534,-0.8044701429354052,-0.3902033841326759,-3.8274624607799193,110.79536922904528
1589543989.7267747,-2.3355110731527944,-2.7994665670260845,8.93826660972919,0.5133333333333333,-0.16666666666666666,-0.7977777777777778,-0.25749973310558344,-3.7574997331055835,112.10361211937891
1589543989.7367747,-2.295708930880277,-2.6949859435607277,8.878563396320414,0.5133333333333333,-0.16666666666666666,-0.7977777777777778,0.022359079748051625,-3.4776409202519485,113.16085652349264
1589543989.7467747,-2.176138179513269,-2.5181963603609616,8.78610181648346,0.5133333333333333,-0.16666666666666666,-0.7977777777777778,-0.12477273106370201,-4.523681840169472,113.46231818485096
1589543989.7567747,-2.152964648853157,-2.4311858595412628,8.936562130527312,0.5133333333333333,-0.16666666666666666,-0.7977777777777778,-0.4486174331993379,-4.786559322534878,113.86042614979901
1589543989.7667747,-2.205705705705706,-2.4214714714714716,8.88036036036036,0.50002002002002,-0.1856856856856857,-0.8098231564898232,-0.05442942942942941,-3.233858858858859,114.65990990990991
1589543989.7767746,-2.2772195676145284,-2.4672195676145288,8.991284792996291,0.49,-0.2,-0.8188888888888889,0.09491846827279715,-3.1685643398937415,114.17557514953053
1589543989.7867746,-2.357516914911421,-2.4571331914791883,9.024266382958375,0.49,-0.2,-0.8188888888888889,-0.4621894948239175,-4.207815824706529,112.38572273890071
1589543989.7967746,-2.224569798402434,-2.3000251046025104,8.855480410802587,0.49,-0.2,-0.8188888888888889,-0.10803062000760749,-3.7217002662609358,111.52281761125903
1589543989.8067746,-2.018815952999661,-2.1012895717997964,8.832157044401763,0.49,-0.2,-0.8188888888888889,0.08667947124618686,-3.834041351259745,109.82253841373856
1589543989.8167746,-2.141098493550822,-2.1314995569267126,9.220496898486987,0.4263673460457076,-0.2654770787065907,-0.8188888888888889,-1.16248892316781,-6.242480061702057,107.37189438445633
1589543989.8267746,-2.302880314462567,-2.123389960692179,9.005934351420954,0.4133333333333333,-0.2788888888888889,-0.8188888888888889,-0.7521235259567162,-5.1197151877287315,105.80615342475038
1589543989.8367746,-2.311530045853109,-2.073825114632773,8.89920762609605,0.4133333333333333,-0.2788888888888889,-0.8188888888888889,0.009904673799372543,-4.321891842973212,105.07189184297322
1589543989.8467746,-2.2827024033669288,-2.016682910621331,8.836019492745598,0.4133333333333333,-0.2788888888888889,-0.8188888888888889,0.7458536382766641,-3.7168291062133125,104.37975551002326
1589543989.8567746,-2.1096505242136794,-1.918836744882676,8.866337993010484,0.4133333333333333,-0.2788888888888889,-0.8188888888888889,0.24781577633549678,-3.6097416375436846,101.92804543185223
1589543989.8667746,-1.939701027717222,-1.7810014681674602,9.142795301864128,0.39851186150781287,-0.29628800798841287,-0.795690063422857,-0.32501835209325086,-4.628737153534725,99.37004771544245
1589543989.8767745,-2.1058017327620377,-1.7541412635195077,9.276812888125484,0.3622222222222222,-0.3388888888888889,-0.7388888888888889,-0.2958023462126502,-5.4645755865531624,94.76347585835897
1589543989.8867745,-2.2857276665062383,-1.750193624819518,8.886695790603827,0.3622222222222222,-0.3388888888888889,-0.7388888888888889,-0.39198150753396765,-4.684454944281959,90.64561197289993
1589543989.8967745,-2.2549919807538092,-1.7149919807538092,8.789775461106656,0.3622222222222222,-0.3388888888888889,-0.7388888888888889,0.7491980753809142,-3.2822022854851642,88.15800421010425
1589543989.9067745,-2.0403455805563464,-1.5988113547897085,8.854257096743568,0.3622222222222222,-0.3388888888888889,-0.7388888888888889,0.9659641127883793,-2.8295179436058104,85.59498124940663
1589543989.9167745,-1.901894404566289,-1.4916520366686845,8.918127864740985,0.3638301526900939,-0.34692854122824723,-0.7287053292590351,0.16836434100147019,-3.454433051543717,80.14248167646804
1589543989.9267745,-2.1614584140417796,-1.5631769824477755,9.216562863188008,0.3655555555555556,-0.3555555555555556,-0.7177777777777777,-0.5227877194028072,-4.143230175522246,72.98566245492744
1589543989.9367745,-2.2650402835965195,-1.5138337588933786,8.887881702570713,0.3655555555555556,-0.3555555555555556,-0.7177777777777777,-0.1583439723344654,-2.984918441210739,66.10891135129775
1589543989.9467745,-2.2610319039601148,-1.463273927970086,8.963808576239312,0.3655555555555556,-0.3555555555555556,-0.7177777777777777,-0.08029427521812338,-3.0151265006232095,60.73041809713324
1589543989.9567745,-2.1886786171574903,-1.4141741357234314,9.062192061459667,0.3655555555555556,-0.3555555555555556,-0.7177777777777777,-0.21771766965428938,-3.2740236875800255,54.98122599231754
1589543989.9667745,-2.0633376269358656,-1.3668900338495642,9.026219932300872,0.3739008211098796,-0.3606911035889858,-0.7055808511983811,0.20970254321061615,-2.1236576251385437,47.28216270257317
1589543989.9767745,-2.300273535495797,-1.411280313366489,9.115152282029841,0.38,-0.3644444444444445,-0.6966666666666667,0.76810137097839,-1.2076988248756657,39.69627767263765
1589543989.9867744,-2.107251412128317,-1.2943056591708408,8.50776084407972,0.38,-0.3644444444444445,-0.6966666666666667,0.8158637962272194,0.1538620377278055,33.166777683043804
1589543989.9967744,-1.6071791549035035,-1.1567598463460915,8.53268107557736,0.38,-0.3644444444444445,-0.6966666666666667,0.29246742953672417,-0.3521283611792474,26.799237515619936
1589543990.0067744,-1.7394205844980941,-1.2386635606381475,9.084799096428068,0.38,-0.3644444444444445,-0.6966666666666667,-0.9319656219116192,-2.7566444303261326,21.15649795284484
1589543990.0167744,-2.165778907242694,-1.4044695750388252,9.641433573344628,0.38,-0.3644444444444445,-0.6966666666666667,-2.4493867358463928,-5.53241476069462,15.864029189608923
1589543990.0267744,-2.271161273111572,-1.2891469495803494,8.60984588865404,0.36777777777777776,-0.35,-0.6911111111111111,0.7068998686667625,0.3067208245264821,8.653068631877039
1589543990.0367744,-2.221565644560653,-1.3084296014578876,8.80979954044846,0.36777777777777776,-0.35,-0.6911111111111111,1.4816526028048491,1.8468673243007685,3.899582045796688
1589543990.0467744,-2.122145340751043,-1.3615142559109874,9.151955841446453,0.36777777777777776,-0.35,-0.6911111111111111,-2.2174678372739915,-3.292191846314325,-4.640179502781641
1589543990.0567744,-1.730474002923366,-1.23,9.055829331106008,0.36777777777777776,-0.35,-0.6911111111111111,-2.1980145472262826,-3.1815749634579245,-10.048727117700285
1589543990.0667744,-2.0969348869088416,-1.2950684421815333,9.100607656907863,0.3808818390504477,-0.35,-0.699696530565619,1.9300083227259375,1.0941777636345833,-15.873392979535886
1589543990.0767744,-1.9281046099290782,-1.311540780141844,9.266363475177306,0.4,-0.35,-0.7122222222222222,1.316832890070922,2.0230164007092197,-21.849867021276594
1589543990.0867743,-1.54583648606848,-0.9523239822019178,9.403270278630405,0.4,-0.35,-0.7122222222222222,1.171697658648012,3.292865300878007,-30.871735729412045
1589543990.0967743,-1.0218352214212152,-0.770455200823893,9.511522142121525,0.4,-0.35,-0.7122222222222222,-0.9099382080329557,-1.8066297631307933,-43.837744593202885
1589543990.1067743,-0.5313410306955787,-0.6533370881441848,8.722690509715573,0.4,-0.35,-0.7122222222222222,-1.6666960011264433,-0.879305125316812,-58.566329907068436
1589543990.1167743,-0.5698872300890626,-1.1511385916575896,8.420095790350484,0.4024326691014716,-0.34209382542021743,-0.7043160476424397,-0.9375,2.6993376369577753,-85.78688449093356
1589543990.1267743,-0.7004867785246867,-1.8978906263930246,8.183894228197493,0.4044444444444445,-0.33555555555555555,-0.6977777777777778,0.6433199454380116,5.943143421357631,-115.60237950894211
1589543990.1367743,-0.6207415231858033,-2.294809337699377,8.027394105841344,0.4044444444444445,-0.33555555555555555,-0.6977777777777778,2.2199086299778177,10.68975124115348,-142.94160636949402
1589543990.1467743,-0.6401822323462415,-2.457220956719818,9.453439635535307,0.4044444444444445,-0.33555555555555555,-0.6977777777777778,-1.9383542141230068,5.199601366742597,-175.21739749430523
1589543990.1567743,-0.6940862573099416,-2.200233918128655,9.42625,0.4044444444444445,-0.33555555555555555,-0.6977777777777778,-3.434393274853801,4.059987207602339,-201.27942251461988
1589543990.1667743,-1.0060060765087695,-2.1831998342770333,9.030905952216544,0.4234166551581274,-0.318954871181083,-0.7039437462597248,-1.9100780278966993,9.282851125535148,-226.01721965198178
1589543990.1767743,-1.552485153037917,-2.7226404751027866,9.568136135221563,0.4488888888888889,-0.2966666666666667,-0.7122222222222222,-3.1828460484239383,9.59413544997716,-249.0770899954317
1589543990.1867743,-1.912898013750955,-3.066599694423224,9.075911764705882,0.4488888888888889,-0.2966666666666667,-0.7122222222222222,-3.1463474025974025,11.11737012987013,-267.01362203972496
1589543990.1967742,-1.8339632255206026,-3.0259415152857776,8.826431103234382,0.4488888888888889,-0.2966666666666667,-0.7122222222222222,1.5352652857775808,16.595300731058927,-274.07299512627384
1589543990.2067742,-1.624952289013478,-2.964553150410277,9.288583522073292,0.4488888888888889,-0.2966666666666667,-0.7122222222222222,1.2082969776853674,15.066187390933056,-277.1569009208035
1589543990.2167742,-2.2320410775910053,-3.306665089613715,9.160541856840698,0.4758420225858721,-0.2590445842146276,-0.7161528875530323,-3.313200976845152,10.19955575809863,-281.10418637982855
1589543990.2267742,-2.526710816777042,-3.762347314201619,9.10570272259014,0.5022222222222222,-0.2222222222222222,-0.72,-1.6856757419671327,12.26077691930341,-272.96270235467256
1589543990.2367742,-2.630054551923153,-4.010072735897538,9.014390836858125,0.5022222222222222,-0.2222222222222222,-0.72,-1.5294884274815195,12.315000296477843,-260.5164186958928
1589543990.2467742,-2.5862937886370325,-4.0450862525758025,8.40974389166912,0.5022222222222222,-0.2222222222222222,-0.72,-1.4838276420370915,11.046360759493671,-242.60892699440683
1589543990.2567742,-2.5870660834244648,-4.126699343852523,8.852494532104359,0.5022222222222222,-0.2222222222222222,-0.72,-2.6783315107014527,8.041564550460865,-220.8798796086549
1589543990.2667742,-2.4197512767792,-3.9033587583736815,8.950753465543544,0.545916443736965,-0.19214697884194468,-0.7086508515546123,-1.8522376799097964,8.611825960071632,-196.97974563905285
1589543990.2767742,-2.2138150612524097,-3.6507225918786146,8.857948510664759,0.5877777777777777,-0.16333333333333333,-0.6977777777777778,-1.5257864482930166,7.641074870965736,-179.3787417993284
1589543990.2867742,-2.254681023674312,-3.700497086805812,9.479933623423555,0.5877777777777777,-0.16333333333333333,-0.6977777777777778,-2.1010767755734197,5.874534442067999,-167.0918578066229
1589543990.2967741,-2.217139675538767,-3.7043090460490404,8.954316469791916,0.5877777777777777,-0.16333333333333333,-0.6977777777777778,-0.38396171313784144,7.696090525994017,-144.2390431559641
1589543990.3067741,-2.148911042235278,-3.7935078873109127,8.966733126705833,0.5877777777777777,-0.16333333333333333,-0.6977777777777778,-0.767768133876116,5.464463732247768,-126.72111214553361
1589543990.3167741,-2.0039143059947087,-3.7175365124432687,8.908763416575251,0.644209679770756,-0.21768798740018977,-0.6652342269352014,-1.0665774020778216,4.633154804155643,-111.12146974683272
1589543990.3267741,-1.7972114405603035,-3.6501388417512572,9.15229675110302,0.7688888888888888,-0.3377777777777778,-0.5933333333333334,-0.5733836506124463,4.739116349387554,-99.25954537039894
1589543990.336774,-1.5718057428704544,-3.6172913856943185,8.788905617812217,0.7688888888888888,-0.3377777777777778,-0.5933333333333334,-0.28710674088423527,4.368929464701699,-89.21323502366297
1589543990.346774,-1.5335145816298719,-3.6483687653311527,8.849164622512946,0.7688888888888888,-0.3377777777777778,-0.5933333333333334,-0.7871354592532025,3.0625,-81.22182474788771
1589543990.356774,-1.5363240693846543,-3.6034784122562673,8.724506204102303,0.7688888888888888,-0.3377777777777778,-0.5933333333333334,-0.6403163775639402,2.863387091668777,-72.70304586604203
1589543990.366774,-1.4544236029699102,-3.7138940992575225,8.816635404454866,0.9868718683513524,-0.30412318179844555,-0.5025585515175199,-0.5763237592809691,1.5764409925752247,-57.769387456037514
1589543990.376774,-1.2891239958883771,-3.75,8.656934556668062,1.5533333333333332,-0.21666666666666667,-0.26666666666666666,-0.26733639167015644,1.629104484714661,-45.48447909925001
1589543990.386774,-1.189678101582015,-3.73623746877602,8.94816885928393,1.5533333333333332,-0.21666666666666667,-0.26666666666666666,-0.875,0.03294858451290589,-32.565402789342215
1589543990.396774,-1.1561700317165622,-3.6823400634331245,9.011352208555735,1.5533333333333332,-0.21666666666666667,-0.26666666666666666,-0.7453440473427709,-0.3518217683917382,-25.726720236713856
1589543990.406774,-1.0048920051850978,-3.3986150064813727,8.787661992222352,1.5533333333333332,-0.21666666666666667,-0.26666666666666666,0.10403444386458138,0.6861500648137236,-18.59633150115318
1589543990.416774,-0.9469107104062567,-3.3284553552031286,8.874633934390614,1.517062785140126,-0.2010485914982982,-0.290637265551452,-0.61212796002607,-0.01930805996089507,-15.792689550293288
1589543990.426774,-0.9627769435348181,-3.409165415302227,8.967277694353482,0.8488888888888889,0.08666666666666667,-0.7322222222222222,-0.2385432308722161,-0.21580043601758545,-11.987860257268467
1589543990.436774,-1.0627261761158022,-3.5811181219263246,8.90866846061056,0.8488888888888889,0.08666666666666667,-0.7322222222222222,-0.07867449197364759,-0.003062076644706327,-9.26570474157929
1589543990.446774,-0.9039993168565642,-3.389998536121209,8.724001024715154,0.8488888888888889,0.08666666666666667,-0.7322222222222222,0.025004879595969476,0.1750051845707175,-5.0499823114646105
1589543990.456774,-0.8607061583577712,-3.315157575757576,8.741450244379276,0.8488888888888889,0.08666666666666667,-0.7322222222222222,0.7098044965786902,0.6216898826979472,-1.645334799608993
1589543990.466774,-0.9471018094615217,-3.5253263570961413,8.6205480706344,0.8070671220599278,0.09140120630768113,-0.7322222222222222,0.5088129496402878,-0.1938630913451057,1.4268912143012864
1589543990.476774,-0.976440148573358,-3.5523732342844276,9.024573977151217,0.6133333333333333,0.11333333333333333,-0.7322222222222222,-1.0762546429174404,-2.183252785750464,5.11131042827396
1589543990.486774,-0.9390902554885094,-3.5590902554885093,8.86908845808191,0.6133333333333333,0.11333333333333333,-0.7322222222222222,-0.09658171780716396,-1.329524008216716,10.142102644755424
1589543990.496774,-0.9145246914605585,-3.5254753085394412,8.76226234573028,0.6133333333333333,0.11333333333333333,-0.7322222222222222,0.19938271348603892,-0.6295138946564125,13.15410880687009
1589543990.506774,-0.9284585485773135,-3.511541451422686,8.769229274288657,0.6133333333333333,0.11333333333333333,-0.7322222222222222,-0.14896371443283557,-1.4132933574738802,14.591037822035446
1589543990.516774,-0.7164337142243078,-3.266433714224308,8.887132571551383,0.6015501904454872,0.11673735238982219,-0.7377210222365504,-0.051355356950961786,-1.705813214170577,15.4335239280725
1589543990.526774,-0.6442687853487746,-3.2070751413950984,8.899130083490439,0.5633333333333334,0.12777777777777774,-0.7555555555555555,0.2942196337193644,-1.0289018314031781,14.145502289253972
1589543990.536774,-0.6159834828873184,-3.2186611609624394,8.747796130125202,0.5633333333333334,0.12777777777777774,-0.7555555555555555,0.1304064427327351,-0.6904613012520183,12.045248352259192
1589543990.546774,-0.5205562948529062,-3.1430257592319757,8.70919942017965,0.5633333333333334,0.12777777777777774,-0.7555555555555555,0.06326339052326407,-0.7646707618459199,8.720318366522504
1589543990.556774,-0.4845102857822347,-3.128041143128939,8.674316857584525,0.5633333333333334,0.12777777777777774,-0.7555555555555555,0.37560446311784057,-0.40258482302112647,5.412937492568076
1589543990.566774,-0.522740785089546,-3.280963140358184,8.918992867555186,0.5636164618908788,0.12806090633532322,-0.7609349981489194,-0.14212990680966264,-1.06370392544773,1.6057371928363182
1589543990.576774,-0.5665412388858869,-3.4409020648098116,9.067144307445433,0.5644444444444444,0.1288888888888889,-0.7766666666666666,-0.1569587038037694,-0.8684277316565965,-2.192654860735865
1589543990.5867739,-0.587144962420789,-3.475241604034648,8.806163809336674,0.5644444444444444,0.1288888888888889,-0.7766666666666666,0.529832080692964,0.33345614121268685,-4.768120302598614
1589543990.5967739,-0.491619279819955,-3.5490056264066014,8.755312453113278,0.5644444444444444,0.1288888888888889,-0.7766666666666666,0.07572791635408851,0.2697088334583646,-10.130416588522131
1589543990.6067739,-0.3500262565641411,-3.3444823705926483,8.582254313578394,0.5644444444444444,0.1288888888888889,-0.7766666666666666,-0.17009330457614402,0.3680373218304576,-14.211048855963991
1589543990.6167738,-0.42433478038815114,-3.577081524514811,9.078755426455567,0.5631855067529224,0.12700048235160594,-0.7783977059925093,-0.42086950970377934,-0.6271466419816139,-21.56491197969867
1589543990.6267738,-0.4278320575802582,-3.5443358848394837,8.915607220381583,0.5555555555555556,0.11555555555555555,-0.7888888888888889,0.373013538215469,1.068459385353593,-28.18856677710499
1589543990.6367738,-0.49356736519667427,-3.313159430155103,8.747077843146789,0.5555555555555556,0.11555555555555555,-0.7888888888888889,0.06908214615646424,1.1962761948752856,-34.577442018767925
1589543990.6467738,-3.0496661097734754,-5.772099651122795,9.89244042061815,0.5555555555555556,0.11555555555555555,-0.7888888888888889,-1.1316888604982556,4.632541091346862,-36.96906939462434
1589543990.6567738,-5.9453849247039425,-7.499717112009168,8.70431590164264,0.5555555555555556,0.11555555555555555,-0.7888888888888889,-13.555264440959446,20.496634799042965,-87.94642192934836
1589543990.6667738,-0.9759207372124155,-0.11961956352541951,0.8099296410447994,0.551153381830509,0.12202934044532998,-0.7860404235373881,-54.726022306279376,16.331562684847917,-255.37885456554903
1589543990.6767738,1.3161651551943438,-0.8990106876786098,7.50457885260254,0.5366666666666666,0.14333333333333334,-0.7766666666666666,-89.0486159291012,-34.25076812527875,-354.7804958124783
1589543990.6867738,2.9305033285428745,-2.4717779209409123,18.78416059599914,0.5366666666666666,0.14333333333333334,-0.7766666666666666,-39.336700075986585,26.93645931413846,-272.15825239109967
1589543990.6967738,-1.2015260056366897,-1.221939021265693,6.041312323853447,0.5366666666666666,0.14333333333333334,-0.7766666666666666,76.17505124263387,36.24406546246477,-250.46981168332053
1589543990.7067738,0.41759057135536737,-0.19745375352293104,14.695705354855239,0.5366666666666666,0.14333333333333334,-0.7766666666666666,100.53344222393031,11.43790994107097,-230.8577248270561
1589543990.7167737,-0.6203823347861057,-0.48987186921307124,7.075023475056582,0.5366666666666666,0.14333333333333334,-0.7766666666666666,49.20591880062101,27.376181936364826,-193.97427330203325
1589543990.7267737,-0.08033810235603966,-1.4544679336607587,7.713153249341589,0.4935572322268884,0.24032956082283433,-0.7346349680878829,-34.651896932166,-13.281906185493632,-119.5154993237953
1589543990.7367737,0.9470399929682694,-1.436650435088336,7.4615286982508575,0.4922222222222222,0.2433333333333333,-0.7333333333333333,-9.35089874307814,-5.583373253054408,-93.87305089215083
1589543990.7467737,1.0068746139592342,-1.8571696399375066,7.101415180031246,0.4922222222222222,0.2433333333333333,-0.7333333333333333,8.60915416197362,11.361459052428877,-64.91105166587946
1589543990.7567737,1.013471193891717,-2.5137222350763535,10.117784012031468,0.4922222222222222,0.2433333333333333,-0.7333333333333333,-4.251444884698442,-2.166911296853309,-46.12490961938917
1589543990.7667737,0.8438776937535516,-2.2898828517725227,8.53813262228439,0.487743803820431,0.248067661358084,-0.7333333333333333,3.171194048607772,5.809410106220222,-18.876830441054334
1589543990.7767737,0.7044757609921082,-2.734475760992108,9.780231116121758,0.4533333333333333,0.28444444444444444,-0.7333333333333333,0.8624577226606539,-0.9432074408117249,-11.447787485907554
1589543990.7867737,0.3136397671964875,-2.4548907457200233,8.693157482726933,0.4533333333333333,0.28444444444444444,-0.7333333333333333,-3.295355629488445,-0.31838709540179033,-4.7784941799121885
1589543990.7967737,0.07095537932677576,-2.6190595963377694,8.521850855995371,0.4533333333333333,0.28444444444444444,-0.7333333333333333,1.567254348048058,2.402890047990198,1.2886155168306042
1589543990.8067737,0.13841452263186335,-2.8208373165966996,8.844934743754935,0.4533333333333333,0.28444444444444444,-0.7333333333333333,2.4823701629327903,0.05863969824182219,17.377786119539465
1589543990.8167737,0.2495821924427407,-2.9109470734142966,9.060111458299778,0.4529124118158683,0.28654905203176956,-0.7341751763682633,0.011838417678703732,-1.5033079116064814,27.48398189607963
1589543990.8267736,0.28925496068888057,-3.166125046798952,8.931531261699737,0.4488888888888889,0.30666666666666664,-0.7422222222222222,0.32740546611755894,-0.8767783601647323,36.68597903406964
1589543990.8367736,0.58,-3.68,9.06,0.4488888888888889,0.30666666666666664,-0.7422222222222222,0.75,-0.75,41.25
1589543990.8467736,-0.7766198899291241,-0.5540041835056153,10.915029548546944,0.4488888888888889,0.30666666666666664,-0.7422222222222222,-16.447555136979346,-13.507285595337219,-29.604389634654048
1589543990.8567736,-1.3728730123271258,-1.1076677971609024,8.71741089742288,0.4488888888888889,0.30666666666666664,-0.7422222222222222,1.70622296460267,14.867974604496254,-76.08019105014114
1589543990.8667736,-0.5548080575028841,-1.685260981453545,7.479113497204721,0.4488888888888889,0.30666666666666664,-0.7422222222222222,15.558064158310408,15.667857618244742,-61.45348300647795
1589543990.8767736,-0.4094101694915254,-3.0039283898305085,9.948072881355934,0.4617809792843691,0.30022062146892653,-0.733627495291902,-8.892995233050847,-5.202793961864405,-22.001069915254238
1589543990.8867736,-0.2650400933629484,-1.7073448029213567,8.864556714226556,0.4622222222222222,0.3,-0.7333333333333333,-9.162700466814742,-1.4683276550088467,-16.88387747995332
1589543990.8967736,0.17971626216438036,-5.340819556806191,8.836210575682964,0.4622222222222222,0.3,-0.7333333333333333,5.885127213037871,2.79267792238246,-9.949715675929182
1589543990.9067736,0.12,-4.047821834678607,8.655128733871443,0.4622222222222222,0.3,-0.7333333333333333,0.106022555431175,0.405445413303482,-2.368563306427856
1589543990.9167736,0.12802557274255388,-4.148326439647194,8.720428730617408,0.4622222222222222,0.30210772617481213,-0.7317930718978937,-0.834500774359265,0.16603986061533232,-0.1113200464615559
1589543990.9267735,0.21516422082459818,-4.021579315164221,8.942236198462615,0.4622222222222222,0.3249926236509046,-0.7150694929730569,1.6410290006988122,0.6116352201257862,0.037211740041928704
1589543990.9367735,0.18735040055729713,-4.123846394984326,8.818204806687564,0.4622222222222222,0.3288888888888889,-0.7122222222222222,-0.5571599616858238,0.10470001741553465,0.0
1589543990.9467735,0.17274120515499827,-4.2553291536050155,8.642894461859978,0.4622222222222222,0.3288888888888889,-0.7122222222222222,-1.5615421455938698,-0.3518373389063044,0.0
1589543990.9567735,0.11669912590093544,-4.192583576138629,8.643398251801871,0.4622222222222222,0.3288888888888889,-0.7122222222222222,0.44677052982671367,0.025417880693145226,-0.009270529826713694
1589543990.9667735,0.26141887747278025,-4.15238364514645,8.93283775494556,0.4622222222222222,0.3288888888888889,-0.7122222222222222,0.4970204435669376,-0.17558177426775035,-0.059520443566937586
1589543990.9767735,0.15152746849382112,-4.112291202740732,8.787708797259267,0.4388888888888889,0.3211111111111111,-0.7266666666666667,0.6783999143521351,0.21181328765447205,0.00954667808638199
1589543990.9867735,0.17097623918906352,-4.147809913512508,8.74633265135311,0.4388888888888889,0.3211111111111111,-0.7266666666666667,-0.24851494931646984,-0.22559402027341208,0.10669551520505904
1589543990.9967735,0.18372672286517122,-4.219254655426965,8.627453445730342,0.4388888888888889,0.3211111111111111,-0.7266666666666667,-0.803183192837072,0.004658403581464019,-0.04852478925560794
1589543991.0067735,0.22634091269212486,-4.21,8.721829543653937,0.4388888888888889,0.3211111111111111,-0.7266666666666667,-0.6074574651402314,0.0625,0.1211884507209634
1589543991.0167735,0.1764958009824117,-4.21,8.746752099508795,0.4388888888888889,0.3211111111111111,-0.7266666666666667,0.48290435350974503,0.0625,0.06926645935667881
1589543991.0267735,0.20766145268700634,-4.115846368282485,8.900645810748026,0.46190422108650386,0.3284341713558068,-0.7402666356925302,0.6838460198234474,-0.05519203964689484,0.12134601982344742
1589543991.0367734,0.1632720940796447,-4.150052490788876,8.81654418815929,0.4633333333333333,0.3288888888888889,-0.7411111111111112,0.14512252056730435,0.020942689143491636,-0.00016403371523746046
1589543991.0467734,0.21600335021129174,-4.17,8.753110366619714,0.4633333333333333,0.3288888888888889,-0.7411111111111112,-0.4416806258803822,0.0625,-0.0625
1589543991.0567734,0.20038676507819042,-4.206905879374476,8.723480885703715,0.4633333333333333,0.3288888888888889,-0.7411111111111112,-0.4758271826130986,0.12016543652261973,-0.0625
1589543991.0667734,0.2085549864651697,-4.141560108278642,8.796994878186528,0.4633333333333333,0.3288888888888889,-0.7411111111111112,0.03468665407310756,0.018062669185378494,-0.0625
1589543991.0767734,0.1799852199617458,-4.15251108502869,8.825007390019127,0.45833086999362427,0.33389135222859795,-0.7519497816804807,0.5939809380977221,-0.04689809380977221,-0.15629618761954442
1589543991.0867734,0.20772138031769216,-4.108354938835128,8.846328281906153,0.4566666666666666,0.33555555555555555,-0.7555555555555555,0.12104025926602155,0.043511502647434724,-0.12025287566185869
1589543991.0967734,0.18683585904692349,-4.184935183494614,8.72101515428154,0.4566666666666666,0.33555555555555555,-0.7555555555555555,-0.4881207777980646,-0.13053450794230417,-0.07674137301442396
1589543991.1067734,0.2189008073166601,-4.18109919268334,8.72109919268334,0.4566666666666666,0.33555555555555555,-0.7555555555555555,-0.5510500762152092,0.0,-0.12042003048608367
1589543991.1167734,0.19522158866369332,-4.2047784113363065,8.744778411336307,0.4566666666666666,0.33555555555555555,-0.7555555555555555,-0.30439154858013884,0.0,-0.02175661943205555
1589543991.1267734,0.2,-4.169517352607371,8.791447942177886,0.4511111111111111,0.3211111111111111,-0.7333333333333333,0.5534503613882086,0.04741726898034765,-0.10991726898034765
1589543991.1367733,0.2,-4.161165999641598,8.816502001075206,0.4511111111111111,0.3211111111111111,-0.7333333333333333,0.3968624932799713,-0.21356251120004777,0.15106251120004777
1589543991.1467733,0.2,-4.172202908912174,8.720550727228044,0.4511111111111111,0.3211111111111111,-0.7333333333333333,-0.38876818070108804,-0.12155795482472799,0.0625
1589543991.1567733,0.2,-4.209686320069706,8.729921580017427,0.4511111111111111,0.3211111111111111,-0.7333333333333333,-0.6230395004356666,-0.06299012489108335,0.0625
1589543991.1667733,0.18438269750675879,-4.186574046260138,8.776851907479722,0.4511111111111111,0.3211111111111111,-0.7333333333333333,-0.23456743766896965,0.03510814058275759,0.0625
1589543991.1767733,0.18150473820235474,-4.158871446348234,8.84,0.4511111111111111,0.3088888888888889,-0.7333333333333333,0.5047023068823586,0.004702306882358572,-0.06014884655882071
1589543991.1867733,0.219707644907909,-4.1305847101841815,8.83736880417118,0.4511111111111111,0.3088888888888889,-0.7333333333333333,0.6030733680931745,0.1195183420232936,-0.0018272193255687973
1589543991.1967733,0.212607326652221,-4.144785346695558,8.77346593986999,0.4511111111111111,0.3088888888888889,-0.7333333333333333,0.07054949891657636,-0.01361262527085591,-0.04620420842361863
1589543991.2067733,0.19085824528506004,-4.21699614150229,8.730858245285061,0.4511111111111111,0.3088888888888889,-0.7333333333333333,-0.7231798348418736,0.17677193393674948,-0.002682016515812631
1589543991.2167733,0.19,-4.195300214150067,8.771166309749889,0.4511111111111111,0.3088888888888889,-0.7333333333333333,-0.38979478968847225,-0.06978943593680553,0.0
1589543991.2267733,0.21031019649380686,-4.168759214024773,8.81,0.4511111111111111,0.3288888888888889,-0.7333333333333333,0.378877456172586,-0.0625,0.05862254382741402
1589543991.2367733,0.21937679686993364,-4.132492812520265,8.81,0.4511111111111111,0.3288888888888889,-0.7333333333333333,0.49220996087417046,-0.0625,-0.054709960874170474
1589543991.2467732,0.2062210071434871,-4.15066848928477,8.754884028573949,0.4511111111111111,0.3288888888888889,-0.7333333333333333,0.37082194197019136,0.06667805802980864,0.15279676338301437
1589543991.2567732,0.18192915288257816,-4.187106270676133,8.73,0.4511111111111111,0.3288888888888889,-0.7333333333333333,-0.478099561387206,-0.04441419172582983,-0.03235698620971639
1589543991.2667732,0.19435560663273682,-4.197177803316369,8.737177803316369,0.4511111111111111,0.3288888888888889,-0.7333333333333333,-0.4727774585453949,-0.0625,-0.017638729272697426
1589543991.2767732,0.19096333720215744,-4.181926674404314,8.812293302382741,0.4450866692458827,0.3349133307541173,-0.727308891468105,-0.042146002594387943,0.05045828497303202,-0.22591656994606404
1589543991.2867732,0.19999642263958095,-4.140014309441676,8.829996422639582,0.4444444444444444,0.33555555555555555,-0.7266666666666667,0.437343490481666,2.2358502619133913e-05,-0.06256707550785742
1589543991.2967732,0.18029605958786626,-4.14,8.741332268145399,0.4444444444444444,0.33555555555555555,-0.7266666666666667,0.1912007448483282,0.0,-0.12407481378791796
1589543991.3067732,0.18938846468502862,-4.149388464685029,8.730611535314972,0.4444444444444444,0.33555555555555555,-0.7266666666666667,-0.34060113853286067,0.11735580856285793,-0.007644191437142067
1589543991.3167732,0.19,-4.180259019426457,8.752694264569843,0.4444444444444444,0.33555555555555555,-0.7266666666666667,-0.5641188714153561,0.07772028214616097,0.0
1589543991.3267732,0.19,-4.1704810851611755,8.786025219785099,0.45239659493433576,0.3261575595220476,-0.7310042032975165,-0.2996847526862623,-0.01882881182843442,0.04066440591421721
1589543991.3367732,0.19951665032501725,-4.150483349674983,8.828549950975052,0.4566666666666666,0.3211111111111111,-0.7333333333333333,0.29135345171950466,-0.003020935468642197,-0.056458129062715606
1589543991.3467731,0.19166659826814955,-4.15,8.771666187877047,0.4566666666666666,0.3211111111111111,-0.7333333333333333,0.468751282472196,0.05208376082406534,-0.010416239175934663
1589543991.3567731,0.1989803775789278,-4.167960755157855,8.742039244842145,0.4566666666666666,0.3211111111111111,-0.7333333333333333,-0.005146238814688897,0.006372640131701225,-0.056127359868298775
1589543991.3667731,0.20768159183920326,-4.200726367356813,8.755363183678407,0.4566666666666666,0.3211111111111111,-0.7333333333333333,-0.39856964296514324,0.0,0.03351989799004092
1589543991.376773,0.20045225027442373,-4.21,8.779095499451152,0.4566666666666666,0.31580680570801317,-0.7131769728015611,-0.2613062568605928,0.11934687156970361,-0.05684687156970361
1589543991.386773,0.19079041317052095,-4.163952065852605,8.798419173658958,0.4566666666666666,0.31555555555555553,-0.7122222222222222,0.2104793414739523,0.009880164631511923,0.11017975305273212
1589543991.396773,0.19725422897769063,-4.1527457710223095,8.756474626133857,0.4566666666666666,0.31555555555555553,-0.7122222222222222,0.3860167933316989,-0.09067786222113264,0.07966106888943368
1589543991.406773,0.2,-4.15,8.758297417393338,0.4566666666666666,0.31555555555555553,-0.7122222222222222,0.09442342387491226,-0.125,-0.10903828806254387
1589543991.416773,0.20567128296671658,-4.178356414833583,8.765671282966716,0.4566666666666666,0.31555555555555553,-0.7122222222222222,-0.25650966687780724,0.0167820741679143,-0.08955448145802142
1589543991.426773,0.20510451453308595,-4.204895485466914,8.789581941867656,0.45993032364460934,0.32208286951144094,-0.7225571359857074,-0.46940321583178723,0.033209647495361774,-0.03190321583178726
1589543991.436773,0.2,-4.186768109393112,8.815807972651722,0.4633333333333333,0.3288888888888889,-0.7333333333333333,-0.07450170926737265,0.01009965814652547,0.0
1589543991.446773,0.20759528197567267,-4.154809436048655,8.766833026170291,0.4633333333333333,0.3288888888888889,-0.7333333333333333,0.4248525617397715,-0.03244102469590858,-0.09494102469590858
1589543991.456773,0.20360863994803038,-4.15,8.769174080155908,0.4633333333333333,0.3288888888888889,-0.7333333333333333,0.22037799772632943,0.017392000649620154,-0.005161999025569769
1589543991.466773,0.21248790758550049,-4.181219768963752,8.76126813862175,0.4633333333333333,0.3288888888888889,-0.7333333333333333,-0.13262355602344506,0.0625,0.0625
1589543991.476773,0.20803413821815156,-4.194017069109076,8.767948792672772,0.4593447127393838,0.3242354981959478,-0.7293447127393838,-0.3247866361365529,0.0625,-0.012286636136552884
1589543991.486773,0.2,-4.19,8.80501104484206,0.4566666666666666,0.3211111111111111,-0.7266666666666667,-0.11446828289522126,0.010393656579044251,-0.0625
1589543991.496773,0.20862509218289085,-4.1641247234513274,8.723749078171092,0.4566666666666666,0.3211111111111111,-0.7266666666666667,0.26094095685840707,0.1078136522861357,-0.11640682614306785
1589543991.506773,0.21,-4.14331191873275,8.785096365702623,0.4566666666666666,0.3211111111111111,-0.7266666666666667,0.20819949207969013,-0.031450761880464806,-0.020699492079690143
1589543991.516773,0.20294385986253877,-4.161168420412383,8.792943859862538,0.4566666666666666,0.3211111111111111,-0.7266666666666667,-0.03300437929566327,0.06980262757739797,-0.04410087585913265
1589543991.526773,0.2,-4.193575481430536,8.805716987620357,0.45230083677212285,0.3272232729634724,-0.7266666666666667,-0.37057793156808805,-0.022346758940852834,-0.1607311726272352
1589543991.536773,0.18207628110131815,-4.2,8.774152562202636,0.4511111111111111,0.3288888888888889,-0.7266666666666667,-0.21345351376647687,-0.0625,-0.07547675688323843
1589543991.546773,0.1986725054123204,-4.168879157646133,8.738879157646133,0.4511111111111111,0.3288888888888889,-0.7266666666666667,0.1237084235386735,-0.14030210588466838,0.054203158827002565
1589543991.556773,0.20290231825343238,-4.15,8.741293045239702,0.4511111111111111,0.3288888888888889,-0.7266666666666667,0.3125,-0.05441846725185687,-0.05244204366419086
1589543991.566773,0.2,-4.160029467387958,8.785103135857852,0.4511111111111111,0.3288888888888889,-0.7266666666666667,0.15578957206315697,-0.031342085587368604,-0.06231582882526279
1589543991.576773,0.2,-4.176044085734953,8.810933871397571,0.4571551968460637,0.326538411103074,-0.7246519714216825,-0.13221437545208817,-0.005836696234819354,-0.037775535843453764
1589543991.586773,0.2,-4.197356386292835,8.797356386292835,0.4711111111111111,0.3211111111111111,-0.72,-0.2995677570093458,0.07902258566978193,0.012932242990654208
