time,acc_x,acc_y,acc_z,mag_x,mag_y,mag_z,gyr_x,gyr_y,gyr_z
1589541917.7637274,-0.3,-4.32,8.7,0.4455555555555555,0.3211111111111111,-0.64,-0.8125,1.0625,5.6875
1589541917.7737274,-0.2908029777622244,-4.310802977762224,8.665985111188878,0.4455555555555555,0.3211111111111111,-0.64,-0.30887721502879134,-1.5926116660834155,3.2792308242929407
1589541917.7837274,-0.32238326664491423,-4.317761673335509,8.628953306657966,0.4455555555555555,0.3211111111111111,-0.64,-1.7785812110387935,-0.9022739176727173,6.260767460630936
1589541917.7937274,-0.39441191118132957,-4.310558808881867,8.657764764472532,0.4455555555555555,0.3211111111111111,-0.64,7.179981453177861,2.429050892136491,-1.3472581185279324
1589541917.8037274,-0.4105348303754678,-4.324056501267657,8.696226005070626,0.4475086857955383,0.32020966638496523,-0.6387980736984721,0.954402088615236,-1.2684791138476397,3.103366835687553
1589541917.8137274,-0.33210172947807853,-4.344886208422308,8.794886208422309,0.46,0.3144444444444445,-0.6311111111111111,0.9346552105577037,-0.4751507762451665,6.083082039591389
1589541917.8237274,-0.2806660387788948,-4.3293339612211055,8.77467168976884,0.46,0.3144444444444445,-0.6311111111111111,0.13790027845457709,-1.2209196679019676,5.353538778894781
1589541917.8337274,-0.2892537007841772,-4.320746299215823,8.70597039372658,0.46,0.3144444444444445,-0.6311111111111111,-5.3367342499129835,-0.040116142175631087,13.941200784177228
1589541917.8437274,-0.3454282322347222,-4.351809410744907,8.731809410744908,0.46,0.3144444444444445,-0.6311111111111111,-3.5125890383854372,2.4601176343113424,1.043500433414363
1589541917.8537273,-0.3691395782689807,-4.3597131927563275,8.739713192756327,0.46,0.3144444444444445,-0.6311111111111111,2.7116392956074398,2.5589149094540864,-2.3156069214389357
1589541917.8637273,-0.3403965861322237,-4.340396586132224,8.742804551823703,0.4455555555555555,0.3088888888888889,-0.6322222222222222,-1.118453038087555,-0.998410364740351,5.1781187635344565
1589541917.8737273,-0.32709023326741166,-4.324726822178275,8.734548833662942,0.4455555555555555,0.3088888888888889,-0.6322222222222222,-6.9158992351497535,-5.521678202959327,10.05670554456861
1589541917.8837273,-0.3445722384784199,-4.32914447695684,8.63085552304316,0.4455555555555555,0.3088888888888889,-0.6322222222222222,-5.632979380029261,-2.494652980980249,12.506751783101683
1589541917.8937273,-0.32156035113386977,-4.28312070226774,8.67687929773226,0.4455555555555555,0.3088888888888889,-0.6322222222222222,1.2226453913679585,-2.207004389173372,6.705838514996342
1589541917.9037273,-0.29019844803460115,-4.290074418012975,8.74014883602595,0.4455555555555555,0.3088888888888889,-0.6322415157811418,1.0621899249459357,5.425717147945554,-1.1688954967561378
1589541917.9137273,-0.3613395242335581,-4.316752321587584,8.793504643175169,0.4455555555555555,0.3088888888888889,-0.6391580093004848,0.9510319933850655,1.2017157486324894,5.500580396896069
1589541917.9237273,-0.3647581756217823,-4.342379087810891,8.726209121891088,0.4455555555555555,0.3088888888888889,-0.64,-1.7066157276484666,3.444524508737582,10.78578420709158
1589541917.9337273,-0.3781533959921972,-4.346306791984394,8.659233020039014,0.4455555555555555,0.3088888888888889,-0.64,2.8835187976591596,-0.31427114736655437,9.518991620854761
1589541917.9437273,-0.37071537506650115,-4.331430750133002,8.696423124667493,0.4455555555555555,0.3088888888888889,-0.64,0.6521125199503461,2.196060915055861,5.567543004078737
1589541917.9537272,-0.3882772743277552,-4.348277274327755,8.75,0.4461776509371994,0.30860176794351474,-0.6405263883998525,-2.5786505531772947,-9.07201034080169,13.105490539463688
1589541917.9637272,-0.35718593057949255,-4.317185930579492,8.75,0.45740508062407215,0.3034198773188043,-0.6500265212118217,-2.870131900817257,-1.3477546283426918,3.7295071903782375
1589541917.9737272,-0.3536928683156574,-4.311846434157828,8.7535374804476,0.46,0.3022222222222222,-0.6522222222222223,1.4662935954071197,0.672075089812125,2.0471889664300322
1589541917.9837272,-0.38253106897914985,-4.326265534489575,8.703070629286488,0.46,0.3022222222222222,-0.6522222222222223,-1.2372877167952971,-1.4006705828763946,5.8322028035134155
1589541917.9937272,-0.3787868752539618,-4.33,8.69606562373019,0.46,0.3022222222222222,-0.6522222222222223,2.406757923608289,-3.3198750507923607,0.032585839089800894
1589541918.0037272,-0.37026533929297034,-4.33,8.73867330353515,0.46,0.3022222222222222,-0.6522222222222223,-1.3214140593254777,-1.6155678585940676,3.334681023973994
1589541918.0137272,-0.38913728279646376,-4.332345086881415,8.77440260136165,0.4533333333333333,0.3022222222222222,-0.6255555555555555,3.3722398638349764,-7.903350777360024,3.268807793923382
1589541918.0237272,-0.28409925326695706,-4.377773802115743,8.823321406347231,0.4533333333333333,0.3022222222222222,-0.6255555555555555,-2.298809894212819,-3.1318450528935906,1.4991346453018046
1589541918.0337272,-0.44971715913462423,-4.352285075747861,8.727432083386763,0.4533333333333333,0.3022222222222222,-0.6255555555555555,-2.9162869350968146,-1.7662589990657458,9.11141667735258
1589541918.0437272,-0.3805664144791075,-4.367651907893531,8.642914506585576,0.4533333333333333,0.3022222222222222,-0.6255555555555555,2.2700189140669362,2.747747943724926,-7.792098682884831
1589541918.0537271,-0.09139560931899643,-4.161046706989247,8.759352038530466,0.4533333333333333,0.3022222222222222,-0.6255555555555555,-5.14637936827957,5.054400481630824,-0.23827774977598715
1589541918.0637271,-0.3746903997537271,-4.297753419235674,8.778367122564756,0.45945570752158554,0.3083445964104744,-0.638820699630102,-1.6288700030784118,-2.0547599938431764,-2.253801288535116
1589541918.0737271,-0.40149228835275347,-4.328507711647247,8.708061693177973,0.46,0.3088888888888889,-0.64,-0.13153918677174492,2.1109576705506936,-1.7940549001595514
1589541918.0837271,-0.40861878453038675,-4.32,8.649668508287293,0.46,0.3088888888888889,-0.64,-0.2268646408839779,3.5880524861878453,5.0404005524861875
1589541918.093727,-0.40003621853898097,-4.32,8.709746470227135,0.46,0.3088888888888889,-0.64,-2.801634438305709,2.1933855125844075,2.5729128299570285
1589541918.103727,-0.3904384057141549,-4.32,8.729123188571691,0.46,0.3088888888888889,-0.64,0.892617785764978,-6.955774535839382,2.3234601428538726
1589541918.113727,-0.39391035793474816,-4.326089642065252,8.771955178967374,0.46,0.29444444444444445,-0.64,0.3257344789356984,1.3649528824833703,-6.692474065568578
1589541918.123727,-0.4096456746279177,-4.31,8.776102420907094,0.46,0.29444444444444445,-0.64,2.517223208718519,-3.1262368856236615,-1.0511850380892998
1589541918.133727,-0.3987676724638804,-4.3124646550722385,8.682323275361195,0.46,0.29444444444444445,-0.64,4.826136847813456,8.002901431227485,5.4617403261416895
1589541918.143727,-0.390644536545687,-4.328710926908626,8.76355463454313,0.46,0.29444444444444445,-0.64,5.7399896386102185,3.078250280822714,1.5017115660223883
1589541918.153727,-0.41148899070656103,-4.33,8.777162996902186,0.46,0.29444444444444445,-0.64,-1.0818845183550057,-2.8638225991949398,2.8887117642694173
1589541918.163727,-0.38021375699584764,-4.320213756995848,8.749144972016609,0.4722222222222222,0.29444444444444445,-0.64,-6.756388788589998,-1.1086771077811879,-4.143412619606427
1589541918.173727,-0.3953583679364506,-4.3353583679364505,8.688566528254198,0.4722222222222222,0.29444444444444445,-0.64,-2.7809284166817116,4.475898176566167,-1.0198366131070586
1589541918.183727,-0.39925139356944533,-4.310374303215277,8.571684364468748,0.4722222222222222,0.29444444444444445,-0.64,0.850942381467116,-5.096263591276149,1.47812413895424
1589541918.193727,-0.3636921642186473,-4.328153917890677,8.651692630508043,0.4722222222222222,0.29444444444444445,-0.64,-3.260593512218901,-0.7624825141476439,-8.467347820097073
1589541918.203727,-0.38448676467394843,-4.313675490217367,8.749784803804477,0.4722222222222222,0.29444444444444445,-0.64,0.8017401902238825,-1.6388664198388743,4.1717769429545495
1589541918.213727,-0.39,-4.324637025378713,8.79195553806807,0.4632773733796752,0.28956543598487333,-0.6294288150042625,-1.6637935274444224,-1.022685913830415,-4.27665748573677
1589541918.223727,-0.40019429841828585,-4.330388596836571,8.808057015817143,0.46,0.2877777777777778,-0.6255555555555555,0.8549231722285264,-2.24206682337139,-1.620789525485746
1589541918.233727,-0.40990759824922995,-4.34981519649846,8.7109240175077,0.46,0.2877777777777778,-0.6255555555555555,-3.273229255922744,1.27900436534587,-4.534779474768996
1589541918.243727,-0.3814270621085201,-4.34,8.75928646894574,0.46,0.2877777777777778,-0.6255555555555555,2.517772243604256,-9.54984765300732,5.072343596709683
1589541918.253727,-0.39725341483661614,-4.34,8.751373292581691,0.46,0.2877777777777778,-0.6255555555555555,3.408004584559656,-1.7850433457852244,-4.522382744698515
1589541918.263727,-0.37,-4.32919445688294,8.756375055973226,0.4455555555555555,0.2877777777777778,-0.6466666666666666,2.819970952841083,1.3217031769225331,3.601044931771582
1589541918.273727,-0.3706004573508077,-4.310300228675404,8.667598170596769,0.4455555555555555,0.2877777777777778,-0.6466666666666666,-5.644777041481227,-1.3812071233617744,-1.3436785389362906
1589541918.283727,-0.39,-4.319398069963812,8.594815440289505,0.4455555555555555,0.2877777777777778,-0.6466666666666666,3.9178377563329314,0.12148673100120627,1.8379825090470447
1589541918.293727,-0.39041302665044786,-4.31,8.67206513325224,0.4455555555555555,0.2877777777777778,-0.6466666666666666,5.448917671126838,-4.533707010947694,4.13070883556342
1589541918.303727,-0.3962107431162225,-4.31,8.701053715581113,0.4455555555555555,0.2877777777777778,-0.6466666666666666,3.8545456430388145,-0.620248396549818,3.3335228215194075
1589541918.313727,-0.4,-4.314978243738651,8.749869462431905,0.44942752290783944,0.3010530944141799,-0.6433478375075661,5.706104173090759,0.13288664473909617,1.879079299002981
1589541918.323727,-0.39429270639419356,-4.308585412788387,8.78,0.4533333333333333,0.3144444444444445,-0.64,-1.5054461503064278,-3.1143234014516095,4.754252598883056
1589541918.333727,-0.357174929124205,-4.316412535437897,8.738968661405256,0.4533333333333333,0.3144444444444445,-0.64,-2.919010037545016,-1.212727951881082,0.393226572676423
1589541918.3437269,-0.38086666224858345,-4.295306670201134,8.736173332449717,0.4533333333333333,0.3144444444444445,-0.64,0.9068329798866759,1.9068329798866759,-0.8788333775141655
1589541918.3537269,-0.4151185271348923,-4.24220368216277,8.770237054269785,0.4533333333333333,0.3144444444444445,-0.64,4.232825097268461,2.492592054069231,-4.183659399943846
1589541918.3637269,-0.4552135912795836,-4.222957281744083,8.772957281744082,0.44785566357873136,0.3105318231911574,-0.6446951455039445,0.4988350682510063,-2.3022328881469116,-1.2629370028478837
1589541918.3737268,-0.47867146166879904,-4.221992807496801,8.726014385006398,0.4455555555555555,0.3088888888888889,-0.6466666666666666,-0.6875,1.445803364570006,0.496073083439953
1589541918.3837268,-0.44966423458625815,-4.265503648120613,8.638992703758774,0.4455555555555555,0.3088888888888889,-0.6466666666666666,-0.6875,1.6270985338358863,-0.9542882706870914
1589541918.3937268,-0.4221864849372651,-4.262186484937265,8.654533787656836,0.4455555555555555,0.3088888888888889,-0.6466666666666666,-1.355506814852557,1.3534965925737215,-1.2148310617158142
1589541918.4037268,-0.39577479555462364,-4.26,8.700375340742294,0.4455555555555555,0.3088888888888889,-0.6466666666666666,1.1868971482491086,0.30311648144265035,-6.688640176137556
1589541918.4137268,-0.42015585731657884,-4.218908998783948,8.828285569517632,0.46,0.29444444444444445,-0.64,-0.31834464937170653,-1.2910696189704094,-0.07484926023510335
1589541918.4237268,-0.4286566680178354,-4.159403323875153,8.734776651803811,0.46,0.29444444444444445,-0.64,-0.6371250506688286,-0.12220814754762865,-7.56618869071747
1589541918.4337268,-0.4201995337736582,-4.051995337736582,8.680798135094632,0.46,0.29444444444444445,-0.64,2.252639867902537,-6.98158510018316,-2.685961522451019
1589541918.4437268,-0.4712332739550105,-4.118311031940014,8.714155515970008,0.46,0.29444444444444445,-0.64,3.7000678362815362,3.81543870914288,-2.455764012593728
1589541918.4537268,-0.4952234051836984,-4.168058512959246,8.796117025918493,0.46,0.29444444444444445,-0.64,0.8928189632603192,1.4059172920848244,-3.1035239767868052
1589541918.4637268,-0.5132770769527318,-4.153445846094536,8.800084384570901,0.46811376924889164,0.29444444444444445,-0.634099076909897,0.8502990405003106,-4.957894722751708,2.496221166820158
1589541918.4737267,-0.4691864917186492,-4.117416218541622,8.795645945364594,0.4722222222222222,0.29444444444444445,-0.6311111111111111,0.2538852441385244,-4.78288879328888,-0.27901968165196767
1589541918.4837267,-0.37721449710139054,-4.047214497101391,8.685631410386346,0.4722222222222222,0.29444444444444445,-0.6311111111111111,0.09731878623261847,-1.2578926298293267,-1.1684664734260348
1589541918.4937267,-0.4828269207574478,-4.049402243396454,8.67,0.4722222222222222,0.29444444444444445,-0.6311111111111111,2.890644976480521,5.754126462429141,-3.5081730189361955
1589541918.5037267,-0.48182089490373253,-4.058179105096267,8.719074630577605,0.4722222222222222,0.29444444444444445,-0.6311111111111111,8.430037719425505,0.8710816874261678,-5.118843391846801
1589541918.5137267,-0.46,-4.08,8.73,0.4533333333333333,0.2877777777777778,-0.64,-3.5625,-2.3125,1.1875
1589541918.5237267,-0.44630457893537856,-4.101521375958691,8.724130533829449,0.4533333333333333,0.2877777777777778,-0.64,-3.6603244361758676,-1.7500094919887617,-0.7323045599514011
1589541918.5337267,-0.3532430257078927,-4.2367816036445,8.71670771558732,0.4533333333333333,0.2877777777777778,-0.64,-3.3941913765071394,1.4396550683343796,-7.518113842339949
1589541918.5437267,-0.2794836335578835,-4.330688488589489,8.750086061073686,0.4533333333333333,0.2877777777777778,-0.64,-2.02699980710449,3.1466209899991098,-5.296363548683859
1589541918.5537267,-0.2421423272101374,-4.38047689705315,8.756309612131643,0.4533333333333333,0.2877777777777778,-0.64,0.5402150043030538,0.19043423746921118,-4.129447725316794
1589541918.5637267,-0.24874267627449662,-4.387005858980403,8.782994141019598,0.4686627606797315,0.29161013461437735,-0.64,-3.5063935281837164,-0.700219711765102,2.9936738164186147
1589541918.5737267,-0.31532421926763554,-4.3570502230663894,8.819424665400415,0.48,0.29444444444444445,-0.64,-5.318320983700694,-1.0337332700207607,1.9630684327929684
1589541918.5837266,-0.40384904335615235,-4.331757416183956,8.711423205195716,0.48,0.29444444444444445,-0.64,-2.466273916096191,-1.9045484465508162,-1.073483851149728
1589541918.5937266,-0.5336244394078218,-4.177846843805757,8.6524521386893,0.48,0.29444444444444445,-0.64,-3.7389358393210204,-3.4828054925977723,1.5526323720885373
1589541918.6037266,-0.6858632662592133,-3.6837891124692885,8.698621088753072,0.48,0.29444444444444445,-0.64,1.5560785498182712,2.8190178988405856,12.525951034538773
1589541918.6137266,-0.6413127235228295,-3.5771533887706517,8.702846611229347,0.45536054978997687,0.30000819126606254,-0.6336414322038649,1.5606569651359237,-6.015205037628627,11.709349013756938
1589541918.6237266,-0.512230847114411,-3.1970708178647764,8.7,0.4455555555555555,0.3022222222222222,-0.6311111111111111,1.3680286027674655,1.3323226037799536,17.453079297446283
1589541918.6337266,-0.4395942973523421,-2.872373116089613,8.678397556008147,0.4455555555555555,0.3022222222222222,-0.6311111111111111,-1.622846232179226,8.302993890020367,24.68813645621181
1589541918.6437266,-0.43784520946715605,-2.9673746994051386,8.777071256802936,0.4455555555555555,0.3022222222222222,-0.6311111111111111,-7.106503528034426,-4.554998971649159,34.68227914188078
1589541918.6537266,-0.4559580943704839,-2.99,8.797979047185242,0.4455555555555555,0.3022222222222222,-0.6311111111111111,-8.223428538893145,-1.3255955092237937,44.35208285885836
1589541918.6637266,-0.5684199565097546,-3.0491381580962296,8.908419956509755,0.47183918137610215,0.28798525823609283,-0.63987231971796,0.8037349545190029,1.046340464304309,44.22161457535757
1589541918.6737266,-0.57,-3.075044685990338,8.893303542673108,0.4722222222222222,0.2877777777777778,-0.64,-9.23690368357488,-7.12919937600644,49.77037791867955
1589541918.6837265,-0.5628845910490573,-3.0301921373434006,8.81173050153963,0.4722222222222222,0.2877777777777778,-0.64,-4.445890190660986,-3.9026276521702448,52.92068007339604
1589541918.6937265,-0.5913300820217247,-3.017832520505431,8.764334958989137,0.4722222222222222,0.2877777777777778,-0.64,-2.177032531589448,-7.371311100642873,56.540335430059855
1589541918.7037265,-0.6057027058646566,-3.031405411729313,8.748594588270686,0.4722222222222222,0.2877777777777778,-0.64,-2.6689191165410393,-7.199830152257116,58.31047352631491
1589541918.7137265,-0.5858332402754513,-3.0883335194490975,8.752083379862274,0.4648379345286101,0.29180557106520255,-0.6440277932874248,-2.559894379303927,-4.427077517215708,62.34766890005584
1589541918.7237265,-0.6555070032382662,-3.138322929265343,8.747784713823105,0.46,0.29444444444444445,-0.6466666666666666,1.275740314462955,-1.605207073465725,71.7146533982287
1589541918.7337265,-0.717102483769904,-3.1215900649203836,8.697385097380575,0.46,0.29444444444444445,-0.6466666666666666,4.627872565485611,-1.9467778011046155,79.19788403152353
1589541918.7437265,-0.7267068060697286,-3.1636544485578293,8.733654448557829,0.46,0.29444444444444445,-0.6466666666666666,3.972644013669094,2.5514396281680973,80.54267015174321
1589541918.7537265,-0.8380948605540528,-3.250052700307807,8.76,0.46,0.29444444444444445,-0.6466666666666666,2.3865777446133754,1.0840086046077788,82.42658100923421
1589541918.7637265,-0.9219251195539856,-3.2601872011150363,8.771925119553986,0.4633125332094405,0.2785442850391304,-0.6380540803221215,-1.5173758801336121,-2.7550119553985533,88.61864381323144
1589541918.7737265,-1.0015390452102435,-3.3592317420170725,8.78,0.4655555555555556,0.2677777777777778,-0.6322222222222222,-2.296463009800822,-6.1458544103699015,97.81254742333228
1589541918.7837265,-0.9897566801015076,-3.4429258098223614,8.764878340050753,0.4655555555555556,0.2677777777777778,-0.6322222222222222,-1.4649481265860576,-4.3552302582474995,102.90389423794596
1589541918.7937264,-1.018837114557075,-3.50660453746849,8.775534845822829,0.4655555555555556,0.2677777777777778,-0.6322222222222222,-0.050293776895067754,-4.533427863926871,105.85871654826471
1589541918.8037264,-1.0654259658714735,-3.541255579522884,8.78,0.4655555555555556,0.2677777777777778,-0.6322222222222222,2.9694474403605065,-6.229538634858937,108.41199303760972
1589541918.8137264,-1.0447183515695626,-3.594102060538047,8.859383708968483,0.5018172497757273,0.25699727409069967,-0.6626036417039877,-1.3400024159107202,-10.285537267371177,118.18066725895446
1589541918.8237264,-1.1128766047745358,-3.5838051989389923,8.740441591511937,0.5066666666666667,0.25555555555555554,-0.6666666666666666,-2.4673700265251988,-10.041477453580901,110.67029442970822
1589541918.8337264,-1.1236241831329028,-3.6310065349367777,8.633490197594835,0.5066666666666667,0.25555555555555554,-0.6666666666666666,-1.2873366265805655,-6.169056445999768,111.13547789141951
1589541918.8437264,-1.266691960564514,-3.7000068983357766,8.683349429450145,0.5066666666666667,0.25555555555555554,-0.6666666666666666,-1.6460201632606135,-4.9793247535282115,116.14645130924664
1589541918.8537264,-1.3836180723973772,-3.7309045180993445,8.746356777149016,0.5066666666666667,0.25555555555555554,-0.6666666666666666,0.879395715440582,-5.028580571274589,119.53910109584119
1589541918.8637264,-1.4331774775131751,-3.7070563062170625,8.78635495502635,0.5015420920782097,0.22480810802481366,-0.6630062562463402,4.672888516860166,-8.023048995522448,123.59285473709237
1589541918.8737264,-1.5017296296296296,-3.7949403703703704,8.824691851851853,0.4988888888888889,0.2088888888888889,-0.6611111111111111,0.21980555555555537,-2.3810254629629632,128.35654861111112
1589541918.8837264,-1.653652045497392,-3.866685414441023,8.826629171117954,0.4988888888888889,0.2088888888888889,-0.6611111111111111,-1.4332817507698108,-0.9880718594859546,136.161886115126
1589541918.8937263,-1.7886817042606518,-3.8137987826709634,8.763798782670964,0.4988888888888889,0.2088888888888889,-0.6611111111111111,-1.7412728249194414,-7.936741407089151,145.60364303616183
1589541918.9037263,-1.8346135109754667,-3.6879387252024887,8.766159467073601,0.4988888888888889,0.2088888888888889,-0.6611111111111111,-2.1778377743866653,-10.265799242868882,150.94233111280667
1589541918.9137263,-1.9422190485022721,-3.628802930538811,8.805299267365298,0.5255263738188712,0.17807297495028182,-0.6679010582501262,-1.8125,-9.087591579337847,155.20876147639802
1589541918.9237263,-2.018505403541044,-3.65,8.753879052655783,0.5555555555555556,0.14333333333333334,-0.6755555555555556,-1.6203293860657622,-6.89946922664214,158.08296447459185
1589541918.9337263,-2.007420192419149,-3.7041945056218846,8.662579807580851,0.5555555555555556,0.14333333333333334,-0.6755555555555556,0.08672047061550958,-4.610894575170975,155.92942650979484
1589541918.9437263,-2.1933060593778495,-3.7513007903536324,8.675501317256055,0.5555555555555556,0.14333333333333334,-0.6755555555555556,-0.9625658628027156,-11.824010158070728,162.56588021836052
1589541918.9537263,-2.331489216605575,-3.7859960787656632,8.748491177222743,0.5555555555555556,0.14333333333333334,-0.6755555555555556,-0.9563602847157106,-11.88479775807689,164.64386028471571
1589541918.9637263,-2.3312881201638596,-3.792257624032772,8.803227127901684,0.5314681636575128,0.10376118950083446,-0.685018459515501,-0.07860150204824762,-10.181440600819299,174.2183090578061
1589541918.9737263,-2.3321363372553154,-3.79,8.77965915686171,0.5244444444444445,0.09222222222222222,-0.6877777777777778,-0.08920421569144726,-7.6598064950139815,174.28054595578536
1589541918.9837263,-2.351295847750865,-3.7391686851211072,8.754352076124567,0.5244444444444445,0.09222222222222222,-0.6877777777777778,-3.0820609861591697,-12.69881055363322,172.01390570934257
1589541918.9937263,-2.45340290719344,-3.666641818859486,8.79670145359672,0.5244444444444445,0.09222222222222222,-0.6877777777777778,-2.9774273201639954,-6.554113865076408,172.271268169959
1589541919.0037262,-2.5450008866820357,-3.554373115800674,8.82,0.5244444444444445,0.09222222222222222,-0.6877777777777778,-3.4297193651356626,-9.023596825678313,177.37900115268664
1589541919.0137262,-2.5734457799322663,-3.3292529384421274,8.905204860880536,0.5266291844670223,0.05216865514162811,-0.6877777777777778,-0.5091847068198421,-10.519726575469818,174.03824955176307
1589541919.0237262,-2.522671904519147,-3.1458781899421235,8.85061099949021,0.5277777777777778,0.031111111111111114,-0.6877777777777778,0.09017677752121633,-10.24808453534051,173.5367265046331
1589541919.0337262,-2.47,-3.0112559437261757,8.723933666051009,0.5277777777777778,0.031111111111111114,-0.6877777777777778,-0.917654831610799,-12.114040947852398,174.2464485008056
1589541919.0437262,-2.5364569593066353,-2.9422781441848973,8.697721855815104,0.5277777777777778,0.031111111111111114,-0.6877777777777778,-1.4153975728432138,-10.984188793644156,167.51030638815502
1589541919.0537262,-2.6233084674780787,-2.8769899227849756,8.749776207302709,0.5277777777777778,0.031111111111111114,-0.6877777777777778,-4.728855843475984,-12.680506478209658,169.84732855647167
1589541919.0637262,-2.6261184974523046,-2.7317774617845716,8.798355492356915,0.529934168082053,0.0035093152163895164,-0.6959720609340233,-1.9013730892285818,-12.20933908045977,172.41528172769284
1589541919.0737262,-2.63737840362095,-2.6342071987930167,8.837928012069833,0.5333333333333333,-0.04,-0.7088888888888889,-2.8156611466340973,-7.993129894388964,179.9345813276816
1589541919.0837262,-2.680465585004535,-2.6249224024992444,8.798758439987907,0.5333333333333333,-0.04,-0.7088888888888889,-8.177104328328127,-4.038946765091202,177.45386349894184
1589541919.0937262,-2.8414424410540917,-2.6102635228848823,8.788155339805826,0.5333333333333333,-0.04,-0.7088888888888889,-5.635835644937586,-1.7187066574202496,172.4489424410541
1589541919.1037261,-3.0111503301168105,-2.548082783138649,8.802891061452513,0.5333333333333333,-0.04,-0.7088888888888889,-2.8604304215337732,-8.907979939055359,177.32539518791265
1589541919.1137261,-3.006057984825716,-2.4377729721804786,8.823541032877616,0.5251621074580426,-0.08839879941518325,-0.7139173355813755,-3.284662152255984,-8.144084686434777,184.84380841549682
1589541919.1237261,-3.0200408027497505,-2.4300408027497507,9.093550947998668,0.5188888888888888,-0.12555555555555556,-0.7177777777777777,-8.151401208559708,-9.527166260117529,196.1535688546402
1589541919.1337261,-3.0587544376638744,-2.362479290901919,8.893677518156716,0.5188888888888888,-0.12555555555555556,-0.7177777777777777,-10.24985207787085,-15.164663433649674,192.51386842471635
1589541919.143726,-2.865469477562298,-2.2110336181753056,8.828759658189634,0.5188888888888888,-0.12555555555555556,-0.7177777777777777,-6.2874686588548325,-9.26502136314793,192.30980721997645
1589541919.153726,-2.8860378060956826,-2.164847607926757,8.894847607926758,0.5188888888888888,-0.12555555555555556,-0.7177777777777777,-4.255714702746611,-10.345703025841498,194.56059509908445
1589541919.163726,-3.0038597821203954,-2.115123259209344,8.880631738544475,0.4988032844164919,-0.1481518605870021,-0.7285379230308475,-5.293191613319856,-14.896716012466307,196.42059923910602
1589541919.173726,-2.9906212761034303,-1.989689361948285,8.901863828310292,0.4566666666666666,-0.1955555555555556,-0.7511111111111111,-4.169614450164864,-9.085758084109447,199.8652925608839
1589541919.183726,-2.852489436012418,-1.8605092273197654,8.824215031045188,0.4566666666666666,-0.1955555555555556,-0.7511111111111111,-2.38481211193515,-14.747964006985168,197.79729540358744
1589541919.193726,-2.587622361401067,-1.6757596845279519,8.643811180700533,0.4566666666666666,-0.1955555555555556,-0.7511111111111111,2.580738227789376,-10.852847367200186,188.79104326142425
1589541919.203726,-2.475244857122797,-1.5011753141894264,8.649510285754404,0.4566666666666666,-0.1955555555555556,-0.7511111111111111,3.0992285684195746,-6.866154646141965,189.41335107596714
1589541919.213726,-2.566110717125481,-1.365840156448112,8.731151655814154,0.44911475010565977,-0.21695265247840842,-0.7511111111111111,-1.5370906131132744,-11.460194915436357,193.0895224894161
1589541919.223726,-2.931961190738699,-1.345149724366042,9.003158985667035,0.43,-0.27111111111111114,-0.7511111111111111,-2.2672133406835724,-8.955926130099229,190.23363009922824
1589541919.233726,-3.05,-1.324854707226553,9.121360711796834,0.43,-0.27111111111111114,-0.7511111111111111,-1.1225639353029837,-6.577339229859165,187.0024796201157
1589541919.243726,-2.721681738918853,-1.2174690782270166,8.788070886897279,0.43,-0.27111111111111114,-0.7511111111111111,-0.9209086945942657,-12.210673587736729,176.87892858591184
1589541919.253726,-2.0864184244511406,-1.1261859664227292,8.89944037882049,0.43,-0.27111111111111114,-0.7511111111111111,1.2741336633663367,-7.808464270340077,172.44971480843736
1589541919.263726,-2.1479095948094358,-1.1242938168693335,9.276723241524513,0.41967358455434767,-0.2842937691268375,-0.755065908515829,-1.3767643836205044,1.2990831650410346,169.415962166459
1589541919.273726,-2.399635231106812,-0.9596003114456269,9.140799377108745,0.37777777777777777,-0.3377777777777778,-0.7711111111111111,-2.304787591723097,-4.87158029162636,164.09318004860438
1589541919.283726,-2.247604637862008,-0.8031586335985026,8.907604637862008,0.37777777777777777,-0.3377777777777778,-0.7711111111111111,-0.9762355066812249,-2.5559487599438464,156.21350673321894
1589541919.293726,-2.2292656451046904,-0.6684512808515616,8.612296408936718,0.37777777777777777,-0.3377777777777778,-0.7711111111111111,-1.0720128085156158,-11.737564335009942,137.73823692829572
1589541919.303726,-2.3912055175788716,-0.5831917236316925,8.648013793947179,0.37777777777777777,-0.3377777777777778,-0.7711111111111111,-0.2974310302641036,-12.166258544753866,127.17643100732516
1589541919.313726,-2.4475509251541925,-0.49833038839806637,8.796085014169028,0.37327773147376414,-0.3411337445129744,-0.772560278564946,0.5012731288548091,-1.1016940323387232,123.08696866144358
1589541919.323726,-2.512608115323011,-0.290144153764015,8.979659192027052,0.31222222222222223,-0.38666666666666666,-0.7922222222222223,-3.3512468855668267,-4.585518998042356,115.8894153764015
1589541919.333726,-2.0783801920629412,-0.23286358903158627,8.748575726021057,0.31222222222222223,-0.38666666666666666,-0.7922222222222223,-1.8697356242045586,-2.1204876778896207,102.49680377183849
1589541919.343726,-1.901610819539766,-0.19611324182478804,8.764145135244247,0.31222222222222223,-0.38666666666666666,-0.7922222222222223,4.430592702866371,7.517454329834477,92.57510975979007
1589541919.353726,-2.2636699885768308,-0.06200181195099854,8.51384133611691,0.31222222222222223,-0.38666666666666666,-0.7922222222222223,-5.652107870169772,-5.9621829085752545,80.95655010438414
1589541919.363726,-2.0644020217583283,-0.0649363972867853,8.50860055241352,0.29287248767717006,-0.3968334763428805,-0.8007492238861436,-0.6617359688844635,-10.798504114917044,68.10480238063923
1589541919.373726,-1.870978303189042,-0.21529501291898206,9.212733161080239,0.2466666666666667,-0.4211111111111111,-0.8211111111111111,6.966120854422539,1.9549627473188687,59.94768254698616
1589541919.383726,-1.8493098074140042,-0.15637908642250176,9.371809158039259,0.2466666666666667,-0.4211111111111111,-0.8211111111111111,-1.3200165126720846,-3.8717484878845227,44.143823750417454
1589541919.3937259,-1.9006197281282677,-0.0792540955036598,9.21557546183339,0.2466666666666667,-0.4211111111111111,-0.8211111111111111,4.413319100731963,2.25165998605786,30.05965057511328
1589541919.4037259,-2.232184972798118,0.03931431652208008,8.848152722638828,0.2466666666666667,-0.4211111111111111,-0.8211111111111111,-1.4546420869479977,2.7658708278194384,10.916583958241436
1589541919.4137259,-1.2933428009613284,0.2091977277692812,6.532635787633821,0.2461912460855,-0.421415677420921,-0.8211556817905955,2.855538562377103,-0.5290719903867162,1.1381936858204065
1589541919.4237258,-1.839716739207152,0.044802964357134455,8.608866956828608,0.17555555555555555,-0.4666666666666667,-0.8277777777777777,7.074892659687096,6.951585107634395,-14.803184919421245
1589541919.4337258,-2.101353553199843,-0.028304868472712998,9.046777336081664,0.17555555555555555,-0.4666666666666667,-0.8277777777777777,3.1218375785237535,8.312519937671771,-24.39195929034158
1589541919.4437258,-2.2558024691358023,-0.00790123456790124,9.046543209876543,0.17555555555555555,-0.4666666666666667,-0.8277777777777777,0.41435185185185186,5.116512345679013,-28.685185185185183
1589541919.4537258,-2.0667176176380524,0.006717617638052467,8.804474584056344,0.17555555555555555,-0.4666666666666667,-0.8277777777777777,-0.6128917015412881,3.821814075737471,-39.42252570940084
1589541919.4637258,-1.865003543586109,-0.1246894932671864,8.96658088235294,0.16555634301913535,-0.4807280592960076,-0.823715597684857,-1.052508748228207,7.18152296686747,-47.271369485294116
1589541919.4737258,-1.9813856394371767,-0.09126832965367251,8.820263947012885,0.14,-0.5166666666666667,-0.8133333333333334,-6.088503394075197,10.45280423106073,-53.99003402313244
1589541919.4837258,-2.3600344452501814,-0.09883973894126177,9.20221990572879,0.14,-0.5166666666666667,-0.8133333333333334,0.4187250725163163,7.219288207034083,-64.9583937635968
1589541919.4937258,-1.993768047655908,-0.06884797899909131,8.262367987076365,0.14,-0.5166666666666667,-0.8133333333333334,2.0512002322215865,5.873849409349443,-77.17644844007674
1589541919.5037258,-1.7648558731194195,-0.2681942349247768,8.543884698495535,0.14,-0.5166666666666667,-0.8133333333333334,-1.85498888979492,5.1811447588372,-91.88713968279855
1589541919.5137258,-1.9633915011003318,-0.3041521247249171,9.009445184886712,0.10287728977466448,-0.5144303588217669,-0.8133333333333334,-1.0662659238136563,2.1987880854229305,-96.92709721662585
1589541919.5237257,-1.9461104377371987,-0.38053549784409957,8.994188407812903,0.04777777777777778,-0.5111111111111111,-0.8133333333333334,0.5032425437637849,9.398816738530014,-103.81919372305124
1589541919.5337257,-2.1122983002979216,-0.4447579603575057,8.685442663038799,0.04777777777777778,-0.5111111111111111,-0.8133333333333334,-1.996483709035802,6.72001735004908,-108.6957864781553
1589541919.5437257,-2.1484130947665707,-0.48809571371988497,9.053813566619022,0.04777777777777778,-0.5111111111111111,-0.8133333333333334,2.969300530403486,3.6954033132996953,-121.20053406292514
1589541919.5537257,-2.177818441767596,-0.4017122150827431,8.605879278894347,0.04777777777777778,-0.5111111111111111,-0.8133333333333334,-3.522724564920872,7.149142988611526,-122.27443263052373
1589541919.5637257,-2.4259570097451153,-0.4913178090746249,9.074585462851884,0.04777777777777778,-0.5111111111111111,-0.8133333333333334,-0.9379478151550509,2.6257836765213396,-123.04986565545349
1589541919.5737257,-1.8843258954029543,-0.721642169938007,8.756568679752029,0.1111111111111111,-0.4577777777777778,-0.7,-1.689337254649473,4.741233375029893,-136.77026613748828
1589541919.5837257,-1.8224799335732078,-0.7452892333241073,8.871177691668972,0.1111111111111111,-0.4577777777777778,-0.7,-0.2543938555217271,10.734111195682258,-151.49160150844173
1589541919.5937257,-2.903818676645688,-0.7979027045415887,9.107747916312299,0.1111111111111111,-0.4577777777777778,-0.7,-4.039047882292907,7.581529596870216,-144.63672605885355
1589541919.6037257,-3.050851701220117,-0.9265810931455213,9.302987005257414,0.1111111111111111,-0.4577777777777778,-0.7,0.7976254835829781,13.785733062196211,-148.44399365142348
1589541919.6137257,-2.880155804761467,-0.9381402242853204,9.017984419523852,0.13417830989367896,-0.4503873160319065,-0.6899220976192665,3.6186086726721203,11.850840782700615,-155.86635949995403
1589541919.6237257,-2.8335013337517654,-1.019035619017731,8.8789835242429,0.2255555555555556,-0.4211111111111111,-0.65,-5.582482739683038,15.863869056959047,-163.19113839635963
1589541919.6337256,-2.541406354639482,-1.0885653694471316,8.528555944142669,0.2255555555555556,-0.4211111111111111,-0.65,-0.4559041471339631,7.660482860827939,-158.11629864573257
1589541919.6437256,-2.73,-1.14,8.66,0.2255555555555556,-0.4211111111111111,-0.65,4.1875,9.625,-156.1875
1589541919.6537256,-3.070658310404565,-1.235865688372567,9.44379190869255,0.2255555555555556,-0.4211111111111111,-0.65,0.014935544685621083,8.074760521756852,-160.4194372261286
1589541919.6637256,-2.8483984510343423,-1.0734450219097116,8.682979313156016,0.2255555555555556,-0.4211111111111111,-0.65,-3.4044469071639663,-2.5573817894629567,-161.64827779476204
1589541919.6737256,-1.8495284830943297,-1.0785180897250362,8.546352322062887,0.31222222222222223,-0.4011111111111111,-0.6644444444444444,2.747409880278911,12.725874884883568,-151.6610413103539
1589541919.6837256,-1.992516335389536,-1.52,8.549411925976697,0.31222222222222223,-0.4011111111111111,-0.6644444444444444,-2.1213245373543526,5.471204592186429,-168.98978181402788
1589541919.6937256,-1.9989047292666209,-1.52,8.319429746401644,0.31222222222222223,-0.4011111111111111,-0.6644444444444444,-0.6839359150102813,0.32056202878683937,-177.2148389307745
1589541919.7037256,-2.4854112808460633,-1.5762759498629064,8.940407363885626,0.31222222222222223,-0.4011111111111111,-0.6644444444444444,8.336760673717196,17.31499706227967,-169.98405062671367
1589541919.7137256,-3.0193507638072856,-1.651575107716412,8.803499804151977,0.31222222222222223,-0.4011111111111111,-0.6644444444444444,12.786256365060712,8.07373678025852,-169.04281115354485
1589541919.7237256,-2.5192747676589455,-1.6313045975832428,8.120436780665942,0.4122222222222222,-0.33555555555555555,-0.6444444444444445,-3.026258898713661,-0.5226224791252077,-172.71828134296206
1589541919.7337255,-2.0890283733048847,-1.8120080832119485,9.566064665695588,0.4122222222222222,-0.33555555555555555,-0.6444444444444445,3.642560213774286,15.719178907740599,-161.31675189257945
1589541919.7437255,-2.4329137731995383,-1.8090267294201225,9.11791830210461,0.4122222222222222,-0.33555555555555555,-0.6444444444444445,4.990500399609271,4.50869261166859,-173.6215833407335
1589541919.7537255,-2.946911997158334,-1.9952579699849036,8.827397566823551,0.4122222222222222,-0.33555555555555555,-0.6444444444444445,-3.715810096794245,2.367033345173608,-163.75132759080012
1589541919.7637255,-2.726215927311598,-2.030859166221272,8.921206574024586,0.41932760258922736,-0.3284501751885504,-0.6479301027376922,-0.44413081239978625,3.083979155531801,-171.1447755211117
1589541919.7737255,-2.5020416889363974,-2.1029151714133008,8.9292127968237,0.4664753590729005,-0.2813024187048773,-0.6710591908240224,3.6590583721462933,4.885379285332519,-161.7374637321524
1589541919.7837255,-2.3718266793409377,-1.8533618504435996,8.750583016476552,0.4711111111111111,-0.2766666666666667,-0.6733333333333333,0.6646665082382763,-2.103988434727503,-169.42243940114068
1589541919.7937255,-2.58,-2.04,9.21,0.4711111111111111,-0.2766666666666667,-0.6733333333333333,-1.9375,-0.9375,-165.25
1589541919.8037255,-2.060298369490392,-1.9269881792970516,8.266665421001909,0.4711111111111111,-0.2766666666666667,-0.6733333333333333,0.020817762523847927,9.472696585567334,-157.95101095529375
1589541919.8137255,-2.5222711091005645,-2.240469681175383,9.462844836063962,0.4711111111111111,-0.2766666666666667,-0.6733333333333333,14.97306045079952,13.85525047695848,-152.94974357335326
1589541919.8237255,-1.927818176192097,-2.0405999938113064,8.397627255005107,0.51,-0.2255555555555556,-0.6644444444444444,3.5510799269734195,9.170852415137544,-151.9724429093047
1589541919.8337255,-2.1,-2.23,8.94,0.51,-0.2255555555555556,-0.6644444444444444,-8.125,4.8125,-160.3125
1589541919.8437254,-2.122085609977213,-2.2226381300075957,8.984171219954426,0.51,-0.2255555555555556,-0.6644444444444444,2.7797699262489903,10.011820682135593,-152.99664169504814
1589541919.8537254,-2.457858332894898,-2.4660625032882626,8.896804159870925,0.51,-0.2255555555555556,-0.6644444444444444,3.3886978043177076,10.025234124270005,-139.90424470809
1589541919.8637254,-2.4431469107872537,-2.5763981690955964,8.668777117202433,0.51,-0.2255555555555556,-0.6644444444444444,-0.3811041107662092,1.6121396064607776,-137.09987986882027
1589541919.8737254,-2.1775840451375283,-2.5274806049682628,8.812105634354674,0.6255555555555555,-0.2588888888888889,-0.6644444444444444,4.755333633727764,5.783916816863882,-126.80273391583732
1589541919.8837254,-2.0272355927423145,-2.5593113659866504,9.117914355551378,0.6255555555555555,-0.2588888888888889,-0.6644444444444444,-2.174649807276488,2.1831343423897716,-122.46363225063457
1589541919.8937254,-1.8147128780934922,-2.5395751604032997,8.658725481209899,0.6255555555555555,-0.2588888888888889,-0.6644444444444444,-1.5386027726856093,4.5816266613198895,-127.08930024060496
1589541919.9037254,-1.632817728621309,-2.5126243768543,8.527256140634146,0.6255555555555555,-0.2588888888888889,-0.6644444444444444,4.200046168284659,11.173052858901649,-125.67397622459482
1589541919.9137254,-1.8168214829226947,-2.7636429658453894,9.096478973627939,0.6553629823693972,-0.2820567466968037,-0.6609127588029939,4.695446292693264,4.277358122555913,-128.63065992756833
1589541919.9237254,-1.7764225308701431,-2.682845061740286,8.79752672843906,1.0342153771733245,-0.5765202194354011,-0.6160250343001591,4.796443672824642,10.185704860241568,-135.8519726069619
1589541919.9337254,-1.8766503049770815,-2.941108384162847,8.884072256108565,1.0944444444444446,-0.6233333333333333,-0.6088888888888889,0.0718387952502978,12.00451600678529,-123.7550528747248
1589541919.9437253,-1.6041653733713503,-2.895694228895225,8.853796152596816,1.0944444444444446,-0.6233333333333333,-0.6088888888888889,1.39641832388927,10.112259537301043,-130.80370822355363
1589541919.9537253,-1.529791494290915,-2.8985536984941254,8.496592751944398,1.0944444444444446,-0.6233333333333333,-0.6088888888888889,-1.852484279331458,5.221578686083071,-132.56494084064207
1589541919.9637253,-1.6664818401114394,-3.0898508476879694,8.81,1.08170088751477,-0.602615280656255,-0.6182706485917168,0.602748190806238,9.543976998607006,-140.75972760167159
1589541919.9737253,-1.62,-3.22,8.81,0.9133333333333332,-0.3288888888888889,-0.7422222222222222,4.4375,10.125,-140.0625
1589541919.9837253,-1.5606736929117586,-3.1977526348419096,8.848932889026658,0.9133333333333332,-0.3288888888888889,-0.7422222222222222,1.8767355729489568,8.630255153440793,-139.95821547582145
1589541919.9937253,-1.227008106268435,-3.2738924527134343,9.000678616365173,0.9133333333333332,-0.3288888888888889,-0.7422222222222222,-5.832746333615231,4.8265312699820555,-139.88911119820136
1589541920.0037253,-0.9296395750212937,-3.888313982158067,8.908313982158067,0.9133333333333332,-0.3288888888888889,-0.7422222222222222,7.222587080288698,14.248968933518626,-141.62694725870804
1589541920.0137253,-0.6190793394889833,-3.667029166055987,8.676192535053007,0.903505517829129,-0.3196468372226836,-0.7409856096753356,8.138338768381455,7.029288191899946,-145.16265297523083
1589541920.0237253,-0.9168025533149572,-3.9006394893370087,8.544884085303933,0.5777777777777777,-0.013333333333333334,-0.7,4.373551066299144,7.7082329899898445,-153.40038082112287
1589541920.0337253,-0.9647566734359325,-3.9407959188666783,8.602659342810306,0.5777777777777777,-0.013333333333333334,-0.7,4.636764148173522,6.19136582173179,-164.77961146044873
1589541920.0437253,-1.3305918893412028,-4.0172780414970495,8.998189258095868,0.5777777777777777,-0.013333333333333334,-0.7,6.445556252024847,14.238829004268027,-161.79806811939204
1589541920.0537252,-1.5669137802318538,-3.9286573324130547,8.874120265378277,0.5777777777777777,-0.013333333333333334,-0.7,-1.5672328609862944,11.026328299973237,-149.79734709760118
1589541920.0637252,-1.8523873508159456,-3.8804006657465293,8.724006657465292,0.5777777777777777,-0.013333333333333334,-0.7,2.8569507591134204,8.545074896484534,-130.0435069416254
1589541920.0737252,-1.8365747078225392,-3.528620617338087,8.259302587176604,0.557822899256237,0.08123543879049017,-0.727763309247361,-0.42389921069188397,0.15473966177956555,-129.827921536291
1589541920.0837252,-1.4867089779908476,-3.4602870995859667,9.103130856395728,0.5522222222222222,0.10777777777777778,-0.7355555555555555,-6.404370505556766,3.7078611898016995,-115.50980265308345
1589541920.0937252,-1.6009577249945521,-3.6354685116583134,9.156446938330792,0.5522222222222222,0.10777777777777778,-0.7355555555555555,0.545761603835258,6.183250708215297,-108.2264450315973
1589541920.1037252,-1.5763394577415832,-3.6572164067931276,8.472011321879034,0.5522222222222222,0.10777777777777778,-0.7355555555555555,3.4832567782302117,5.881081785678816,-97.39269788459629
1589541920.1137252,-1.434710497566789,-3.6405541761843283,8.663626973880227,0.5522222222222222,0.10777777777777778,-0.7355555555555555,5.2536187804151355,-1.5648525176283652,-93.38334864435396
1589541920.1237252,-1.5269394335919244,-3.9469394335919246,9.061742919899055,0.5155555555555555,0.16444444444444445,-0.73,3.06674835264978,2.987314819141976,-69.07446081409478
1589541920.1337252,-1.4824414152888217,-3.946774790693761,8.87516218604064,0.5155555555555555,0.16444444444444445,-0.73,8.093299044974547,2.3482556060414828,-55.129840864150786
1589541920.1437252,-1.2790519915115899,-4.069649649036892,9.060865572967678,0.5155555555555555,0.16444444444444445,-0.73,4.0972073436989875,10.432166687071499,-44.158670523179886
1589541920.1537251,-0.8853656545870061,-3.9241568723473716,9.42031831537708,0.5155555555555555,0.16444444444444445,-0.73,-33.39927664871041,-173.46642384916748,-239.8250591740124
1589541920.1637251,-8.636439058378539,-19.857837721262793,0.4333567245641099,0.5155555555555555,0.16444444444444445,-0.73,-109.73068253454768,-66.3636496541084,-424.1295652300138
1589541920.1737251,-1.434037603814211,-3.9730936634881537,2.7016775607505368,0.4949359598755938,0.2021285331009262,-0.7207567329710516,-109.68396502999077,20.589104794678562,-497.94208512765306
1589541920.183725,-1.6211663460817867,-3.4106819714721093,8.303945192475831,0.4833333333333333,0.22333333333333333,-0.7155555555555555,-14.758844707851415,3.2609540106417527,-457.08914965901425
1589541920.193725,-1.6998997502368443,-2.9824326931358196,8.226717595383688,0.4833333333333333,0.22333333333333333,-0.7155555555555555,80.05016040823357,31.718929248126777,-425.30316725518907
1589541920.203725,-1.4759340280768236,-3.372566531737146,9.541613125484455,0.4833333333333333,0.22333333333333333,-0.7155555555555555,151.5746974851434,65.90079450521057,-408.95728188786495
1589541920.213725,-1.9644609970674485,-2.8424856304985338,7.978228739002933,0.4833333333333333,0.22333333333333333,-0.7155555555555555,211.65629765395894,74.78355571847507,-377.53659824046923
1589541920.223725,-2.8401880355764932,2.9494730536490277,6.23146712423344,0.43898568186023,0.353715428664257,-0.6871730586127694,-58.415335763310736,-24.22134919587377,-304.2549534479958
1589541920.233725,0.5675125014536574,1.2701593208512618,17.45607047331085,0.42777777777777776,0.38666666666666666,-0.68,-11.736197522967787,49.442820386091405,-243.26337364809862
1589541920.243725,-0.1031657750901267,0.03855012210722175,8.798223630654727,0.42777777777777776,0.38666666666666666,-0.68,25.074894246424,15.489732636062335,-211.6347958338179
1589541920.253725,-1.1441913198959688,0.3872025357607284,8.412136703511052,0.42777777777777776,0.38666666666666666,-0.68,28.449960378738623,4.588568758127438,-146.22329120611184
1589541920.263725,-0.5046283888504733,1.6898342831254918,9.448016404778368,0.42777777777777776,0.38666666666666666,-0.68,-13.372789944920001,-8.94795417153485,-66.9311991821455
1589541920.273725,0.4990935166636314,0.2660300947004189,9.515288426516118,0.3055555555555556,0.4633333333333333,-0.6855555555555556,-1.7081616508832635,0.6926504735020944,-29.5531395123839
1589541920.283725,1.1292697140775814,-0.4500792205427062,9.314777818248043,0.3055555555555556,0.4633333333333333,-0.6855555555555556,-1.8275132034237844,-2.8878961027135306,-14.335816563467493
1589541920.293725,1.7060061372028916,-1.1236932438757998,9.06609819524627,0.3055555555555556,0.4633333333333333,-0.6855555555555556,-1.887576715036147,-5.895092188068862,0.05835868830290736
1589541920.303725,1.6551053206428459,-1.2982103292245282,8.251685130285535,0.3055555555555556,0.4633333333333333,-0.6855555555555556,-1.251316508035575,-2.168425261351225,4.7848630831643
1589541920.313725,1.6883276897870017,-1.7527307482250136,9.081263790278536,0.3055555555555556,0.4633333333333333,-0.6855555555555556,0.9511537411250681,2.76344210813763,13.23528809393774
1589541920.323725,1.2881173135363342,-2.0204342150884136,8.999131569823172,0.2684703328279841,0.5004185560609048,-0.6816103190951757,-0.8704633293222654,-5.499969407109788,27.364994850196815
1589541920.333725,2.6454123711340207,-4.6853608247422684,8.441855670103092,0.2533333333333333,0.5155555555555555,-0.68,-0.2644974226804123,27.52319587628866,51.07119845360825
1589541920.343725,14.591754784743374,-22.363243624130565,8.471236077646953,0.2533333333333333,0.5155555555555555,-0.68,10.571947310996954,-6.955286516343138,62.34590228212938
1589541920.353725,-0.04262831295176639,-1.0170652816293142,8.213823475928537,0.2533333333333333,0.5155555555555555,-0.68,-2.0007515229349444,-14.820671568850297,48.64106469063964
1589541920.363725,0.7581841157515636,-2.188115246098439,9.81124681451528,0.2533333333333333,0.5155555555555555,-0.68,-9.095052494682083,-3.950684221056843,38.157756523662094
1589541920.373725,2.625133855770973,-4.936347390831672,9.33407501358942,0.2577777777777778,0.5133333333333333,-0.6733333333333333,-0.5201887796702301,12.655042523554991,51.530152937579274
1589541920.383725,2.4329145272610035,-5.371473264394718,8.059847156879133,0.2577777777777778,0.5133333333333333,-0.6733333333333333,-2.8009263128985267,-6.848076326033482,56.59400001194087
1589541920.393725,1.5392749831682215,-4.195631239780706,9.018737520438588,0.2577777777777778,0.5133333333333333,-0.6733333333333333,-5.326484803308647,2.8339845628546696,44.94941449456574
1589541920.403725,1.7651870731941908,-4.332792151582187,8.744415696835626,0.2577777777777778,0.5133333333333333,-0.6733333333333333,0.4221710589593153,0.31264427238626524,39.15033182648841
1589541920.413725,1.681503495717465,-4.223944877818492,8.652206910505138,0.2577777777777778,0.5133333333333333,-0.6733333333333333,2.601809961108738,-0.1875,33.795518793696466
1589541920.423725,1.693455561168395,-4.361234659614299,8.71074079576858,0.2733333333333333,0.5011111111111111,-0.6733333333333333,-3.2847201586782755,0.06403403857011261,26.069440317356552
1589541920.4337249,1.275932457730366,-4.392393100169376,8.729435860101626,0.2733333333333333,0.5011111111111111,-0.6733333333333333,-2.583655246189047,-3.051810016937569,24.667310492378093
1589541920.4437249,1.0120707341345785,-4.186565873076629,8.614318303605604,0.2733333333333333,0.5011111111111111,-0.6733333333333333,-6.071413534410166,-5.510731646635535,22.12942088341116
1589541920.4537249,1.1725764608119338,-4.248770343946979,8.56,0.2733333333333333,0.5011111111111111,-0.6733333333333333,-2.961003212468838,-2.4472590141672916,15.938841484424087
1589541920.4637249,1.318989736365466,-4.266341316160193,8.759303682833568,0.2733333333333333,0.5011111111111111,-0.6733333333333333,-1.3874144697122157,-3.907891426846448,18.817958844837996
1589541920.4737248,1.4052407895582846,-4.286244883087936,8.783755116912063,0.2838040773365148,0.4986947855719154,-0.6749442170261305,2.515049347392786,-3.906377922801603,10.379544943097795
1589541920.4837248,1.1396156297630595,-4.138675349868366,8.72160260496051,0.2877777777777778,0.4977777777777778,-0.6755555555555556,-0.978895316613551,-2.8567046556741027,17.351085977552998
1589541920.4937248,1.0456748295533602,-4.06756643940448,8.604590928064562,0.2877777777777778,0.4977777777777778,-0.6755555555555556,4.197857242242939,3.59650236538194,16.79549881730903
1589541920.5037248,1.184134382082389,-4.078016797760299,8.661075589921344,0.2877777777777778,0.4977777777777778,-0.6755555555555556,-6.530140981202507,-1.5811941741101183,19.21543960805226
1589541920.5137248,1.0423102310231023,-4.150960396039604,8.764613861386138,0.2877777777777778,0.4977777777777778,-0.6755555555555556,-0.9267945544554452,-4.283622112211221,17.197153465346535
1589541920.5237248,1.1768850984648782,-3.9341532020468293,8.740865250426422,0.3150748608742096,0.48358329456763316,-0.6875662721179856,-2.8704430919522403,2.312038688168708,19.879095596216466
1589541920.5337248,0.9029022225102055,-3.93,8.704245448065832,0.31555555555555553,0.4833333333333333,-0.6877777777777778,-1.5967043024687357,-4.825143361627681,21.669361109311218
1589541920.5437248,0.9302944267633779,-4.039626230478869,8.634224261712678,0.31555555555555553,0.4833333333333333,-0.6877777777777778,3.872520538820221,-2.3301966915846344,21.943516394049293
1589541920.5537248,1.0093906295969404,-4.092212047661077,8.609390629596941,0.31555555555555553,0.4833333333333333,-0.6877777777777778,5.547111742424242,-0.24478247278611354,21.895033465725213
1589541920.5637248,1.1102746327893833,-4.104911143003951,8.705638122574815,0.31555555555555553,0.4833333333333333,-0.6877777777777778,2.3920637768209927,-0.4920234678148089,18.417508283279293
1589541920.5737247,1.0610939581537497,-4.070240576757307,8.80658647441423,0.30996595529782583,0.48180889689940704,-0.6821881775200481,-1.8252243162761541,-3.4318969908314396,21.59396305148499
1589541920.5837247,1.0566736723295775,-4.043871990970479,8.784396637281803,0.3033333333333333,0.48,-0.6755555555555556,-5.267379152314788,-1.1438216377683075,26.896510790666902
1589541920.5937247,0.963863012654368,-4.1655408598871775,8.673134624180516,0.3033333333333333,0.48,-0.6755555555555556,-4.645282245769172,5.681430096051227,20.243375038115566
1589541920.6037247,0.9195839025594601,-4.19130968644556,8.66696452966834,0.3033333333333333,0.48,-0.6755555555555556,-1.8652796066167392,-1.481881120895399,26.762022673031026
1589541920.6137247,0.9399035432431555,-4.139421259458933,8.730482283784223,0.3033333333333333,0.48,-0.6755555555555556,-2.593848445974473,-4.314511545581501,25.742568851287714
1589541920.6237247,0.9087559351706942,-4.065837290113796,8.737511870341388,0.3119883227082357,0.48,-0.6692610178283538,-8.866334319212712,-1.666567747155097,20.37709720416987
1589541920.6337247,0.7859414909023883,-4.174058509097612,8.817764436369382,0.31555555555555553,0.48,-0.6666666666666666,-4.778507386049451,-1.405148181794244,24.07830068199173
1589541920.6437247,0.6941971859950986,-4.152143407996435,8.738304741992424,0.31555555555555553,0.48,-0.6666666666666666,-0.9453426248050589,0.9307777501670924,29.04961568782026
1589541920.6537247,0.8665878531500226,-4.238773983985497,8.718906934582263,0.31555555555555553,0.48,-0.6666666666666666,2.122507176310621,5.057514352621242,28.575148247469407
1589541920.6637247,0.9248916376666781,-4.202229094166695,8.681486062777797,0.31555555555555553,0.48,-0.6666666666666666,-3.419892197567447,3.188660717362092,29.64841354270751
1589541920.6737247,0.8028914352626296,-4.1474698895951825,8.744578454332553,0.3064256904947771,0.48,-0.673306568529051,0.6069389846102364,2.556477919036467,29.943522080963533
1589541920.6837246,0.77,-4.2031040094688565,8.734482277598124,0.3033333333333333,0.48,-0.6755555555555556,-2.0625581235601214,0.7866138799061568,31.239243178407627
1589541920.6937246,0.7165245901639344,-4.128327868852459,8.635967213114753,0.3033333333333333,0.48,-0.6755555555555556,-3.7170081967213116,2.3543032786885245,22.16782786885246
1589541920.7037246,0.6512606112849727,-4.1121848471787565,8.634369694357513,0.3033333333333333,0.48,-0.6755555555555556,-8.142584749732961,0.5493752693814065,27.869203614864233
1589541920.7137246,0.6340118586922221,-4.0884733179425,8.64299407065389,0.3033333333333333,0.48,-0.6755555555555556,-7.91301238186982,-1.0625,34.99194057366839
1589541920.7237246,0.6556889974057684,-4.060177018159622,8.648321761025485,0.307045585567255,0.48,-0.6769925564202994,-2.3491625972836867,-2.1469865901113994,37.5651466885396
1589541920.7337246,0.6690274541829798,-4.203031009055317,8.773257752263829,0.3377777777777778,0.48,-0.6888888888888889,-3.0746568227127518,-5.470128864122211,36.448538419042585
1589541920.7437246,0.7558358725050498,-4.179802458146462,8.74,0.3377777777777778,0.48,-0.6888888888888889,-6.066775223390051,-5.66347059125612,35.62604419870588
1589541920.7537246,0.6789861751152073,-4.275394265232975,8.729887352790579,0.3377777777777778,0.48,-0.6888888888888889,-5.818052355350742,-6.2435835893497185,32.86021505376344
1589541920.7637246,0.6756755079882115,-4.248313634248487,8.709718939041414,0.3377777777777778,0.48,-0.6888888888888889,-3.2626357220412596,-2.551960214053048,33.98283310066698
1589541920.7737246,0.7546762589928058,-4.2195899280575535,8.702798561151079,0.3377777777777778,0.4738377298161471,-0.6770383693045563,-4.793929856115108,-4.3455485611510785,40.518120503597125
1589541920.7837245,0.5998671570903118,-4.269767524908046,8.76013284290969,0.3377777777777778,0.4655555555555556,-0.6611111111111111,-1.6364273470699562,-5.022220833482127,38.4221400385673
1589541920.7937245,0.47347759916294113,-4.1201331684581,8.633610767621041,0.3377777777777778,0.4655555555555556,-0.6611111111111111,1.2342992009892515,-4.142781556168553,39.46973390088462
1589541920.8037245,0.5567899643750474,-4.284272720382021,8.669746077465323,0.3377777777777778,0.4655555555555556,-0.6611111111111111,-1.1929858637156068,-1.8927508906238155,41.82823277495642
1589541920.8137245,0.4720875547712988,-4.29204948747943,8.696015226916748,0.3377777777777778,0.4655555555555556,-0.6611111111111111,-3.8860248924400738,-4.160215962487856,41.625
1589541920.8237245,0.38,-4.24,8.771961945031713,0.35035377026074704,0.4616255579046277,-0.6799750998355649,-2.165776955602537,-3.732901691331924,40.29862579281184
1589541920.8337245,0.45487038299508803,-4.2054444386176515,8.769685178387261,0.3555555555555556,0.46,-0.6877777777777778,0.19537054031849244,-4.938194845036446,47.309029052388695
1589541920.8437245,0.4467334525939177,-4.266272564644658,8.728496991380712,0.3555555555555556,0.46,-0.6877777777777778,-0.428482273540413,-0.8641018864856074,44.82289396649862
1589541920.8537245,0.30308197951005744,-4.295793639827079,8.67439151976944,0.3555555555555556,0.46,-0.6877777777777778,-1.2237102489192444,2.5823409956769776,46.21511478710595
1589541920.8637245,0.28904687538127427,-4.240476562309363,8.703967448329713,0.3555555555555556,0.46,-0.6877777777777778,0.6597005319538323,1.2609212195895658,49.628002915985455
1589541920.8737245,0.3235829946858393,-4.227611336876107,8.75679149734292,0.3614260011809246,0.4570647771873155,-0.6760368865270397,1.5018977284568094,1.60817312701886,48.18047827446077
1589541920.8837245,0.25955830789798956,-4.238584365461746,8.698142673359737,0.3688888888888889,0.4533333333333333,-0.6611111111111111,0.2649348560906087,0.6543730923492168,52.19295178215574
1589541920.8937244,0.18817599799146373,-4.181807996485062,8.586351995982929,0.3688888888888889,0.4533333333333333,-0.6611111111111111,-1.7903001820236004,-3.0625,53.19779963281446
1589541920.9037244,0.20965475197330424,-4.277776423025092,8.589654751973304,0.3688888888888889,0.4533333333333333,-0.6611111111111111,-3.878108355258936,-3.282804177629468,54.308621574793044
1589541920.9137244,0.2454543585526316,-4.398787349232457,8.669091282894737,0.3688888888888889,0.4533333333333333,-0.6611111111111111,-3.892038445723684,-5.2443397923519735,59.27082476699562
1589541920.9237244,0.13870591416541123,-4.22786031598872,8.744676478541352,0.37910456986132035,0.44311765236090184,-0.6632393779803677,-1.0382358906014602,-9.73382392706764,52.11158351682312
1589541920.9337244,0.03224934139160081,-4.198753293041996,8.731625987912599,0.3955555555555556,0.4266666666666667,-0.6666666666666666,0.2796422206725554,-8.160908685882536,48.83010324655199
1589541920.9437244,0.03145901387762261,-4.277188520816434,8.623950847346151,0.3955555555555556,0.4266666666666667,-0.6666666666666666,-5.540009153092321,-8.556044877556836,60.82382078574091
1589541920.9537244,0.1300384779820436,-4.283997434801197,8.626041043180846,0.3955555555555556,0.4266666666666667,-0.6666666666666666,-1.559213339033775,-2.4595981188542115,61.71152201795639
1589541920.9637244,0.07903712842204207,-4.306419731328085,8.716419731328084,0.3955555555555556,0.4266666666666667,-0.6666666666666666,-1.5893476089766185,-1.4381144009712923,57.578551531351586
1589541920.9737244,-0.07124003825310807,-4.278759961746892,8.69445329933057,0.39998370700952784,0.41844295682357524,-0.6755229695746112,-0.4229956965253425,-4.847166879183933,57.27825151418553
1589541920.9837244,-0.17860481086900032,-4.16611789598723,8.728604810869,0.4033333333333333,0.4122222222222222,-0.6822222222222222,-0.8780299936894469,-5.0625,62.8034529399755
1589541920.9937243,-0.21810702318946357,-4.165678930431609,8.76263377898683,0.4033333333333333,0.4122222222222222,-0.6822222222222222,-0.945735742958564,-4.241513369604883,68.39325879972132
1589541921.0037243,-0.22646218585622443,-4.22,8.733384453535944,0.4033333333333333,0.4122222222222222,-0.6822222222222222,1.9836396843950905,-6.2500657510227935,66.13451928696668
1589541921.0137243,-0.23475108452615284,-4.3249783094769425,8.73,0.4033333333333333,0.4122222222222222,-0.6822222222222222,0.900162678922927,-4.180399220287805,68.09449232709692
1589541921.0237243,-0.25937638384316086,-4.464064575764741,8.774064575764742,0.4151654879368286,0.405694136923742,-0.676510147586052,2.207126389217309,0.039114394118532125,66.63843402695673
1589541921.0337243,0.4772769034453424,-4.196009641287396,8.42089862469871,0.4355555555555555,0.3944444444444444,-0.6666666666666666,5.066898837374167,-0.5892333049766059,45.54764107471998
1589541921.0437243,0.30757312586695607,-4.281546951329835,8.276342802002292,0.4355555555555555,0.3944444444444444,-0.6666666666666666,4.22674672818286,3.019875912188649,9.369247934382727
1589541921.0537243,-0.8153780208303113,-4.5241550378601065,8.727830369317358,0.4355555555555555,0.3944444444444444,-0.6666666666666666,1.0908515622733472,1.9010487684586153,-3.4781406843830687
1589541921.0637243,-0.7175937174592155,-4.13473012842763,8.7146294689344,0.4355555555555555,0.3944444444444444,-0.6666666666666666,-3.8703683616799722,-7.966032844498438,-7.11870878167303
1589541921.0737243,-0.23280684389140274,-4.3997758766968325,8.75679828902715,0.438676627702363,0.37571801156359974,-0.6666666666666666,-1.149612910067873,-3.0982527927036196,5.5382869944852935
1589541921.0837243,-0.34,-4.37,8.73,0.44,0.36777777777777776,-0.6666666666666666,0.5625,-6.1875,4.8125
1589541921.0937243,-0.1951837284839914,-4.32104271162472,8.773773559891287,0.44,0.36777777777777776,-0.6666666666666666,2.445567812714055,0.11463558123605189,1.7258559449366948
1589541921.1037242,-0.28254827235772356,-4.388935467479675,8.61212906504065,0.44,0.36777777777777776,-0.6666666666666666,-2.6798462906504064,3.1100736788617884,-1.6846735264227641
1589541921.1137242,-0.22,-4.352267795524884,8.663894916580698,0.44,0.36777777777777776,-0.6666666666666666,-3.7311439472092776,-3.210360268222404,0.36046609868023194
1589541921.1237242,-0.22123399254336198,-4.310977873237153,8.742467985086725,0.44095977197817043,0.36777777777777776,-0.6677635489274328,2.8635769573674827,-7.324796867401524,-0.3523717377208624
1589541921.1337242,-0.23793623505509104,-4.416350707196999,8.736191294834727,0.4477777777777778,0.36777777777777776,-0.6755555555555556,1.9017396655466126,3.737101469094319,-4.038695592717043
1589541921.1437242,-0.25,-4.342253526056067,8.680633815140167,0.4477777777777778,0.36777777777777776,-0.6755555555555556,0.5484176495292759,2.4084515976621286,-1.294895968221748
1589541921.1537242,-0.23989997933457327,-4.340100020665426,8.660100020665427,0.4477777777777778,0.36777777777777776,-0.6755555555555556,-2.792495866914652,-4.45219699318041,1.9931235792519115
1589541921.1637242,-0.23791778530874522,-4.373753355926236,8.693753355926235,0.4477777777777778,0.36777777777777776,-0.6755555555555556,-2.099140112671097,-7.4906721755204435,1.9558200563355486
1589541921.1737242,-0.24659515977443608,-4.389570958646616,8.73,0.4542091426482874,0.3700476712614871,-0.6634494569757727,-1.2960673167293235,-2.506188322368421,1.320200892857143
1589541921.1837242,-0.23636958342055683,-4.357260833158886,8.722739166841114,0.4666666666666667,0.3744444444444445,-0.64,2.519572953736655,-0.829466061335566,0.09346870420766162
1589541921.1937242,-0.23885763172462382,-4.365571184137688,8.670140657239193,0.4666666666666667,0.3744444444444445,-0.64,1.1411447586935737,-2.709584633385335,1.8320542499119319
1589541921.2037241,-0.24322996974307254,-4.3667700302569274,8.640310090770782,0.4666666666666667,0.3744444444444445,-0.64,0.9507416793449461,1.6719954614608796,-2.578166934477512
1589541921.2137241,-0.2279610552763819,-4.377961055276382,8.686116834170853,0.4666666666666667,0.3744444444444445,-0.64,-2.85316425879397,-1.0325023555276382,-6.31335976758794
1589541921.2237241,-0.21853352937416096,-4.368533529374161,8.74,0.453392287640194,0.3744444444444445,-0.6490076143393921,-1.7524411877517099,-5.214950377165506,0.9241433868183853
1589541921.233724,-0.23,-4.366290119931468,8.730860079954311,0.4355555555555555,0.3744444444444445,-0.6611111111111111,2.3729940034266135,-0.6558894917190179,-1.6371145059965735
1589541921.243724,-0.23398615731939162,-4.357972314638783,8.696083056083651,0.4355555555555555,0.3744444444444445,-0.6611111111111111,-0.4996955204372626,-0.2321359612642584,1.9451101324857412
1589541921.253724,-0.24,-4.35626535004431,8.678312866607587,0.4355555555555555,0.3744444444444445,-0.6611111111111111,-5.375767502215471,-0.5595302147951218,1.8314871080727526
1589541921.263724,-0.23665203593801518,-4.3533918562479395,8.716739820309924,0.4355555555555555,0.3744444444444445,-0.6611111111111111,-1.8841287504121333,-0.5310748433893835,-6.433933759891197
1589541921.273724,-0.23341015776656196,-4.369769526700314,8.739769526700314,0.4446493095997207,0.3721710059334032,-0.6683103330627419,2.6702145025235593,-1.7773422334380404,-7.220923922634384
1589541921.283724,-0.24,-4.361243055220059,8.697513889559882,0.4622222222222222,0.36777777777777776,-0.6822222222222222,0.7658854292477897,3.313425970658808,-4.965205646005443
1589541921.293724,-0.2412154997661001,-4.377569000467799,8.6539225011695,0.4622222222222222,0.36777777777777776,-0.6822222222222222,0.21443747076251363,0.7365312646187432,5.878781381568689
1589541921.303724,-0.2426593672585617,-4.36367031637072,8.635692214595034,0.4622222222222222,0.36777777777777776,-0.6822222222222222,2.551231775117717,1.1509580473137802,2.176231775117717
1589541921.313724,-0.23215202093336382,-4.37,8.688608083733456,0.4622222222222222,0.36777777777777776,-0.6822222222222222,3.5307887483169473,1.279185084978279,2.698484299977136
1589541921.323724,-0.24242559262510974,-4.37,8.72727677787533,0.45871858843039703,0.36427414398595254,-0.6822222222222222,-1.4454976953467955,-3.827381474978051,-0.44354834284460054
1589541921.333724,-0.2445061523112737,-4.367253076155637,8.739012304622548,0.4477777777777778,0.3533333333333333,-0.6822222222222222,-2.713730462254739,-3.239586797472564,6.7000332557366145
1589541921.343724,-0.2345783577495999,-4.3645783577496005,8.682529853502402,0.4477777777777778,0.3533333333333333,-0.6822222222222222,0.47364735934999386,-3.1694032377200543,-1.068563030899914
1589541921.353724,-0.24,-4.36613878383758,8.66158364848726,0.4477777777777778,0.3533333333333333,-0.6822222222222222,-1.4559644954219744,2.8290751268909236,-5.378113181727707
1589541921.363724,-0.24,-4.3670079331263825,8.697519832815955,0.4477777777777778,0.3533333333333333,-0.6822222222222222,-2.916320480045448,2.7413466025523974,-2.278522987806115
1589541921.373724,-0.24,-4.376809796233207,8.733190203766794,0.4438786398405862,0.3554601358445287,-0.6800954197110268,0.5042143408112104,-4.119234910329755,0.1138675515844958
1589541921.383724,-0.23571867651305747,-4.365718676513057,8.74,0.4355555555555555,0.36,-0.6755555555555556,2.6037674305870704,-0.9359632204298858,-2.118321712941953
1589541921.393724,-0.23353072625698323,-4.370592178770949,8.701162011173185,0.4355555555555555,0.36,-0.6755555555555556,4.285754189944134,-1.6576117318435755,1.2979748603351955
1589541921.403724,-0.24,-4.39,8.651509510593652,0.4355555555555555,0.36,-0.6755555555555556,0.34316404927909017,1.180426284437826,2.053065558789684
1589541921.413724,-0.24,-4.3819125334184585,8.695391644387694,0.4355555555555555,0.36,-0.6755555555555556,0.6374022385379674,1.4222422289613343,-1.1697533019432584
1589541921.423724,-0.24,-4.36,8.719356140350877,0.4413771539961013,0.36145539961013645,-0.6738922417153996,-2.416372807017544,1.523642543859649,-7.741322368421053
1589541921.433724,-0.24,-4.36,8.730057637544139,0.4666666666666667,0.36777777777777776,-0.6666666666666666,0.9049763640505752,4.821505866271784,1.2720512017314043
1589541921.443724,-0.24,-4.37150280322713,8.659325858060987,0.4666666666666667,0.36777777777777776,-0.6666666666666666,2.497803568986736,0.9589173389853682,4.5625
1589541921.453724,-0.24780454990215264,-4.39,8.628210616438356,0.4666666666666667,0.36777777777777776,-0.6666666666666666,5.389363686399218,2.6662487769080236,3.42433647260274
1589541921.463724,-0.26979032708974005,-4.39,8.679510763209393,0.4666666666666667,0.36777777777777776,-0.6666666666666666,-3.7255731059547106,-3.3798399496785017,0.21807729941291587
1589541921.473724,-0.2418087823617156,-4.36,8.74,0.46445593266901425,0.36637094705199896,-0.6704852072080663,-6.378390700668179,-0.535693669670406,2.1367914648848565
1589541921.4837239,-0.24942363828333644,-4.360576361716664,8.740576361716665,0.4544444444444444,0.36,-0.6877777777777778,-7.939126451773181,5.690023135208993,-2.96415983479287
1589541921.4937239,-0.24558676173041719,-4.375586761730418,8.716479429617497,0.4544444444444444,0.36,-0.6877777777777778,-0.9870863040755371,4.4905969987474705,1.0366726081510742
1589541921.5037239,-0.2537326035965598,-4.38373260359656,8.655069585613761,0.4544444444444444,0.36,-0.6877777777777778,-1.4375,4.682281078967944,2.838438232994527
1589541921.5137239,-0.24278061042572915,-4.364438779148542,8.71,0.4544444444444444,0.36,-0.6877777777777778,0.4394120373671824,0.3191965877486985,3.0051032232760466
1589541921.5237238,-0.2482115360862942,-4.350596154637902,8.711788463913706,0.45331837457285185,0.36,-0.6874465807567212,5.088942010786776,-0.11874974268187244,-1.5086536086294207
1589541921.5337238,-0.23333038684314591,-4.364443462281049,8.713339226313709,0.4355555555555555,0.36,-0.6822222222222222,0.673807543790272,0.882398695015004,0.979240328921352
