time,acc_x,acc_y,acc_z,mag_x,mag_y,mag_z,gyr_x,gyr_y,gyr_z
1589542066.9775426,-0.08,-4.4,8.67,0.4444444444444444,0.2433333333333333,-0.6533333333333333,-0.5625,-2.6875,-8.25
1589542066.9875426,-0.0746373121351385,-4.388212437378379,8.70178756262162,0.4444444444444444,0.2433333333333333,-0.6533333333333333,-2.5605592472984724,1.651878131081025,-2.093911729391794
1589542066.9975426,-0.053041010814862406,-4.379391797837028,8.711216404325945,0.4435659302090397,0.242995443242793,-0.6530630212609011,5.811616607773852,2.047294945925688,-2.842910108148624
1589542067.0075426,-0.10119950334021197,-4.373598510020636,8.720403973278305,0.43,0.23777777777777775,-0.6488888888888888,1.6226303731943619,2.4797237329929,-4.219624401035291
1589542067.0175426,-0.10853450386485258,-4.395603511594558,8.66172396908118,0.43,0.23777777777777775,-0.6488888888888888,-0.30280726452380113,6.559817774824245,-9.76671854779476
1589542067.0275426,-0.09,-4.372899747365826,8.59869924209748,0.43,0.23777777777777775,-0.6488888888888888,-4.752537895126009,3.743734210364163,4.991870263109249
1589542067.0375426,-0.09022910201706749,-4.39,8.650381836695113,0.43,0.23777777777777775,-0.6488888888888888,-2.166498981768813,4.704153837761831,5.227541335337471
1589542067.0475426,-0.12,-4.389437780066242,8.701686659801274,0.43,0.2382775288300073,-0.6486390133627741,0.6714301121656601,-9.218632580923488,-5.73870863369423
1589542067.0575426,-0.11831210650261931,-4.371687893497381,8.76,0.43,0.25555555555555554,-0.64,4.6484866871725865,-1.9030704810880952,-3.0820066564137067
1589542067.0675426,-0.10651367882034991,-4.38,8.7460547152814,0.43,0.25555555555555554,-0.64,4.946656749324356,5.528049582760419,-2.104920345170926
1589542067.0775425,-0.08870694512605194,-4.378706945126052,8.682586109747895,0.43,0.25555555555555554,-0.64,1.6961109747896104,-3.618541768907792,-0.3254164621844157
1589542067.0875425,-0.08108330152498319,-4.371083301524983,8.697833396950033,0.43,0.25555555555555554,-0.64,3.2208396950033626,-2.474995228747478,-2.6125095425050437
1589542067.0975425,-0.08,-4.37,8.709632455295,0.43,0.25555555555555554,-0.64,0.5477634115001604,-2.3125,4.286841471249598
1589542067.1075425,-0.08855570839064648,-4.368555708390646,8.72566712517194,0.43666666666666665,0.23777777777777775,-0.6266666666666667,-0.2873968363136177,-0.5263927097661623,-8.520374828060522
1589542067.1175425,-0.08031381410886225,-4.360313814108863,8.700941442326586,0.43666666666666665,0.23777777777777775,-0.6266666666666667,-5.8506754765179805,-0.3203453527215563,4.203049469443899
1589542067.1275425,-0.03880715511860175,-4.38,8.64,0.43666666666666665,0.23777777777777775,-0.6266666666666667,-4.52348382880774,-6.950049011001873,-3.1703534644194757
1589542067.1375425,-0.03062539013732834,-4.38,8.64,0.43666666666666665,0.23777777777777775,-0.6266666666666667,-3.3984911438826466,-4.035295236423221,-5.624882958801498
1589542067.1475425,-0.03882271215779165,-4.388822712157792,8.684113560788958,0.43666666666666665,0.23777777777777775,-0.6266666666666667,0.657720471006241,4.348508745957272,1.9073731380676904
1589542067.1575425,-0.08803987386837554,-4.371960126131625,8.72,0.4222222222222222,0.23777777777777775,-0.6488888888888888,-4.797966890448581,-2.594268131421015,2.665490540128166
1589542067.1675425,-0.07381853321127048,-4.386181466788729,8.72,0.4222222222222222,0.23777777777777775,-0.6488888888888888,-1.0648649679584983,-4.63858585087987,1.5988899908452854
1589542067.1775424,-0.04905205330008572,-4.389052053300086,8.658104106600172,0.4222222222222222,0.23777777777777775,-0.6488888888888888,-8.162293988155536,4.335511961349646,-3.541129315047144
1589542067.1875424,-0.040881126782513835,-4.380881126782514,8.641762253565028,0.4222222222222222,0.23777777777777775,-0.6488888888888888,-5.251401416270553,-5.163190115327671,0.9528802696173928
1589542067.1975424,-0.04,-4.38,8.715279969600108,0.4222222222222222,0.23777777777777775,-0.6488888888888888,-6.401277186668753,2.5951631200125185,-5.619997150010059
1589542067.2075424,-0.02486791215994756,-4.364867912159948,8.73,0.4222222222222222,0.24702516479114314,-0.6488888888888888,-2.3370247459849223,1.475233529990167,-8.229482137004261
1589542067.2175424,-0.03408890030832477,-4.319523638232272,8.72169116135663,0.4222222222222222,0.25,-0.6488888888888888,-5.329123843782117,-2.0368448098663925,-8.188839285714286
1589542067.2275424,-0.3754785044452563,-4.0248968456947996,8.539915479235173,0.4222222222222222,0.25,-0.6488888888888888,-2.6262894288150043,-4.350376019973207,-16.292800815978566
1589542067.2375424,-0.08031413824511689,-3.87955206962858,8.857085517660154,0.4222222222222222,0.25,-0.6488888888888888,-4.47000430118409,-1.9660775731201294,-15.427937455723105
1589542067.2475424,-0.0039074992409675186,-3.7182491650642646,8.755209998987956,0.4222222222222222,0.25,-0.6488888888888888,-6.698531272138448,-5.149687531626354,-26.19915114866916
1589542067.2575424,-0.30020535138086807,-3.5272142703489817,8.683342875581221,0.4122222222222222,0.25,-0.6411111111111111,-1.864742772988268,-3.617309665249119,-23.060848377542072
1589542067.2675424,-0.19609915112604043,-3.249597736336108,9.01648271639667,0.4122222222222222,0.25,-0.6411111111111111,7.7217031671437795,7.270463778068274,-26.010524051428856
1589542067.2775424,-0.5673417721518987,-2.275579357351509,8.406105160662122,0.4122222222222222,0.25,-0.6411111111111111,-1.0929284323271664,0.6046129503407984,-13.314873417721518
1589542067.2875423,-0.30957632315180317,-2.5992015099835206,8.342618135132028,0.4122222222222222,0.25,-0.6411111111111111,-1.8452266891503468,6.038192714521136,-4.318746886138045
1589542067.2975423,-0.15686927528455907,-2.8805039665810757,8.52747403518185,0.4122222222222222,0.25,-0.6411111111111111,-4.155925439773119,2.019586191698923,2.9147448549419384
1589542067.3075423,-0.2436308229224622,-2.9911858277274797,8.647408325324971,0.4277614800577726,0.25,-0.6284854641197265,-2.5958126801881543,-4.259780739466897,11.344056635981993
1589542067.3175423,-0.2670092536407767,-3.070092536407767,8.779157311893204,0.43,0.25,-0.6266666666666667,-0.998264942354369,-2.2587985436893208,15.57297197360437
1589542067.3275423,-0.20453275202801702,-3.1093524639959975,8.661655648072044,0.43,0.25,-0.6266666666666667,-0.6713115998999393,-4.452768198549119,14.599384001000608
1589542067.3375423,-0.25277015598571695,-3.1981532293428554,8.760461692664286,0.43,0.25,-0.6266666666666667,-3.420186525089269,-1.783644208482115,31.709539247008706
1589542067.3475423,-0.30532042849088514,-3.16311971433941,8.769220071415146,0.43,0.25,-0.6266666666666667,-3.0917473219319676,-1.2362455365532794,27.38508973877091
1589542067.3575423,-0.36283290204057445,-3.250570689212413,8.83792801690931,0.43,0.25922479241978286,-0.636730076579157,-2.8738110641408054,-6.046240098374256,27.566066807577585
1589542067.3675423,-0.31594992408044376,-3.28,8.832549967463047,0.43,0.26222222222222225,-0.64,-5.671878389265904,-3.221557280530507,34.383757863096896
1589542067.3775423,-0.15069230953120893,-3.1862895938418876,8.698805431378641,0.43,0.26222222222222225,-0.64,-2.189083753675504,4.567194484951352,40.27121034639382
1589542067.3875422,-0.1102512360004036,-3.2593300373322567,8.670167490666936,0.43,0.26222222222222225,-0.64,-3.0530786499848652,-2.870503733225709,33.74559832509333
1589542067.3975422,-0.11,-3.275653237031185,8.677826618515592,0.43,0.26222222222222225,-0.64,2.807463886694504,-2.8396672685550914,32.80700541699582
1589542067.4075422,-0.2100058804903424,-3.2100352829420546,8.690088207355135,0.43666666666666665,0.25555555555555554,-0.6488888888888888,-0.5594127425702267,-3.4392641471027274,42.43569909983263
1589542067.4175422,-0.21949224227620212,-3.2669534536572127,8.832383634143032,0.43666666666666665,0.25555555555555554,-0.6488888888888888,4.420927195006106,-6.285172682860632,39.5305008029131
1589542067.4275422,-0.26559529552293665,-3.2882381182091747,8.63026164059449,0.43666666666666665,0.25555555555555554,-0.6488888888888888,4.573511761192658,-3.7017822686238024,45.47337077619277
1589542067.4375422,-0.3176092116770083,-3.2741302627743307,8.633804605838504,0.43666666666666665,0.25555555555555554,-0.6488888888888888,2.9755262774330573,-2.148083850414359,51.368943384833216
1589542067.4475422,-0.3494926731287186,-3.3089853462574372,8.708224355950515,0.43666666666666665,0.25555555555555554,-0.6488888888888888,2.3797561894182633,-0.8378663435640702,48.881922676019904
1589542067.4575422,-0.3833522129622138,-3.356676106481107,8.79001415972166,0.44074650951623195,0.25555555555555554,-0.6433254668212998,2.354402662027672,-0.06285399304150818,46.14772129622138
1589542067.4675422,-0.43640985238016256,-3.296052413335545,8.836409852380163,0.4488888888888889,0.25555555555555554,-0.6322222222222222,-2.066273428429258,0.7579926190081274,54.75471678553657
1589542067.4775422,-0.5133883213419724,-3.092715745120642,8.730342648169495,0.4488888888888889,0.25555555555555554,-0.6322222222222222,-4.310437949676034,-5.06971717613388,60.72985401677465
1589542067.4875422,-0.5526619418851878,-3.1463132530120483,8.684334514528702,0.4488888888888889,0.25555555555555554,-0.6322222222222222,-4.183229978738483,-5.6565822111977315,67.16953401842665
1589542067.4975421,-0.5530520625220355,-3.287791749911858,8.815583499823717,0.4488888888888889,0.25555555555555554,-0.6322222222222222,-2.3733914090962513,-1.5422273475143964,71.09010312610178
1589542067.5075421,-0.5782545589877186,-3.3718787991564323,8.747854484555265,0.4488888888888889,0.25201346676039643,-0.6428484886076996,1.6237129388413347,-2.739470909316462,74.34265289666294
1589542067.5175421,-0.5147095626766602,-3.5683345507669832,8.743044113443643,0.4488888888888889,0.25,-0.6488888888888888,1.192922872931686,-4.6875,80.87548234191888
1589542067.527542,-0.5365820610687023,-3.639963740458015,8.696799618320611,0.4488888888888889,0.25,-0.6488888888888888,-1.2256917938931298,-6.226371660305343,82.2913645038168
1589542067.537542,-0.5502768042058308,-3.6694463915883384,8.591937629440816,0.4488888888888889,0.25,-0.6488888888888888,-0.3644007885932772,-1.8345522343476182,86.68966813366258
1589542067.547542,-0.6098632149919272,-3.6625170981260093,8.769589644975781,0.4488888888888889,0.25,-0.6488888888888888,6.001198456179815,-7.159371995355841,84.14671620739074
1589542067.557542,-0.7299346172519825,-3.5782353131574687,8.811830069590549,0.4862381902860945,0.20861293628958305,-0.6610021758285232,2.844363974753197,-6.444853536170902,81.54656902411394
1589542067.567542,-0.8317108788853161,-3.556898445873526,8.777246114683816,0.49,0.20444444444444448,-0.6622222222222223,0.5110363076098605,-6.596923566452304,87.14787228697749
1589542067.577542,-0.9434124243436931,-3.55,8.736220340871116,0.49,0.20444444444444448,-0.6622222222222223,-5.639300434443578,-5.227189391407672,98.9067083472578
1589542067.587542,-0.9862216933506418,-3.7073301601038513,8.668816048848502,0.49,0.20444444444444448,-0.6622222222222223,-8.638855834415116,-4.8125,96.21630396894082
1589542067.597542,-0.9352424287632404,-3.6361298778798403,8.6208874491166,0.49,0.20444444444444448,-0.6622222222222223,-1.1013805119242983,-5.203625508833998,89.19310117005179
1589542067.607542,-0.8827891156462585,-3.637908163265306,8.898384353741497,0.49516817838246413,0.1796371882086168,-0.6746258503401361,3.73703231292517,-2.4053996598639458,99.41475340136054
1589542067.617542,-1.0985660029922892,-3.8221383358269074,8.746968580964438,0.4955555555555556,0.17777777777777778,-0.6755555555555556,-0.6159583956726902,-3.098191679134538,105.6058953849695
1589542067.627542,-1.3264651639344263,-3.862940573770492,8.668825136612023,0.4955555555555556,0.17777777777777778,-0.6755555555555556,-3.4521431010928962,-2.709571379781421,111.2388362363388
1589542067.637542,-1.3814676827547274,-3.946790855207451,8.743855489697996,0.4955555555555556,0.17777777777777778,-0.6755555555555556,-2.6943444820773355,-5.442157070279425,127.42409328252893
1589542067.647542,-1.3333797157841314,-3.9522299526306885,8.791080189477245,0.4955555555555556,0.17777777777777778,-0.6755555555555556,-4.57426302656065,-2.7323554601590256,122.21601542674674
1589542067.657542,-1.3597745122878135,-3.8227215606789966,8.760225487712187,0.4955555555555556,0.14595816794752697,-0.6693684091996734,0.08262287813529312,-5.789951228781353,124.82265961489739
1589542067.667542,-1.4027675526640384,-3.7572324473359613,8.872878322490145,0.4955555555555556,0.13777777777777778,-0.6677777777777778,-6.907986069122307,-2.4093601107698257,123.75853145330979
1589542067.677542,-1.5122153024911031,-3.804514827995255,8.763712930011861,0.4955555555555556,0.13777777777777778,-0.6677777777777778,-5.811310053380783,-5.483522390272835,131.85312129300118
1589542067.687542,-1.6029740791268758,-3.838594815825375,8.71718963165075,0.4955555555555556,0.13777777777777778,-0.6677777777777778,1.7937414733969987,-2.164392905866303,143.66405184174624
1589542067.697542,-1.6772330818133208,-3.9128358386310973,8.792835838631097,0.4955555555555556,0.13777777777777778,-0.6677777777777778,-0.40908517022161517,-3.413533806666271,142.97653511377814
1589542067.707542,-1.7491272670903737,-3.9269636490466593,8.783054565183694,0.508307066949138,0.1250262663841954,-0.6815919151208254,-1.9811366454813206,-6.228067838319641,142.4536360641761
1589542067.717542,-1.8521781035378313,-3.9210890517689156,8.751089051768915,0.5222222222222223,0.1111111111111111,-0.6966666666666667,-8.487613262538236,-9.143562070756623,148.6472701564033
1589542067.727542,-2.0320756101245063,-3.9917430895712402,8.66738536564314,0.5222222222222223,0.1111111111111111,-0.6966666666666667,-5.253084338519302,-7.8599491832639234,151.96889228146645
1589542067.737542,-2.1168142873909472,-3.979321427174211,8.658407143695474,0.5222222222222223,0.1111111111111111,-0.6966666666666667,-1.7416963342592227,-4.959062389969094,153.16187502445132
1589542067.747542,-2.1589059304703477,-3.928490115882754,8.688905930470348,0.5222222222222223,0.1111111111111111,-0.6966666666666667,-0.04362644853442399,-7.415622869802317,156.3752769256987
1589542067.757542,-2.1342536099038045,-3.814676293076812,8.747661853461594,0.5208982818482891,0.06609713839738351,-0.7132159213408312,-3.908440531855727,-10.196829876202443,167.89275727645375
1589542067.767542,-2.2357691874225174,-3.8254615124535105,8.788384612494834,0.52,0.03555555555555556,-0.7244444444444444,-2.4951937525827415,-11.96730718659604,172.2567315639205
1589542067.7775419,-2.313521698605033,-3.863787421602237,8.754318867596645,0.52,0.03555555555555556,-0.7244444444444444,-1.092814459944075,-8.198704758369011,170.02844337983223
1589542067.7875419,-2.4093138861575443,-3.850343056921228,8.735931388615755,0.52,0.03555555555555556,-0.7244444444444444,-0.8357847153938599,-4.84436113842456,164.77174150551733
1589542067.7975419,-2.43660703793171,-3.716159822419534,8.69982111379513,0.52,0.03555555555555556,-0.7244444444444444,-1.0212060129268132,-7.743887510609127,169.99392423451067
1589542067.8075418,-2.3585581767826755,-3.5796279488805096,8.796092962728153,0.5328992180809059,-0.028940534848973562,-0.7313901772572399,-4.18807976575795,-4.74244427575161,170.03052529280257
1589542067.8175418,-2.35,-3.57,8.81,0.5344444444444445,-0.03666666666666667,-0.7322222222222222,-4.5625,-4.1875,169.5625
1589542067.8275418,-2.440265278550425,-3.5248673607247873,8.764867360724788,0.5344444444444445,-0.03666666666666667,-0.7322222222222222,-4.350940753397441,-5.386335730747835,169.49198025113247
1589542067.8375418,-2.5324920622628357,-3.3831627042515295,8.724376984434292,0.5344444444444445,-0.03666666666666667,-0.7322222222222222,-3.484623054286378,-8.948288546426081,171.40555544799815
1589542067.8475418,-2.5407422459246725,-3.244453475548035,8.780175401489629,0.5344444444444445,-0.03666666666666667,-0.7322222222222222,-2.474612296233627,-9.495614962759287,169.20546788838362
1589542067.8575418,-2.547334547427154,-3.1725709082455054,8.840094544327341,0.5322432320727424,-0.0526254563615072,-0.7388258593373286,-1.2255453735275883,-9.560841115158091,168.21809128952262
1589542067.8675418,-2.6721570888589916,-3.1644314177717985,8.8196209451812,0.5255555555555556,-0.10111111111111112,-0.7588888888888888,0.5767145557050419,-7.365743855040895,173.77498558523928
1589542067.8775418,-2.807620119030338,-3.1031731746262157,8.759575410074032,0.5255555555555556,-0.10111111111111112,-0.7588888888888888,1.0678073740746117,-3.9442045289592107,169.53275148787924
1589542067.8875418,-2.9020566723177526,-3.044485831920562,8.782056672317752,0.5255555555555556,-0.10111111111111112,-0.7588888888888888,-3.285677524824412,-10.32363314361831,173.62211491886654
1589542067.8975418,-2.926264039559934,-3.0086798022003296,8.912752712078813,0.5255555555555556,-0.10111111111111112,-0.7588888888888888,-2.025283187028022,-3.270898819335301,170.1852215662974
1589542067.9075418,-2.8729827940149417,-2.880717021861971,8.832705551205265,0.5165806249838334,-0.13753877049045407,-0.772087316200245,-1.6847513809231551,-3.3374161393409665,164.58974677784596
1589542067.9175417,-2.737722577471717,-2.6877225774717166,8.712161829808165,0.5066666666666667,-0.17777777777777778,-0.7866666666666666,-0.5779636005902606,-9.653467781603542,168.3392308165273
1589542067.9275417,-2.69,-2.593340782122905,8.55336312849162,0.5066666666666667,-0.17777777777777778,-0.7866666666666666,-1.464874301675978,-11.222067039106145,162.63358938547486
1589542067.9375417,-2.7713008329250366,-2.5873909848113668,8.89172219500245,0.5066666666666667,-0.17777777777777778,-0.7866666666666666,-4.404795443410093,-8.358831455169035,151.5112230524253
1589542067.9475417,-2.5824817456454103,-2.295710597049673,8.671734639886559,0.5066666666666667,-0.17777777777777778,-0.7866666666666666,0.730276037588097,-10.368827911701835,142.54728406950412
1589542067.9575417,-2.181349600447236,-2.0480440001315396,8.75684599953961,0.4738842667192827,-0.23605759990646047,-0.7930410222119912,-0.44507999276529997,-3.3659525140583373,148.24260498536617
1589542067.9675417,-2.12,-2.03,8.82,0.4666666666666667,-0.2488888888888889,-0.7944444444444444,-1.4375,-1.4375,150.25
1589542067.9775417,-2.6035611607744484,-2.0155653384843446,8.863303984546967,0.4666666666666667,-0.2488888888888889,-0.7944444444444444,-6.895606385607116,-0.7157669242172409,141.76963635955258
1589542067.9875417,-2.84745582580896,-1.9716961161273598,8.95022378709984,0.4666666666666667,-0.2488888888888889,-0.7944444444444444,-4.970112217565991,-5.10578584697801,129.88162612865597
1589542067.9975417,-2.8467039881099825,-1.875083973247461,8.860977953926183,0.4666666666666667,-0.2488888888888889,-0.7944444444444444,-5.4188134753529855,-8.686450334406738,118.44484765915284
1589542068.0075417,-2.7909831729673034,-1.7489607369237083,8.686011218021797,0.4412859683524101,-0.273935630646379,-0.7944444444444444,-9.02457932418259,-12.348132039764696,108.12289662091294
1589542068.0175416,-2.682428340236443,-1.6197259785500728,9.123263022190525,0.38222222222222224,-0.3322222222222222,-0.7944444444444444,-2.2513971939545216,-1.8489161889349095,96.10429067120168
1589542068.0275416,-2.9079174546142212,-1.6355148449319212,9.188970310136158,0.38222222222222224,-0.3322222222222222,-0.7944444444444444,-1.5494840913388805,-0.963097461232981,95.94379077628594
1589542068.0375416,-2.966122852658511,-1.6022457053170218,8.955338737072951,0.38222222222222224,-0.3322222222222222,-0.7944444444444444,-0.7407293435961386,-1.1554538173765347,92.43775934725119
1589542068.0475416,-2.9345603190643073,-1.5391206381286147,8.684802734836921,0.38222222222222224,-0.3322222222222222,-0.7944444444444444,1.0064823375115561,0.7044811979961727,86.40706096407301
1589542068.0575416,-2.991905320735952,-1.501011834908006,8.636399403281949,0.37423274214044977,-0.3626821150339798,-0.7879529918780043,-1.164829686723023,-0.40366111387369474,83.28794380905022
1589542068.0675416,-3.0751026715198133,-1.4997946569603735,8.88181718288579,0.3644444444444445,-0.4,-0.78,-3.22086824393929,-2.20033393997665,75.03927443170112
1589542068.0775416,-2.968967839472237,-1.4408727322704782,8.774125893347993,0.3644444444444445,-0.4,-0.78,0.43155579989004944,-0.8978147333699835,69.16816416987356
1589542068.0875416,-3.1328385241716603,-1.3654131620670196,8.66641926208583,0.3644444444444445,-0.4,-0.78,0.5464807325397039,0.23450642248676545,66.75067012871845
1589542068.0975416,-3.3235600954494076,-1.3070025536902918,8.714005107380583,0.3644444444444445,-0.4,-0.78,-0.41115721940804617,1.4096867543015028,56.71767854900155
1589542068.1075416,-3.336781404620368,-1.290244188943865,8.958734916171288,0.3436095587275597,-0.41344186175282893,-0.78,-2.3600874773075144,0.550290552806749,48.039607286512656
1589542068.1175416,-3.4537756080550954,-1.2831121959724523,9.011951224827826,0.33,-0.4222222222222222,-0.78,-1.246646434486967,-5.436951061372156,48.33012188344521
1589542068.1275415,-3.4653952225841476,-1.2115808903365906,8.866712631197974,0.33,-0.4222222222222222,-0.78,-0.7861518277234889,-5.3495905718422,43.22882283749548
1589542068.1375415,-3.483874637658573,-1.1415313405853567,8.871983605024468,0.33,-0.4222222222222222,-0.78,-3.6120901256116946,-2.5287126359754386,39.2112041423807
1589542068.1475415,-3.5706960597118553,-1.0893039402881444,8.852998828328415,0.33,-0.4222222222222222,-0.78,-2.310831995313314,-2.0581496268009025,38.49289402881444
1589542068.1575415,-3.6712050739957713,-1.05,8.935856236786469,0.2946370683579986,-0.43310312426591496,-0.7881606765327696,2.3325845665961946,0.12566067653276947,33.28739429175476
1589542068.1675415,-3.6974774930150733,-1.006715187471974,8.989147666517196,0.2433333333333333,-0.4488888888888889,-0.8,0.9268458314649375,1.5547907109102825,32.940444879445344
1589542068.1775415,-3.6084010600706713,-0.96,8.772398409893993,0.2433333333333333,-0.4488888888888889,-0.8,0.4448708038869258,-0.13999006183745583,34.5625
1589542068.1875415,-3.596650358203739,-0.9633251791018697,8.843227328324305,0.2433333333333333,-0.4488888888888889,-0.8,0.27674515114450493,1.8904311549886423,32.983039926611916
1589542068.1975415,-3.633431826718417,-0.9676568173281582,8.938201139351445,0.2433333333333333,-0.4488888888888889,-0.8,-4.694304025291098,5.1701984474771505,31.540597220483285
1589542068.2075415,-3.815644670885036,-0.9471776645574821,8.997177664557482,0.22514494937044033,-0.4554743382547639,-0.7761669451520713,-3.9940987344892758,-3.860850316377681,42.32227124250144
1589542068.2175415,-3.8621786519669254,-0.94,8.99,0.17888888888888888,-0.4722222222222222,-0.7155555555555555,1.1900995990979704,-3.547967301428214,34.37615102731145
1589542068.2275414,-3.906493114885918,-0.9316232787214795,8.893667705297014,0.17888888888888888,-0.4722222222222222,-0.7155555555555555,2.7366004121017187,-1.0775266358427982,27.39304201427279
1589542068.2375414,-3.910238485942457,-0.9147117383218467,8.778508915873537,0.17888888888888888,-0.4722222222222222,-0.7155555555555555,0.28491822557707036,-2.874377803303796,25.316103270976917
1589542068.2475414,-3.9266918636314125,-0.9,8.863198344406928,0.17888888888888888,-0.4722222222222222,-0.7155555555555555,-2.178320716697528,-6.24562411502015,23.899365537523146
1589542068.2575414,-3.4426017716094783,-0.8715247353778262,8.820269259057913,0.19723961497873427,-0.4785500588049275,-0.6915097765412753,-1.9481448466630424,-4.227868872117937,15.575689136900003
1589542068.2675414,-3.036631940644766,-0.85,8.77246678777002,0.2111111111111111,-0.4833333333333333,-0.6733333333333333,3.4890268324177622,0.604600741940426,13.313151112910639
1589542068.2775414,-3.0773638587306356,-0.9242955842595374,9.002886752778611,0.2111111111111111,-0.4833333333333333,-0.6733333333333333,5.063418604900656,1.0241465691112732,8.50297172037935
1589542068.2875414,-3.0807967353284105,-0.9223979790128255,8.98159347065682,0.2111111111111111,-0.4833333333333333,-0.6733333333333333,-2.350150602409638,-0.08251554605518852,0.8624417022930431
1589542068.2975414,-3.0539123394445054,-0.8503592600724558,8.783213579975847,0.2111111111111111,-0.4833333333333333,-0.6733333333333333,-5.533804136019322,-2.12912023822593,-1.6203857448677133
1589542068.3075414,-3.1862936381600613,-0.8330921341530354,8.788969288615654,0.2111111111111111,-0.4833333333333333,-0.6733333333333333,-2.907762069107476,-4.935028200131738,-2.843473830826655
1589542068.3175414,-3.363028406031233,-0.847791801292407,8.751987412493268,0.22,-0.4844444444444445,-0.6611111111111111,-0.7833198707592892,-1.2864751615508885,-25.198539310716207
1589542068.3275414,-3.381603739805053,-0.8735444599164511,8.802560572906305,0.22,-0.4844444444444445,-0.6611111111111111,2.4874477819773224,1.4818057489556395,-30.84712054903521
1589542068.3375413,-3.4104788191527664,-0.9062894515780632,8.92483139325573,0.22,-0.4844444444444445,-0.6611111111111111,6.4182542301692065,1.0684852394095765,-29.11506960278411
1589542068.3475413,-3.201953849582555,-0.8703368706176818,8.622829713188526,0.22,-0.4844444444444445,-0.6611111111111111,2.5982925031286968,-1.5380768802180658,-35.31688981844988
1589542068.3575413,-3.3775044582201086,-0.95,9.000023777173913,0.233341259057971,-0.4761061575332126,-0.6641684829785628,-3.155042565387228,2.6562314240828804,-36.782234523607336
1589542068.3675413,-3.282722945799358,-0.9377836401874331,9.046701841124598,0.2733333333333333,-0.4511111111111111,-0.6733333333333333,3.1818271962513376,1.8295184112459877,-44.223812862044795
1589542068.3775413,-3.0287733413579563,-0.9305925022569252,8.765613329321022,0.2733333333333333,-0.4511111111111111,-0.6733333333333333,0.04970283818242249,0.41229172935903335,-54.105703289567465
1589542068.3875413,-3.2390515431242823,-0.9911592250703221,8.668219959589557,0.2733333333333333,-0.4511111111111111,-0.6733333333333333,-7.384736143575928,2.098067132839428,-58.58503773622281
1589542068.3975413,-2.878874491091363,-1.0591454712603423,9.105735673948255,0.2733333333333333,-0.4511111111111111,-0.6733333333333333,1.6733271680602373,5.901756008405201,-72.53035120168104
1589542068.4075413,-2.6945102220705737,-1.0576874520174018,8.776906082060906,0.2887928131150856,-0.4511111111111111,-0.6687372717765961,0.1916656003867041,4.431251599419944,-70.92480593704683
1589542068.4175413,-3.2519872685388713,-1.1735168023634093,9.257920059085233,0.3144444444444445,-0.4511111111111111,-0.6611111111111111,4.599761285103838,5.435183190602634,-74.35222426890816
1589542068.4275413,-3.2640024713995297,-1.084920875353769,9.252094311794954,0.3144444444444445,-0.4511111111111111,-0.6611111111111111,4.281375812173636,9.345039263363496,-87.99695559453103
1589542068.4375412,-2.938029010827337,-0.9973651180432634,8.287510402059723,0.3144444444444445,-0.4511111111111111,-0.6611111111111111,-4.100493379462541,1.2782665915726064,-104.73119727132709
1589542068.4475412,-3.0373998125146473,-1.3237666979142255,8.336154792594328,0.3144444444444445,-0.4511111111111111,-0.6611111111111111,1.2693930161706117,7.574258114600422,-117.29327908952426
1589542068.4575412,-2.7537622901736563,-1.4286362494929397,8.80204562576059,0.3182603703202904,-0.44586421303182294,-0.6580106713369863,0.25157550850895327,0.9826380169599567,-124.45375127972339
1589542068.4675412,-3.164436111912316,-1.5774185174502453,8.610400922988173,0.3322222222222222,-0.4266666666666667,-0.6466666666666666,3.9048393784251516,2.66525454283242,-130.72807001730604
1589542068.4775412,-3.0973521740902235,-1.7142159419699254,8.682750723338359,0.3322222222222222,-0.4266666666666667,-0.6466666666666666,4.251414839643017,6.874519896898814,-134.40363044541343
1589542068.4875412,-3.165969055374593,-1.7323552994237033,8.238896266599848,0.3322222222222222,-0.4266666666666667,-0.6466666666666666,-3.280451327987973,-3.7252294224505134,-137.61751440741668
1589542068.4975412,-3.143729486556698,-1.8722390014150843,9.300144465330431,0.3322222222222222,-0.4266666666666667,-0.6466666666666666,2.0941809935159568,13.551378651234502,-131.95609014298688
1589542068.5075412,-3.2132217858287913,-1.849604841295287,9.262157342096826,0.34925873232161303,-0.41771528000427494,-0.6466666666666666,2.4283774847707598,7.19708966215133,-139.4384568371273
1589542068.5175412,-3.126580846789196,-1.8777602500186026,8.473280750055808,0.3977777777777778,-0.3922222222222223,-0.6466666666666666,-2.1689160279782724,4.216864164000297,-146.8254427412754
1589542068.5275412,-3.3730559683770243,-2.151527984188512,9.125435505370085,0.3977777777777778,-0.3922222222222223,-0.6466666666666666,2.571441840690067,11.587530067872956,-139.66259154422468
1589542068.5375412,-3.4630224149289863,-2.1965112074644932,8.906945563743891,0.3977777777777778,-0.3922222222222223,-0.6466666666666666,5.46322047986027,7.330189293539046,-143.3978056198195
1589542068.5475411,-3.2831204794379003,-2.1930109526761727,8.632153337466418,0.3977777777777778,-0.3922222222222223,-0.6466666666666666,-4.078696528208307,2.0960296548873734,-148.80657160570365
1589542068.5575411,-3.4317610193655694,-2.295681359154093,8.979454972080314,0.4110668554380685,-0.3766550169630246,-0.6508432339313294,-3.020308601639539,5.030006237376737,-146.84905548295117
1589542068.5675411,-3.619892379094639,-2.4899784758189276,9.28371359386561,0.43666666666666665,-0.3466666666666667,-0.6588888888888889,4.872174951234277,12.880784623663146,-137.09963762023273
1589542068.577541,-3.674927043773736,-2.51,8.910167899260443,0.43666666666666665,-0.3466666666666667,-0.6588888888888889,7.3028058165100935,7.37041525084949,-141.8702778333
1589542068.587541,-3.191516506360022,-2.547977991519971,8.539099038160131,0.43666666666666665,-0.3466666666666667,-0.6588888888888889,2.503711043835481,5.627335513833666,-145.93736389058452
1589542068.597541,-3.120916811715983,-2.6278446671868436,8.179237140627814,0.43666666666666665,-0.3466666666666667,-0.6588888888888889,-3.4797506152091713,4.645163105455855,-142.49418364744014
1589542068.607541,-2.568895309600135,-2.513116247680108,8.862464990720431,0.4456563185422642,-0.34045952608589697,-0.6576046529066607,3.4378611650075923,4.18892620634385,-136.69227423232664
1589542068.617541,-2.718255092111003,-2.613685446797087,9.192261333512299,0.4833333333333333,-0.3144444444444445,-0.6522222222222223,8.553158870507701,12.097075182040872,-131.9159822656958
1589542068.627541,-2.9395113218263083,-2.7804815171494184,8.897067930957848,0.4833333333333333,-0.3144444444444445,-0.6522222222222223,-0.5870234214880115,1.9679528730523248,-138.4193088376917
1589542068.637541,-2.7507966022339643,-2.8769384433594185,8.84925958129891,0.4833333333333333,-0.3144444444444445,-0.6522222222222223,4.687421967315453,5.7112233295431745,-139.12927646980134
1589542068.647541,-2.547489609135564,-2.806419664973341,8.669629497460011,0.4833333333333333,-0.3144444444444445,-0.6522222222222223,3.9567545866745037,11.085683960283808,-141.64826136697593
1589542068.657541,-2.8057584331478513,-3.0374981923355024,8.884449998428117,0.4957129184263014,-0.30327262375079034,-0.6597707497179345,-1.0475828381904493,9.49986442516269,-130.4306701719639
1589542068.667541,-2.4917910748238454,-2.827995749916117,8.401812325243261,0.5288888888888889,-0.2733333333333333,-0.68,-2.427372497483503,0.4028506319203671,-127.69256375125825
1589542068.677541,-2.4048653943835716,-2.893965846697143,8.930275741963573,0.5288888888888889,-0.2733333333333333,-0.68,1.2010421957767943,9.400401821348233,-125.87495918293303
1589542068.687541,-2.6022796535954074,-3.1029345139632185,9.2251415782816,0.5288888888888889,-0.2733333333333333,-0.68,1.5197564950861149,12.990552933735525,-121.74626106840518
1589542068.697541,-2.850989296984287,-3.131166921500374,8.700177624516087,0.5288888888888889,-0.2733333333333333,-0.68,-2.8518189433618533,7.18242704707375,-119.95059411496796
1589542068.707541,-2.5644467939750806,-3.1379893620482124,8.993542568073131,0.5288888888888889,-0.2733333333333333,-0.68,4.226463125020333,10.806848588112821,-107.96868290282703
1589542068.717541,-2.904512355782666,-3.5833538265000597,9.609757674957084,0.56,-0.3088888888888889,-0.6611111111111111,4.3609101161723025,13.269070122559782,-99.56134725937163
1589542068.727541,-2.7203241646373106,-3.3907934448480974,7.801364525529961,0.56,-0.3088888888888889,-0.6611111111111111,-7.935744690406802,-4.207877559982435,-110.3928687272945
1589542068.737541,-2.7,-3.7208886880297425,9.580424134931869,0.56,-0.3088888888888889,-0.6611111111111111,2.5536915684635977,7.5680543001858895,-111.38655733581186
1589542068.747541,-2.7,-3.635052782372904,8.815053976158397,0.56,-0.3088888888888889,-0.6611111111111111,-2.6322277316370215,7.031579889830653,-104.23356519774204
1589542068.757541,-2.61431979818856,-3.5824566895629446,8.460428849310073,0.5995493688326952,-0.3522048642770787,-0.646044684889132,3.819919761716613,3.6986828308309523,-98.1758555710899
1589542068.767541,-2.37,-3.48,9.02,0.7466666666666667,-0.5133333333333333,-0.59,4.3125,10.25,-99.0625
1589542068.777541,-2.4672633098412162,-3.5437318502165236,8.410449180606268,0.7466666666666667,-0.5133333333333333,-0.59,-2.6159728708499617,2.846708626984801,-96.89115436868472
1589542068.787541,-2.369323894030738,-3.677285599048994,8.784399677337182,0.7466666666666667,-0.5133333333333333,-0.59,-0.05619268489428553,4.070951324615777,-92.99583669440435
1589542068.797541,-2.29,-3.6284777023307027,8.736745274362269,0.7466666666666667,-0.5133333333333333,-0.59,0.9703041842539916,3.9230535419342996,-77.03805744173243
1589542068.807541,-2.316784721344623,-3.689325161127259,8.779581700998357,0.8454025022115507,-0.5548233918867685,-0.5308285240883497,2.36192815619866,9.835802239984835,-76.47206140212309
1589542068.817541,-2.4737987716763006,-4.084147850433526,8.544496929190752,1.3733333333333333,-0.7766666666666666,-0.21444444444444444,-4.20829005599711,2.619225298049133,-73.34740787572254
1589542068.8275409,-2.4325016013095153,-4.05943349227813,8.744996797380969,1.3733333333333333,-0.7766666666666666,-0.21444444444444444,1.3067708704006833,2.3225259767988047,-70.28847146110597
1589542068.8375409,-2.287757453813792,-3.9439589049448203,9.05,1.3733333333333333,-0.7766666666666666,-0.21444444444444444,5.747854551551734,-2.3948730260349977,-56.626425217974514
1589542068.8475409,-2.2997682258744208,-4.0559313105773285,9.00523598820059,1.3733333333333333,-0.7766666666666666,-0.21444444444444444,4.986962705436157,6.191898440792246,-49.43245627897176
1589542068.8575408,-2.2212324557760983,-3.9609741715804336,8.717535088447804,1.33609833070343,-0.7238449187498269,-0.25936457843110117,0.8189571048916203,2.922094302798771,-45.294602815380784
1589542068.8675408,-2.1428571131965786,-3.969682542978158,8.874285773606845,1.0032450239459625,-0.25165766962876834,-0.6609172595483948,-1.35813574453949,3.9017860850427706,-42.89980068100656
1589542068.8775408,-1.9843257818330644,-3.765677588655897,8.37405879095746,0.9911111111111112,-0.2344444444444445,-0.6755555555555556,0.5084277270866939,2.599674687627898,-32.71799991573778
1589542068.8875408,-2.1709550808934943,-3.9352710298646074,8.92270003421477,0.9911111111111112,-0.2344444444444445,-0.6755555555555556,4.876322767486192,7.4738318099613865,-35.6270651058214
1589542068.8975408,-2.054782736204116,-3.723427342489858,8.451176988122587,0.9911111111111112,-0.2344444444444445,-0.6755555555555556,0.6907015250012218,3.5017626716848334,-37.164640256122
1589542068.9075408,-1.8970422943221321,-3.688374855156431,8.726164542294322,0.9911111111111112,-0.2344444444444445,-0.6755555555555556,-1.2718713789107765,0.7755286790266513,-35.61511442641947
1589542068.9175408,-1.832201439734203,-3.69,8.948166492339876,0.7186321841437819,-0.114260136590168,-0.6865648051299931,3.641662308496892,0.17144142619824032,-31.93919584076786
1589542068.9275408,-1.7838250471473276,-3.67248523407871,8.63176672952977,0.6611111111111111,-0.08888888888888889,-0.6888888888888889,2.4326401985368786,2.985313089341595,-30.340528050069427
1589542068.9375408,-1.549711556355065,-3.42942311271013,8.322644066745239,0.6611111111111111,-0.08888888888888889,-0.6888888888888889,-3.9894877023757833,0.12289288815830283,-23.198921437876063
1589542068.9475408,-1.5568821714990746,-3.391069298786757,8.736235657001851,0.6611111111111111,-0.08888888888888889,-0.6888888888888889,7.616219411885668,8.786875385564466,-14.03104565083282
1589542068.9575408,-1.7937913516068054,-3.6725590737240075,8.250248995746693,0.6519588846880907,-0.08285673965553456,-0.6896169068998109,-5.789690158317581,-5.774286684782608,-18.608926408908317
1589542068.9675407,-1.5140268131158132,-3.291818769181069,8.824409626877726,0.5633333333333334,-0.024444444444444446,-0.6966666666666667,0.5461859958003554,2.7977810531416574,-10.75482555322242
1589542068.9775407,-1.4577119252873563,-3.2377860093390805,9.031185344827586,0.5633333333333334,-0.024444444444444446,-0.6966666666666667,5.065073298311781,7.144447063577586,-14.908899066091955
1589542068.9875407,-1.4949519921807624,-3.23,8.100643170624197,0.5633333333333334,-0.024444444444444446,-0.6966666666666667,-3.6765832518829415,-8.675621418578356,-14.756896931715824
1589542068.9975407,-1.3502627493819352,-3.23,9.201889074148603,0.5633333333333334,-0.024444444444444446,-0.6966666666666667,-2.169403639395159,6.195217424634432,-9.381289647176068
1589542069.0075407,-1.4787431652297753,-3.2101795478243176,9.210628417385113,0.5633333333333334,-0.024444444444444446,-0.6966666666666667,-2.9296447826860965,-1.483386739909971,-8.380610869509932
1589542069.0175407,-1.445291773591204,-3.149260603784607,8.212138490747115,0.5459792201289353,0.013156134165084533,-0.7207696016727749,1.9433443387369342,4.728366036594271,-20.631342450606077
1589542069.0275407,-1.4105007454918839,-3.2625037274594195,8.841457506962612,0.5433333333333333,0.01888888888888889,-0.7244444444444444,-0.5127981967535938,-0.38172525107604016,-15.856128857568853
1589542069.0375407,-1.4075335447670163,-3.3050134179068067,8.376045376921201,0.5433333333333333,0.01888888888888889,-0.7244444444444444,-3.1281867528665526,-5.175271407660405,-15.504604781654063
1589542069.0475407,-1.3435804464503538,-3.2794321785801417,8.766159276652843,0.5433333333333333,0.01888888888888889,-0.7244444444444444,2.947357587216395,1.2999797969016829,-21.620119808184924
1589542069.0575407,-1.3800278995615782,-3.410223196492627,8.869581506576324,0.5433178335769009,0.018898188742748328,-0.7245002435676011,7.103900956556397,3.8055251096054206,-31.65053308090873
1589542069.0675406,-1.3876265444400158,-3.4710123555201275,8.755601833399762,0.5390963641999912,0.021431070368894207,-0.7396975333244763,1.3574257672379435,1.9058638899960143,-21.582328616978877
1589542069.0775406,-1.3202655323536994,-3.4005841711781386,8.719575148234082,0.5377777777777778,0.022222222222222227,-0.7444444444444445,1.6622744263985563,-0.6855085073472544,-32.74976798143852
1589542069.0875406,-1.369212168120837,-3.517090486912468,8.637636504362511,0.5377777777777778,0.022222222222222227,-0.7444444444444445,-3.21021847734309,-0.28295630453138193,-22.319618397598273
1589542069.0975406,-1.3626688823929844,-3.6016013294357907,8.612135105914387,0.5377777777777778,0.022222222222222227,-0.7444444444444445,-4.430412345332959,0.19594411964922118,-37.75667220598246
1589542069.1075406,-1.4046572298081927,-3.6267943378849155,8.645725783846554,0.5377777777777778,0.022222222222222227,-0.7444444444444445,3.547373663556641,2.2953614904096424,-37.86164307452048
1589542069.1175406,-1.423925569457812,-3.505234092610416,8.85672869211849,0.5544444444444444,0.02666666666666667,-0.7511111111111111,-3.1430822906641,1.2015305849641749,-38.25528954122554
1589542069.1275406,-1.4777504010266282,-3.577000534702171,8.811874665811144,0.5544444444444444,0.02666666666666667,-0.7511111111111111,0.8937800769971123,3.107826703026414,-43.46957009945461
1589542069.1375406,-1.4340191802987547,-3.587033565522821,8.724019180298756,0.5544444444444444,0.02666666666666667,-0.7511111111111111,-3.6064597845176314,4.310701846991732,-34.854518568581405
1589542069.1475406,-1.5002314659510232,-3.7029050654142908,8.790231465951024,0.5544444444444444,0.02666666666666667,-0.7511111111111111,-4.330656658839316,-1.8966999329084206,-39.665254948004026
1589542069.1575406,-1.4162219837863614,-3.6603230805913207,8.723272532188842,0.5544444444444444,0.02666666666666667,-0.7511111111111111,-0.4945606819265618,1.1304393180734382,-41.440659275154985
1589542069.1675406,-1.366531261699738,-3.757099962560839,9.058074878322726,0.5306444527642581,0.032616664586713265,-0.7325173676109655,3.283358292774242,9.80316126918757,-46.64531074503931
1589542069.1775405,-1.212745972427221,-3.626994629902961,8.78773702226549,0.5188888888888888,0.03555555555555556,-0.7233333333333334,9.435291900888735,-28.379361241089093,-53.70013425242597
1589542069.1875405,-8.130306743264155,-24.108371102113498,15.034532677590995,0.5188888888888888,0.03555555555555556,-0.7233333333333334,-63.55655247705255,184.75552090178707,-170.05205440612215
1589542069.1975405,-5.261152724680878,-10.512754487137954,8.733769843841118,0.5188888888888888,0.03555555555555556,-0.7233333333333334,-54.61370520961576,115.74190857253936,-217.41663156871638
1589542069.2075405,-2.409679546353686,-1.0364034682843202,11.436681062903865,0.5188888888888888,0.03555555555555556,-0.7233333333333334,24.92560868060135,-53.412536677436364,-211.643919787683
1589542069.2175405,-0.3270877172808988,-1.2704404070603117,10.186808486172598,0.50648509085179,0.07276694966685193,-0.7047276362776852,87.9359536403534,35.12079452461718,-206.26143180206597
1589542069.2275405,3.0565410004960505,1.965693898576716,14.242432556187278,0.5011111111111111,0.08888888888888889,-0.6966666666666667,-67.12510493379631,-45.00916739802342,-168.9880613958103
1589542069.2375405,1.2401814160189937,-0.04540656263317078,10.652881957831937,0.5011111111111111,0.08888888888888889,-0.6966666666666667,-10.877711601290606,11.416086213194255,-159.37069669636153
1589542069.2475405,-0.670600667029676,-0.34353729921045467,9.39824258099646,0.5011111111111111,0.08888888888888889,-0.6966666666666667,33.035318966104,24.180619129458208,-140.34990343384155
1589542069.2575405,-0.6777377144023959,0.327345153825211,7.713899401034576,0.5011111111111111,0.08888888888888889,-0.6966666666666667,-3.675868457323709,-9.318896976245576,-125.94198905016336
1589542069.2675405,-0.427384073983141,0.031725345772976477,8.233933218757674,0.4755555555555556,0.16333333333333333,-0.7088888888888889,-6.075022505933383,16.474837343481465,-65.54696169899337
1589542069.2775404,-1.0933094361240692,-1.5884641951059828,8.439889516327032,0.4755555555555556,0.16333333333333333,-0.7088888888888889,9.414607373762173,9.266366928553891,-59.49699545789345
1589542069.2875404,-0.8762081135034936,-2.3175167545986026,7.8591052331384565,0.4755555555555556,0.16333333333333333,-0.7088888888888889,3.09960074148011,-3.9124705903322408,-33.52204833879937
1589542069.2975404,-1.0203864607541795,-2.9476812354749233,9.093864607541795,0.4755555555555556,0.16333333333333333,-0.7088888888888889,-8.288062729589925,6.302238736037184,-24.38166279331284
1589542069.3075404,-1.028247432341255,-2.9005154059524703,9.17247432341255,0.4755555555555556,0.16333333333333333,-0.7088888888888889,3.6507878682809807,3.550898680560761,-11.804108253992053
1589542069.3175404,-0.8802173104278367,-2.783012364591312,8.754916949338002,0.4541580284738179,0.19978837947258998,-0.6977938748465065,2.1221509464930524,-5.9335581026370505,0.5843090053616375
1589542069.3275404,-0.7526210753486645,-3.03602673288005,9.032621075348663,0.4455555555555555,0.21444444444444444,-0.6933333333333334,1.6395049660037593,4.658078168147959,11.382095119857054
1589542069.3375404,-0.6324374647357532,-2.9727421478277227,8.911218732367876,0.4455555555555555,0.21444444444444444,-0.6933333333333334,-3.1982438405115667,-1.883498683468121,11.776119052097048
1589542069.3475404,-0.7097199872540428,-3.0601400063729787,8.945799808810643,0.4455555555555555,0.21444444444444444,-0.6933333333333334,0.3464958575639289,3.6689934676969647,20.64037854496933
1589542069.3575404,-0.6930136222416952,-3.0684931888791525,8.695204333625428,0.4455555555555555,0.21444444444444444,-0.6933333333333334,-5.083072771449056,-4.893018601131203,25.28683631402852
1589542069.3675404,-0.67,-3.135721990683991,8.759364223257334,0.4477777777777778,0.25222222222222224,-0.7,0.4649781400670099,-3.574083721500368,28.50107767426657
1589542069.3775403,-0.67,-3.212841995587154,8.75079533382365,0.4477777777777778,0.25222222222222224,-0.7,-2.5341331617226444,-0.3607501838685949,29.357966617635043
1589542069.3875403,-0.523918384975925,-3.2260867339593364,8.76826020187801,0.4477777777777778,0.25222222222222224,-0.7,0.3069511541599348,-2.6493619327179947,32.32869863068482
1589542069.3975403,-0.5266600309666003,-3.2364440020644403,8.65756396077564,0.4477777777777778,0.25222222222222224,-0.7,-3.4065518321905186,1.0038017031630169,41.114802219273024
1589542069.4075403,0.8514093822446477,-8.07742965589345,8.87628187644893,0.4477777777777778,0.25222222222222224,-0.7,-5.553172871494159,0.7260045911177784,-31.40433371971453
1589542069.4175403,-0.883685922306054,0.4532347162833699,4.289220419012399,0.4488888888888889,0.25,-0.6788888888888889,10.884303131861781,31.00218029254924,-42.610771862772616
1589542069.4275403,-0.4405114658830133,-0.27384837628568115,10.24437717719701,0.4488888888888889,0.25,-0.6788888888888889,-2.445553565237491,-1.197213806937313,-26.943862368129963
1589542069.4375403,-0.31721727788859905,-1.4187229553475524,6.585896117845634,0.4488888888888889,0.25,-0.6788888888888889,-4.120116138560688,5.475141936473836,7.5097269640939075
1589542069.4475403,-0.6908514428215176,-2.733794086213039,10.49029568934806,0.4488888888888889,0.25,-0.6788888888888889,2.5120903099394365,-7.116717135732099,1.3672737798361236
1589542069.4575403,-1.0118247368168054,-7.4523974907465265,8.548098351199346,0.4488888888888889,0.25,-0.6788888888888889,2.613595394894967,2.3270637047541225,-2.079591885785704
1589542069.4675403,-0.6454623117746041,-3.9981201190835742,8.668222807093239,0.4418802164981567,0.25155748275349604,-0.6874550440331171,-0.6159689562928765,1.4192545411399236,2.781612697933296
1589542069.4775403,-0.7734547853445651,-4.810090327818939,8.947520552116107,0.4388888888888889,0.25222222222222224,-0.6911111111111111,-4.89955470415102,1.4559588450218208,-8.532413985588146
1589542069.4875402,-0.5975741434740427,-4.659815663819507,8.709088972168852,0.4388888888888889,0.25222222222222224,-0.6911111111111111,2.7307471893012725,3.5829714935225523,1.6701673578480811
1589542069.4975402,-0.4812175340666557,-4.2075081267443775,8.845738630766705,0.4388888888888889,0.25222222222222224,-0.6911111111111111,-10.551592513544575,1.0034497619438518,2.243303644721721
1589542069.5075402,-0.5513278867729129,-4.326805132040734,8.71526954720672,0.4388888888888889,0.25222222222222224,-0.6911111111111111,0.6662483458949442,3.711362263391059,-0.7844952822047064
1589542069.5175402,-0.4651089121044086,-4.5602466223461295,8.660928893109892,0.44524592451892464,0.2469246925305257,-0.6911111111111111,-1.9146376489690882,0.9808618761680092,-13.30315017922245
1589542069.5275402,-0.5737507034327518,-4.391248894605676,8.61124969852882,0.4455555555555555,0.2466666666666667,-0.6911111111111111,3.3984720435726343,3.757830713883753,4.9141786920170425
1589542069.5375402,-0.5163099820374647,-4.433690017962535,8.645649100706837,0.4455555555555555,0.2466666666666667,-0.6911111111111111,3.4511701891898197,3.676681654886043,1.4991631091515618
1589542069.5475402,-0.4973560817084494,-4.4379317548746515,8.674712163416899,0.4455555555555555,0.2466666666666667,-0.6911111111111111,2.510793871866295,0.9548224233983285,4.579561281337047
1589542069.5575402,-0.530835141545138,-4.404304048712385,8.685139190257523,0.4455555555555555,0.2466666666666667,-0.6911111111111111,-4.721766664984608,1.026098173285563,4.571063775209836
1589542069.5675402,-0.5335252333919632,-4.419712149912055,8.694412461101338,0.44800692283407745,0.2520596746794149,-0.6881694703768848,-3.7359267183060476,-0.10326325936950331,4.7558411412528745
1589542069.5775402,-0.5301172754195459,-4.4850586377097725,8.674902270483711,0.4511111111111111,0.2588888888888889,-0.6844444444444444,3.3022384007897334,-2.2482897334649556,4.959343534057256
1589542069.5875401,-0.5206627970821242,-4.447550396109499,8.610662797082124,0.4511111111111111,0.2588888888888889,-0.6844444444444444,-2.1808377127617855,-2.9598350851047144,-1.86293532826104
1589542069.5975401,-0.5,-4.403084639711633,8.657661441153467,0.4511111111111111,0.2588888888888889,-0.6844444444444444,-1.9254833032951337,-3.9853840072091677,1.4509534294555717
1589542069.6075401,-0.5099147952041873,-4.394957397602093,8.700085204795814,0.4511111111111111,0.2588888888888889,-0.6844444444444444,-0.8723373501308502,2.5968729079179607,2.2183867384821374
1589542069.6175401,-0.5090586053732373,-4.421882789253526,8.711882789253526,0.45232682162519583,0.255849612603677,-0.6880915759866987,-2.0764883134244685,8.257325671654664,0.8191626417698048
1589542069.62754,-0.5278084739009165,-4.446952118475229,8.681335170673396,0.4533333333333333,0.2533333333333333,-0.6911111111111111,-2.725598519059636,1.954361884048346,4.164825175986187
1589542069.63754,-0.5322135082465898,-4.45,8.605494557726127,0.4533333333333333,0.2533333333333333,-0.6911111111111111,-1.4221950900708207,-2.8431098198583586,-2.1953425780693
1589542069.64754,-0.5222254521194215,-4.403352712716528,8.659970930925207,0.4533333333333333,0.2533333333333333,-0.6911111111111111,-5.241319485810956,-2.5906815149276845,-7.248728227977793
1589542069.65754,-0.52,-4.396287703463704,8.711438517318522,0.4533333333333333,0.2533333333333333,-0.6911111111111111,-1.3287409357401838,1.224333198333719,-4.548868655018129
1589542069.66754,-0.52,-4.432003948667325,8.697996051332675,0.44266535044422506,0.26489031479653397,-0.6795541296479105,1.9875370187561698,-1.388079960513327,-4.737783810463968
1589542069.67754,-0.5352638444706279,-4.455263844470628,8.644208466588116,0.44,0.2677777777777778,-0.6766666666666666,3.3980863911799357,2.112052369129776,-5.503298055882848
1589542069.68754,-0.5324346711369687,-4.444869342273938,8.592173355684844,0.44,0.2677777777777778,-0.6766666666666666,-1.5777968149097719,-0.3147310423035208,-4.616833892121092
1589542069.69754,-0.5225925155925156,-4.425185031185031,8.63185239085239,0.44,0.2677777777777778,-0.6766666666666666,-2.6643451143451142,-5.266242203742204,0.22458419958419995
1589542069.70754,-0.5139112855274112,-4.4078225710548224,8.71088714472589,0.44,0.2677777777777778,-0.6766666666666666,-3.046371447258889,-1.8437462837436085,-4.1620510762278515
1589542069.71754,-0.51,-4.4184751684552035,8.743841610514933,0.4523167789701356,0.26025085729602826,-0.6896677111351431,-1.8979026287330505,1.1875,-2.4189595291573074
1589542069.72754,-0.519980280338965,-4.439980280338965,8.705069018813623,0.46,0.25555555555555554,-0.6977777777777778,-1.5612675211853115,-2.3679748707562758,5.834321537067633
1589542069.73754,-0.53,-4.460137946296843,8.624379241664208,0.46,0.25555555555555554,-0.6977777777777778,-0.6668080554735909,-1.5655106594865744,5.777794426822071
1589542069.74754,-0.53,-4.4448397435897435,8.62025641025641,0.46,0.25555555555555554,-0.6977777777777778,0.875400641025641,3.6310096153846154,3.2011217948717947
1589542069.75754,-0.5260577005884887,-4.416057700588489,8.683653796469068,0.46,0.25555555555555554,-0.6977777777777778,-0.04807485287785285,2.6406290368881873,2.8485628678053683
1589542069.76754,-0.5264302243065626,-4.422860448613125,8.726430224306563,0.4428527351824998,0.26341471859690985,-0.6949199003081944,3.0994126222578755,2.179211918793002,6.336691246798926
1589542069.77754,-0.53,-4.43,8.658216581584421,0.43333333333333335,0.2677777777777778,-0.6933333333333334,4.790207269805256,0.2425168982794479,7.369069353847609
1589542069.78754,-0.5368599387260506,-4.450579816178152,8.588840367643696,0.43333333333333335,0.2677777777777778,-0.6933333333333334,-3.4085549179203447,-4.5782185971009195,-0.32944178974804483
1589542069.79754,-0.5331396677934775,-4.446279335586955,8.611161993239136,0.43333333333333335,0.2677777777777778,-0.6933333333333334,-3.4412026678664365,-4.815433558695494,-4.255795678396848
1589542069.80754,-0.5352125749578082,-4.424362275126576,8.656062874789042,0.43333333333333335,0.2677777777777778,-0.6933333333333334,-1.6170284390821932,2.947211973499946,-5.404229056698624
1589542069.81754,-0.53380429052273,-4.40380429052273,8.71717425686362,0.4457247522878732,0.2602052439722256,-0.6919565090050511,1.5054620017032323,2.0264254430431086,-5.830160894602376
1589542069.82754,-0.5224413287216509,-4.422676013835047,8.709765314886603,0.4533333333333333,0.25555555555555554,-0.6911111111111111,2.273182699227002,-5.208034947422178,-1.0578138420111882
1589542069.83754,-0.52,-4.449841734189203,8.627246974639586,0.4533333333333333,0.25555555555555554,-0.6911111111111111,4.004347311375355,-1.6807836998842465,-3.7788685152057244
1589542069.84754,-0.52,-4.454825474341526,8.636570730926266,0.4533333333333333,0.25555555555555554,-0.6911111111111111,1.7637398927227603,2.9557181170442717,-3.6736450244175805
1589542069.85754,-0.515631736233588,-4.4281586811679405,8.693104791299236,0.4533333333333333,0.25555555555555554,-0.6911111111111111,-1.0940868116794042,1.8020955810307662,0.34861539780521245
1589542069.86754,-0.51,-4.4,8.720012150668287,0.4533333333333333,0.25833670851896856,-0.6944484946672067,-0.6247721749696233,-3.12568347509113,4.126594775212636
1589542069.8775399,-0.5139306920556921,-4.407861384111384,8.733930692055692,0.4533333333333333,0.2611111111111111,-0.6977777777777778,-1.8623758701883704,-0.739480958230958,4.946163493038493
1589542069.8875399,-0.5249132546842471,-4.4224566273421235,8.700693962526024,0.4533333333333333,0.2611111111111111,-0.6977777777777778,-3.3869274809160306,2.307815752949341,1.0092383761276893
1589542069.8975399,-0.5341381568606905,-4.43,8.609309215696548,0.4533333333333333,0.2611111111111111,-0.6977777777777778,-1.6788651962068424,-4.290872059516949,-3.804069851207628
1589542069.9075398,-0.5193449069829045,-4.43,8.667292825559835,0.4533333333333333,0.2611111111111111,-0.6977777777777778,-1.2049623550746786,-1.2256797990912238,5.314720999653606
1589542069.9175398,-0.5138638349761203,-4.422272330047759,8.71545533990448,0.4481815533651729,0.25638864614029744,-0.6904794228228839,-1.7699484300375978,3.2187773092165433,7.90755004572706
1589542069.9275398,-0.52,-4.424309490947471,8.716150848420881,0.44,0.2488888888888889,-0.6788888888888889,0.307232889502314,3.3470254526264513,2.9950424210440856
1589542069.9375398,-0.52,-4.449740882274068,8.63155470635559,0.44,0.2488888888888889,-0.6788888888888889,1.27819120407616,2.2580974289353715,5.0054880246044515
1589542069.9475398,-0.5243796353522868,-4.464379635352286,8.591898176761434,0.44,0.2488888888888889,-0.6788888888888889,-1.162845720024722,-1.1282447466007417,7.843054697156984
1589542069.9575398,-0.5345757191060034,-4.45627284268199,8.665757191060035,0.44,0.2488888888888889,-0.6788888888888889,-1.5177876424013632,-2.4314615140480407,5.026721135536031
1589542069.9675398,-0.5363271796462923,-4.425308718585169,8.727345640707416,0.44489709380494363,0.25582643844589237,-0.6756241596855931,-2.447923130623643,1.6975255972696246,1.5397436394663357
1589542069.9775398,-0.5363286169345878,-4.406328616934588,8.733671383065413,0.4533333333333333,0.2677777777777778,-0.67,0.162146270094081,2.409099748129491,-2.889839062152752
1589542069.9875398,-0.5341766679571558,-4.427469996128533,8.66012001548587,0.4533333333333333,0.2677777777777778,-0.67,0.364708349464447,2.9771664085688476,0.9284988385598139
1589542069.9975398,-0.5354478171483855,-4.44,8.626343451445157,0.4533333333333333,0.2677777777777778,-0.67,4.7048025758858385,-0.6819491474180674,-1.3050988632240905
1589542070.0075397,-0.54,-4.44,8.658753776588195,0.4533333333333333,0.2677777777777778,-0.67,5.005180769308758,-4.320288896323783,-4.730150100371069
1589542070.0175397,-0.5275431102673628,-4.427543110267363,8.698685334598956,0.4533333333333333,0.26189535762625465,-0.6810727908734554,1.7714167062173707,-1.4625553709856032,-4.708714008859358
1589542070.0275397,-0.5040086667792223,-4.406013000168834,8.727973999662334,0.4533333333333333,0.2488888888888889,-0.7055555555555556,2.260766644155552,4.662716669480556,-7.810739560470482
1589542070.0375397,-0.52,-4.433369868473496,8.646301315265045,0.4533333333333333,0.2488888888888889,-0.7055555555555556,-1.232363491430849,2.029618373854125,-4.7731167795934635
1589542070.0475397,-0.5290665483584739,-4.444533274179237,8.59359982253771,0.4533333333333333,0.2488888888888889,-0.7055555555555556,-1.9824977817213842,-2.2941881100266195,-3.204192546583851
1589542070.0575397,-0.5353883352008021,-4.454611664799198,8.637669988795187,0.4533333333333333,0.2488888888888889,-0.7055555555555556,-0.9769379902105324,1.8780407796190364,-0.2360419001002536
1589542070.0675397,-0.53,-4.431442421066422,8.693797982444648,0.4565063976592864,0.25470617348646957,-0.6955075185233708,-1.8233083322415826,-0.9170460500458537,-1.2878537272369972
1589542070.0775397,-0.5248784917579706,-4.415364524726089,8.714878491757972,0.46,0.2611111111111111,-0.6844444444444444,-2.9681040864672785,-1.2428597867930113,-1.010858997137499
1589542070.0875397,-0.5245035414651996,-4.43,8.673971668278405,0.46,0.2611111111111111,-0.6844444444444444,-1.4623229267400224,3.724734390110034,1.2876770732599776
1589542070.0975397,-0.534807144170651,-4.43,8.644421432511953,0.46,0.2611111111111111,-0.6844444444444444,2.9286171961198972,1.0291065189407869,-0.7809827831923499
1589542070.1075397,-0.5319809385683207,-4.42198093856832,8.676038122863359,0.46,0.2611111111111111,-0.6844444444444444,2.1876696363824717,-4.4195884699057295,-0.6561859007562414
1589542070.1175396,-0.52,-4.418172865834536,8.712259298751803,0.46,0.2611111111111111,-0.6871687330559563,-5.5625,-4.507624819670075,3.8233041146584705
1589542070.1275396,-0.530178780063047,-4.4147318299054294,8.73,0.46,0.2611111111111111,-0.6911111111111111,1.0218983532835129,-1.0502818927319622,1.8905702334501684
1589542070.1375396,-0.5307412376715392,-4.404629381164231,8.674447426029236,0.46,0.2611111111111111,-0.6911111111111111,2.1380125579643625,-0.5140659204858413,1.8007923757738387
1589542070.1475396,-0.52,-4.423652715981822,8.619101810654549,0.46,0.2611111111111111,-0.6911111111111111,-2.0033652359085394,0.9232747031811366,0.8192304718170784
1589542070.1575396,-0.5159669151910531,-4.448066169617894,8.646132339235788,0.46,0.2611111111111111,-0.6911111111111111,-0.14122204100652375,-0.5763338769804287,-4.2662220410065235
1589542070.1675396,-0.5155641072258247,-4.44887178554835,8.689474375290386,0.4565997122508849,0.25956552577060427,-0.6929658135197194,-1.195032371775448,1.4027243298385956,-2.677081439508717
1589542070.1775396,-0.527927122263748,-4.415854244527496,8.733781366791245,0.4477777777777778,0.25555555555555554,-0.6977777777777778,-1.8506573678590497,0.40561599038974894,2.6174586225306995
1589542070.1875396,-0.52,-4.410542169838663,8.674859433871124,0.4477777777777778,0.25555555555555554,-0.6977777777777778,-2.0120483528161532,-1.129768862911796,1.5356426915273886
1589542070.1975396,-0.5227506815121359,-4.421747955463593,8.618252044536407,0.4477777777777778,0.25555555555555554,-0.6977777777777778,-2.8307899793083062,1.1309262817354748,2.9779801786711335
1589542070.2075396,-0.53,-4.416502782160951,8.652377086620714,0.4477777777777778,0.25555555555555554,-0.6977777777777778,2.681354331035628,-1.4357896976995266,0.8702168632173407
1589542070.2175395,-0.5261559041369794,-4.432311808273959,8.689220479315104,0.45503884774126124,0.25769116436834477,-0.6952150472024308,2.2170664479427753,0.29301198287758035,1.1676775606184346
1589542070.2275395,-0.52,-4.4160594109914255,8.72788117801715,0.4666666666666667,0.2611111111111111,-0.6911111111111111,0.1117573626071772,-0.7600224164655562,3.6763604391076576
1589542070.2375395,-0.5169367123667082,-4.416126575266584,8.7032405484005,0.4666666666666667,0.2611111111111111,-0.6911111111111111,-0.693195194571389,-4.653796219360199,2.515034275031159
1589542070.2475395,-0.5139358084501794,-4.437871616900359,8.631807425350537,0.4666666666666667,0.2611111111111111,-0.6911111111111111,0.3135539432617507,-2.7710119019891,0.7563323939069271
1589542070.2575395,-0.5224442600531661,-4.445111479893668,8.657332780159498,0.4666666666666667,0.2611111111111111,-0.6911111111111111,3.5626037200940397,3.6014142426896543,3.037728184206887
1589542070.2675395,-0.528889196207686,-4.432221607584627,8.676667588623058,0.4666666666666667,0.2611111111111111,-0.6911111111111111,-0.06267286682339979,2.7152355214431694,-4.937880307011479
1589542070.2775395,-0.53,-4.435706340799031,8.69,0.4533333333333333,0.25555555555555554,-0.6977777777777778,-0.3393353700060533,0.40927426982445525,-3.3803533595641646
1589542070.2875395,-0.529846506957395,-4.42,8.688925548701764,0.4533333333333333,0.25555555555555554,-0.6977777777777778,-0.44133732606512693,-2.489303901879214,3.591566848371826
1589542070.2975395,-0.52,-4.427647074348756,8.631470611523133,0.4533333333333333,0.25555555555555554,-0.6977777777777778,-1.261030576156668,-3.4227892660138823,-2.5625
1589542070.3075395,-0.52,-4.44,8.656709609712848,0.4533333333333333,0.25555555555555554,-0.6977777777777778,-2.1455649392946965,1.276201214106067,-0.21413660050301297
1589542070.3175395,-0.5211131737293561,-4.4377736525412885,8.672226347458713,0.454075449152904,0.25555555555555554,-0.6970356619582071,-1.6450598514914865,3.3271108052746126,4.089633209576238
1589542070.3275394,-0.5299011930767938,-4.42,8.69049403461603,0.46,0.25555555555555554,-0.6911111111111111,1.7146719038817007,6.400447403797681,1.333496471181314
