time,acc_x,acc_y,acc_z,mag_x,mag_y,mag_z,gyr_x,gyr_y,gyr_z
1589542846.4694586,-0.14,-4.22,8.76,0.4933333333333334,0.3022222222222222,-0.6311111111111111,-0.25,-0.3125,0.0
1589542846.4794586,-0.13886136653614325,-4.249715341634036,8.722561925293679,0.4933333333333334,0.3022222222222222,-0.6311111111111111,-0.1875,-0.43572088521272384,-0.06427911478727617
1589542846.4894586,-0.10195433147080822,-4.240488582867703,8.805602754190682,0.4933333333333334,0.3022222222222222,-0.6311111111111111,-0.1875,-0.3780536429231378,-0.12194635707686216
1589542846.4994586,-0.11624920742058865,-4.223750792579411,8.866872225972061,0.4933333333333334,0.3022222222222222,-0.6311111111111111,-0.0859424536213209,0.031230185514716402,-0.125
1589542846.5094585,-0.11185273572476198,-4.236294528550476,8.896294528550477,0.5150593714006347,0.3022222222222222,-0.6247743500081482,-0.21526120516071295,0.17592040172023765,-0.07407959827976235
1589542846.5194585,-0.11029550236916602,-4.249852248815417,8.87852248815417,0.52,0.3022222222222222,-0.6233333333333333,-0.30972966528906853,0.3115765550963562,0.125
1589542846.5294585,-0.12299453502278336,-4.243502732488609,8.815027324886083,0.52,0.3022222222222222,-0.6233333333333333,-0.19067623416140606,0.271892078053802,0.125
1589542846.5394585,-0.14317245727094424,-4.226827542729056,8.81293114317736,0.52,0.3022222222222222,-0.6233333333333333,0.03965571588680303,0.37349178691510226,0.042672142056598486
1589542846.5494585,-0.14370039915473115,-4.207400798309462,8.823700399154731,0.52,0.3022222222222222,-0.6233333333333333,0.16437250528293026,0.5162450105658606,0.07874501056586054
1589542846.5594585,-0.130931249015593,-4.236275003937628,8.810931249015594,0.4958166640415814,0.3022222222222222,-0.6233333333333333,0.0741406126949126,0.10906245077965038,0.0683203063474563
1589542846.5694585,-0.137230179028133,-4.24,8.846150895140665,0.4933333333333334,0.3022222222222222,-0.6233333333333333,-0.07306585677749361,-0.07306585677749361,0.0625
1589542846.5794585,-0.14,-4.230516307234676,8.717744608520132,0.4933333333333334,0.3022222222222222,-0.6233333333333333,-0.18427307978327845,-0.2435461595665569,0.0625
1589542846.5894585,-0.12148410702035216,-4.257773839469472,8.793321518408415,0.4933333333333334,0.3022222222222222,-0.6233333333333333,-0.013913503315801518,-0.3078621655613995,0.0625
1589542846.5994585,-0.10489362532693133,-4.252446812663465,8.822659562009603,0.4933333333333334,0.3022222222222222,-0.6233333333333333,-0.14162226256001875,-0.3125,-0.03191484170667916
1589542846.6094584,-0.12408698738600994,-4.233942008409327,8.85408698738601,0.5049307717043752,0.3022222222222222,-0.6179806694697756,0.0634061186042702,-0.1619563288374379,-0.01231877627914596
1589542846.6194584,-0.12096364535352747,-4.220963645353527,8.869036354646472,0.5077777777777778,0.3022222222222222,-0.6166666666666667,0.06852278345954667,-0.012045566919093337,0.0
1589542846.6294584,-0.12,-4.22,8.768260974724877,0.5077777777777778,0.3022222222222222,-0.6166666666666667,0.004693735639134111,0.11561252872173178,-0.11561252872173178
1589542846.6394584,-0.12,-4.22,8.79334091640734,0.5077777777777778,0.3022222222222222,-0.6166666666666667,-0.20838072754587403,0.020809636227062986,-0.0729048181135315
1589542846.6494584,-0.10008079709441217,-4.2000807970944125,8.866397343018626,0.5077777777777778,0.3022222222222222,-0.6166666666666667,-0.20850166061335873,-0.12449501815992386,-0.021001660613358716
1589542846.6594584,-0.10660064672594988,-4.20660064672595,8.89446645109135,0.5145410042216833,0.3126744812718944,-0.6203556992724333,-0.014576596604688768,0.08917744543249795,0.06916936135812449
1589542846.6694584,-0.10380718114399001,-4.2523856377120195,8.92238563771202,0.52,0.3211111111111111,-0.6233333333333333,0.125,0.4137051178500624,0.07439744107496879
1589542846.6794584,-0.1,-4.265630303587293,8.862436356952486,0.52,0.3211111111111111,-0.6233333333333333,0.16018939742058022,0.5782575896823209,0.13287879484116044
1589542846.6894584,-0.1099282119597395,-4.250143576080521,8.780215364120782,0.52,0.3211111111111111,-0.6233333333333333,0.15647433762581409,0.6254486752516282,0.12544867525162817
1589542846.6994584,-0.12,-4.22501872329952,8.7749063835024,0.52,0.3211111111111111,-0.6233333333333333,0.18726595875599938,0.655898938133999,0.12476595875599937
1589542846.7094584,-0.13056925322497928,-4.22,8.81585387983747,0.5164769155916735,0.31465212302917933,-0.6309666828847073,0.34908674898418085,0.7169710836719397,0.055384334687758885
1589542846.7194583,-0.21052183966608534,-4.155354980306089,8.741847700417393,0.5133333333333333,0.3088888888888889,-0.6377777777777778,0.4007698751739139,0.6140397503478278,0.08442049930434442
1589542846.7294583,-0.21425757741547216,-4.11,8.74098989677937,0.5133333333333333,0.3088888888888889,-0.6377777777777778,-0.5303187803187803,-0.7716539920487289,0.3780934274355327
1589542846.7394583,-0.07101232684339187,-4.220560862705664,9.042544426914475,0.5133333333333333,0.3088888888888889,-0.6377777777777778,-0.6205540578026665,-0.803608115605333,0.9749486381525339
1589542846.7494583,-0.20069264556819463,-4.123663700867215,8.77089199234148,0.5133333333333333,0.3088888888888889,-0.6377777777777778,-0.1881194391260277,-0.04269906521004618,1.5204203739159816
1589542846.7594583,-0.12887547094488386,-4.087753187454776,8.833597145637366,0.5133333333333333,0.3045443027797877,-0.624019921765624,-0.4669964320467077,-0.887645337957534,2.054074452955413
1589542846.7694583,-0.1299117920148561,-4.164358461002785,8.808295902971217,0.5133333333333333,0.3022222222222222,-0.6166666666666667,0.06194870009285047,-0.14158977483751167,2.351493587511606
1589542846.7794583,-0.12882804087462915,-4.25572288759477,8.773378969344028,0.5133333333333333,0.3022222222222222,-0.6166666666666667,-0.09094330293374353,-0.2995618613339194,1.9366443247994727
1589542846.7894583,-0.08770846513982032,-4.344583069720359,8.78,0.5133333333333333,0.3022222222222222,-0.6166666666666667,-0.03613343034290775,-0.3365889535619385,1.1565781981526002
1589542846.7994583,-0.07310281087380202,-4.373794378252396,8.800691567378594,0.5133333333333333,0.3022222222222222,-0.6166666666666667,0.08621486407747483,0.0754668883486368,0.7844628398063129
1589542846.8094583,-0.0779054920795919,-4.237701142567346,8.802094507920408,0.5036710652360543,0.3171548183725625,-0.633356038834694,-0.023227976492348062,0.15118134900510127,0.4404533725127532
1589542846.8194582,-0.23089245031031502,-4.090260036137953,8.751988765810355,0.5011111111111111,0.3211111111111111,-0.6377777777777778,-0.7483747741377955,-0.7323434676722445,0.33213282661638777
1589542846.8294582,-0.1927165734130812,-4.140131198147791,8.715695543121745,0.5011111111111111,0.3211111111111111,-0.6377777777777778,-0.7942914335327032,-0.5885828670654062,0.9383199884236928
1589542846.8394582,-0.16876617722721335,-4.161233822772787,8.747532354454426,0.5011111111111111,0.3211111111111111,-0.6377777777777778,-0.061960759092887896,0.3678278485771955,1.6957506332370285
1589542846.8494582,-0.17167871602082127,-4.137518074031232,8.819927703875072,0.5011111111111111,0.3211111111111111,-0.6377777777777778,0.00045185078079812424,0.39643580104106424,2.130020062174667
1589542846.8594582,-0.16848226076239106,-4.111517739237609,8.894241130381197,0.50629471491035,0.3074452465494811,-0.6288242803063651,-0.4375,-0.2405141297649441,2.418528259529888
1589542846.8694582,-0.2013504965876935,-4.1,8.862636630971537,0.5133333333333333,0.2888888888888889,-0.6166666666666667,-0.5375804527548133,-0.3792203018365422,2.86274135826444
1589542846.8794582,-0.19480103903926513,-4.1,8.767002597598163,0.5133333333333333,0.2888888888888889,-0.6166666666666667,-0.625,-0.3981266234988518,3.4006136355080376
1589542846.8894582,-0.16367361464158617,-4.072789357735977,8.757210642264022,0.5133333333333333,0.2888888888888889,-0.6166666666666667,-0.6930266056600576,-0.4090133028300288,3.596513302830029
1589542846.8994582,-0.15463669419450266,-4.045363305805497,8.784636694194502,0.5133333333333333,0.2888888888888889,-0.6166666666666667,-0.6051033064217922,-0.5244380161469246,3.7119380161469246
1589542846.9094582,-0.17562697688241663,-3.972283100176195,8.810835969176555,0.5133333333333333,0.29930687347716667,-0.6166666666666667,-0.6653934128685758,-0.625,3.845056201838368
1589542846.9194582,-0.21193945341990034,-3.873434244300166,8.866565755699835,0.5133333333333333,0.3088888888888889,-0.6166666666666667,-1.1492431677487542,-0.6707071946247924,3.966414389249585
1589542846.9294581,-0.1884138443956682,-3.79051045767047,8.823144919912203,0.5133333333333333,0.3088888888888889,-0.6166666666666667,-1.4474134725270738,-0.8059480835162443,4.07896538901083
1589542846.9394581,-0.06007147781285149,-3.184653314466093,8.860668335691738,0.5133333333333333,0.3088888888888889,-0.6166666666666667,-2.0041770980733644,-0.9731504662385254,4.0268495337614745
1589542846.9494581,-0.09095376863637218,-3.0638632047979844,8.954499050555567,0.5133333333333333,0.3088888888888889,-0.6166666666666667,-2.167329005997481,-1.126987017992442,3.238077892045348
1589542846.959458,-0.20325325089882734,-3.1882292261684757,8.931722724370822,0.5087081527278429,0.31443910561547733,-0.6222168833932551,-2.1875,-1.0314001545646987,3.499399381741205
1589542846.969458,-0.24079463615903976,-3.2030684546136534,8.885342273068266,0.5077777777777778,0.31555555555555553,-0.6233333333333333,-2.2741443173293323,-1.2166107933233308,5.531174981245312
1589542846.979458,-0.25737913926387446,-3.177862582208377,8.80358774662513,0.5077777777777778,0.31555555555555553,-0.6233333333333333,-1.8051841756086304,-1.2663803796007846,9.234416464751355
1589542846.989458,-0.25223404003876243,-3.131170200193812,8.834361719728662,0.5077777777777778,0.31555555555555553,-0.6233333333333333,-0.8484040038762438,-1.1043882507267957,12.773936987402207
1589542846.999458,-0.3358845920012688,-3.1028230815997464,8.828528851999684,0.5077777777777778,0.31555555555555553,-0.6233333333333333,0.15332911501149848,-0.5525602349924665,15.754470540033306
1589542847.009458,-0.4467539848272581,-3.0806492030345485,8.800811503793186,0.5077777777777778,0.31555555555555553,-0.6233333333333333,1.1580829874970262,0.10572678491184484,18.664792101715523
1589542847.019458,-0.36600798993859585,-3.189993341717837,8.938003994969298,0.5077777777777778,0.3088888888888889,-0.6088888888888889,0.3251414884959681,-1.212408448620256,30.986401383443074
1589542847.029458,-0.34246866369237305,-3.257405991077119,8.832719354153388,0.5077777777777778,0.3088888888888889,-0.6088888888888889,0.2719686105799872,-1.663964574038666,40.02878027405991
1589542847.039458,-0.359616512831539,-3.3136577949103865,8.837699076989233,0.5077777777777778,0.3088888888888889,-0.6088888888888889,0.625,-1.897861218189916,45.294799041666025
1589542847.049458,-0.378651924303636,-3.344232050464243,8.920187823375151,0.5077777777777778,0.3088888888888889,-0.6088888888888889,0.5529006308030335,-2.2511738960946914,49.80856191083706
1589542847.059458,-0.41265171096794107,-3.3257827630106864,8.948913815053432,0.5077777777777778,0.30607739756267976,-0.6182605266429193,0.4804309247328421,-2.5888577311832104,55.503187569924
1589542847.069458,-0.43,-3.3596618597712578,8.929915464942814,0.5077777777777778,0.3022222222222222,-0.6311111111111111,0.5320425161611139,-2.872886623570363,60.54295126802586
1589542847.079458,-0.41434240740416134,-3.3895616049361075,8.861712037020807,0.5077777777777778,0.3022222222222222,-0.6311111111111111,0.3722600308506722,-3.2554799382986555,64.99529899735316
1589542847.089458,-0.40543658735453264,-3.363690237936402,8.817182936772662,0.5077777777777778,0.3022222222222222,-0.6311111111111111,0.27852132903417093,-3.5788720257949747,68.60245487732563
1589542847.099458,-0.43648420601011817,-3.339406317595953,8.802922111585834,0.5077777777777778,0.3022222222222222,-0.6311111111111111,0.3493157725379431,-3.7168947424873524,71.42352607304385
1589542847.109458,-0.4713097261909068,-3.341309726190907,8.826548630954534,0.5190875039686845,0.2909124960313154,-0.6229429755287895,0.2961284226136651,-3.9702431547726698,74.06587287951676
1589542847.119458,-0.49653987142409783,-3.3444867095253006,8.809353804778308,0.5277777777777778,0.2822222222222222,-0.6166666666666667,0.49762258920183466,-4.084125803599388,76.3999484222742
1589542847.129458,-0.538313369397218,-3.4022894126738796,8.861928129829984,0.5277777777777778,0.2822222222222222,-0.6166666666666667,0.7853917117465224,-3.9646082882534777,78.57003477588871
1589542847.139458,-0.5503852907408658,-3.4211558722225974,8.815008779631254,0.5277777777777778,0.2822222222222222,-0.6166666666666667,1.1730515972175322,-3.5769484027824676,80.36892495947862
1589542847.149458,-0.5827712999808852,-3.426938849983492,8.74998939996872,0.5277777777777778,0.2822222222222222,-0.6166666666666667,1.2951793751194676,-3.466971562375102,81.64232062488053
1589542847.159458,-0.7431177993639981,-3.565419917632544,9.01237458077745,0.5277777777777778,0.2822222222222222,-0.6166666666666667,0.2930137539750117,-4.514690166298852,82.64448624602498
1589542847.169458,-0.7811250265336447,-3.534833368711526,8.864500106134578,0.5544444444444444,0.26222222222222225,-0.6233333333333333,0.8518228613882403,-4.090625663341116,87.35547123752919
1589542847.179458,-0.8199030619250309,-3.5268282301249485,8.893559522174927,0.5544444444444444,0.26222222222222225,-0.6233333333333333,0.4393175889056707,-4.935682411094329,90.74212378140876
1589542847.189458,-0.8708699177042861,-3.4827533881971426,8.856376694098572,0.5544444444444444,0.26222222222222225,-0.6233333333333333,0.36352754917857255,-4.983090563526784,92.8113030409643
1589542847.199458,-0.92,-3.4382140165787494,8.838035669429791,0.5544444444444444,0.26222222222222225,-0.6233333333333333,0.6104935945742276,-4.824777066063803,94.91407623712635
1589542847.2094579,-0.9261686756078698,-3.3838313243921303,8.857759040235415,0.5565006696470677,0.2457724206012362,-0.6342998677473239,0.9853915549016279,-4.990662667647558,98.26174711863128
1589542847.2194579,-0.9599810821036701,-3.3788804809349644,8.884478076260143,0.5611111111111111,0.2088888888888889,-0.6588888888888889,0.895754508765292,-5.18062124269559,100.87440881573968
1589542847.2294579,-1.0243858094188665,-3.3931574282565995,8.83859866813587,0.5611111111111111,0.2088888888888889,-0.6588888888888889,1.1524113088679155,-5.112943455660423,104.4309589541513
1589542847.2394578,-1.0602986383455533,-3.385756948335079,8.871215258324606,0.5611111111111111,0.2088888888888889,-0.6588888888888889,1.053038145811512,-5.25,106.93923708376975
1589542847.2494578,-1.1435628623620047,-3.419216106742912,8.854869351123819,0.5611111111111111,0.2088888888888889,-0.6588888888888889,1.121733778095465,-5.280433444523866,109.15647089190692
1589542847.2594578,-1.216816583701744,-3.4724221116023255,8.932871862707557,0.5573740925107236,0.1939408144873387,-0.6507920152547159,1.0047581543495667,-5.7329145925436,111.49610558011626
1589542847.2694578,-1.1720496771643167,-3.380538279088154,8.932049677164317,0.5544444444444444,0.18222222222222226,-0.6444444444444445,0.8929865594940045,-6.0625,113.01889247595203
1589542847.2794578,-1.171346556849749,-3.3011920658901506,8.9376158682197,0.5544444444444444,0.18222222222222226,-0.6444444444444445,1.0942327842487451,-6.1800495881865585,113.57091598031093
1589542847.2894578,-1.176842378282242,-3.2505271348467257,8.874475458834572,0.5544444444444444,0.18222222222222226,-0.6444444444444445,1.228617567867994,-5.879941889188054,113.728617567868
1589542847.2994578,-1.1383358067364229,-3.1350074202092686,8.888051020983225,0.5544444444444444,0.18222222222222226,-0.6444444444444445,1.0191152574530835,-5.786450603948678,113.55209879210264
1589542847.3094578,-1.1340858827865832,-3.015591596019167,8.946881680796167,0.5624730720399721,0.16884117622967607,-0.6520907564401851,0.9415315149281238,-5.724463232583855,113.07392646516772
1589542847.3194578,-1.1874506708760852,-2.912746645619574,8.941373322809788,0.5777777777777777,0.14333333333333334,-0.6666666666666666,1.3504834254143647,-5.367649960536701,112.33701657458563
1589542847.3294578,-1.2571040846790609,-2.95278735242231,8.870027140724657,0.5777777777777777,0.14333333333333334,-0.6666666666666666,1.589309947075587,-5.142929841226761,111.99111989415117
1589542847.3394578,-1.3054894044006977,-3.024510595599302,8.829021191198605,0.5777777777777777,0.14333333333333334,-0.6666666666666666,1.4938824449912798,-5.09680877750436,111.38855955993024
1589542847.3494577,-1.3462156008322537,-3.0154730498959683,8.86979645114435,0.5777777777777777,0.14333333333333334,-0.6666666666666666,1.2960328092490088,-5.3230540670513875,110.20187060809485
1589542847.3594577,-1.365845244639912,-2.961690489279824,8.983140461792193,0.5906603139698247,0.11864180563191008,-0.6768653411520371,0.8834524463991204,-5.74366066520066,108.28592289719626
1589542847.3694577,-1.483339583168864,-2.9524709876055897,8.976293518591616,0.6044444444444445,0.09222222222222222,-0.6877777777777778,1.2554287222704665,-5.373432195863267,106.192086227994
1589542847.3794577,-1.69894717144091,-3.0998759176623003,8.862445947891176,0.6044444444444445,0.09222222222222222,-0.6877777777777778,1.8125,-4.711494170145387,104.85468367640708
1589542847.3894577,-1.7890815413789403,-3.1818369172421197,8.87357078965258,0.6044444444444445,0.09222222222222222,-0.6877777777777778,1.3584229310529894,-4.846298168091882,103.75638439657948
1589542847.3994577,-1.7673911802754738,-3.0904345179210106,8.934782550795221,0.6044444444444445,0.09222222222222222,-0.6877777777777778,0.744564958907237,-5.065216926033027,102.6521728274104
1589542847.4094577,-1.651345295222199,-2.83966367619445,8.8806726476111,0.6039586433919837,0.0901669100771959,-0.6880019936481443,0.483183809722512,-4.61448988107657,101.59346964322971
1589542847.4194577,-1.6581206864039224,-2.7556149349424857,8.807904205166887,0.59,0.031111111111111114,-0.6944444444444444,0.06641523665849519,-4.511745709975486,100.24473175561003
1589542847.4294577,-1.678335271881361,-2.715121401570224,8.821849738296017,0.59,0.031111111111111114,-0.6944444444444444,0.7470376562954347,-5.382081001017738,99.07030341305612
1589542847.4394577,-1.8050964728183603,-2.775237966285289,8.895508090176698,0.59,0.031111111111111114,-0.6944444444444444,2.3123392119693995,-5.314268668336606,97.4383843341683
1589542847.4494576,-1.7388511591443612,-2.616553477433083,8.898302161496249,0.59,0.031111111111111114,-0.6944444444444444,0.8608872774106844,-4.9885751483928775,95.67126497928099
1589542847.4594576,-1.7759333593987576,-2.6203618749728483,9.311085624918546,0.5846486718700976,0.015057126721404059,-0.7104984288341515,-0.38404687432121287,-5.849404296450758,93.98833300751554
1589542847.4694576,-1.82,-2.5350882154882153,9.111996296296297,0.5755555555555556,-0.012222222222222223,-0.7377777777777778,1.6386952861952861,-4.053331228956229,93.5193244949495
1589542847.4794576,-1.886523658700451,-2.5141904213456185,9.116523658700451,0.5755555555555556,-0.012222222222222223,-0.7377777777777778,0.3949455322007869,-4.980054467799214,92.41547893271907
1589542847.4894576,-1.93,-2.53,9.16,0.5755555555555556,-0.012222222222222223,-0.7377777777777778,-1.0625,-6.4375,91.625
1589542847.4994576,-1.8263469260051104,-2.3698088856442614,8.877309798195755,0.5755555555555556,-0.012222222222222223,-0.7377777777777778,0.3509510090212231,-4.552898654638369,90.80048691140429
1589542847.5094576,-1.8848039152965261,-2.3655991299341053,8.938398694901158,0.5735554347130702,-0.02422294727713447,-0.7297772944078362,2.2449619346171072,-3.600013594779605,89.77246737252895
1589542847.5194576,-1.9258329355608592,-2.2963723150357995,9.065785202863962,0.57,-0.045555555555555564,-0.7155555555555555,0.03430787589498796,-4.899821002386635,88.07628281622911
1589542847.5294576,-1.862004340777156,-2.257780189320642,9.166206788347889,0.57,-0.045555555555555564,-0.7155555555555555,-0.7749186104283249,-5.440193373777522,87.01387381674598
1589542847.5394576,-1.9396631129094588,-2.2703368870905414,8.853819190288924,0.57,-0.045555555555555564,-0.7155555555555555,1.2710767543361143,-3.4768177013480033,86.76334221772635
1589542847.5494576,-1.9849248473461718,-2.2519398778769375,8.958647252231094,0.57,-0.045555555555555564,-0.7155555555555555,1.7985409816815405,-2.9710544856740255,86.31437881634571
1589542847.5594575,-1.926394025604552,-2.2000924608819346,9.389089615931722,0.5651801801801801,-0.05164374901217007,-0.7249415204678362,-0.323346372688478,-4.455769914651493,85.56592283072547
1589542847.5694575,-1.7133884337583014,-2.026495871507748,8.885760337389113,0.5488888888888889,-0.07222222222222223,-0.7566666666666667,1.3333161649457883,-2.5607437749446573,86.02153925703298
1589542847.5794575,-1.8903966005665722,-2.182979098078248,9.156421407242938,0.5488888888888889,-0.07222222222222223,-0.7566666666666667,3.74668861496057,-1.2168861496056964,85.90355351810734
1589542847.5894575,-1.5308163265306123,-1.7336734693877551,8.271020408163265,0.5488888888888889,-0.07222222222222223,-0.7566666666666667,2.1760204081632653,-1.3903061224489797,81.45535714285714
1589542847.5994575,-1.5340531792606933,-1.8304897452961462,8.958484179321193,0.5488888888888889,-0.07222222222222223,-0.7566666666666667,-1.4003323703793333,-3.6873544225300985,77.39491008227964
1589542847.6094575,-1.7536061221302515,-1.968736529751679,9.80048570982352,0.5436101133149391,-0.08483263053776877,-0.7566666666666667,-1.535325238169608,-7.3424859440887085,72.51464157426207
1589542847.6194575,-1.7415300020619973,-1.819224001649598,9.049961509382088,0.5288888888888889,-0.12,-0.7566666666666667,1.9327531101793938,-1.3846312461337549,69.7741812152038
1589542847.6294575,-1.8878847510354682,-1.8984609958581273,9.348840456510336,0.5288888888888889,-0.12,-0.7566666666666667,0.5679022952124293,-2.455551737235255,65.71271071099133
1589542847.6394575,-1.8942979556035355,-1.838595911207071,8.754469334053033,0.5288888888888889,-0.12,-0.7566666666666667,0.19600777612846637,-3.5021422306187167,62.38538222791984
1589542847.6494575,-1.8079597307670054,-1.7419619679466163,8.616042506412604,0.5288888888888889,-0.12,-0.7566666666666667,-0.18798938303986412,-2.12562920676554,59.48682884611676
1589542847.6594574,-1.7352226589144768,-1.6681781271315814,8.645465618605256,0.5210616313523384,-0.13213224918165314,-0.7672334643410097,-0.3552635852795012,-2.7117919089225975,56.91700433624582
1589542847.6694574,-1.7358237383530382,-1.7162249257854727,8.878832644096299,0.5066666666666667,-0.15444444444444444,-0.7866666666666666,0.35794138339310533,-2.457066038059612,53.919187672666745
1589542847.6794574,-1.6245018760512355,-1.7045018760512356,9.48334584034157,0.5066666666666667,-0.15444444444444444,-0.7866666666666666,-1.6855026523482985,-5.088639377668521,50.63668893129771
1589542847.6894574,-1.7476588760246103,-1.6865626167122048,9.155934582194877,0.5066666666666667,-0.15444444444444444,-0.7866666666666666,0.40138432960509507,-1.946255872466731,46.80467291097439
1589542847.6994574,-2.041700521724256,-1.7082994782757441,8.90465467841259,0.5066666666666667,-0.15444444444444444,-0.7866666666666666,1.7421647814745125,1.3459082599213137,44.80339521681491
1589542847.7094574,-1.999045608108108,-1.7442736486486485,9.321410472972973,0.503591403903904,-0.1601707957957958,-0.7871968843843844,-1.4434649493243243,-1.3363597972972974,43.30083403716216
1589542847.7194574,-2.1071390198655022,-1.7117933060214887,9.308104081317152,0.4744444444444445,-0.21444444444444444,-0.7922222222222223,-0.529516841230579,-0.6601209225477314,45.05604081317152
1589542847.7294574,-2.3694315169366718,-1.7541973490427099,9.455234167893963,0.4744444444444445,-0.21444444444444444,-0.7922222222222223,1.4303939617083947,0.9697441089837997,47.05277982326951
1589542847.7394574,-2.0225349252761533,-1.5894363222871994,8.99112573099415,0.4744444444444445,-0.21444444444444444,-0.7922222222222223,-1.4920758203378817,-2.3160179093567255,49.49120268843405
1589542847.7494574,-1.8522011046133855,-1.4122891487979206,8.377923976608187,0.4744444444444445,-0.21444444444444444,-0.7922222222222223,-0.5126563515269655,-0.39976242690058506,52.77012873619233
1589542847.7594573,-2.061615061162079,-1.5838061926605504,9.250379587155964,0.4664154349303432,-0.22109705232755691,-0.7883224176010873,1.1229811735474007,0.012903765290519877,57.21655437691132
1589542847.7694573,-2.2570723660358203,-1.5603081719962295,8.569553331883112,0.4355555555555555,-0.2466666666666667,-0.7733333333333333,0.815291675730549,0.04227621274744399,59.267334674787904
1589542847.7794573,-2.1220239959185827,-1.58,9.312661189592387,0.4355555555555555,-0.2466666666666667,-0.7733333333333333,-2.739880020407086,-2.225449923473427,60.92775495663494
1589542847.7894573,-2.2695988952025754,-1.58,9.688977182766568,0.4355555555555555,-0.2466666666666667,-0.7733333333333333,-2.0020055239871226,-4.992479285048291,62.495738261527364
1589542847.7994573,-2.036336737650297,-1.4509041358829493,9.00363990294075,0.4355555555555555,-0.2466666666666667,-0.7733333333333333,3.539555944879038,1.130845511009706,67.59104623895408
1589542847.8094573,-1.8190419787493468,-1.4264135168089183,9.150315276084305,0.43244808298980036,-0.24942886450289345,-0.7748007509338288,0.778403152760843,2.0113547291412646,68.98057829646403
1589542847.8194573,-2.5530538309340245,-1.6077846762639012,9.808367333014942,0.3955555555555556,-0.2822222222222222,-0.7922222222222223,-1.69638227468104,-4.106079859452821,70.63879033908712
1589542847.8294573,-2.59,-1.46,9.08,0.3955555555555556,-0.2822222222222222,-0.7922222222222223,2.625,-0.3125,72.75
1589542847.8394573,-1.7389459084604715,-1.3496809986130376,9.156269070735089,0.3955555555555556,-0.2822222222222222,-0.7922222222222223,2.0614597780859913,0.32541608876560346,75.3001040221914
1589542847.8494573,-1.850964622041232,-1.428172562993128,10.291405701196235,0.3955555555555556,-0.2822222222222222,-0.7922222222222223,-5.280931852888775,-10.938863260371596,72.2345491855434
1589542847.8594573,-2.316666559557855,-1.332962951061984,8.96234568297934,0.3793964061423334,-0.2994238974040394,-0.769026023870984,-1.1064795475723788,-5.459101169628225,72.00848904276855
1589542847.8694572,-2.11,-1.31,8.97,0.32666666666666666,-0.3555555555555556,-0.6933333333333334,2.625,1.8125,74.6875
1589542847.8794572,-2.0681048125567516,-1.254139750075669,8.71164634409997,0.32666666666666666,-0.3555555555555556,-0.6933333333333334,1.7521835949323301,0.7651203139187963,78.35332890128421
1589542847.8894572,-2.0310950854700853,-1.3501168091168092,9.799065527065528,0.32666666666666666,-0.3555555555555556,-0.6933333333333334,-0.251460113960114,-6.187682514245014,83.81286502849002
1589542847.8994572,-2.8031155444721527,-1.406884455527847,9.272688279301747,0.32666666666666666,-0.3555555555555556,-0.6933333333333334,0.06830839567747304,-4.6149522028262675,84.64038861180383
1589542847.9094572,-2.822074744075165,-1.3463880708643015,9.484985275557426,0.3294759448833211,-0.35395025371746736,-0.6843035104940869,2.3530813233300614,-1.8145479829850886,86.0060636072547
1589542847.9194572,-2.554712396185789,-1.302472470009228,9.221762534604737,0.3422222222222222,-0.3466666666666667,-0.6433333333333333,-1.907359274069517,-7.7713434327899105,86.30584435558289
1589542847.9294572,-2.115138552552455,-1.1416577548798128,9.18884054673406,0.3422222222222222,-0.3466666666666667,-0.6433333333333333,-0.6840514229062719,-5.974796437452258,88.93853304945635
1589542847.9394572,-1.8970014139673974,-0.9916884721025858,8.800283768629427,0.3422222222222222,-0.3466666666666667,-0.6433333333333333,1.574008800728112,-4.142785312616814,90.38709998537276
1589542847.9494572,-1.7499751996719326,-1.0300496006561348,9.603151203889942,0.3422222222222222,-0.3466666666666667,-0.6433333333333333,-0.1775749868187232,-5.721929983010799,85.74348503192797
1589542847.9594572,-1.725483390050235,-0.9334658888348728,9.068920110192837,0.3422222222222222,-0.3457039197680909,-0.6448737283710546,-1.5268149408523741,-7.435196888672825,80.07351320693567
1589542847.9694571,-1.4829528222409436,-0.8917017691659646,9.065796124684077,0.3422222222222222,-0.3411111111111111,-0.6522222222222223,2.0804549283909015,-2.0885899326032016,74.40540754001685
1589542847.9794571,-1.8137550089982004,-0.79,8.5031224955009,0.3422222222222222,-0.3411111111111111,-0.6522222222222223,2.257975404919016,-0.6795245950809837,69.9733548290342
1589542847.9894571,-1.9779427812307255,-0.7932120320728757,8.652294918631684,0.3422222222222222,-0.3411111111111111,-0.6522222222222223,0.9174247995445272,-2.36135360819851,65.86935996583954
1589542847.9994571,-1.7802100508187464,-0.8476662902315076,9.593629023150761,0.3422222222222222,-0.3411111111111111,-0.6522222222222223,0.2948510728402033,-4.410735460191982,61.93487436476567
1589542848.009457,-1.8993280156275436,-0.977447175647078,10.479104020836726,0.3427646282127806,-0.3415760305315897,-0.6507499773907067,-0.9624104671984373,-7.413145043138532,59.59161036952629
1589542848.019457,-1.4737454937888912,-0.8591194232049781,9.194312415329154,0.35,-0.3477777777777778,-0.6311111111111111,4.53075991366444,1.178905191614429,54.973914204036646
1589542848.029457,-2.0888344479643317,-0.8954783526927138,8.705159450897572,0.35,-0.3477777777777778,-0.6311111111111111,1.1414672063827291,-4.642250381321131,42.003629883843715
1589542848.039457,-1.5778098809496917,-0.7250525221948629,8.960672284094247,0.35,-0.3477777777777778,-0.6311111111111111,-3.298023923012628,-5.67394306142273,26.01198127273138
1589542848.049457,-1.984778206364513,-0.7524505785920926,9.784396094503375,0.35,-0.3477777777777778,-0.6311111111111111,-3.8588325699132113,-7.172101012536162,19.799873432979748
1589542848.059457,-1.8399792449100614,-0.5339958489820122,9.160450681952955,0.3510245766620544,-0.34815345588719776,-0.6319649249961564,1.1990264874481122,-0.3288940502075509,14.862707550899387
1589542848.069457,-2.1983436381386268,-0.6029521640091117,9.096098275301008,0.38333333333333336,-0.36,-0.6588888888888889,0.9342946631955744,0.3779450048812236,6.321335014643671
1589542848.079457,-1.4450343844764446,-0.5179619533696787,8.271625432912986,0.38333333333333336,-0.36,-0.6588888888888889,-1.261448373572837,-2.2924834705950587,-1.3518743682370293
1589542848.089457,-1.3199289111306278,-0.8585268530332908,9.432326213399175,0.38333333333333336,-0.36,-0.6588888888888889,-3.824373001143387,-5.637317306576963,-9.692239257958143
1589542848.099457,-2.185966461801457,-1.024940372013513,9.253914282225569,0.38333333333333336,-0.36,-0.6588888888888889,1.4522670845374253,5.643944096218812,-19.534456530587324
1589542848.109457,-2.920041515731206,-0.8030107045463797,8.075979893361554,0.38333333333333336,-0.36,-0.6588888888888889,2.732630550693964,4.576974541088363,-22.52197128495258
1589542848.119457,-2.4383475199537026,-0.799553664006173,8.795379904029321,0.3555555555555556,-0.3655555555555556,-0.6877777777777778,-3.4010859998553205,-3.343185599575607,-24.643696800173615
1589542848.129457,-1.94322682826057,-0.784743836937061,8.84710577055502,0.3555555555555556,-0.3655555555555556,-0.6877777777777778,-2.151571753202038,-1.3095475829775514,-26.289005474452555
1589542848.139457,-1.2322885803185808,-0.6765884920819207,8.767498258486974,0.3555555555555556,-0.3655555555555556,-0.6877777777777778,-0.3612739748293317,-0.7631484233502067,-30.69274195420982
1589542848.149457,-1.6723249153866182,-0.7879067951054413,9.26391825045561,0.3555555555555556,-0.3655555555555556,-0.6877777777777778,0.2622526685758917,3.0515002603488677,-38.8552785732882
1589542848.159457,-1.0255360182644744,-0.6115098231630385,7.306751847475617,0.3555555555555556,-0.3655555555555556,-0.6877777777777778,2.0472220275168724,8.1439128432099,-43.21270377305589
1589542848.169457,-1.5703440974060352,-0.9585512616904888,9.20703193929769,0.34740230966805874,-0.38390035880242335,-0.6684138187949729,-2.351718281277572,-1.2715391741662252,-54.486191988706544
1589542848.179457,-1.7706361959034962,-1.0412723918069926,9.626287455917042,0.3466666666666667,-0.3855555555555555,-0.6666666666666666,-2.611611626223229,0.9890653829086579,-71.31787315785786
1589542848.189457,-1.7528548612497503,-0.821428096093698,7.942857523125041,0.3466666666666667,-0.3855555555555555,-0.6666666666666666,-1.2634133559592735,4.254437845211951,-80.95531792773009
1589542848.199457,-2.152412852509719,-0.9476273115831526,8.090120492278615,0.3466666666666667,-0.3855555555555555,-0.6666666666666666,1.4771284821409394,8.327329302605296,-88.65444785111364
1589542848.209457,-2.2126234938780813,-1.227619759020493,9.303861517976033,0.34542864256871597,-0.3923646880942843,-0.6652910843356103,-2.5735076808158226,6.132461595920886,-96.57378373550713
1589542848.219457,-1.11507418791323,-1.1035243128496561,8.652419565265463,0.32666666666666666,-0.4955555555555556,-0.6444444444444445,-3.1100062468213077,1.4106939499812041,-107.25503615416933
1589542848.229457,-1.273354655498824,-1.2810357982904022,9.762382823704893,0.32666666666666666,-0.4955555555555556,-0.6444444444444445,-1.8627983190866846,4.139838864666399,-119.26667646721359
1589542848.239457,-1.1590587172279274,-1.3712694337674258,9.214965435144284,0.32666666666666666,-0.4955555555555556,-0.6444444444444445,-2.6147452813952157,6.884445277092537,-129.79393393953302
1589542848.249457,-1.0754719838465423,-1.4013679959616354,8.755567895002525,0.32666666666666666,-0.4955555555555556,-0.6444444444444445,-1.7505994447248863,8.494100201918224,-149.6882571933367
1589542848.2594569,-1.1957928533000122,-1.4529654119157946,9.017930442026344,0.32666666666666666,-0.4955555555555556,-0.6444444444444445,-2.3073261050658616,7.1969854740459205,-163.71118385658008
1589542848.2694569,-1.3340314078629476,-1.7596742074822462,8.99726004831979,0.3284946026632827,-1.1024303064320635,0.04651536227639885,-1.8135181016179809,9.37899919467018,-184.01999597335092
1589542848.2794569,-1.6742242592197827,-2.049329354082285,8.983723726284374,0.3288888888888889,-1.2333333333333334,0.1955555555555556,-1.872122148795566,11.779279471328074,-200.76614261351523
1589542848.2894568,-1.3562552045064904,-2.1572018123928487,8.664568332108743,0.3288888888888889,-1.2333333333333334,0.1955555555555556,-2.83101809331374,10.399434392603478,-218.4246494611805
1589542848.2994568,-1.4247391623806025,-2.3455326965466567,9.152516531961792,0.3288888888888889,-1.2333333333333334,0.1955555555555556,-2.3494902645113886,10.666949853049228,-229.23227406318884
1589542848.3094568,-2.474034623525854,-2.799079981856668,8.506986694889628,0.3288888888888889,-1.2333333333333334,0.1955555555555556,-2.373483330813426,13.00486657091019,-233.96543317205928
1589542848.3194568,-1.9509300126103406,-2.8261491172761666,8.829131462799495,0.6599457930503012,-0.5918545081967214,-0.5185942973238055,-3.535717804224464,10.690598400063053,-234.46622793190417
1589542848.3294568,-1.7647331953567893,-2.9578385674435346,8.952959596868531,0.7388888888888889,-0.4388888888888889,-0.6888888888888889,-4.179862548366778,11.363228876091064,-239.40033631782597
1589542848.3394568,-2.1783591276374783,-3.0755741026875048,7.261697864687555,0.7388888888888889,-0.4388888888888889,-0.6888888888888889,0.4467121760936194,17.71582360242154,-239.32377339851567
1589542848.3494568,-1.5631319494154141,-3.232967629046369,8.962585858585859,0.7388888888888889,-0.4388888888888889,-0.6888888888888889,-3.445746838463374,8.119502107691083,-240.71532152230972
1589542848.3594568,-1.58314769744691,-3.3797497812773405,9.809919191919192,0.7388888888888889,-0.4388888888888889,-0.6888888888888889,-4.696731090431878,7.285512606378748,-242.09140419947508
1589542848.3694568,-1.4813857386981513,-3.387831805706592,8.810994510900523,0.5911111111111111,-0.17888888888888888,-0.7233333333333334,-1.7198811558179277,14.380644451348973,-244.61069468178758
1589542848.3794568,-1.6860133290137456,-3.826676540010182,9.215313092979127,0.5911111111111111,-0.17888888888888888,-0.7233333333333334,-3.0416358124681815,11.787537025038182,-246.14996297496182
1589542848.3894567,-1.898508390800016,-3.99104516283334,8.842985809383345,0.5911111111111111,-0.17888888888888888,-0.7233333333333334,-2.444032267708375,12.387129040937538,-245.16419360625025
1589542848.3994567,-1.6978801769840952,-3.907450073743373,8.68415514011241,0.5911111111111111,-0.17888888888888888,-0.7233333333333334,-1.9215629608960816,11.916906664806474,-242.0293777653765
1589542848.4094567,-2.3718688880840273,-4.189326989562412,8.814663494781206,0.5911111111111111,-0.17888888888888888,-0.7233333333333334,-2.5432824487175267,11.442581944947483,-239.1948024019624
1589542848.4194567,-2.038473231156834,-3.9199731261809783,8.794067604450976,0.6164624536356638,-0.07295649333986515,-0.7115630671612196,-3.44679036321646,10.729138673105187,-231.98344793197563
1589542848.4294567,-2.1657195813344963,-4.532799389446141,9.6598582642826,0.6222222222222222,-0.048888888888888885,-0.7088888888888889,-1.387145660706498,11.298089293501963,-223.5487134757959
1589542848.4394567,-1.3234258899544034,-4.15296910462715,8.311061402253255,0.6222222222222222,-0.048888888888888885,-0.7088888888888889,1.9283193101192058,16.02731715296379,-218.9235334410207
1589542848.4494567,-1.4520669842762794,-4.2644580530394425,9.477407324104934,0.6222222222222222,-0.048888888888888885,-0.7088888888888889,-3.110123550820946,7.665646022041834,-220.74594894391396
1589542848.4594567,-1.479097003452708,-3.979798886060637,9.021403765215858,0.6222222222222222,-0.048888888888888885,-0.7088888888888889,-4.153637629476549,7.693981703167923,-219.52173693893496
1589542848.4694567,-1.5756168270890056,-4.052971967634313,8.776121486367298,0.59607061139446,0.022210803049089664,-0.7088888888888889,-3.084228918203781,7.950408885224527,-215.3756423284887
1589542848.4794567,-19.389085576661618,-20.90571262090665,19.839026143029173,0.5866666666666667,0.04777777777777778,-0.7088888888888889,8.72767839801111,77.30317950510819,-147.80182476789807
1589542848.4894567,-0.2448424814512684,-5.802126791749211,6.7557689468981845,0.5866666666666667,0.04777777777777778,-0.7088888888888889,-36.536236792526125,16.917348890960646,-379.77302567688304
1589542848.4994566,-1.8720044710754402,-0.20965770619170654,-2.397982335587195,0.5866666666666667,0.04777777777777778,-0.7088888888888889,-74.06897183588954,-20.09841748666923,-462.55700277609805
1589542848.5094566,-1.0342665787110843,-2.461558646216994,1.1681679585142835,0.5866666666666667,0.04777777777777778,-0.7088888888888889,-86.22193552672567,5.69660821285251,-375.22859174866693
1589542848.5194566,-0.85,-2.11,-0.13,0.5911111111111111,0.17333333333333334,-0.6666666666666666,55.25,5.0,-322.1875
1589542848.5294566,-0.85,-2.11,-0.13,0.5911111111111111,0.17333333333333334,-0.6666666666666666,55.25,5.0,-322.1875
1589542848.5394566,-1.275115966084967,0.19775111031357945,9.032030864474452,0.5911111111111111,0.17333333333333334,-0.6666666666666666,19.88278341034498,40.353477861020146,-227.8985997712081
1589542848.5494566,1.2556513839666235,-1.8343892153784038,9.737635144228612,0.5911111111111111,0.17333333333333334,-0.6666666666666666,-46.032416390022874,-9.685625644879096,-169.21584383832038
1589542848.5594566,0.9609042951816966,-1.4703514907498567,8.46022526560181,0.5911111111111111,0.17333333333333334,-0.6666666666666666,-11.082890357515467,5.067692643968673,-153.80620894743802
1589542848.5694566,0.8867963052989791,-1.6870879922216822,8.237767784799871,0.5578100974090279,0.2684790867678568,-0.6795793046327806,11.940533341435748,12.268200048614487,-132.51030019445795
1589542848.5794566,0.8633162647402528,-2.6377373844682883,10.265510039307342,0.5366666666666666,0.3288888888888889,-0.6877777777777778,-9.323729151173909,1.4026319983002231,-97.45294273876554
1589542848.5894566,0.24840773398491456,-2.922912355253373,8.625753957293107,0.5366666666666666,0.3288888888888889,-0.6877777777777778,-0.5234077871029434,7.028153882927866,-77.29018113247636
1589542848.5994565,0.24184327784891166,-3.0731277848911653,9.22172752880922,0.5366666666666666,0.3288888888888889,-0.6877777777777778,-0.25453585147247115,3.552746478873239,-60.91558578745199
1589542848.6094565,0.2325513608428446,-2.7954725197541705,8.476581913959613,0.5366666666666666,0.3288888888888889,-0.6877777777777778,-2.1540671641791045,2.404837576821773,-37.427693151887624
1589542848.6194565,0.2134208784767523,-2.9365857394066595,8.774228638417759,0.5154672750917575,0.3639775370128765,-0.6826606832596963,0.14974615690056137,1.886490300073742,-22.81225182937206
1589542848.6294565,0.31174552082525403,-3.171745520825254,8.62127239587373,0.5044444444444445,0.38222222222222224,-0.68,2.9546289653300244,2.246839370200884,-6.028649267044132
1589542848.6394565,0.2430400111919418,-3.29194180190263,9.209672635702296,0.5044444444444445,0.38222222222222224,-0.68,-0.3044995103525463,-0.44231778119753784,1.9338626189143815
1589542848.6494565,0.1817379231647014,-3.0291171548117153,8.424882464815518,0.5044444444444445,0.38222222222222224,-0.68,-0.9845687523773299,1.1423283567896538,13.6516403575504
1589542848.6594565,0.18,-3.01,9.096695018226002,0.5044444444444445,0.38222222222222224,-0.68,0.44380315917375457,-0.9385125556905631,19.559234507897933
1589542848.6694565,0.11186738277215452,-2.951600613804704,8.67600613804704,0.4611856398553362,0.40925897509041487,-0.7146070436712866,1.0541634697671673,-0.09918073302446384,26.468273231622746
1589542848.6794565,0.14566670287887018,-2.9856667028788704,8.972083650190115,0.46,0.41,-0.7155555555555555,1.675521455730581,-0.22968766974470398,32.2536515480717
1589542848.6894565,-0.14060141030844156,-3.4680861911525973,8.747521306818182,0.46,0.41,-0.7155555555555555,0.4024531376826299,-1.3046018922483766,39.73382330560065
1589542848.6994565,11.048625282492667,-9.393781795451268,3.5195552243111985,0.46,0.41,-0.7155555555555555,-5.6192449632158485,-0.4259208058854642,101.3437905707554
1589542848.7094564,5.307180563075257,-3.936177585273417,8.073479967514889,0.46,0.41,-0.7155555555555555,-4.103233283703303,-17.931552855982673,109.67859197347049
1589542848.7194564,0.8338880665679882,-2.3250082009841178,11.13277713325599,0.46882719259644495,0.4045678814791108,-0.6883949629511097,7.24656458775053,-2.6839295715485854,86.2117079049486
1589542848.7294564,-0.9843279092027895,-2.632031724326542,6.023453028852727,0.4744444444444445,0.4011111111111111,-0.6711111111111111,8.675531587583755,10.699716258717352,40.09964446875427
1589542848.7394564,-0.07458255983762774,-3.69917774312517,10.059190366575084,0.4744444444444445,0.4011111111111111,-0.6711111111111111,-7.7632236825821135,-14.417088995321897,17.34143183337046
1589542848.7494564,-0.01722542950546011,-3.9805780065382206,8.23196563956319,0.4744444444444445,0.4011111111111111,-0.6711111111111111,-2.414740847650182,-0.8222566135726037,0.96351377199694
1589542848.7594564,-0.14807280811449214,-4.241078227039044,8.718167291927191,0.4744444444444445,0.4011111111111111,-0.6711111111111111,-0.6670314019730443,-0.09754064193413925,-4.235176115047937
1589542848.7694564,-0.0006568845591035932,-4.355501834145168,8.837577525206967,0.4974548925014978,0.38993460776911376,-0.6796578489608738,-0.7932540040491511,-0.4859432317036503,-4.475991991901698
1589542848.7794564,0.10739837966196397,-4.319729012431904,8.820270987568096,0.5133333333333333,0.38222222222222224,-0.6855555555555556,0.14634114401452702,0.23797405363877644,-2.4940721469478975
1589542848.7894564,0.1183339757516294,-4.232775422244026,8.852222650501085,0.5133333333333333,0.38222222222222224,-0.6855555555555556,0.8298704797112622,0.42360843436821083,-1.3367801264980026
1589542848.7994564,0.06923926002846045,-4.1520245375177876,8.753668705049806,0.5133333333333333,0.38222222222222224,-0.6855555555555556,0.14555209415022496,0.7072852967193569,-0.4477760470751125
1589542848.8094563,0.1485058972896388,-4.251640016928257,8.844774136566876,0.5133333333333333,0.38222222222222224,-0.6855555555555556,-1.0279707251550223,-0.2546472206377537,-0.2304117522586343
1589542848.8194563,0.11670184224646754,-4.323883026292255,8.812818815954213,0.5133333333333333,0.38222222222222224,-0.6909545102247661,-0.675695313897335,-0.4654243426936147,-0.1875
1589542848.8294563,0.08,-4.234060236192961,8.806899909156554,0.5133333333333333,0.38222222222222224,-0.6933333333333334,0.7022475018052223,0.10262397801122736,-0.14137511355430807
1589542848.8394563,0.047292682277098486,-4.2,8.746408535123471,0.5133333333333333,0.38222222222222224,-0.6933333333333334,0.9091844481738991,0.14778963211593277,-0.07389481605796638
1589542848.8494563,0.11004390341249251,-4.214008780682498,8.82806146477749,0.5133333333333333,0.38222222222222224,-0.6933333333333334,0.13078352624226708,0.125,-0.01872256036719218
1589542848.8594563,0.11741513484502886,-4.251618811216959,8.815796323628069,0.5133333333333333,0.38222222222222224,-0.6933333333333334,-0.5262729773245673,-0.0161554072185697,-0.08469324433114182
1589542848.8694563,0.09603358878199902,-4.286983205609,8.765083971954997,0.5096461401887783,0.3798758265847782,-0.6889757414352229,-0.8243702103375183,-0.11208014022501223,-0.11208014022501223
1589542848.8794563,0.09011205476797882,-4.28,8.78674136984532,0.5011111111111111,0.3744444444444445,-0.6788888888888889,0.017565069267284517,0.02106678076662253,0.02106678076662253
1589542848.8894563,0.10477538582522364,-4.205673842524329,8.804775385825224,0.5011111111111111,0.3744444444444445,-0.6788888888888889,0.6221923228152955,0.07742308070382385,0.07742308070382385
1589542848.8994563,0.09639551595286001,-4.20720896809428,8.79639551595286,0.5011111111111111,0.3744444444444445,-0.6788888888888889,0.4067979304397816,0.014353981029031335,0.014353981029031335
1589542848.9094563,0.10297200349956255,-4.2514860017497815,8.791486001749782,0.5011111111111111,0.3744444444444445,-0.6788888888888889,-0.3057250656167979,-0.24196877734033245,-0.026606244531933512
1589542848.9194562,0.11211172713874658,-4.283664818583761,8.8,0.5011111111111111,0.38802980326104763,-0.6788888888888889,-0.649650852691417,-0.30104744192574917,0.02465085269141694
1589542848.9294562,0.1,-4.3034698419764075,8.816530158023593,0.5011111111111111,0.4088888888888889,-0.6788888888888889,-0.44643519548927957,-0.2047189146079086,0.028062170784182806
1589542848.9394562,0.09189292819678062,-4.2518929281967806,8.807304033279074,0.5011111111111111,0.4088888888888889,-0.6788888888888889,0.4408459938506059,-0.047323204919515305,-0.03716540061493941
1589542848.9494562,0.08,-4.22627139179161,8.760889368468877,0.5011111111111111,0.4088888888888889,-0.6788888888888889,0.7052452483719521,0.099843347720733,0.02145095032560957
1589542848.9594562,0.08415852297703987,-4.220792614885199,8.82,0.5011111111111111,0.4088888888888889,-0.6788888888888889,0.11013847090251244,-0.08353692557400332,0.03650923139350083
1589542848.9694562,0.10087205882352941,-4.260872058823529,8.822718014705883,0.49960110294117643,0.40284885620915034,-0.6828149101307189,-0.5054503676470589,0.02852481617647059,0.016987591911764705
1589542848.9794562,0.11161881630026364,-4.29,8.811618816300264,0.4955555555555556,0.38666666666666666,-0.6933333333333334,-0.5151764028149717,-0.005058800938323893,0.033779400469161946
1589542848.9894562,0.09,-4.262950178541065,8.773770107124639,0.4955555555555556,0.38666666666666666,-0.6933333333333334,0.16087187553137222,0.028687723176330553,0.0676245536473389
1589542848.9994562,0.10289395553339528,-4.233553022233303,8.798681866600186,0.4955555555555556,0.38666666666666666,-0.6933333333333334,0.4416191668744192,0.161174444167441,0.08470638895813976
1589542849.0094562,0.1046752351605579,-4.23,8.825324764839442,0.4955555555555556,0.38666666666666666,-0.6933333333333334,0.042202197534868646,0.017041538274408047,0.029220219753486862
1589542849.0194561,0.10816034575904916,-4.246320691518099,8.83,0.5055293114832823,0.38666666666666666,-0.6901598655381476,-0.3775054024851432,-0.1875,0.051002160994057265
1589542849.0294561,0.11412209114414996,-4.2641220911441495,8.800610455720749,0.52,0.38666666666666666,-0.6855555555555556,-0.4155522786037492,-0.2609738606981254,0.014789208952811897
1589542849.0394561,0.10299786008956739,-4.245995720179135,8.758993580268703,0.52,0.38666666666666666,-0.6855555555555556,0.25642386772265,-0.049919753358776964,-0.01873662555979616
1589542849.0494561,0.1,-4.211017811054609,8.807964377890782,0.52,0.38666666666666666,-0.6855555555555556,0.72642335113587,0.153069340454348,0.045284670227173994
1589542849.059456,0.11167825223435948,-4.217517378351539,8.847517378351538,0.52,0.38666666666666666,-0.6855555555555556,0.2650819265143992,0.07801638530287984,0.09899453823237339
1589542849.069456,0.1070772857236397,-4.251537857127268,8.838462142872732,0.5142565714327287,0.38666666666666666,-0.6826838412719199,-0.25961160704541986,-0.05384464281816793,0.09807767859091604
1589542849.079456,0.09536331360946745,-4.2853633136094675,8.820726627218935,0.5066666666666667,0.38666666666666666,-0.6788888888888889,-0.4039792899408284,-0.125,0.1295414201183432
1589542849.089456,0.09342479154050402,-4.25712395770252,8.783973540783528,0.5066666666666667,0.38666666666666666,-0.6788888888888889,-0.04623957702520143,0.1215703172310989,0.06421484138445055
1589542849.099456,0.10039993891147891,-4.2244000916327815,8.796399786190175,0.5066666666666667,0.38666666666666666,-0.6788888888888889,0.31999885459022964,0.12000076360651357,0.06499961819674321
1589542849.109456,0.10690415200044229,-4.213095847999558,8.83,0.5066666666666667,0.38666666666666666,-0.6788888888888889,0.3645566500193502,0.0,0.08630190000552862
1589542849.119456,0.10335003739715783,-4.228375093492894,8.83167501869858,0.5066666666666667,0.3859222139117427,-0.6800055680212749,-0.021250934928945406,-0.0418754674644727,0.010468866866118176
1589542849.129456,0.11625254660040746,-4.27,8.813767826202852,0.5066666666666667,0.38222222222222224,-0.6855555555555556,-0.4609215837474534,-0.1563136650101864,0.0859215837474534
1589542849.139456,0.10354303344090215,-4.266771516720451,8.763543033440902,0.5066666666666667,0.38222222222222224,-0.6855555555555556,-0.3183978155253733,0.02017802049718075,0.10482197950281925
1589542849.149456,0.09844861057185646,-4.247327084142215,8.758448610571856,0.5066666666666667,0.38222222222222224,-0.6855555555555556,0.24731335625935993,0.11530381607410284,0.009696183925897162
1589542849.159456,0.1070992656025582,-4.224198531205117,8.78740440638465,0.5066666666666667,0.38222222222222224,-0.6855555555555556,0.4637408200319775,0.16937041001598874,-0.026240820031977453
1589542849.169456,0.1033415389839141,-4.230049233903484,8.83,0.5066666666666667,0.3863063254247839,-0.6807288881343463,0.16615381350536906,0.125,0.041615381350536905
1589542849.179456,0.11,-4.277573824541284,8.826213087729357,0.5066666666666667,0.3944444444444444,-0.6711111111111111,-0.41567741184059637,0.07766359661697247,0.023668201691513763
1589542849.189456,0.09227999423880168,-4.29,8.755026645542273,0.5066666666666667,0.3944444444444444,-0.6711111111111111,-0.3183332133083681,0.07383335733832637,0.0625
1589542849.199456,0.09891317562433515,-4.25217364875133,8.773043918747785,0.5066666666666667,0.3944444444444444,-0.6711111111111111,0.17391469530418927,0.08559755078263512,-0.01630489843472975
1589542849.209456,0.1001113521330441,-4.220111352133045,8.819888647866955,0.5066666666666667,0.3944444444444444,-0.6711111111111111,0.3434020245842372,0.09340202458423716,-0.031597975415762834
1589542849.219456,0.09845432546884453,-4.226908650937689,8.842681488203267,0.5019698191839753,0.3911566512065604,-0.6682930026214963,0.190061630369026,0.125,-0.05283953418027828
1589542849.229456,0.10423970565999698,-4.255760294340003,8.84271911697999,0.4955555555555556,0.38666666666666666,-0.6644444444444444,-0.2425091981250945,-0.019007358500075594,-0.0529963207499622
1589542849.239456,0.10616220592203715,-4.266162205922037,8.756053528935555,0.4955555555555556,0.38666666666666666,-0.6644444444444444,-0.375,-0.04797242597453573,-0.07702757402546427
1589542849.249456,0.10442073106052571,-4.253262193181577,8.760213420455269,0.4955555555555556,0.38666666666666666,-0.6644444444444444,-0.02629569128285636,0.0,-0.05525913825657128
1589542849.259456,0.1,-4.234009367016747,8.808985949474879,0.4955555555555556,0.38666666666666666,-0.6644444444444444,0.3436036403633267,-0.03744145614533068,0.0
1589542849.269456,0.1,-4.222103888731195,8.826844166903207,0.4955555555555556,0.38666666666666666,-0.6644444444444444,0.529626738575078,-0.11185069543003122,0.0
1589542849.279456,0.1167331423113658,-4.263266857688634,8.825099713467049,0.4744444444444445,0.4011111111111111,-0.6933333333333334,-0.07146251193887297,0.05229106972301815,-0.0625
1589542849.289456,0.10070907354345751,-4.279290926456543,8.801063610315188,0.4744444444444445,0.4011111111111111,-0.6933333333333334,-0.42198901623686724,0.0022158548233046776,-0.0625
1589542849.299456,0.0925530291753498,-4.262340912473951,8.7151060583507,0.4744444444444445,0.4011111111111111,-0.6933333333333334,-0.3098485412325097,-0.1715435676540637,0.0625
1589542849.3094559,0.1,-4.23936297279363,8.739555408095555,0.4744444444444445,0.4011111111111111,-0.6933333333333334,0.0744442601194426,-0.1130557398805574,0.0545371599203716
1589542849.3194559,0.09427910369984367,-4.23,8.871418655549766,0.4855684094725262,0.3957080423831857,-0.691108540327717,0.21424439812402293,0.0625,-0.0625
1589542849.3294559,0.08534208515662986,-4.238013127734945,8.847328957421684,0.5133333333333333,0.38222222222222224,-0.6855555555555556,0.008141887198721956,0.02911196777106341,-0.012417951656595122
1589542849.3394558,0.1,-4.2649032986682975,8.781160415980425,0.5133333333333333,0.38222222222222224,-0.6855555555555556,-0.3125,-0.0625,0.06370876664627546
1589542849.3494558,0.1,-4.259246268458867,8.752261194623399,0.5133333333333333,0.38222222222222224,-0.6855555555555556,-0.21168376680187703,-0.0625,-0.03360541106604099
1589542849.3594558,0.10822964418249291,-4.237655533726261,8.800574110456232,0.5133333333333333,0.38222222222222224,-0.6855555555555556,0.0550234664920323,-0.11393527614058066,-0.01106472385941934
1589542849.3694558,0.11731586733104951,-4.22,8.838052398006852,0.511543911554033,0.3801345634797052,-0.6837661337762553,0.3292758291809405,-0.15394834163811896,0.012172512457178451
1589542849.3794558,0.11,-4.24242000464864,8.833095994421631,0.5066666666666667,0.3744444444444445,-0.6788888888888889,0.09474994189199659,-0.03447499418919966,-0.06894998837839932
1589542849.3894558,0.11,-4.277888338849995,8.768446644600019,0.5066666666666667,0.3744444444444445,-0.6788888888888889,-0.3239531767187088,-0.02465105890623627,0.02465105890623627
1589542849.3994558,0.10193913323605769,-4.277908699854087,8.732091300145914,0.5066666666666667,0.3744444444444445,-0.6788888888888889,-0.336739165450721,-0.037309791362680256,0.0625
1589542849.4094558,0.09174036970979947,-4.256519260580401,8.769144066807794,0.5066666666666667,0.3744444444444445,-0.6788888888888889,-0.1113588251962729,0.0,0.0625
1589542849.4194558,0.09873168536329238,-4.242536629273415,8.846048538996216,0.5066666666666667,0.3744444444444445,-0.6788888888888889,0.1945112346440418,0.0,0.0625
1589542849.4294558,0.11667729005125509,-4.23664541989749,8.85335458010251,0.5011111111111111,0.3744444444444445,-0.6711111111111111,0.041932251281377314,0.0625,0.0625
1589542849.4394557,0.09961425757794111,-4.270771484844118,8.782878416678676,0.5011111111111111,0.3744444444444445,-0.6711111111111111,-0.22236633520680216,0.030044554931065955,0.0625
1589542849.4494557,0.09,-4.276275718554911,8.754017492528908,0.5011111111111111,0.3744444444444445,-0.6711111111111111,-0.2910558102420478,0.0,0.04105581024204778
1589542849.4594557,0.09,-4.250025659881401,8.79995509520755,0.5011111111111111,0.3744444444444445,-0.6711111111111111,-0.2500400935646895,0.0,4.009356468950148e-05
1589542849.4694557,0.09824750990270353,-4.228247509902704,8.837009960389185,0.5032530434522512,0.37658637678558465,-0.6724741589645639,0.19071837864861746,0.125,0.0625
1589542849.4794557,0.09018247894473715,-4.220182478944737,8.86927008422105,0.5131103035119879,0.38644363684532124,-0.67874696082076,0.493157039572357,0.125,0.0625
1589542849.4894557,0.12306629674585284,-4.252265186983411,8.80707184555806,0.5133333333333333,0.38666666666666666,-0.6788888888888889,-0.03332177330790127,-0.125,-0.03832870932316051
1589542849.4994557,0.125501756241266,-4.277750878120633,8.725743853155569,0.5133333333333333,0.38666666666666666,-0.6788888888888889,-0.26405701174604373,-0.09688597650791253,-0.0828289647618688
1589542849.5094557,0.1065835725677831,-4.27,8.797082137161084,0.5133333333333333,0.38666666666666666,-0.6788888888888889,-0.22708931419457734,0.0,0.01979465709728867
1589542849.5194557,0.1,-4.269218302397676,8.831042263469763,0.5135070439116274,0.3868693290080097,-0.6794389723868199,-0.054357316642467526,0.003257073343012989,-0.060871463328493504
1589542849.5294557,0.1,-4.23656572139104,8.852828606955196,0.52,0.3944444444444444,-0.7,0.1641430347759817,0.14646424130600458,0.021464241306004574
1589542849.5394557,0.1,-4.238083306501186,8.793055644996048,0.52,0.3944444444444444,-0.7,-0.016840221877469776,0.13697933436759066,0.0625
1589542849.5494556,0.10355885680761011,-4.27067657042283,8.730676570422832,0.52,0.3944444444444444,-0.7,-0.17371427523781585,0.0,0.018014289904873658
1589542849.5594556,0.11242798621496847,-4.277860068925158,8.764567917289812,0.52,0.3944444444444444,-0.7,-0.2687756030951297,-0.045524741530658684,-0.03215017231289421
1589542849.5694556,0.11703916515273141,-4.24,8.812960834847269,0.5211514357739377,0.3932930086705066,-0.6968746743278831,0.08100521779542862,-0.16899478220457137,0.0625
1589542849.5794556,0.09947476392054706,-4.24,8.83157570823836,0.5277777777777778,0.38666666666666666,-0.6788888888888889,0.1875,-0.05593454900683816,0.06906545099316183
1589542849.5894556,0.09699063996517196,-4.2434953199825864,8.814560840226383,0.5277777777777778,0.38666666666666666,-0.6788888888888889,0.07827125054418807,0.0625,0.12196275032651284
