time,acc_x,acc_y,acc_z,mag_x,mag_y,mag_z,gyr_x,gyr_y,gyr_z
1589542893.5087082,0.32,-4.17,8.81,0.4688888888888889,0.3644444444444445,-0.6433333333333333,-0.375,-0.25,-2.9375
1589542893.5187082,0.32920559713058495,-4.190397201434708,8.772780410042952,0.4688888888888889,0.3644444444444445,-0.6433333333333333,-0.307534982066156,-0.11506996413231192,-3.254965017933844
1589542893.5287082,0.31063277686755525,-4.199683611566223,8.837785280963557,0.4688888888888889,0.3644444444444445,-0.6433333333333333,-0.19145485542222024,0.1170902891555595,-3.3710451445777796
1589542893.5387082,0.31,-4.19144732953346,8.83144732953346,0.4688888888888889,0.3644444444444445,-0.6433333333333333,-0.134045809584125,0.125,-3.5888167616635003
1589542893.5487082,0.3021568707594212,-4.208921564620289,8.853529387721736,0.4622222222222222,0.3644444444444445,-0.6433333333333333,-0.1875,-0.013480442246382734,-3.292279336630426
1589542893.5587082,0.3193002534128995,-4.2003498732935505,8.802099239761302,0.4622222222222222,0.3644444444444445,-0.6433333333333333,-0.1875,-0.12062658383062208,-3.131560124254067
1589542893.5687082,0.3109264981167821,-4.2,8.763705992467129,0.4622222222222222,0.3644444444444445,-0.6433333333333333,-0.13079061322988791,-0.18170938677011209,-3.181709386770112
1589542893.5787082,0.3021244353781145,-4.2,8.767875564621885,0.4622222222222222,0.3644444444444445,-0.6433333333333333,-0.1742222788867842,-0.2367222788867842,-3.0398331633396474
1589542893.5887082,0.32073128113007265,-4.189634359434963,8.780365640565035,0.4622222222222222,0.3644444444444445,-0.6433333333333333,-0.3170705070629542,-0.47674838736016983,-3.097177880297216
1589542893.5987082,0.35962392084203887,-4.18,8.839059802105098,0.46821842025728966,0.36771509791811763,-0.6536904026666316,-0.5294871289470572,-0.6875,-3.4634613868411717
1589542893.6087081,0.374268588920707,-4.185731411079293,8.849880122444949,0.4744444444444445,0.3711111111111111,-0.6644444444444444,-0.48171472301767554,-0.5800360422632567,-4.036570553964649
1589542893.6187081,0.34592776791000596,-4.214072232089994,8.76383145845668,0.4744444444444445,0.3711111111111111,-0.6644444444444444,-0.07409709887507399,0.05165531872903095,-4.5509029011249265
1589542893.6287081,0.3137588803637397,-4.226560279909065,8.782801399545326,0.4744444444444445,0.3711111111111111,-0.6644444444444444,0.32801399545325377,0.5975174943165672,-4.419991252841716
1589542893.638708,0.28550962772785626,-4.251735558408216,8.807245186136072,0.4744444444444445,0.3711111111111111,-0.6644444444444444,0.4547175866495507,0.8577824133504492,-4.0408055198973045
1589542893.648708,0.28,-4.233699418547354,8.842875726815807,0.4612941537181214,0.3711111111111111,-0.6600610142023368,0.3142160244407214,0.6695267074012023,-3.321080122203607
1589542893.658708,0.2884370492478879,-4.228437049247888,8.876874098495776,0.4544444444444444,0.3711111111111111,-0.6577777777777778,0.1972684422007006,0.5097684422007006,-2.578147537605605
1589542893.668708,0.30707436242836594,-4.221462818785817,8.777553825429804,0.4544444444444444,0.3711111111111111,-0.6577777777777778,0.1875,0.28657046964542565,-1.9664261741135642
1589542893.678708,0.33890358963236095,-4.229634529877454,8.817807179264722,0.4544444444444444,0.3711111111111111,-0.6577777777777778,0.12728418826591475,-0.05107905867042617,-1.634136753063659
1589542893.688708,0.34,-4.223185213785694,8.847259144857224,0.4544444444444444,0.3711111111111111,-0.6577777777777778,0.21018482767882624,0.10786965535765247,-1.4120379308029345
1589542893.698708,0.34920638101727525,-4.20158723796545,8.841587237965449,0.47797186259970337,0.3711111111111111,-0.650617259208786,0.25,0.417659525431881,-1.1974202372840594
1589542893.708708,0.3280125077944467,-4.2,8.788695851520375,0.48,0.3711111111111111,-0.65,0.29580727542823604,0.4375,-1.1416927245717639
1589542893.718708,0.33878559176672385,-4.209392795883362,8.694857632933104,0.48,0.3711111111111111,-0.65,-0.03972984562607201,0.4375,-1.007590051457976
1589542893.728708,0.34954795008912654,-4.229095900178254,8.74728770053476,0.48,0.3711111111111111,-0.65,-0.301198752228164,0.198801247771836,-0.880650623885918
1589542893.738708,0.35,-4.212812070741759,8.824481026785715,0.48,0.3711111111111111,-0.65,-0.24088362809065933,0.25911637190934067,-0.8033836280906593
1589542893.748708,0.3406935949221004,-4.20465320253895,8.861387189844201,0.47741488747836125,0.3711111111111111,-0.6432787074437392,-0.07116993652625504,0.3125,-0.6918349682631275
1589542893.758708,0.33,-4.18283611003487,8.821890740023248,0.4744444444444445,0.3711111111111111,-0.6355555555555555,-0.16386574970941495,-0.027048624564122437,-0.4552256877179388
1589542893.768708,0.33927338847689675,-4.20782016543069,8.773633057615516,0.4744444444444445,0.3711111111111111,-0.6355555555555555,-0.24545867798060467,-0.5841281018254422,-0.5534173559612093
1589542893.778708,0.409424634411569,-4.2604906432084135,9.003519224838914,0.4744444444444445,0.3711111111111111,-0.6355555555555555,-0.48667489003943976,-0.9800123350591596,-0.6019458150065733
1589542893.788708,0.3635893515603921,-4.197828641664418,8.863485924993254,0.4744444444444445,0.3711111111111111,-0.6355555555555555,-0.01292457355277754,0.0006464160446082445,-0.5529911263003268
1589542893.798708,0.3,-4.17251314104402,8.628115144216984,0.4744444444444445,0.3776061743261698,-0.6355555555555555,-0.16034104593153276,-0.02176156889729919,-0.5996401743219222
1589542893.808708,0.3624709256014019,-4.203058786044289,8.787412776804205,0.4744444444444445,0.38333333333333336,-0.6355555555555555,-0.3838218894376294,-0.9860303488927832,-0.7308825872231958
1589542893.818708,0.32509812092741325,-4.187019624185482,8.688274738596757,0.4744444444444445,0.38333333333333336,-0.6355555555555555,0.19620041862403392,0.39779227913320203,-0.8716910232611002
1589542893.828708,0.3463129835250731,-4.18,8.758938950575219,0.4744444444444445,0.38333333333333336,-0.6355555555555555,0.2615219264841464,0.13163155890487843,-0.9961593578386179
1589542893.838708,0.3938659019774573,-4.209243934651638,8.850420820292005,0.4744444444444445,0.38333333333333336,-0.6355555555555555,0.20430635210681525,-0.0745809436795542,-1.182774591572739
1589542893.848708,0.3657415094956362,-4.184593207596508,8.853444905697382,0.46952683438840404,0.35972880506433935,-0.6424402096340122,0.24282311313045468,0.2622617919131828,-1.3606462262609094
1589542893.858708,0.36639721671965775,-4.173602783280342,8.843602783280343,0.4688888888888889,0.3566666666666667,-0.6433333333333333,0.17003479100427812,0.11258697751069532,-1.4949478134935827
1589542893.868708,0.35395764185237866,-4.194063537221432,8.775830567409514,0.4688888888888889,0.3566666666666667,-0.6433333333333333,-0.17579421526789946,-0.30079421526789946,-1.8632942152678995
1589542893.878708,0.366686997379597,-4.2,8.826747989518388,0.4688888888888889,0.3566666666666667,-0.6433333333333333,-0.5107343340562032,-0.27070626637751877,-2.2503812008674435
1589542893.8887079,0.37706225641234925,-4.185875487175301,8.847062256412348,0.4688888888888889,0.3566666666666667,-0.6433333333333333,-0.4742217948456343,-0.25,-2.2683608974228173
1589542893.8987079,0.33513406763442394,-4.185608241545697,8.810742309180121,0.4688888888888889,0.37162197745519204,-0.6470721610304647,-0.4375,-0.28505150966060633,-2.4252575483030316
1589542893.9087079,0.3854858901283351,-4.254114417596251,8.908228835192503,0.4688888888888889,0.38333333333333336,-0.65,-0.7046434066510473,-0.8467868133020946,-2.250832692240445
1589542893.9187078,0.2900354609929078,-4.193356973995272,8.578770685579196,0.4688888888888889,0.38333333333333336,-0.65,-0.32513297872340424,0.02053782505910151,-1.9083924349881796
1589542893.9287078,0.3253527491840321,-4.2107515273244625,8.667607331157418,0.4688888888888889,0.38333333333333336,-0.65,-0.4806364549334672,-0.19689409155577875,-1.6059241359109548
1589542893.9387078,0.3940008376211559,-4.224333193729807,8.850668900323083,0.4688888888888889,0.38333333333333336,-0.65,-0.8729227743209286,-0.862510470264449,-1.3312473824338877
1589542893.9487078,0.42976353874053264,-4.22,8.832128151335207,0.4797372652672585,0.37140011931712674,-0.65,-1.0014778828716708,-0.9434115314866836,-1.3720442342566583
1589542893.9587078,0.45521204470957105,-4.278828104322332,9.140948551418042,0.48,0.3711111111111111,-0.65,-1.8404014903190342,-2.933453539507706,-1.5325752794348189
1589542893.9687078,0.3360916616925752,-4.121838683725637,8.633561882023201,0.48,0.3711111111111111,-0.65,-1.2808891080372669,-1.210483546570472,-1.4518675550826565
1589542893.9787078,0.35350361704027866,-4.032992765919443,8.677262659640975,0.48,0.3711111111111111,-0.65,-2.0774398276324018,-1.8274398276324015,-1.2281023934982584
1589542893.9887078,0.3108917803229592,-3.620118782629811,8.707015459953864,0.48,0.3711111111111111,-0.65,-2.6446196224047918,-2.833085869521227,-1.5382729976931482
1589542893.9987078,0.32996766607877714,-3.4966289437585734,8.90317705271409,0.48,0.36667025932458036,-0.6359373026759858,-3.353728811483441,-3.6454628404859886,-2.4368937389770724
1589542894.0087078,0.3292877173303421,-3.4647672462142456,8.89643858665171,0.48,0.3644444444444445,-0.6288888888888889,-3.5818494111048795,-3.9613011777902414,-3.3734576556365674
1589542894.0187078,0.2448256461516493,-3.314709410252749,8.8165891760674,0.48,0.3644444444444445,-0.6288888888888889,-4.34556618592032,-4.156613237184064,-4.877905897472512
1589542894.0287077,0.08891424889356145,-2.977157682329201,9.030829871297035,0.48,0.3644444444444445,-0.6288888888888889,-4.615015557967205,-3.842453326098384,-5.661739270513625
1589542894.0387077,-0.00588063644182332,-2.78,9.052387271163534,0.48,0.3644444444444445,-0.6288888888888889,-3.0335710007371914,-1.7873011119302127,-4.272563045214399
1589542894.0487077,0.03134473264744239,-2.8567830749166787,8.68649326184611,0.4609682976702249,0.3683820380299152,-0.6288888888888889,0.22915157223590787,0.6443631357774235,2.7700604984784816
1589542894.0587077,0.1231656931186779,-3.0363313862373555,8.916368428551076,0.4477777777777778,0.3711111111111111,-0.6288888888888889,-0.03968692121384798,-1.0299098874483548,12.73428372987605
1589542894.0687077,0.14674320252998746,-3.1374320252998746,8.760271898800502,0.4477777777777778,0.3711111111111111,-0.6288888888888889,-0.20498488931304848,-1.1396147944385187,18.611291612867007
1589542894.0787077,0.14219596743416868,-3.2558443582241443,8.778276618750795,0.4477777777777778,0.3711111111111111,-0.6288888888888889,0.32770162829156596,-1.1676512212186745,24.882167504134333
1589542894.0887077,0.1826045719844358,-3.329705333981842,8.912309905966277,0.4477777777777778,0.3711111111111111,-0.6288888888888889,0.03808213764591439,-1.693797624837873,29.435361948767834
1589542894.0987077,0.18369979357121793,-3.382600412857564,8.982600412857565,0.4532111799207051,0.3711111111111111,-0.6460946623414923,0.1806288705396638,-1.671247419640224,34.327232011206135
1589542894.1087077,0.21485576923076924,-3.4109134615384615,8.899375,0.4544444444444444,0.3711111111111111,-0.65,0.3371394230769231,-1.7557091346153846,37.43419471153846
1589542894.1187077,0.2223549478187968,-3.4276450521812034,8.806484634731577,0.4544444444444444,0.3711111111111111,-0.65,0.375,-1.95584472839756,40.53988934983088
1589542894.1287076,0.2351203471725125,-3.482921215103794,8.812680520758768,0.4544444444444444,0.3711111111111111,-0.65,0.2804978301717967,-2.1890043396564067,43.07754339656407
1589542894.1387076,0.22807500192115576,-3.4761500038423114,8.772300007684624,0.4544444444444444,0.3711111111111111,-0.65,0.28726561899638825,-2.1382031430108355,44.99179666487359
1589542894.1487076,0.18831258895854153,-3.46,8.847737197540958,0.4671194088610278,0.36688612297225004,-0.6408458590324676,0.27289073619817694,-2.6962482208291694,46.46913895702735
1589542894.1587076,0.16017203628401627,-3.4796559274319674,8.870688145136064,0.4744444444444445,0.3644444444444445,-0.6355555555555555,0.2807123866124492,-2.7860885204879575,47.365322959024084
1589542894.1687076,0.15618991596638657,-3.5061899159663867,8.860949579831933,0.4744444444444445,0.3644444444444445,-0.6355555555555555,0.37053046218487395,-2.59671743697479,48.51780462184874
1589542894.1787076,0.15919992505152708,-3.5019998750858785,8.865199550309162,0.4744444444444445,0.3644444444444445,-0.6355555555555555,0.5,-2.6549989070014366,50.33000359128099
1589542894.1887076,0.13656011054813452,-3.5147185628742514,8.770639336711193,0.4744444444444445,0.3644444444444445,-0.6355555555555555,0.5859972362966375,-2.3320013818516814,51.55099032703823
1589542894.1987076,0.12559371386973836,-3.6088125722605233,8.902532008735495,0.47199650770541024,0.3644444444444445,-0.6453473025116925,0.4470678285445125,-2.4427750181989465,52.538089324712026
1589542894.2087076,0.06357318682886803,-3.535359780243302,8.918431736291963,0.4688888888888889,0.3644444444444445,-0.6577777777777778,0.3799008240876173,-2.54643296707217,53.556234615247405
1589542894.2187076,-0.0005509470482510728,-3.559054103875755,8.805748421586248,0.4688888888888889,0.3644444444444445,-0.6577777777777778,0.45374210793124103,-2.951273676206277,54.57971709525785
1589542894.2287076,-0.016682107153829794,-3.5799536785385104,8.843456857230638,0.4688888888888889,0.3644444444444445,-0.6577777777777778,0.20794732115425518,-3.2710263394228725,55.710263394228726
1589542894.2387075,-0.03550968985066884,-3.6010193797013375,8.838980620298662,0.4688888888888889,0.3644444444444445,-0.6577777777777778,0.3188711231333605,-3.0540051691555195,56.70661336940008
1589542894.2487075,-0.060639809632335694,-3.6353199048161677,8.804680095183834,0.48603080440765195,0.35084913213646,-0.6459557670751825,0.5,-2.8457494051010492,57.54924464590944
1589542894.2587075,-0.0589729239743034,-3.6675676900642413,8.849621842115635,0.5011111111111111,0.3388888888888889,-0.6355555555555555,0.4310807748393962,-3.116217288062113,58.01925767548181
1589542894.2687075,-0.07230480676960656,-3.6844237983075985,8.806356974613976,0.5011111111111111,0.3388888888888889,-0.6355555555555555,0.5492563028875512,-2.998838654802408,58.082946218267466
1589542894.2787075,-0.1149198239856802,-3.6650481056085917,8.759935859188545,0.5011111111111111,0.3388888888888889,-0.6355555555555555,0.8743986798926014,-2.6565506600536994,57.9688502200179
1589542894.2887075,-0.14342658617154574,-3.663706344686183,8.824545620230094,0.5011111111111111,0.3388888888888889,-0.6355555555555555,0.9768353457113567,-2.541083836427839,57.68050603713407
1589542894.2987075,-0.14530254091300604,-3.699394918173988,8.881815245478036,0.49745753182122693,0.3289720308163461,-0.6590428509905254,0.6363452842377261,-2.617436477174849,56.86454968776916
1589542894.3087075,-0.21594660703054022,-3.7242399888182263,8.883226640575861,0.4933333333333334,0.31777777777777777,-0.6855555555555556,0.556166573485219,-2.75,55.966000419316515
1589542894.3187075,-0.3,-3.74,8.788994179632518,0.4933333333333334,0.31777777777777777,-0.6855555555555556,0.828670065051166,-2.467659869897668,55.2055959219386
1589542894.3287075,-0.28104317289816155,-3.725782379673621,8.748480169386491,0.4933333333333334,0.31777777777777777,-0.6855555555555556,0.7334196188803966,-2.480440508159471,55.05924008469324
1589542894.3387074,-0.29437160270136714,-3.7131246911546696,8.942493823093395,0.4933333333333334,0.31777777777777777,-0.6855555555555556,0.37891204084994234,-2.9531172788667437,54.92970680283314
1589542894.3487074,-0.34970638566153295,-3.6997063856615333,8.927797892461497,0.5068624095589781,0.30424870155213307,-0.6855555555555556,0.8524666756732415,-2.4274070071151943,54.721961406826985
1589542894.3587074,-0.3558405019734845,-3.6929202509867425,8.935043011840905,0.52,0.2911111111111111,-0.6855555555555556,0.38772960732719364,-3.1227766673413626,54.73562107833215
1589542894.3687074,-0.31423355722551044,-3.5760745716122453,8.765952871805103,0.52,0.2911111111111111,-0.6855555555555556,0.16104026734055998,-3.2940995544324,53.96664616169005
1589542894.3787074,-0.36336761172513216,-3.535728976453628,8.81841902931283,0.52,0.2911111111111111,-0.6855555555555556,0.4866530514175877,-2.751411580970687,52.855364007688614
1589542894.3887074,-0.46886452470927875,-3.5844322623546394,8.902991387839176,0.52,0.2911111111111111,-0.6855555555555556,0.5115994534278346,-2.599549726713917,52.01869617399484
1589542894.3987074,-0.525264356300378,-3.6028084156837745,8.839647524932829,0.5249118812332073,0.28619922987790375,-0.6839182618111531,0.5909962885377295,-2.470402226877362,51.469300742292454
1589542894.4087074,-0.5214889293721974,-3.615196889013453,8.894073010089686,0.54,0.27111111111111114,-0.6788888888888889,0.8031941914237668,-2.3356747477578477,51.300912626121075
1589542894.4187074,-0.6193427661832331,-3.636885744605589,8.884221436151398,0.54,0.27111111111111114,-0.6788888888888889,0.33607180756986205,-2.8347762645914396,51.64727626459144
1589542894.4287074,-0.6448093042749371,-3.5998474434199497,8.910228834870075,0.54,0.27111111111111114,-0.6788888888888889,0.40839532690695723,-2.9045814124057,53.00810456831517
1589542894.4387074,-0.645823554361657,-3.587747066308497,8.878023469532023,0.54,0.27111111111111114,-0.6788888888888889,0.816617771808285,-2.3969850134313586,54.498272479852965
1589542894.4487073,-0.7051237098826523,-3.6055371129647957,8.735703096281634,0.54,0.27111111111111114,-0.6788888888888889,1.1131185494132616,-1.7298582638201612,55.49896260426976
1589542894.4587073,-0.81,-3.74,8.933547711636255,0.54,0.2588888888888889,-0.6766666666666666,1.0037418272723388,-2.654379086363831,57.81222223409256
1589542894.4687073,-0.81,-3.7381534694465453,8.808384285765728,0.54,0.2588888888888889,-0.6766666666666666,0.5610573980051132,-2.8850982139642074,59.717794641892624
1589542894.4787073,-0.8152171309829888,-3.654782869017011,8.729565738034022,0.54,0.2588888888888889,-0.6766666666666666,0.4836964656781601,-3.3614106029655195,61.37498128940232
1589542894.4887073,-0.8299894340154264,-3.6400105659845736,8.700021131969146,0.54,0.2588888888888889,-0.6766666666666666,0.43753301870179273,-3.499900943894622,62.43674056985877
1589542894.4987073,-0.8733415773564166,-3.530037098103875,9.016757350920582,0.5422194742145278,0.25260037861439344,-0.683695001679338,0.00015457543281120756,-4.521271297059632,64.45768926902996
1589542894.5087073,-0.8261708471238273,-3.416839902623157,8.874832736125168,0.5466666666666666,0.24,-0.6977777777777778,0.6259334226866161,-3.178203383571761,66.46654722503351
1589542894.5187073,-0.8308361381753765,-3.441672276350753,8.859581930912313,0.5466666666666666,0.24,-0.6977777777777778,1.4348870682019486,-2.882838795394154,68.0104517271922
1589542894.5287073,-0.9855885780885781,-3.5708589743589743,8.890858974358974,0.5466666666666666,0.24,-0.6977777777777778,0.7923513986013986,-3.365588578088578,68.78897144522145
1589542894.5387073,-1.045928878242194,-3.528639517594581,8.891522798612257,0.5466666666666666,0.24,-0.6977777777777778,0.5286170080951594,-3.280710494795969,69.9777925202379
1589542894.5487072,-1.0303770330211928,-3.400549531789059,8.926562345983243,0.5461817534636657,0.22836208312797765,-0.7074760418377964,0.9806708969935929,-3.2102636766880237,72.32172560374569
1589542894.5587072,-1.2065843046463356,-3.4296479323008144,9.012359492256106,0.5455555555555556,0.21333333333333332,-0.72,0.7132489422002235,-3.5301497884400446,75.01605909707808
1589542894.5687072,-1.3080975211114139,-3.4151585399073823,8.949682920185236,0.5455555555555556,0.21333333333333332,-0.72,0.3809452465268319,-3.9841460092617815,79.30815343230728
1589542894.5787072,-1.3641405394391668,-3.3631243155133332,8.784216183175,0.5455555555555556,0.21333333333333332,-0.72,0.7734460560833355,-4.02391882943229,86.19878447902606
1589542894.5887072,-1.36,-3.33,8.66,0.5455555555555556,0.21333333333333332,-0.72,1.1875,-3.6875,88.8125
1589542894.5987072,-1.3870806871421133,-3.5152795419052576,8.85875793857366,0.5610281681994332,0.20703938920701023,-0.72,1.444488547631442,-4.316768610098907,97.59664888079125
1589542894.6087072,-1.4275064089417555,-3.5067332342083675,8.804813115258408,0.6111111111111112,0.18666666666666668,-0.72,1.1550819703650532,-4.887000743437244,103.53040241745283
1589542894.6187072,-1.5905406100509234,-3.577376163777583,8.931587881281828,0.6111111111111112,0.18666666666666668,-0.72,1.5525757419885808,-4.904702047219793,110.908222313667
1589542894.6287072,-1.7867300846570344,-3.663174788357414,9.009619492057794,0.6111111111111112,0.18666666666666668,-0.72,0.9807521164258578,-6.082342427233839,118.15234900834605
1589542894.6387072,-1.8265219225091545,-3.6603107685818905,9.005776921454727,0.6111111111111112,0.18666666666666668,-0.72,1.288819712045398,-6.253884607273633,127.1902403136443
1589542894.6487072,-1.8573521714645378,-3.6783804286613444,9.079408685858152,0.60478719684338,0.17191086670862735,-0.7312425142537442,1.1116643753933813,-7.072622320866598,135.60909704508563
1589542894.6587071,-1.8504793677652578,-3.581328885128639,8.908561896704226,0.5911111111111111,0.14,-0.7555555555555555,1.1196905164788677,-7.218408693227705,145.82558382686614
1589542894.6687071,-1.8691218492275525,-3.5291218492275527,8.852634452317343,0.5911111111111111,0.14,-0.7555555555555555,1.5353046230688814,-7.111649146242304,153.19446945057499
1589542894.6787071,-1.8311808374898504,-3.488228743765225,8.963505393805823,0.5911111111111111,0.14,-0.7555555555555555,1.4116691799095233,-8.194880234311565,160.63769429300544
1589542894.688707,-1.8269145292141278,-3.4224861099729575,8.86,0.5911111111111111,0.14,-0.7555555555555555,1.3426749569777923,-8.096073711382447,169.72426554945505
1589542894.698707,-1.7719208391379169,-3.333121363599115,8.86,0.5911111111111111,0.14,-0.7555555555555555,2.158987544046546,-7.580507866917971,174.27843050889126
1589542894.708707,-1.7948989656306111,-3.2451283477909003,9.028853089198552,0.5688888888888889,0.0811111111111111,-0.7911111111111111,2.300860183101085,-8.026146910801447,180.77201670418046
1589542894.718707,-1.8537467123615206,-3.225828219229032,8.791860205626843,0.5688888888888889,0.0811111111111111,-0.7911111111111111,2.6966339895326903,-6.7968339045190085,184.30995291039028
1589542894.728707,-1.7309056573056574,-3.014537728937729,8.428188685388685,0.5688888888888889,0.0811111111111111,-0.7911111111111111,3.159080179080179,-5.67045991045991,186.3466391941392
1589542894.738707,-1.6746877808422944,-2.8876048219653536,8.563644054665469,0.5688888888888889,0.0811111111111111,-0.7911111111111111,2.734389042114723,-6.225886299544454,186.81348972698254
1589542894.748707,-1.708703269477503,-2.7849477945405474,9.012563155333362,0.5639609294734721,0.05585531910709984,-0.7911111111111111,-0.1039491439189488,-11.107675142680176,183.15853398885105
1589542894.758707,-2.006391846569633,-2.85,9.292071244830842,0.5511111111111111,-0.01,-0.7911111111111111,-0.375,-10.987054719807235,178.65270383575918
1589542894.768707,-2.126190833959429,-2.7523290758827947,8.970638617580766,0.5511111111111111,-0.01,-0.7911111111111111,0.540664913598798,-9.262913223140496,173.33334898572502
1589542894.778707,-2.097457272410185,-2.575023305958081,8.552247518787457,0.5511111111111111,-0.01,-0.7911111111111111,1.7816869867140184,-7.1087195199289726,170.09496385198338
1589542894.788707,-2.0906829010058234,-2.440682901005823,8.976733721545791,0.5511111111111111,-0.01,-0.7911111111111111,0.611864743250397,-8.584336950767602,167.1219891476972
1589542894.798707,-1.872819851653774,-2.2298914462165347,8.908893770095183,0.5365750556209921,-0.041036442803227255,-0.7977898393092739,0.46027719415528606,-8.606019004870594,165.86361140292234
1589542894.808707,-1.8589819303658,-2.133622741295725,8.920968121051859,0.51,-0.09777777777777777,-0.81,1.2726421330982811,-8.113522844131042,164.70534009108272
1589542894.818707,-1.9411378971905289,-2.12719768535558,8.882574735206314,0.51,-0.09777777777777777,-0.81,1.3953592095039464,-7.618864505377664,163.05778687686583
1589542894.828707,-1.8569154353976738,-2.0602653253693806,8.958457717698836,0.51,-0.09777777777777777,-0.81,1.5608417164413706,-6.27725950958818,160.47968406161584
1589542894.838707,-1.8322749634357132,-1.9394530869122013,8.872768692106547,0.51,-0.09777777777777777,-0.81,1.6633592607366041,-6.011132717280503,156.39847593405133
1589542894.848707,-1.6835606967158623,-1.7845423924123565,8.637304436466781,0.51,-0.09777777777777777,-0.81,1.1986271772370696,-5.623855981030891,153.84244947480389
1589542894.858707,-2.03,-1.8018943502139677,9.268155719953567,0.4655555555555556,-0.19111111111111112,-0.7977777777777778,-0.2960496110466224,-7.455259533255947,148.1644464994196
1589542894.868707,-2.03,-1.7437602869072575,8.941151613853323,0.4655555555555556,-0.19111111111111112,-0.7977777777777778,0.15812275853705016,-6.91025268975554,144.07689517316655
1589542894.878707,-2.1239218444929366,-1.656893017112668,8.627452911450558,0.4655555555555556,-0.19111111111111112,-0.7977777777777778,0.9112908435741358,-4.490767127024233,134.4221172619731
1589542894.888707,-2.170221013521278,-1.617674570038687,8.886454207683762,0.4655555555555556,-0.19111111111111112,-0.7977777777777778,0.10239830313708967,-5.871076243919255,126.88743201057187
1589542894.898707,-2.158052106213166,-1.5180897288128221,8.476628101689755,0.45952146566243085,-0.20650844394184326,-0.7965293453860968,0.47214187852032274,-4.56344056499141,122.12992029663137
1589542894.908707,-2.4625175929915266,-1.6383588252190147,9.305382378285222,0.43333333333333335,-0.2733333333333333,-0.7911111111111111,1.9422797285652735,-1.968969912394083,117.7531258976016
1589542894.918707,-2.7178087896653658,-1.6086653819143897,9.164760987081706,0.43333333333333335,-0.2733333333333333,-0.7911111111111111,0.35595123385213373,-4.702939483268279,112.45530552334601
1589542894.928707,-2.690408943182375,-1.5607156505691562,9.130511178977969,0.43333333333333335,-0.2733333333333333,-0.7911111111111111,0.31313897372246086,-3.332947159118747,110.52875381751073
1589542894.9387069,-2.5786936350172196,-1.4097148516264877,8.816531824913902,0.43333333333333335,-0.2733333333333333,-0.7911111111111111,2.0479526150496956,-2.4321534679966454,108.9484830302814
1589542894.9487069,-2.587132559070885,-1.357426511814177,8.738308370044054,0.4284723000934455,-0.276955279668936,-0.7916829973746273,2.346205446535843,-1.8699389267120545,107.05301361633961
1589542894.9587069,-2.568401343944741,-1.2905328853517533,8.874955702380058,0.37666666666666665,-0.31555555555555553,-0.7977777777777778,-0.625,-5.8125,99.625
1589542894.9687068,-2.790410702341137,-1.2265066889632106,8.647669565217392,0.37666666666666665,-0.31555555555555553,-0.7977777777777778,-0.3647324414715719,-5.348898411371238,99.01499790969899
1589542894.9787068,-2.8465217391304347,-1.2615760869565218,9.012391304347826,0.37666666666666665,-0.31555555555555553,-0.7977777777777778,1.0380434782608696,-2.850203804347826,95.7272418478261
1589542894.9887068,-2.510365079108554,-1.1144523813371687,9.094817460445723,0.37666666666666665,-0.31555555555555553,-0.7977777777777778,1.6852182555715371,-2.375,84.54093504048355
1589542894.9987068,-2.564592659631204,-1.0331110105531942,9.067703670184398,0.37666666666666665,-0.31555555555555553,-0.7977777777777778,1.346295877304976,-2.375,80.17730942030157
1589542895.0087068,-2.985149176091553,-1.0225106554351109,8.825277041312884,0.25222222222222224,-0.3622222222222222,-0.7766666666666666,0.2886962194180622,-3.188565543511092,72.1390932812028
1589542895.0187068,-3.182216666107326,-1.0365869047219518,9.191259522770748,0.25222222222222224,-0.3622222222222222,-0.7766666666666666,-0.19517484981709565,-4.596190472195188,70.11563244621942
1589542895.0287068,-2.5859733987219498,-0.94519467974439,9.13402660127805,0.25222222222222224,-0.3622222222222222,-0.7766666666666666,0.33467856789022643,-3.2978990191707536,67.34712314856095
1589542895.0387068,-2.411764705882353,-0.9162895927601811,9.26,0.25222222222222224,-0.3622222222222222,-0.7766666666666666,-0.8976244343891403,-4.990384615384615,65.46973981900453
1589542895.0487068,-2.2267848528702365,-0.8892860588519055,9.284106367583213,0.2471628611245109,-0.3690672401779493,-0.7680359918529238,0.7516619934876989,-3.5976732091172217,64.93694600217077
1589542895.0587068,-2.3953931500241197,-0.8218427399903521,9.435853835021707,0.21531462721766628,-0.41215602722838607,-0.7137066516588948,3.122716172214182,-0.27819735890014474,64.14659460926194
1589542895.0687068,-2.860368510638298,-0.7340737021276595,8.659864170212765,0.21444444444444444,-0.4133333333333333,-0.7122222222222222,1.150036170212766,-0.7516978723404255,63.03619042553191
1589542895.0787067,-2.467710638297872,-0.6555421276595745,8.417130212765958,0.21444444444444444,-0.4133333333333333,-0.7122222222222222,-0.09932978723404262,-3.7858723404255317,62.009925531914895
1589542895.0887067,-2.8141538461538462,-0.7301183431952663,9.57462721893491,0.21444444444444444,-0.4133333333333333,-0.7122222222222222,0.34829881656804734,-4.481065088757396,56.62943786982248
1589542895.0987067,-2.7100769230769233,-0.6500591715976332,9.150313609467457,0.21444444444444444,-0.4133333333333333,-0.7122222222222222,1.4991494082840238,-0.3780325443786978,53.62721893491124
1589542895.1087067,-2.9234478966180917,-0.5527605169095408,9.28207313720099,0.27111111111111114,-0.4066666666666667,-0.6766666666666666,-0.043098707726147927,-2.2090493538630738,45.086472367335716
1589542895.1187067,-2.917438117647059,-0.5168595294117647,9.14405011764706,0.27111111111111114,-0.4066666666666667,-0.6766666666666666,0.0516514705882353,-1.916325,38.91013676470588
1589542895.1287067,-2.964422772553766,-0.51,9.011907643608602,0.27111111111111114,-0.4066666666666667,-0.6766666666666666,0.4188943068615585,-1.3549512382459734,34.097890094032216
1589542895.1387067,-3.0334605557096763,-0.4876610842617063,9.000477302924557,0.27111111111111114,-0.4066666666666667,-0.6766666666666666,0.299820956649973,-1.6963006833214094,29.981652163121083
1589542895.1487067,-2.6537695104323324,-0.40804844573581156,8.859624173224898,0.27111111111111114,-0.4066666666666667,-0.6766666666666666,0.03189380776475054,-1.5049241484033933,26.575149841580398
1589542895.1587067,-2.805617389735726,-0.41296112564264453,8.98649770000902,0.2911111111111111,-0.4188888888888889,-0.67,-0.7694597276089113,-3.4983088301614504,18.013005096058446
1589542895.1687067,-2.4699833204265205,-0.46597664859712873,9.251819860606421,0.2911111111111111,-0.4188888888888889,-0.67,-1.9739158277238338,-3.8482903437183538,13.661832817060821
1589542895.1787066,-2.4303367322263423,-0.4005714976624214,8.81696940996292,0.2911111111111111,-0.4188888888888889,-0.67,0.6586732226342092,0.2815686462195712,11.95306202643882
1589542895.1887066,-2.438788892471385,-0.1639110108012252,8.740899967757537,0.2911111111111111,-0.4188888888888889,-0.67,1.5038892471384813,1.0739586691923262,9.206109946799936
1589542895.1987066,-2.34650732654871,-0.5305821122418817,9.196575313542501,0.29215754308423536,-0.41841323799201424,-0.6687633076681259,-0.8015853954647185,-1.6106596533085595,2.4327863054769647
1589542895.2087066,-2.930992356741692,-0.4331679405430514,9.16115197837929,0.3029813399396609,-0.4134933303304571,-0.6559715477480774,-2.6281011148177864,-2.1088003040412144,-3.434203580929859
1589542895.2187066,-2.4373289534465945,-0.5716901914489555,9.563239234204179,0.3033333333333333,-0.4133333333333333,-0.6555555555555556,-2.330076220294616,-3.4145857927423906,-8.948945875891804
1589542895.2287066,-3.1477529127957706,-0.578866191038341,9.534535235846635,0.3033333333333333,-0.4133333333333333,-0.6555555555555556,1.8409735410357744,0.39766398911871903,-9.262895857927424
1589542895.2387066,-3.439588923473221,-0.4919072662874316,8.70589674788022,0.3033333333333333,-0.4133333333333333,-0.6555555555555556,2.4858927229795,3.6567698830095523,-3.685695502844263
1589542895.2487066,-2.464205216271332,-0.45439250831812816,8.825943973381989,0.3033333333333333,-0.4133333333333333,-0.6555555555555556,-0.1870337823333692,0.32733511323387354,-3.967056187614039
1589542895.2587066,-1.63,-0.36,8.62,0.3333333333333333,-0.38666666666666666,-0.67,-2.4375,-4.75,-8.9375
1589542895.2687066,-1.753381314955816,-0.380563552492636,8.639278330461845,0.3333333333333333,-0.38666666666666666,-0.67,-2.108161854610126,-3.7860834769076863,-10.527962263102317
1589542895.2787066,-2.59,-0.52,8.77,0.3333333333333333,-0.38666666666666666,-0.67,0.125,2.75,-21.3125
1589542895.2887065,-2.6268222680961575,-0.518849304121995,8.76539721648798,0.3333333333333333,-0.38666666666666666,-0.67,0.28322068322567756,2.879453286275554,-22.3625099886795
1589542895.2987065,-2.9066162157127557,-0.5167675685744889,8.765288036138406,0.33311848988652415,-0.38661295580496435,-0.67,1.388214269082103,3.7934266287896428,-30.56741314674242
1589542895.3087065,-2.8497843863983996,-0.6522093775738322,9.456212495587717,0.3288888888888889,-0.3855555555555555,-0.67,-0.8637891222496764,2.1026756824332273,-33.17628912224968
1589542895.3187065,-3.008597048618369,-0.7124585092596464,9.32868776388947,0.3288888888888889,-0.3855555555555555,-0.67,-2.5435522135362234,-0.8299402198904728,-34.85605221353622
1589542895.3287065,-2.388734304499162,-0.6663202268918397,9.217233982209617,0.3288888888888889,-0.3855555555555555,-0.67,-2.9094720897254094,-2.043797537707877,-35.39296925357741
1589542895.3387065,-2.16396869958727,-0.5218394753933502,8.606555278540153,0.3288888888888889,-0.3855555555555555,-0.67,-1.9572185791204877,0.07406612055058559,-36.94558305922776
1589542895.3487065,-1.537580543154762,-0.6008219866071428,9.303515438988097,0.3290512566137566,-0.38548451967592584,-0.6701928116732805,-2.476596214657738,-1.4463425409226192,-41.179799107142856
1589542895.3587065,-2.1851380208333335,-0.6710390625,8.749580729166667,0.3429212962962963,-0.3794163773148148,-0.6866634837962963,-0.4773600260416666,3.1372721354166666,-45.8609375
1589542895.3687065,-2.063831907381001,-0.7023660623344876,8.94867556189312,0.3466666666666667,-0.37777777777777777,-0.6911111111111111,-1.9029949242887214,1.2771111309160046,-51.360025378556394
1589542895.3787065,-1.771908399538263,-0.7450865756773274,9.1053174441502,0.3466666666666667,-0.37777777777777777,-0.6911111111111111,-1.279987438038976,1.766617012969376,-54.47506280980512
1589542895.3887064,-2.8048042003937868,-0.9192707649675491,9.229680959673303,0.3466666666666667,-0.37777777777777777,-0.6911111111111111,0.9905997046598118,7.101356832932254,-59.79312969445052
1589542895.3987064,-2.77828125,-0.88828125,9.00796875,0.3466666666666667,-0.37777777777777777,-0.6911111111111111,-0.28857421875,3.8540039062499996,-62.538330078125
1589542895.4087064,-2.811421160061235,-1.0339011736689914,9.620494131655043,0.3588888888888889,-0.3977777777777778,-0.6766666666666666,-2.6923530787548904,1.3417938850144582,-69.71899982990304
1589542895.4187064,-2.993051322163908,-1.077128582963262,9.36896068833266,0.3588888888888889,-0.3977777777777778,-0.6766666666666666,0.028980684800161485,5.691622300161486,-73.64119745407751
1589542895.4287064,-1.7611745718640726,-0.9641163812427149,9.43643324666009,0.3588888888888889,-0.3977777777777778,-0.6766666666666666,-0.4246699318568995,3.2904767775486414,-79.48194992378733
1589542895.4387064,-1.7717043858593153,-0.9510888407367281,8.484674772280405,0.3588888888888889,-0.3977777777777778,-0.6766666666666666,-1.4521450282893944,4.347633521929296,-89.18439644275912
1589542895.4487064,-2.4365045543918784,-1.1782990249187433,9.073738212752298,0.3588888888888889,-0.3977777777777778,-0.6766666666666666,-1.6099298784157938,5.39953252277196,-97.23142379920549
1589542895.4587064,-2.0960723990925185,-1.199266286056194,8.719787589439306,0.31222222222222223,-0.4488888888888889,-0.6555555555555556,-2.4957461793522975,3.903469434818379,-106.32295847772431
1589542895.4687064,-2.458711351617267,-1.5382831140081172,9.959401303652687,0.31222222222222223,-0.4488888888888889,-0.6555555555555556,-2.0377428975525764,4.25805405239208,-113.96473527241422
1589542895.4787064,-1.5524412563748153,-1.1392235832419808,7.273759115390115,0.31222222222222223,-0.4488888888888889,-0.6555555555555556,0.4889334397788475,9.52143308231257,-120.51040524760498
1589542895.4887064,-2.335303369895075,-1.674964793621199,10.017123589265525,0.31222222222222223,-0.4488888888888889,-0.6555555555555556,-3.0037921236884384,2.9205711863062063,-129.8287172481504
1589542895.4987063,-2.085726838169665,-1.5668149632068549,8.270087867187655,0.31222222222222223,-0.4488888888888889,-0.6555555555555556,0.11591452287918758,9.991906251859492,-135.3401989904199
1589542895.5087063,-2.2560002839698994,-1.7367002697714042,8.820301008093141,0.16548866486819064,-0.7051559468029722,-0.4592219224762175,-1.1406272185148374,8.403121894079227,-144.98751419849495
1589542895.5187063,-2.1547647531048812,-1.943970627587401,9.649322828944262,0.15444444444444444,-0.7244444444444444,-0.4444444444444444,-3.2112116120197074,5.764158888066867,-158.29908880196444
1589542895.5287063,-2.1943778431897245,-1.976981535991437,9.061728659352422,0.15444444444444444,-0.7244444444444444,-0.4444444444444444,-1.8495116403532246,9.519149719025958,-164.94253411827668
1589542895.5387063,-2.0485913456573375,-2.341893008365176,9.609176907983064,0.15444444444444444,-0.7244444444444444,-0.4444444444444444,-0.8804606010533925,8.49301611070949,-177.16199783125066
1589542895.5487063,-2.5597215738923884,-2.454514923061035,8.370335846328617,0.15444444444444444,-0.7244444444444444,-0.4444444444444444,-1.2053315088299081,11.795870339770733,-186.79983476195395
1589542895.5587063,-2.58,-2.62,8.55,1.2333333333333334,-0.7866666666666666,-0.07777777777777778,-4.125,6.3125,-197.0625
1589542895.5687063,-2.5569183020270927,-2.766184087161747,8.596163395945815,1.2333333333333334,-0.7866666666666666,-0.07777777777777778,-3.331566632181307,8.18788796029873,-201.91927394846593
1589542895.5787063,-2.5373230696909155,-3.020970031731108,8.71011658244212,1.2333333333333334,-0.7866666666666666,-0.07777777777777778,-2.1935626983194263,10.976660007051358,-210.13197349864848
1589542895.5887063,-2.7394747256700844,-3.2503048110171693,9.161744518398592,1.2333333333333334,-0.7866666666666666,-0.07777777777777778,-3.278939557474366,9.190215816193959,-214.4888131858248
1589542895.5987062,-3.1167278287461775,-3.5101902820251443,9.8240332993544,1.2333333333333334,-0.7866666666666666,-0.07777777777777778,-0.4495412844036699,13.224728168535508,-213.54568042813455
1589542895.6087062,-2.239286677775133,-3.4884400539554075,10.047314131555979,0.8535902386556993,-0.42656545619649633,-0.5360884092852671,-1.0917489883361104,12.076251686106483,-212.51678667777514
1589542895.6187062,-1.2910365365191043,-3.100618578245272,8.852089791369162,0.7177777777777777,-0.2977777777777777,-0.7,-2.8725967399254637,8.442619988854446,-214.24655184424088
1589542895.6287062,-1.2531559457537338,-3.0236285160752385,7.6749106113740595,0.7177777777777777,-0.2977777777777777,-0.7,-1.9917171444686956,10.904908097702137,-219.17378516075237
1589542895.6387062,-1.7077283818365767,-3.4803654109385227,9.661761590192226,0.7177777777777777,-0.2977777777777777,-0.7,-7.676318960899839,3.485155180622508,-223.7994442956615
1589542895.6487062,-1.5413176218532405,-3.214108194965185,7.922769148366363,0.7177777777777777,-0.2977777777777777,-0.7,-1.5919255490091064,14.301854579539368,-221.92732324584895
1589542895.6587062,-1.650472023399044,-3.6758982712291632,8.79223194540223,0.6255555555555555,-0.12222222222222222,-0.7066666666666667,2.7590793165767007,15.179565072646422,-221.01122839036455
1589542895.6687062,-1.4525252808988764,-3.7941076779026215,9.2402186329588,0.6255555555555555,-0.12222222222222222,-0.7066666666666667,-3.75126404494382,8.458544007490637,-222.54145599250936
1589542895.6787062,-1.5150537257409202,-3.6654748695526638,8.803687173881658,0.6255555555555555,-0.12222222222222222,-0.7066666666666667,-6.546035535298121,8.923023181471322,-221.98748375853322
1589542895.6887062,-1.722662363107637,-3.89038422669994,9.36596056674985,0.6255555555555555,-0.12222222222222222,-0.7066666666666667,-3.3021505764431707,8.328310939014582,-218.90579304762102
1589542895.6987062,-1.721876447876448,-3.8356293436293436,9.04064555984556,0.6255555555555555,-0.12222222222222222,-0.7066666666666667,-1.0118146718146719,10.49988416988417,-215.33610038610038
1589542895.7087061,-1.7969343218564129,-3.946762586914635,8.901060567981904,0.6211206519412098,-0.05189732205188351,-0.723139165805665,-0.5247156948982156,12.071811908352183,-209.77452720532798
1589542895.7187061,-1.503358407196023,-3.863348149706741,9.013334473054364,0.6177777777777778,0.0011111111111111113,-0.7355555555555555,-3.072792009678862,9.489750729859814,-202.8024003182452
1589542895.7287061,-2.0571464519375944,-4.546693507800704,9.467916456970308,0.6177777777777778,0.0011111111111111113,-0.7355555555555555,-2.753113990941117,6.262455963764468,-196.83543029693004
1589542895.738706,-2.3395674701895857,-4.865409453547225,8.781833919533328,0.6177777777777778,0.0011111111111111113,-0.7355555555555555,-1.7195429784678733,9.699790898172772,-190.7641653083984
1589542895.748706,-1.83072999939893,-4.623025184828996,9.022235679509526,0.6177777777777778,0.0011111111111111113,-0.7355555555555555,-1.216933641882551,9.342305553885916,-181.25530632025004
1589542895.758706,-1.5893937202099446,-4.51,8.964923310892264,0.5988004228565069,0.060854635863259905,-0.7524243154855741,-1.3061084682579425,8.258993814796268,-174.59491436228416
1589542895.768706,-1.3096868296868296,-4.216529386529387,8.814105534105535,0.5877777777777777,0.09555555555555556,-0.7622222222222222,-1.375,8.153287215787216,-164.39350064350063
1589542895.778706,-1.3027237122179651,-4.186361856108983,8.859085568326947,0.5877777777777777,0.09555555555555556,-0.7622222222222222,-1.477261600681141,6.704706790123456,-157.1029347594721
1589542895.788706,-1.4646662852784134,-4.4174504195270785,9.01556826849733,0.5877777777777777,0.09555555555555556,-0.7622222222222222,-1.2156869755911517,7.000488653699466,-147.27747187261633
1589542895.798706,-1.503829752236044,-4.670354271615093,8.807588979130255,0.5877777777777777,0.09555555555555556,-0.7622222222222222,-0.49246555978205,8.15469697748535,-139.13963837771152
1589542895.808706,-1.3175446614042376,-4.3954611549646865,8.723090984628168,0.5722222222222222,0.1811111111111111,-0.7266666666666667,-0.7977124013294559,6.844957415870378,-133.2726812422102
1589542895.818706,0.841271984489683,-2.9675443151918017,6.709486220745049,0.5722222222222222,0.1811111111111111,-0.7266666666666667,-33.13760862415178,6.058393054978535,-268.04745923348565
1589542895.828706,3.0000886303836034,-1.539627475418917,4.6958814568619305,0.5722222222222222,0.1811111111111111,-0.7266666666666667,-65.4775048469741,5.271828694086691,-402.8222372247611
1589542895.838706,-2.3332612000916417,-6.553528211109492,7.799516797534,0.5722222222222222,0.1811111111111111,-0.7266666666666667,-124.50119108366484,-59.14001806802324,-703.9350319184388
1589542895.848706,-3.2826737166497804,-7.508610266801757,7.869139015535293,0.5722222222222222,0.1811111111111111,-0.7266666666666667,-80.6895817502533,50.962225071766284,-638.642759519588
1589542895.858706,0.2854976628500365,-3.016632359878211,4.11822505253227,0.5561802726436715,0.23690919660172202,-0.7085322888822182,-18.09503248424032,103.47297000300185,-482.2182796217677
1589542895.868706,2.26762203265693,-0.24468786351298955,8.205879109043128,0.5466666666666666,0.27,-0.6977777777777778,33.75499897677825,49.53668249967688,-288.7445136465469
1589542895.878706,0.7082659306822876,-0.8770928617025272,13.478452930794939,0.5466666666666666,0.27,-0.6977777777777778,103.48361871503135,31.987714036273516,-163.16418600503172
1589542895.888706,-0.2793861431625819,1.7998139345855495,7.154850953298111,0.5466666666666666,0.27,-0.6977777777777778,95.69863543194387,41.92024632021628,-138.8661948032442
1589542895.898706,1.5147856412164047,0.5018996249108776,10.101246163861248,0.5466666666666666,0.27,-0.6977777777777778,-6.682857884621356,-2.8051590253882637,-97.00706198270251
1589542895.908706,1.8413885966757837,-6.21749211024616,10.398964864296234,0.4670762325548776,0.3825913458166772,-0.6977777777777778,-25.056135598569327,-9.981511676835684,-75.96053808121187
1589542895.918706,1.651107636800962,-6.170335939065945,7.460222088594909,0.41,0.4633333333333333,-0.6977777777777778,16.85005011024253,16.519896271797954,-47.96262778111846
1589542895.928706,2.3177172582619336,-3.2746037331701348,9.845052402080782,0.41,0.4633333333333333,-0.6977777777777778,5.746657932986537,3.0390409845471247,-12.150491030446755
1589542895.938706,2.4364690141304703,-4.973881147407238,9.15830205919786,0.41,0.4633333333333333,-0.6977777777777778,-7.245282364650981,-9.715295907711386,16.27341480925497
1589542895.948706,2.015487539855015,-4.241175108262876,8.2941750606748,0.41,0.4633333333333333,-0.6977777777777778,-3.093359876905506,-1.1289071794546413,26.624686711822463
1589542895.958706,1.446735624635143,-3.9284785464098073,8.638877335084647,0.39487116494778485,0.46127031037166766,-0.6977777777777778,2.996399317717455,2.702917487594863,34.07985579028021
1589542895.968706,1.3136893369372002,-4.072621326125599,8.877572746974456,0.3855555555555555,0.46,-0.6977777777777778,2.961771312732851,0.38713565636642555,36.77973342343
1589542895.978706,1.1337493369705236,-4.342553105503776,8.916302442474299,0.3855555555555555,0.46,-0.6977777777777778,-0.5267027228410495,-1.663743022404082,35.858719469071254
1589542895.9887059,0.6969578704674073,-3.9441722909243344,8.663414797736325,0.3855555555555555,0.46,-0.6977777777777778,0.26821159086145463,-1.0616982812827498,36.244864808216306
1589542895.9987059,0.6481411505549437,-3.9123046683046683,8.687583495721427,0.3855555555555555,0.46,-0.6977777777777778,1.2725366432262983,-0.8715146572905194,38.21747013471151
1589542896.0087059,0.75,-4.0414526447183645,8.787542128257138,0.3963748461365094,0.4615456129401363,-0.7013842079714291,1.05447417693868,-1.41026291153066,41.33309116086753
1589542896.0187058,0.5276014579479926,-4.058344576215863,8.880371559133936,0.4088888888888889,0.4633333333333333,-0.7055555555555556,-0.08551504188880427,-2.1000843216189753,44.840159531062994
1589542896.0287058,0.5000588164686113,-3.9177764974192772,8.791811787300444,0.4088888888888889,0.4633333333333333,-0.7055555555555556,0.9641909734725722,-1.93713239707118,48.79242587924619
1589542896.0387058,0.5326353305090444,-4.0214708156815275,8.771317665254522,0.4088888888888889,0.4633333333333333,-0.7055555555555556,0.8609552568757985,-1.839632296079618,52.419048609710174
1589542896.0487058,0.5247327502429543,-4.028931000971817,8.734518950437318,0.4088888888888889,0.4633333333333333,-0.7055555555555556,0.21507531584062195,-2.191508746355685,56.93130466472303
1589542896.0587058,0.3637805425396312,-3.995761117394661,8.80743056677618,0.4120203706695871,0.4586361106622861,-0.6956391965833448,-0.036927074917865024,-2.97350698371663,61.5986113355236
1589542896.0687058,0.28368733665953905,-3.9570127504553736,8.905612576225547,0.4155555555555556,0.4533333333333333,-0.6844444444444444,0.5537489110635939,-3.5603122277658983,67.19749346638156
1589542896.0787058,0.4004104237920797,-3.981436483272279,8.71340960780569,0.4155555555555556,0.4533333333333333,-0.6844444444444444,1.0309293564124378,-3.2139403461865657,72.30209183319155
1589542896.0887058,0.48874894200153157,-4.12,8.717079924227157,0.4155555555555556,0.4533333333333333,-0.6844444444444444,0.9322931361089839,-2.953120591673048,75.80205100560235
1589542896.0987058,0.4393780878226157,-4.16229022568278,8.801668313505395,0.4155555555555556,0.4533333333333333,-0.6844444444444444,0.7994817398521797,-3.3137956503695505,78.04423738192166
1589542896.1087058,0.3168873811885941,-4.182987486798733,8.671824815182259,0.42023056435640044,0.4432041475981694,-0.6844444444444444,0.9691410375396038,-2.692420472365347,79.38875132012673
1589542896.1187057,0.35386629235489975,-4.2154812735305,8.8854651694196,0.4222222222222222,0.4388888888888889,-0.6844444444444444,0.6189840808687515,-3.3063834301756216,80.79628979782812
1589542896.1287057,0.43301327648926063,-4.117346787460321,8.758066915359485,0.4222222222222222,0.4388888888888889,-0.6844444444444444,-0.14233271160128835,-4.432999200630228,81.62274960031512
1589542896.1387057,0.5135610901030122,-4.262341895944712,8.747122180206025,0.4222222222222222,0.4388888888888889,-0.6844444444444444,-0.32591439561872476,-4.7009143956187245,82.03567120876255
1589542896.1487057,0.5147324895365841,-4.458779184105693,8.761220815894307,0.4222222222222222,0.4388888888888889,-0.6844444444444444,0.043895920528465526,-4.294367089405476,81.82013009933942
1589542896.1587057,2.6699322766271267,-8.057011446496457,8.555175852255022,0.44703445951716514,0.4300273755692664,-0.6992136333104818,0.2832306749485842,-3.7301932505141577,80.83142515113114
1589542896.1687057,2.0223259698106073,-5.113171461885104,8.196027164150884,0.4688888888888889,0.4222222222222222,-0.7122222222222222,-1.674390618598935,-5.959322708221725,68.99213555289447
1589542896.1787057,-0.18442311619358787,-2.859896365121503,8.309420563610374,0.4688888888888889,0.4222222222222222,-0.7122222222222222,-1.898247651623443,-5.200562844598734,36.03540751991015
1589542896.1887057,-0.23449193871237764,-3.8218741128944207,8.331083451614077,0.4688888888888889,0.4222222222222222,-0.7122222222222222,1.456973104778542,0.20217818539141774,17.0456984477927
1589542896.1987057,0.1448296148572853,-4.241035273588434,8.748623956126137,0.4688888888888889,0.4222222222222222,-0.7122222222222222,0.7564455315966594,-0.09269755702355731,4.495653122273463
1589542896.2087057,0.172450345580211,-4.367709712622772,8.962450345580212,0.4688888888888889,0.4016629885614971,-0.7010859706559962,-1.9127000727537287,-2.092128955983994,-2.060085485631139
1589542896.2187057,0.16844222613427223,-4.241639993598464,8.901393334400256,0.4688888888888889,0.3955555555555556,-0.6977777777777778,0.14855565335680576,0.5768334400256059,-1.305333279987197
1589542896.2287056,0.12365647904854102,-4.174731295809708,8.734409901811643,0.4688888888888889,0.3955555555555556,-0.6977777777777778,0.6512117964320288,0.38777658691743877,-0.20699419167473376
1589542896.2387056,0.1590184217761892,-4.248691229034919,8.765248831454496,0.4688888888888889,0.3955555555555556,-0.6977777777777778,-0.09326024195765736,-0.01947003024470717,0.040985015122353585
1589542896.2487056,0.16079495548454348,-4.281655701567012,8.822516447649482,0.4688888888888889,0.3955555555555556,-0.6977777777777778,-0.3331962695876553,-0.08857593260308617,0.010348134793827644
1589542896.2587056,0.1258034425319267,-4.243884508606329,8.837098278734036,0.4708233697328645,0.3900745264976248,-0.6939088160898267,-0.0968212104386452,-0.125,-0.044364242087729044
1589542896.2687056,0.13574679145883542,-4.218278876870481,8.838506417082328,0.4755555555555556,0.37666666666666665,-0.6844444444444444,0.045252339853163695,-0.07183489323544247,0.0
1589542896.2787056,0.1442396841569027,-4.227280947529292,8.797787824758023,0.4755555555555556,0.37666666666666665,-0.6844444444444444,-0.03283399133978604,-0.11866403464085583,0.0
1589542896.2887056,0.166330122029544,-4.192660244059088,8.784310854206808,0.4755555555555556,0.37666666666666665,-0.6844444444444444,0.0,-0.09174694926140012,0.0
1589542896.2987056,0.15468916555201154,-4.220414445930651,8.804896388517339,0.4755555555555556,0.37666666666666665,-0.6844444444444444,0.03189757176664266,-0.03189757176664266,0.0
1589542896.3087056,0.14758467935725184,-4.236207660321375,8.815169358714504,0.4755555555555556,0.3813017484960983,-0.689500897349279,-0.032308491965647654,-0.03879787700858808,0.0
1589542896.3187056,0.15165416098226467,-4.23,8.827481241473397,0.4755555555555556,0.3888888888888889,-0.6977777777777778,-0.10925775920873125,0.05216149386084584,-0.05216149386084584
1589542896.3287055,0.15242993224491838,-4.217570067755082,8.778925169387705,0.4755555555555556,0.3888888888888889,-0.6977777777777778,0.07768707653073981,0.0861564617346301,-0.125
1589542896.3387055,0.16,-4.205119713052819,8.755119713052819,0.4755555555555556,0.3888888888888889,-0.6977777777777778,0.09449820658012126,-0.029005380259636213,-0.15550179341987874
1589542896.3487055,0.16707815980133636,-4.207078159801337,8.77123447940401,0.4755555555555556,0.3888888888888889,-0.6977777777777778,-0.02597699751670464,-0.125,-0.09902300248329536
1589542896.3587055,0.17421367092115062,-4.211320506381726,8.818679493618275,0.48069895918119954,0.38535279889625873,-0.6897412096127092,-0.16941772162859567,-0.10691772162859567,0.0625
1589542896.3687055,0.16031491136600626,-4.191259645464026,8.839055265901981,0.4933333333333334,0.37666666666666665,-0.67,-0.1190954118873827,-0.058563607924921796,0.0605318039624609
1589542896.3787055,0.16517726852327613,-4.2203545370465525,8.771418148186209,0.4933333333333334,0.37666666666666665,-0.67,0.0625,0.002215856540951605,0.030142071729524197
1589542896.3887055,0.165155952724128,-4.204844047275872,8.75577976362064,0.4933333333333334,0.37666666666666665,-0.67,0.1269494090515999,0.0019494090515998902,0.0625
1589542896.3987055,0.17379446371488813,-4.211383391144665,8.791383391144665,0.4933333333333334,0.37666666666666665,-0.67,0.1875,-0.03236159287220294,0.0625
1589542896.4087055,0.16597323835194455,-4.225324412783982,8.824026761648055,0.49696990116801437,0.3854983314080349,-0.6866243101013991,0.09983273969965345,-0.15827757989988447,0.0625
1589542896.4187055,0.14574978204010464,-4.22,8.84,0.5011111111111111,0.3955555555555556,-0.7055555555555556,0.07969158674803836,-0.04530841325196164,0.0625
1589542896.4287055,0.13377978368707816,-4.223110108156461,8.808898918435391,0.5011111111111111,0.3955555555555556,-0.7055555555555556,0.14862364804423844,0.0625,0.0625
1589542896.4387054,0.13268032870041593,-4.225773223766528,8.769587433634305,0.5011111111111111,0.3955555555555556,-0.7055555555555556,0.1417520543775997,0.009665297081600223,0.0625
1589542896.4487054,0.15624486200822077,-4.215836758661186,8.812081620669407,0.5011111111111111,0.3955555555555556,-0.7055555555555556,0.19795948326482676,-0.04948987081620669,0.0625
1589542896.4587054,0.16805255474452555,-4.208960583941606,8.822986861313868,0.4934780210867802,0.3935643146796432,-0.7055555555555556,-0.03733576642335766,0.0,0.02516423357664234
1589542896.4687054,0.1573767343289513,-4.2213116328355245,8.808279082088811,0.4755555555555556,0.3888888888888889,-0.7055555555555556,-0.04354655783304083,-0.10860458955594555,-0.035348852611013615
1589542896.4787054,0.16293470302919374,-4.221376864647205,8.740180973734786,0.4755555555555556,0.3888888888888889,-0.7055555555555556,-0.008605404045026077,-0.00113108584240873,0.0
1589542896.4887054,0.15,-4.2135261393623855,8.748439008154435,0.4755555555555556,0.3888888888888889,-0.7055555555555556,0.0404616289850938,0.015897285024843694,0.03432054299503126
1589542896.4987054,0.14555740303932563,-4.217770387842697,8.793327790882023,0.4755555555555556,0.3888888888888889,-0.7055555555555556,0.125,-0.06946753799157032,0.006967537991570322
1589542896.5087054,0.1472651713224164,-4.232734828677583,8.820897756983625,0.47959176184578695,0.3913106126630277,-0.7003084873782549,0.05688901885234622,-0.09081464153020503,-0.017092679234897483
1589542896.5187054,0.1564626554065492,-4.22,8.83646265540655,0.4866666666666667,0.3955555555555556,-0.6911111111111111,-0.08460840370906766,-0.1394579814546617,0.04039159629093234
1589542896.5287054,0.15284348282585872,-4.217156517174141,8.798721688915554,0.4866666666666667,0.3955555555555556,-0.6911111111111111,-0.036141161691915405,0.04472823233838308,0.01777176766161692
1589542896.5387053,0.16425922820355154,-4.214259228203551,8.74981459742486,0.4866666666666667,0.3955555555555556,-0.6911111111111111,0.21412017627219707,-0.026620176272197066,0.009259647455605868
1589542896.5487053,0.16191939229727115,-4.22,8.800774143603638,0.4866666666666667,0.3955555555555556,-0.6911111111111111,0.23316540061931487,-0.028830801238629765,-0.028830801238629765
1589542896.5587053,0.14380312257061414,-4.2123937548587715,8.837606245141227,0.4866666666666667,0.3955555555555556,-0.688575696064035,0.09242193573464628,0.038730483933661575,0.0625
1589542896.5687053,0.15734721484129668,-4.214694429682593,8.842652785158704,0.4866666666666667,0.3955555555555556,-0.6844444444444444,-0.08546004637905213,-0.09184018551620851,0.03953995362094787
1589542896.5787053,0.16812764158918006,-4.2371914623837705,8.82157438715131,0.4866666666666667,0.3955555555555556,-0.6844444444444444,-0.125,-0.25,-0.005851120033812341
1589542896.5887053,0.15,-4.215872187805673,8.754680469514183,0.4866666666666667,0.3955555555555556,-0.6844444444444444,-0.014896478643625685,-0.1765976524290838,-0.0625
1589542896.5987053,0.15078396934376495,-4.22843206131247,8.79156793868753,0.4866666666666667,0.3955555555555556,-0.6844444444444444,0.23530057480440683,0.0,-0.05270038320293789
1589542896.6087053,0.16,-4.211633925578277,8.813267851156555,0.48775595038551794,0.39337698811785304,-0.6855337281632957,0.05228796513576936,0.0,0.07271203486423064
1589542896.6187053,0.16,-4.21847240573229,8.82541721719687,0.4933333333333334,0.38222222222222224,-0.6911111111111111,0.0,0.0,0.125
1589542896.6287053,0.14787122803666922,-4.218085847975554,8.767656608097786,0.4933333333333334,0.38222222222222224,-0.6911111111111111,0.0,0.05053654984721161,0.023926900305576773
1589542896.6387053,0.13431788146792722,-4.2213642370641455,8.724317881467927,0.4933333333333334,0.38222222222222224,-0.6911111111111111,0.026986759174545086,0.04403972247636474,-0.017052963301819657
1589542896.6487052,0.14,-4.213449095680045,8.75759276544036,0.4933333333333334,0.38222222222222224,-0.6911111111111111,0.0625,-0.04094315199971822,0.08188630399943644
1589542896.6587052,0.14724372185329365,-4.22,8.817243721853295,0.4876993274474383,0.3860452976447939,-0.6923183980866601,0.02854505381268605,0.0,0.0
1589542896.6687052,0.16189882924674176,-4.224525292688314,8.845474707311686,0.4622222222222222,0.4033333333333333,-0.6977777777777778,-0.09671692069803402,0.0,0.056566158603931965
1589542896.6787052,0.14842097514293426,-4.225789512428533,8.789474149142395,0.4622222222222222,0.4033333333333333,-0.6977777777777778,-0.036184452678330425,-0.02631554732166957,0.019737810713321716
1589542896.6887052,0.16,-4.2164206850811485,8.74505520443196,0.4622222222222222,0.4033333333333333,-0.6977777777777778,0.0,-0.017758563514357055,-0.10262928175717853
1589542896.6987052,0.1585990720481666,-4.211400927951833,8.795603711807333,0.4622222222222222,0.4033333333333333,-0.6977777777777778,0.008755799698958771,0.053744200301041226,-0.053744200301041226
1589542896.7087052,0.15209052961531896,-4.217909470384681,8.821637881538724,0.4622222222222222,0.4033333333333333,-0.6977777777777778,0.04943418990425648,0.013065810095743521,-0.013065810095743521
1589542896.7187052,0.1590608204278461,-4.211878359144308,8.853425742994922,0.4688888888888889,0.38222222222222224,-0.6977777777777778,0.1073903830221146,-0.09565063837019097,0.05076025534807639
1589542896.7287052,0.1501506171265906,-4.229698765746819,8.791054319886133,0.4688888888888889,0.38222222222222224,-0.6977777777777778,-0.05967592887642598,0.1827932147940433,-0.06061728591761732
1589542896.7387052,0.15500209863588668,-4.225002098635887,8.734993704092341,0.4688888888888889,0.38222222222222224,-0.6977777777777778,-0.04690779118572927,0.015644674711437566,0.046855325288562434
1589542896.7487051,0.14033158447009444,-4.210331584470095,8.779005246589715,0.4688888888888889,0.38222222222222224,-0.6977777777777778,0.18231899265477441,-0.12189139559286463,0.18439139559286463
1589542896.7587051,0.15314793566439197,-4.21,8.796295871328784,0.4699382007770196,0.3832715341103529,-0.6977777777777778,0.09548810314632526,0.009837298951224913,0.042825402097550175
1589542896.7687051,0.17,-4.21,8.83,0.4755555555555556,0.3888888888888889,-0.6977777777777778,-0.06228734688976063,0.06228734688976063,-0.06207469377952125
1589542896.7787051,0.1551126637554585,-4.221165502183406,8.800225327510917,0.4755555555555556,0.3888888888888889,-0.6977777777777778,-0.02326146288209607,-0.02326146288209607,0.01597707423580786
1589542896.788705,0.13340677790980007,-4.2331864441804,8.7602203337294,0.4755555555555556,0.3888888888888889,-0.6977777777777778,-0.019915276127499097,-0.1050847238725009,0.022669447745001806
1589542896.798705,0.14279755312079337,-4.214404893758413,8.78839265936238,0.4755555555555556,0.3888888888888889,-0.6977777777777778,0.04501529299504149,-0.13504587898512446,0.15253058599008298
1589542896.808705,0.14994445107093562,-4.200111097858129,8.809833353212808,0.4755555555555556,0.3888888888888889,-0.6977777777777778,0.00034718080665224055,-0.0010415424199567147,0.06319436161330448
1589542896.818705,0.14,-4.22,8.83819124643197,0.4755555555555556,0.3888888888888889,-0.6977777777777778,0.1363047098001903,-0.11070706470028543,0.09940235490009515
1589542896.828705,0.14,-4.212025431425976,8.794178019981835,0.4755555555555556,0.3888888888888889,-0.6977777777777778,-0.01226158038147139,0.024920526793823797,0.0625
1589542896.838705,0.1438434036467644,-4.2115302109402935,8.740747229174115,0.4755555555555556,0.3888888888888889,-0.6977777777777778,-0.10097872720772255,0.014457454415445117,0.0625
1589542896.848705,0.1530466844404107,-4.22695331555959,8.799140053321231,0.4755555555555556,0.3888888888888889,-0.6977777777777778,-0.043458222247433204,-0.005374666742299618,0.10058355550513359
1589542896.858705,0.15788489473576528,-4.217884894735765,8.823172657896352,0.476730614035686,0.38818385380081066,-0.6970727426896995,0.013219407901466949,0.11178059209853305,0.17428059209853305
1589542896.868705,0.1407222210855822,-4.200722221085583,8.848916668371626,0.48626543273023215,0.38246296258408297,-0.6913518514729718,0.1204861182151114,0.004513881784888596,0.0670138817848886
