time,acc_x,acc_y,acc_z,mag_x,mag_y,mag_z,gyr_x,gyr_y,gyr_z
1589542972.510984,0.17,-4.15,8.78,0.4722222222222222,0.2888888888888889,-0.6344444444444445,0.125,0.9375,-10.6875
1589542972.520984,0.14040091308009398,-4.170400913080094,8.664810956961128,0.4722222222222222,0.2888888888888889,-0.6344444444444445,0.1774771729976508,0.8549543459953016,-10.674971466247063
1589542972.530984,0.14969637870661762,-4.179696378706617,8.77635654447941,0.4722222222222222,0.2888888888888889,-0.6344444444444445,-0.05490946766544036,0.3901810646691193,-10.3844881654182
1589542972.540984,0.17527702786892055,-4.18,8.813702703825227,0.4722222222222222,0.2888888888888889,-0.6344444444444445,-0.22048142418075342,0.21701857581924658,-10.059037151638494
1589542972.550984,0.21787447920111103,-4.18,8.880599166721778,0.46717229166207414,0.2855222685154568,-0.6394943750045926,-0.2026569009986112,0.04547070299583361,-9.952656900998612
1589542972.560984,0.2002602301943917,-4.202304827354206,8.929739769805607,0.4655555555555556,0.28444444444444444,-0.6411111111111111,-0.09456321935747411,0.046468390321262945,-9.844563219357473
1589542972.570984,0.19,-4.2041890761768475,8.876079837945325,0.4655555555555556,0.28444444444444444,-0.6411111111111111,0.15540964336820978,0.35304619115761304,-9.703545178315895
1589542972.5809839,0.21772011286923598,-4.186139943565382,8.864650141086546,0.4655555555555556,0.28444444444444444,-0.6411111111111111,0.4857507054327249,0.8656887345072686,-9.365123941850912
1589542972.5909839,0.23,-4.163951361930123,8.847902723860246,0.4655555555555556,0.28444444444444444,-0.6411111111111111,0.6293693252911546,1.200607975873464,-9.082826686772114
1589542972.6009839,0.2097221243786936,-4.139861062189347,8.794652655473367,0.4582329893589727,0.29064046199539917,-0.6411111111111111,0.6558158193417087,1.4383683613165825,-9.127605083949748
1589542972.6109838,0.18105553523530846,-4.138944464764691,8.707388746647158,0.4511111111111111,0.2966666666666667,-0.6411111111111111,0.17777676176542306,0.8850680474274567,-9.200694190441356
1589542972.6209838,0.12020603511181696,-4.080185431600635,8.580473880757179,0.4511111111111111,0.2966666666666667,-0.6411111111111111,-0.6260301755590849,-0.315461754732369,-9.250128771944885
1589542972.6309838,0.21022406318410097,-4.161201656865691,8.787515345323433,0.4511111111111111,0.2966666666666667,-0.6411111111111111,-1.0761203159205048,-1.6094709082714513,-9.306390039490063
1589542972.6409838,0.22,-4.162170872159983,8.802170872159984,0.4511111111111111,0.2966666666666667,-0.6411111111111111,-0.782475656999267,-1.064951313998534,-9.067839754999476
1589542972.6509838,0.23264051240992795,-4.153679743795037,8.825281024819857,0.44759985766390886,0.2917509118405836,-0.6544538742104795,-0.5689951961569255,-0.5194855884707765,-8.960498398718975
1589542972.6609838,0.24941493825680375,-4.1782448147704105,8.94356432082484,0.4455555555555555,0.2888888888888889,-0.6622222222222223,-0.5588433641050233,-0.4301867282100468,-8.878656635894977
1589542972.6709838,0.26876025397413916,-4.18,8.856198730129304,0.4455555555555555,0.2888888888888889,-0.6622222222222223,-0.2107452379848913,-0.02711944431570651,-8.699122618992446
1589542972.6809838,0.2133334936745394,-4.18,8.793333493674538,0.4455555555555555,0.2888888888888889,-0.6622222222222223,0.10763805377844055,0.29513805377844055,-8.451389556977247
1589542972.6909838,0.15551843996700837,-4.218915400023565,8.821132320018853,0.4455555555555555,0.2888888888888889,-0.6622222222222223,-0.1668655001767409,0.11792299988217272,-8.048345999764345
1589542972.7009838,0.11121555002582281,-4.222803887506456,8.758038875064557,0.43676030695233475,0.3032811138759775,-0.6470304291802954,-0.6997570308465186,-0.34228132776186676,-6.993010235222311
1589542972.7109838,0.22629521681401601,-4.22,8.866010233492016,0.43333333333333335,0.3088888888888889,-0.6411111111111111,-1.1785942711875386,-1.2893451050876,-5.167747498299816
1589542972.7209837,0.2499115859571992,-4.226637195319067,8.830176828085602,0.43333333333333335,0.3088888888888889,-0.6411111111111111,-0.77267529255835,-0.98064023404668,-4.21238564362837
1589542972.7309837,0.26,-4.185399417647803,8.81,0.43333333333333335,0.3088888888888889,-0.6411111111111111,0.16225946322319285,0.24676383086466647,-3.192492720597544
1589542972.7409837,0.2545329613126223,-4.163598883937867,8.760796651813601,0.43333333333333335,0.3088888888888889,-0.6411111111111111,0.5233519343688835,0.7850279015533252,-2.8516480656311165
1589542972.7509837,0.234976951071573,-4.165023048928427,8.768824909017388,0.4400102439681898,0.30638504740081773,-0.6411111111111111,0.46831783259199355,0.890264860493328,-2.648473513950667
1589542972.7609837,0.23210719499478624,-4.201053597497394,8.883160792492179,0.4511111111111111,0.3022222222222222,-0.6411111111111111,-0.20725495307612093,-0.018137382690302406,-2.342075078206465
1589542972.7709837,0.25,-4.1880115160401985,8.800057580200994,0.4511111111111111,0.3022222222222222,-0.6411111111111111,-0.4666186831658381,-0.3000719752512428,-1.5585972425878905
1589542972.7809837,0.2624284864543341,-4.186214243227167,8.815928189044502,0.4511111111111111,0.3022222222222222,-0.6411111111111111,-0.38348293949061807,-0.211160979830206,-1.18080489915103
1589542972.7909837,0.27,-4.178678327160661,8.861321672839338,0.4511111111111111,0.3022222222222222,-0.6411111111111111,-0.20635931713119407,-0.1521197723770647,-0.9209790895082588
1589542972.8009837,0.2753712270511358,-4.1646287729488645,8.853886318846593,0.44514308105429357,0.3022222222222222,-0.6333526720372483,-0.09142983093040141,0.07642101441759153,-0.8125
1589542972.8109837,0.2646903759163937,-4.167654812041803,8.809380751832787,0.44,0.3022222222222222,-0.6266666666666667,0.0810277257838091,0.3456851505225394,-0.9560277257838091
1589542972.8209836,0.22959228148869093,-4.109184562977382,8.640359477815627,0.44,0.3022222222222222,-0.6266666666666667,0.029975879652159185,0.0899276389564776,-1.0
1589542972.8309836,0.3096756804265667,-4.215545952597194,8.787286496938448,0.44,0.3022222222222222,-0.6266666666666667,-0.39233110186622916,-0.39233110186622916,-1.0
1589542972.8409836,0.2910116386546696,-4.193764548318337,8.89696508403599,0.44,0.3022222222222222,-0.6266666666666667,-0.4375,-1.116914719031181,-1.2264715730103937
1589542972.8509836,0.3147432273636739,-4.18,8.921314193159082,0.4342094621060544,0.29739677397726755,-0.6266666666666667,0.37679439133610704,0.2535887826722141,-1.3667862927557404
1589542972.8609836,0.32,-4.12018060986912,8.783269965415132,0.43333333333333335,0.2966666666666667,-0.6266666666666667,0.8204610185582857,1.0875118673568571,-1.5886406790388572
1589542972.8709836,0.3372362630250469,-4.11,8.777236263025046,0.43333333333333335,0.2966666666666667,-0.6266666666666667,0.5877289495825513,0.7925023056760081,-2.3072687447414406
1589542972.8809836,0.332920759659463,-4.092920759659463,8.795693080113512,0.43333333333333335,0.2966666666666667,-0.6266666666666667,0.23267299716219167,0.5,-3.4885532634795897
1589542972.8909836,0.3066094859667591,-4.111244532744229,8.822317523388735,0.43333333333333335,0.2966666666666667,-0.6266666666666667,0.013412383056325708,0.41630928729224426,-4.446350467774697
1589542972.9009836,0.28651848208542996,-4.15,8.851740758957284,0.43333333333333335,0.2976337549762695,-0.6266666666666667,-0.201158204381219,0.2037025651696871,-5.087037947864251
1589542972.9109836,0.21275101401835908,-4.09275101401836,8.752658151284423,0.43333333333333335,0.3022222222222222,-0.6266666666666667,-0.6966773108944709,-0.4914030811926279,-5.589451540596314
1589542972.9209836,0.24282505105513957,-4.089809394145677,8.670381211708646,0.43333333333333335,0.3022222222222222,-0.6266666666666667,-1.4103131381892444,-1.5942392784206945,-5.377382573179033
1589542972.9309835,0.2920413308720904,-4.133061996308135,8.749185988924406,0.43333333333333335,0.3022222222222222,-0.6266666666666667,-1.6466812615370763,-2.5382749538516953,-5.284439579487641
1589542972.9409835,0.30412623821856727,-4.101262382185673,8.76538862040424,0.43333333333333335,0.3022222222222222,-0.6266666666666667,-1.5992110111339546,-2.2509128107227725,-4.83525685525859
1589542972.9509835,0.2887417387423763,-4.071258261257624,8.770662175659307,0.4402133818796589,0.3059749759747635,-0.6229139129141255,-1.5546358671398517,-1.8125,-4.5
1589542972.9609835,0.3022347434119279,-3.946591539528433,8.743295769764217,0.4455555555555555,0.3088888888888889,-0.62,-1.7316119105409153,-2.1367566747572817,-4.175743325242719
1589542972.9709835,0.32400832910106653,-3.928016658202133,8.769029151853733,0.4455555555555555,0.3088888888888889,-0.62,-2.0313801422041644,-2.775312341289995,-3.887395886236668
1589542972.9809835,0.3228968057042861,-3.8902776399300025,8.86103194295714,0.4455555555555555,0.3088888888888889,-0.62,-1.9030251782589391,-2.822420142607151,-3.768105035651788
1589542972.9909835,0.3056412165778512,-3.812564866311405,8.83974425802248,0.4455555555555555,0.3088888888888889,-0.62,-1.677886405417355,-2.3461592162520652,-3.48077281083471
1589542973.0009835,0.2474208809614763,-3.6234994563780085,8.83752637301284,0.45042399250356696,0.3088888888888889,-0.6258421243376138,-1.7345398313302578,-2.3518097469953867,-2.8820707590138404
1589542973.0109835,0.19809940481478192,-3.465918095407302,8.823239761925914,0.4511111111111111,0.3088888888888889,-0.6266666666666667,-2.535636159722839,-3.3701391356489294,-2.2887425601847737
1589542973.0209835,0.1483575703675216,-3.2734302814700866,8.736715140735043,0.4511111111111111,0.3088888888888889,-0.6266666666666667,-3.572401629690167,-4.603560740811961,-1.1464392591880392
1589542973.0309834,-0.04116641954388195,-2.885901998164231,8.975279954811834,0.4511111111111111,0.3088888888888889,-0.6266666666666667,-4.522015992374497,-5.738919190849396,1.2241447786485917
1589542973.0409834,-0.20597670427369663,-2.7712379371465548,9.039690515713362,0.4511111111111111,0.3088888888888889,-0.6266666666666667,-4.717782861604254,-5.967782861604254,3.9889974819233043
1589542973.0509834,-0.3298947528981086,-2.715852654057352,9.013621110433192,0.4475181343637719,0.3064187173750932,-0.6325052538810928,-4.560526616839536,-5.545263880414887,8.382760067114095
1589542973.0609834,-0.15611600284761512,-2.770257409419611,8.980257409419611,0.43333333333333335,0.2966666666666667,-0.6555555555555556,-2.4835044400314734,-3.3070014800104914,25.316246862003073
1589542973.0709834,-0.020271273427118167,-2.9163501810016954,8.561220730422033,0.43333333333333335,0.2966666666666667,-0.6555555555555556,-0.047318196398295154,-1.8889488727489347,35.03244426751593
1589542973.0809834,0.0,-3.0133256738842245,8.70830844012373,0.43333333333333335,0.2966666666666667,-0.6555555555555556,0.5659522757401679,-1.4340477242598322,40.319045514803356
1589542973.0909834,0.08350891889228343,-3.001052527840741,8.923859761505863,0.43333333333333335,0.2966666666666667,-0.6555555555555556,0.16556925692322855,-2.23355425248842,45.697373607962945
1589542973.1009834,0.12965859573339397,-2.9843755446932665,8.873009927626843,0.4275062416059347,0.3015972827436963,-0.6582449825066626,0.07884079799931792,-2.758872579667311,50.69143008033041
1589542973.1109834,0.0741677630267512,-3.1500263126420283,8.762516445401268,0.4188888888888889,0.3088888888888889,-0.6622222222222223,0.5416118486624407,-2.3854851891719493,54.89097446477694
1589542973.1209834,0.027027760846678114,-3.259730149055245,8.857567462736188,0.4188888888888889,0.3088888888888889,-0.6622222222222223,0.013516789494098735,-2.7972966421011805,60.20265487338616
1589542973.1309834,0.044198531534876045,-3.3115573567627767,8.86,0.4188888888888889,0.3088888888888889,-0.6622222222222223,0.2367371509301654,-3.1117371509301655,64.73235315348761
1589542973.1409833,0.04790659640196256,-3.4125604215882244,8.914420316191167,0.4188888888888889,0.3088888888888889,-0.6622222222222223,0.5639594312193349,-3.061040568780665,68.88234826458296
1589542973.1509833,0.12369657901019818,-3.4516303420989805,8.899782052593881,0.46352706436099456,0.30330911695487567,-0.6622222222222223,0.16439638118626154,-3.7221554282206077,71.97487977079709
1589542973.1609833,0.15265037274057938,-3.471083954567632,8.788797018075366,0.4722222222222222,0.3022222222222222,-0.6622222222222223,0.22062965925724207,-3.637805511114137,72.61896920493356
1589542973.1709833,0.1669278687408517,-3.494879781234753,8.674577050073188,0.4722222222222222,0.3022222222222222,-0.6622222222222223,0.39909835926064613,-3.370102461109031,73.03539617160817
1589542973.1809833,0.15751711192430937,-3.5,8.656241444037846,0.4722222222222222,0.3022222222222222,-0.6622222222222223,0.28146389905386704,-3.3905180504730663,71.83770216719441
1589542973.1909833,0.06978840041807982,-3.4952816706128282,8.84873317548687,0.4722222222222222,0.3022222222222222,-0.6622222222222223,0.09903132399052922,-3.5554582346792944,69.73546985985794
1589542973.2009833,-0.04026083675298335,-3.4211131550398566,8.92627847743031,0.4771748712062848,0.2891652385369663,-0.6622222222222223,0.10130418376491675,-3.434239540587708,67.56619675958682
1589542973.2109833,-0.08655087094220111,-3.4027543547110057,8.86240696753761,0.4844444444444445,0.27,-0.6622222222222223,0.4913668679070995,-2.786652150963315,66.35561411322249
1589542973.2209833,-0.16006355034599634,-3.503368639081109,8.876567810572896,0.4844444444444445,0.27,-0.6622222222222223,0.18697041378336388,-3.730402367838818,65.14473002871534
1589542973.2309833,-0.20998850037733138,-3.48502012433967,8.810011499622668,0.4844444444444445,0.27,-0.6622222222222223,0.06242812735832107,-3.6878593632083945,64.06282342688756
1589542973.2409832,-0.2068985008601622,-3.438449250430081,8.843903497992954,0.4844444444444445,0.27,-0.6622222222222223,0.33188436962398626,-3.0143718767920045,63.21123126075203
1589542973.2509832,-0.20534807534807537,-3.467130767130767,8.983022113022113,0.4844444444444445,0.2582173082173082,-0.6668043801377135,0.3783954408954409,-2.9006790881790883,62.455432705432706
1589542973.2609832,-0.23558850733051265,-3.5055885073305126,8.947349404703337,0.4844444444444445,0.25,-0.67,0.04043097510577584,-3.3639943914198565,61.65622109613303
1589542973.2709832,-0.25393122146118724,-3.52044841609589,8.757653396118721,0.4844444444444445,0.25,-0.67,-0.08146493293378995,-3.48878959760274,60.68684672873859
1589542973.2809832,-0.3105507471650122,-3.591554385840958,8.58637686791253,0.4844444444444445,0.25,-0.67,0.023867771222665774,-3.274479369060656,59.391983431660016
1589542973.2909832,-0.44716716226898034,-3.7777477697895887,8.806076147099786,0.4844444444444445,0.25,-0.67,0.39376858508676177,-3.967154976098167,57.04629686264915
1589542973.3009832,-0.4463662020754635,-3.713183101037732,8.725661933915157,0.4889890437526233,0.23863850172955292,-0.67,0.7471831444574704,-2.805457861143676,55.17904943337241
1589542973.3109832,-0.4644189945061329,-3.717767597802453,8.961093296154292,0.4977777777777778,0.21666666666666667,-0.67,0.36119064216833474,-2.576166201928663,53.99331005493867
1589542973.3209832,-0.5301593912695235,-3.74,8.949203043652382,0.4977777777777778,0.21666666666666667,-0.67,0.3356577893472167,-2.61802663195835,53.18351521826192
1589542973.3309832,-0.5329746920192823,-3.8038449049276917,8.832974692019283,0.4977777777777778,0.21666666666666667,-0.67,0.5185918251205142,-2.1756326995179434,52.28846934420193
1589542973.3409832,-0.5242566115316325,-3.89,8.833761019219388,0.4977777777777778,0.21666666666666667,-0.67,0.3452987259757655,-2.705448088963648,51.48268853378189
1589542973.3509831,-0.5914981949458483,-3.8720848375451262,8.881335740072203,0.49937023666265545,0.21666666666666667,-0.67,0.25,-2.5177120938628157,49.86360559566787
1589542973.3609831,-0.6077760016679987,-3.806664002501998,8.822592000556,0.5022222222222222,0.21666666666666667,-0.67,0.2268500017374987,-2.4375,47.85180004864996
1589542973.3709831,-0.57,-3.78078165374677,8.77921834625323,0.5022222222222222,0.21666666666666667,-0.67,0.15543577734711456,-2.4375,45.72394487510766
1589542973.380983,-0.610154871852985,-3.777146013938467,8.771902657374355,0.5022222222222222,0.21666666666666667,-0.67,0.10218473190171304,-2.4375,43.83738927606852
1589542973.390983,-0.6652206078181873,-3.7298529281212085,8.8075367679697,0.5022222222222222,0.21666666666666667,-0.67,0.12408080075755334,-2.3143383984848933,41.7265631935608
1589542973.400983,-0.661805551149881,-3.791354163362411,8.873159714512292,0.5138348753194114,0.20331211560489912,-0.67,0.24717882632831087,-2.1334635210150674,39.40646708961142
1589542973.410983,-0.7533296315392853,-3.841331852615714,8.924001110538214,0.5244444444444445,0.19111111111111112,-0.67,0.22083101971205332,-2.2458379605758934,37.716738388926345
1589542973.420983,-0.8142253303454138,-3.945351982072483,8.843615125054736,0.5244444444444445,0.19111111111111112,-0.67,0.1907277902274425,-1.95041116090977,36.012325168070475
1589542973.430983,-0.8255997710875386,-4.0223990843501545,8.725997710875385,0.5244444444444445,0.19111111111111112,-0.67,0.3175100149201872,-1.412485692971161,34.354959940319254
1589542973.440983,-0.8512474637767646,-4.017359702098203,8.756798510491013,0.5244444444444445,0.19111111111111112,-0.67,0.4974011171317404,-1.1275988828682597,32.94100744754493
1589542973.450983,-0.9240552773497689,-4.0546850924499225,8.948110554699538,0.5208004836500599,0.1822614920390344,-0.686658106488615,0.023618066255778114,-1.7770729006163328,31.30510882126348
1589542973.460983,-0.94,-3.9824892331426365,8.88617117696214,0.5166666666666667,0.17222222222222222,-0.7055555555555556,-0.018042521051616633,-1.9415516327055344,29.839563781577425
1589542973.470983,-0.9488886178295114,-3.882444064961316,8.767777235659024,0.5166666666666667,0.17222222222222222,-0.7055555555555556,0.5,-1.3013892277131107,28.951392277131106
1589542973.480983,-1.0126371534814866,-3.936766120931216,8.837064483724864,0.5166666666666667,0.17222222222222222,-0.7055555555555556,0.33830604656080926,-1.371270465079393,28.215170814021114
1589542973.490983,-1.0541826166754065,-3.9462886733088625,8.803019140010488,0.5166666666666667,0.17222222222222222,-0.7055555555555556,0.07271729155742003,-1.559554437598322,27.728184812532774
1589542973.500983,-1.0638155240542706,-4.007905164552764,8.816234491143717,0.5139068962023451,0.16624271954952546,-0.7083153260198771,0.5473814556909558,-1.1142456962060294,27.381390063278896
1589542973.510983,-1.1350694345365482,-3.92,8.870555476292386,0.51,0.15777777777777774,-0.7122222222222222,0.3142358634137062,-1.2799481024397203,26.94010379512056
1589542973.520983,-1.0970083868461344,-3.9011476496263624,8.792295299252725,0.51,0.15777777777777774,-0.7122222222222222,0.3642407847528508,-1.1688024177883407,27.13293836696451
1589542973.530983,-1.0648319802692428,-3.8413441578460588,8.832143664577124,0.51,0.15777777777777774,-0.7122222222222222,0.5021002466344672,-1.0884993834138321,27.89469864351043
1589542973.540983,-1.0743166221694849,-3.8086332443389694,8.915683377830515,0.51,0.15777777777777774,-0.7122222222222222,0.38354222288143974,-1.3039577771185602,28.007190002966478
1589542973.550983,-1.0841689029202841,-3.8158310970797156,8.905831097079716,0.5178745944049812,0.15777777777777774,-0.7210232394983775,0.44277821625887925,-1.192610497237569,27.609333070244674
1589542973.560983,-1.0948086614495842,-3.81,8.885574015651247,0.5288888888888889,0.15777777777777774,-0.7333333333333333,0.3545127934608924,-1.117824804359405,27.259566927520794
1589542973.570983,-1.1478456338913778,-3.8752440462155153,8.86130079383793,0.5288888888888889,0.15777777777777774,-0.7333333333333333,0.14405505776939403,-1.230944942230606,27.05437003851293
1589542973.580983,-1.182496191596444,-3.8303391889546656,8.830354422568888,0.5288888888888889,0.15777777777777774,-0.7333333333333333,0.3973418307333346,-0.9285442256888872,27.272341830733335
1589542973.590983,-1.1349788786482333,-3.6584530209933432,8.793305171530978,0.5288888888888889,0.15777777777777774,-0.7333333333333333,0.6040786610343062,-0.7400673643113159,27.531382008448542
1589542973.600983,-1.114844950076805,-3.7725452828981054,8.76645993343574,0.5288888888888889,0.15777777777777774,-0.7333333333333333,0.5201872919866871,-1.2014698940732207,27.65721906201997
1589542973.610983,-1.1699243454607275,-3.7799243454607274,8.86613056783407,0.5422222222222223,0.1511111111111111,-0.72,-0.21670987759265556,-1.85128888983339,27.34076419585175
1589542973.620983,-1.2774381611065908,-3.8831684296175752,8.888044751830757,0.5422222222222223,0.1511111111111111,-0.72,0.3605344792514239,-1.3216283563873068,28.2568831366965
1589542973.6309829,-1.25,-3.8002615338426127,8.743769223071022,0.5422222222222223,0.1511111111111111,-0.72,0.6924037595489876,-0.9325962404510124,29.060865413483672
1589542973.6409829,-1.251819093587413,-3.7772713596188803,8.722278881715038,0.5422222222222223,0.1511111111111111,-0.72,0.3096576662696671,-1.3295540023819972,29.201711668651665
1589542973.6509829,-1.2838135114031073,-3.679787824120197,8.924321602627966,0.5377542026800219,0.141143990593895,-0.7309982019500315,0.2886655537305797,-1.5908361156735507,29.828657206709927
1589542973.6609828,-1.2936350008462487,-3.6884791701927027,8.86302666892333,0.5277777777777778,0.11888888888888888,-0.7555555555555555,0.1288020745182427,-1.5965781329335815,30.882557303126283
1589542973.6709828,-1.3100765017000378,-3.7921836040800905,8.924137703060069,0.5277777777777778,0.11888888888888888,-0.7555555555555555,-0.10057376275028335,-1.7880737627502834,31.54933061012467
1589542973.6809828,-1.2609502325258555,-3.681900465051711,8.843330325536197,0.5277777777777778,0.11888888888888888,-0.7555555555555555,0.458370930797529,-1.1338802318317485,31.883936628028042
1589542973.6909828,-1.227094738050152,-3.6432420955987834,8.785473690250761,0.5277777777777778,0.11888888888888888,-0.7555555555555555,0.818421128134504,-0.5827630974923969,31.854736902507604
1589542973.7009828,-1.2165384615384616,-3.668846153846154,8.774230769230769,0.5298931623931624,0.11985042735042735,-0.7578632478632479,0.25600961538461536,-1.1105769230769231,31.348557692307693
1589542973.7109828,-1.2652698002583722,-3.571283414488721,8.815405942561862,0.54,0.12444444444444445,-0.7688888888888888,-0.2542233926264533,-1.85008508893968,30.45017017787936
1589542973.7209828,-1.3672348451229253,-3.634539140853821,8.793547971953492,0.54,0.12444444444444445,-0.7688888888888888,-0.24423926067276117,-1.7783696303363805,30.023042957308956
1589542973.7309828,-1.4343432341926408,-3.7155551152238098,8.856262706322942,0.54,0.12444444444444445,-0.7688888888888888,-0.07639026492559492,-1.6193193076663959,30.050503299185607
1589542973.7409828,-1.5013338179174995,-3.847995638742504,8.823330910412503,0.54,0.12444444444444445,-0.7688888888888888,0.29997274214065056,-1.3500363438124658,30.708363619843723
1589542973.7509828,-1.5076853534435763,-3.790831819007814,8.791573232782119,0.54,0.12444444444444445,-0.7688888888888888,-0.05730113120116298,-1.8264015082682175,31.105334590223514
1589542973.7609828,-1.4684461685620152,-3.5311653735784887,8.897280794983526,0.5344444444444445,0.10666666666666667,-0.7744444444444445,0.3173557232437028,-1.1923557232437028,32.870768678924435
1589542973.7709827,-1.4351843752808315,-3.556543749812779,8.842096875655274,0.5344444444444445,0.10666666666666667,-0.7744444444444445,0.31869139981427674,-1.3881054728454603,34.53931641853638
1589542973.7809827,-1.4735751278974294,-3.5807253836922883,8.893212436051286,0.5344444444444445,0.10666666666666667,-0.7744444444444445,-0.25,-1.6510146924145772,36.02094123034169
1589542973.7909827,-1.5133114381355397,-3.6999343144066192,8.87334428093223,0.5344444444444445,0.10666666666666667,-0.7744444444444445,-0.25,-1.361270763595023,37.17991694561991
1589542973.8009827,-1.605223141906306,-3.789553716187388,8.984181813010212,0.5395188250798798,0.09990082581941956,-0.778673094973974,0.6362086497710271,-1.733212802571323,39.09793391074324
1589542973.8109827,-1.6404239492724169,-3.6744638647264454,8.851920169091944,0.5544444444444444,0.08,-0.7911111111111111,-0.3497505284123242,-1.6795509511421836,40.61580359320381
1589542973.8209827,-1.6313428786332134,-3.635880030086499,8.874628485467147,0.5544444444444444,0.08,-0.7911111111111111,-0.250570837586633,-1.835642427335733,42.72889411970129
1589542973.8309827,-1.636319506640395,-3.6260070626167504,8.79746513472709,0.5544444444444444,0.08,-0.7911111111111111,0.7914496916502469,-1.041449691650247,45.736760792241355
1589542973.8409827,-1.6104103824878258,-3.550512978109782,8.904538319701196,0.5544444444444444,0.08,-0.7911111111111111,0.6868587773627725,-1.0631412226372277,47.81891222637228
1589542973.8509827,-1.7161718122074605,-3.682714765259326,8.785556711266606,0.5544444444444444,0.08,-0.7911111111111111,0.5216065434258428,-1.2283934565741572,49.471434565741575
1589542973.8609827,-1.843699960624754,-3.6738666491665573,8.743699960624753,0.5466666666666666,0.045555555555555564,-0.7833333333333333,-0.37604180338627113,-3.0262501640635255,53.11218663866649
1589542973.8709826,-1.97,-3.724497392856147,8.787460892842205,0.5466666666666666,0.045555555555555564,-0.7833333333333333,0.16567388394724367,-2.3624348214036752,57.07869531271784
1589542973.8809826,-2.0187750420553603,-3.762839628893307,8.777293928735281,0.5466666666666666,0.045555555555555564,-0.7833333333333333,0.20886699036549933,-2.558880690217668,61.97744940612734
1589542973.8909826,-2.09,-3.84,9.08,0.5466666666666666,0.045555555555555564,-0.7833333333333333,-0.125,-3.375,64.5
1589542973.9009826,-2.117555268867648,-3.637074121855392,8.891443441036767,0.5489423496680284,0.03222655511900807,-0.7895101871941724,0.2759265231924002,-2.612727599249399,71.36987993314959
1589542973.9109826,-2.140473904561496,-3.5753269327721884,8.969706056421384,0.5544444444444444,0.0,-0.8044444444444444,0.3095380964906512,-3.0654619035093487,77.90266954911115
1589542973.9209826,-2.168648835509551,-3.5290992236730343,8.809729569563242,0.5544444444444444,0.0,-0.8044444444444444,0.3952699365900875,-3.1542801690931,83.65259615194674
1589542973.9309826,-2.322986920593225,-3.61207847644065,8.706882285339024,0.5544444444444444,0.0,-0.8044444444444444,0.1063317462923439,-3.92167063426914,89.71059760302084
1589542973.9409826,-2.3570007830853563,-3.51,8.855142633404183,0.5544444444444444,0.0,-0.8044444444444444,0.13661343550732744,-4.141962188164224,98.28402226199799
1589542973.9509826,-2.4149455277854073,-3.500108944429186,8.877091458390552,0.5514221774644735,-0.012638571007151071,-0.8027959351826421,0.45431657969422323,-4.247276389270347,106.85048750343313
1589542973.9609826,-2.467963085036256,-3.4458416731587462,8.965841673158746,0.5422222222222223,-0.05111111111111112,-0.7977777777777778,0.2112797387187631,-5.0,116.94676994067238
1589542973.9709826,-2.5448904511880395,-3.390219097623921,8.895547744059803,0.5422222222222223,-0.05111111111111112,-0.7977777777777778,0.41575375990032926,-5.122261279700988,124.79864287621251
1589542973.9809825,-2.567285930408472,-3.345428139183056,8.783570347957639,0.5422222222222223,-0.05111111111111112,-0.7977777777777778,0.6023827534039334,-5.6821482602118,131.89054462934948
1589542973.9909825,-2.5035889540662213,-3.315933389199618,8.944066610800382,0.5422222222222223,-0.05111111111111112,-0.7977777777777778,0.25298535458850585,-6.290972804162688,143.68415898505253
1589542974.0009825,-2.4491940126655156,-3.2611341393206676,8.97791018998273,0.5417744514808418,-0.056394805859399995,-0.7966135738501887,0.9001871042026482,-5.807462579159471,150.53396660909615
1589542974.0109825,-2.446245737463656,-3.1620819124878854,8.89412972468502,0.5366666666666666,-0.11666666666666667,-0.7833333333333333,1.0573804695071611,-5.9712032018378265,157.73101600918912
1589542974.0209825,-2.4688289242255648,-3.1696096414085213,9.089850676621559,0.5366666666666666,-0.11666666666666667,-0.7833333333333333,0.5868974119674073,-6.771024399655408,161.73012199827704
1589542974.0309825,-2.373634414749178,-3.0067043018436475,8.713577961983708,0.5366666666666666,-0.11666666666666667,-0.7833333333333333,0.8529905673860225,-6.587332070887523,167.06849810633128
1589542974.0409825,-2.465680176319334,-2.979904493694135,8.811455858944534,0.5366666666666666,-0.11666666666666667,-0.7833333333333333,0.5269988980041631,-7.58830506918085,169.77819272682748
1589542974.0509825,-2.4569267889149318,-2.872306631738591,8.822689921411829,0.5294007077531137,-0.13034376579806056,-0.7848292660508296,0.8101044395422584,-6.550479112091549,171.49041775816903
1589542974.0609825,-2.5825994523276075,-2.8305504107542943,8.84764575553896,0.4988888888888889,-0.18777777777777774,-0.7911111111111111,0.8065736245954693,-7.070912683594722,173.0905993278566
1589542974.0709825,-2.643510579887655,-2.7795358364657683,8.956421843983613,0.4988888888888889,-0.18777777777777774,-0.7911111111111111,0.4784812265067365,-7.969778160239895,175.00332337289353
1589542974.0809824,-2.7131588799231023,-2.682635519692409,8.722280373358966,0.4988888888888889,-0.18777777777777774,-0.7911111111111111,1.1710280019224446,-7.073481332051704,176.7795560038449
1589542974.0909824,-2.6660788090701617,-2.573255166349113,8.854390192835158,0.4988888888888889,-0.18777777777777774,-0.7911111111111111,1.3313791587278323,-7.165923818596763,178.23651488662298
1589542974.1009824,-2.586481992721797,-2.4953739490525786,9.184916865353244,0.4908756500885375,-0.20536781416879293,-0.7934564492965798,0.18689413665453633,-8.401661908646004,179.44035677312084
1589542974.1109824,-2.563610142889174,-2.3192963574471555,8.889584785666239,0.4533333333333333,-0.2877777777777778,-0.8044444444444444,0.7629754479300435,-7.641580800668583,180.684904910414
1589542974.1209824,-2.5661451389762293,-2.177442669685155,8.953053703936613,0.4533333333333333,-0.2877777777777778,-0.8044444444444444,0.20348331446778184,-8.975907118601434,180.79007619586636
1589542974.1309824,-2.6322274749721912,-2.110500247188234,9.128409652700531,0.4533333333333333,-0.2877777777777778,-0.8044444444444444,0.643463802373007,-9.275572395253986,180.70909034729948
1589542974.1409824,-2.55,-1.9775388763389927,8.9,0.4533333333333333,-0.2877777777777778,-0.8044444444444444,1.5225424469868105,-7.506143882532974,180.82478776506593
1589542974.1509824,-2.55,-1.8675084165269984,8.9,0.4533333333333333,-0.2877777777777778,-0.8044444444444444,1.5989524885229178,-7.315118778692706,180.4427375573854
1589542974.1609824,-2.4778487069118853,-1.71651168581694,9.099535057450819,0.3388888888888889,-0.36777777777777776,-0.7555555555555555,0.9022524545551563,-8.257995090889688,178.07267839991462
1589542974.1709824,-2.5449909288179007,-1.6866706983031552,9.010012094909467,0.3388888888888889,-0.36777777777777776,-0.7555555555555555,1.1353851695065988,-7.791729660986802,176.02111050834193
1589542974.1809824,-2.561338287144103,-1.5653042423323351,8.928880843158812,0.3388888888888889,-0.36777777777777776,-0.7555555555555555,1.6096409750919363,-7.380930829889676,171.5840955188232
1589542974.1909823,-2.4102754293513287,-1.382438677635819,8.817571368995717,0.3388888888888889,-0.36777777777777776,-0.7555555555555555,1.8580996227774196,-7.082780452667096,168.40382482844902
1589542974.2009823,-2.592671927123428,-1.358664036438286,9.15675551706441,0.3377013657229208,-0.36873203746471644,-0.754728530493542,1.6755717539132666,-7.7130224371311265,163.64383860982807
1589542974.2109823,-2.7460946242651745,-1.2685405009797672,9.011459499020233,0.2766666666666667,-0.4177777777777778,-0.7122222222222222,1.045734766390443,-5.862795700828671,156.61156804070166
1589542974.2209823,-2.828648809655142,-1.178597842155197,9.033766740948305,0.2766666666666667,-0.4177777777777778,-0.7122222222222222,0.8641252785561415,-6.166069103986938,150.8782668292037
1589542974.2309823,-2.9410987744348525,-1.0710987744348521,8.946703676695444,0.2766666666666667,-0.4177777777777778,-0.7122222222222222,0.4263734680435652,-6.743132659782174,145.4848774434852
1589542974.2409823,-2.889496248660236,-1.0164951768488746,9.036988210075027,0.2766666666666667,-0.4177777777777778,-0.7122222222222222,0.4312700964630225,-6.915594855305466,140.84981243301178
1589542974.2509823,-2.83,-0.9293500743126083,8.849290004954174,0.27603555995926576,-0.41927665620785515,-0.7111966738226956,0.7544374690364132,-6.410875185781521,137.6087518578152
1589542974.2609823,-2.894404073530681,-0.7977284888236817,8.930165702942952,0.2677777777777778,-0.4388888888888889,-0.6977777777777778,0.7963989816173298,-6.04639898161733,132.90132260291705
1589542974.2709823,-3.0706218106688574,-0.7862385184078858,9.148735966942972,0.2677777777777778,-0.4388888888888889,-0.6977777777777778,0.843781893311428,-5.988277263336071,128.63646759017251
1589542974.2809823,-3.059657734081938,-0.6331559075195528,8.985969549121045,0.2677777777777778,-0.4388888888888889,-0.6977777777777778,1.16444884399441,-5.866207369995342,124.52495433594038
1589542974.2909822,-3.16,-0.61,9.04,0.2677777777777778,-0.4388888888888889,-0.6977777777777778,0.875,-5.625,121.4375
1589542974.3009822,-3.026858501783591,-0.5131698194789752,9.00974056858718,0.2677777777777778,-0.4388888888888889,-0.6977777777777778,0.9128242892660253,-5.284581396605772,119.2058669333045
1589542974.3109822,-2.9817036489151874,-0.40829635108481266,9.206858974358974,0.23348811089195703,-0.4564970962086347,-0.6922172912557528,0.7811113165680473,-5.792313856015779,113.05833949704142
1589542974.3209822,-2.8396345058761763,-0.34737207705666173,9.00189693469569,0.22666666666666666,-0.46,-0.6911111111111111,0.9849460845684747,-5.091694095553492,107.89597047776746
1589542974.3309822,-2.3137072813757777,-0.13338675448225393,9.021853640687889,0.22666666666666666,-0.46,-0.6911111111111111,0.09425082327113063,-5.566790157336261,100.22410812294183
1589542974.3409822,-2.588238514173998,-0.1623206256109482,9.139440860215053,0.22666666666666666,-0.46,-0.6911111111111111,0.4554985337243402,-4.817509775171065,92.40156402737048
1589542974.3509822,-2.7598692444568846,-0.08947697782753863,9.04,0.22654317532039106,-0.46004358518103844,-0.6910166765521945,0.6258172221444709,-3.685456944638823,84.9550527820541
1589542974.3609822,-2.7430977467660997,-0.0223909870643981,9.04,0.2107034275013162,-0.46563408441130016,-0.6789039282199607,0.7306390827118779,-3.423402293220305,79.1898504508467
1589542974.3709822,-2.3361402643171805,0.08949427312775331,9.144809162995594,0.20777777777777776,-0.4666666666666667,-0.6766666666666666,0.39280176211453743,-3.720330396475771,69.23213876651982
1589542974.3809822,-2.4617844933920705,0.16340264317180617,9.02655577092511,0.20777777777777776,-0.4666666666666667,-0.6766666666666666,0.5313799559471366,-3.489366740088106,61.795109030837004
1589542974.3909822,-2.819667372698193,0.15076726895478515,8.926112648050488,0.20777777777777776,-0.4666666666666667,-0.6766666666666666,0.20444340580963083,-1.9950451716088873,49.49600155615112
1589542974.4009821,-2.3392102533068213,0.16889772629030864,9.306852252096482,0.20777777777777776,-0.4666666666666667,-0.6766666666666666,-0.8720524984870754,-3.354829471773148,42.01718790524769
1589542974.4109821,-2.4264913134641306,0.3415268833308372,9.04225475512955,0.2,-0.4666666666666667,-0.6488888888888888,-0.41613935899355997,-1.79113935899356,30.86444370600569
1589542974.4209821,-2.214483488093455,0.5456825670211174,8.932324771604014,0.2,-0.4666666666666667,-0.6488888888888888,1.1542889770855174,-0.22071102291448264,24.631806247191854
1589542974.430982,-1.8640029469548134,0.541918467583497,9.043277996070726,0.2,-0.4666666666666667,-0.6488888888888888,0.5524926326129667,-1.1639918958742632,8.522614808447937
1589542974.440982,-2.3463768674698797,0.3007122891566265,8.794178313253012,0.2,-0.4666666666666667,-0.6488888888888888,-0.6592469879518073,0.03831325301204819,-13.369355421686747
1589542974.450982,-2.6178152151462992,0.2314088812392427,9.198448192771083,0.2,-0.4666666666666667,-0.6488888888888888,-1.381157487091222,-0.14216437177280553,-24.05363080895009
1589542974.460982,-2.7379194881807987,0.29520127954800385,9.285704789996261,0.19376585010085903,-0.47056301035362974,-0.6488888888888888,-0.6728194715632918,0.8020127954800382,-34.29488025009347
1589542974.470982,-2.42344390413338,0.2738028250549959,8.76188549264791,0.19111111111111112,-0.4722222222222222,-0.6488888888888888,-0.27731706611091816,2.0799069410675,-43.33550060784995
1589542974.480982,-1.962104897533866,0.02289915479912008,9.190849832117634,0.19111111111111112,-0.4722222222222222,-0.6488888888888888,-2.1995629269422254,-0.39877851105707984,-52.5926319902744
1589542974.490982,-1.8964223002633889,0.057956540825285334,8.863794995610183,0.19111111111111112,-0.4722222222222222,-0.6488888888888888,-0.20756968832309042,2.692061292800702,-66.63910914179104
1589542974.500982,-2.301490781387182,-0.07092888498683056,9.103153643546971,0.19111111111111112,-0.4722222222222222,-0.6488888888888888,-1.473408691834943,2.9797519754170323,-79.35503731343283
1589542974.510982,-2.4681788470625294,-0.21817884706252955,9.07394038431249,0.225229344953711,-0.4713692663761572,-0.6591243590416689,-1.6104787663411562,2.808084934635376,-86.19936702630335
1589542974.520982,-2.6093697894825127,-0.2882964019122704,9.159965444938354,0.23555555555555555,-0.4711111111111111,-0.6622222222222223,-1.296528767927535,3.1995324163381698,-88.43100729682126
1589542974.530982,-2.6867618887863793,-0.27422511112974923,8.829290111549106,0.23555555555555555,-0.4711111111111111,-0.6622222222222223,-1.1646104168413989,3.8151513880734713,-89.92608194246415
1589542974.540982,-2.8210778480356584,-0.43,9.114251477143153,0.23555555555555555,-0.4711111111111111,-0.6622222222222223,-1.3637724162952214,3.2702096506686016,-92.90830828236757
1589542974.550982,-2.8471645071006533,-0.43,8.975122628796518,0.23555555555555555,-0.4711111111111111,-0.6622222222222223,-1.0920363843681973,3.7593345081372447,-92.20179459935731
1589542974.560982,-3.409583072660649,-0.5152614174635803,9.103275985342748,0.2533333333333333,-0.4544444444444444,-0.6622222222222223,-0.8601919295736884,4.467116140852623,-91.3231717535079
1589542974.570982,-2.94653535949641,-0.4879563784793941,8.832448116455199,0.2533333333333333,-0.4544444444444444,-0.6622222222222223,-0.7882518196124717,4.580394905085079,-90.92219927215501
1589542974.580982,-2.7443860262415813,-0.6257896944696917,8.907719825677596,0.2533333333333333,-0.4544444444444444,-0.6622222222222223,-1.413377729613834,2.932017467198024,-90.61074454077233
1589542974.590982,-2.797177048598094,-0.7872395966930408,9.289510467433555,0.2533333333333333,-0.4544444444444444,-0.6622222222222223,-1.7538414297271168,2.9233070578717864,-89.85390604960439
1589542974.600982,-2.9047635208460765,-0.7458601842899706,9.132268700301887,0.2533333333333333,-0.4544444444444444,-0.6622222222222223,-0.8745289161618752,3.6474467749255144,-90.47459723565044
1589542974.610982,-3.03,-0.74,8.95,0.31777777777777777,-0.4477777777777778,-0.6555555555555556,-0.1875,5.375,-90.9375
1589542974.620982,-3.1249300662307706,-0.8020696586893502,9.008418502295859,0.31777777777777777,-0.4477777777777778,-0.6555555555555556,-0.7123537315643581,4.758867358598362,-91.09723809221524
1589542974.630982,-3.134144546857075,-0.8863855374025872,8.977759009454488,0.31777777777777777,-0.4477777777777778,-0.6555555555555556,-1.3593372957791052,3.8350903912338303,-90.93222882629851
1589542974.640982,-3.2460730890264946,-0.9703100192873819,9.068966602375394,0.31777777777777777,-0.4477777777777778,-0.6555555555555556,-1.2487082529692417,3.558624758907725,-89.68362475890773
1589542974.650982,-2.922484823875749,-0.9958564612729672,8.983811795756777,0.31777777777777777,-0.4477777777777778,-0.6555555555555556,-1.14226474469597,3.23929423408791,-89.36429423408791
1589542974.660982,-2.788600880240908,-1.0244197359277276,9.035119295807274,0.33948420971353566,-0.40888708722621164,-0.6727398141713639,-1.3793722492471625,3.4418722492471625,-90.22824009728978
1589542974.670982,-2.68,-1.09,9.3,0.34444444444444444,-0.4,-0.6766666666666666,-1.625,2.8125,-93.0
1589542974.6809819,-2.6186394075125285,-1.09,9.067706328440286,0.34444444444444444,-0.4,-0.6766666666666666,-1.1593169320147236,3.6069005277395894,-94.04093862255533
1589542974.6909819,-2.6113447346843155,-1.1937741595408222,8.945118894225137,0.34444444444444444,-0.4,-0.6766666666666666,-0.7651839053531686,4.543926437858732,-98.17203789387372
1589542974.7009819,-2.956184474682132,-1.3112368949364266,9.003257863038144,0.34444444444444444,-0.4,-0.6766666666666666,-1.1046383560115993,4.767911415346866,-101.7542452041044
1589542974.7109818,-2.921725796752856,-1.4007276007215874,9.039182200841852,0.3547778445914345,-0.4225456003207056,-0.6832424667602057,-1.1443174984966926,4.6204524954900785,-104.48921377029465
1589542974.7209818,-4.153433162448582,-1.6878399627160543,9.34327551620028,0.3566666666666667,-0.4266666666666667,-0.6844444444444444,-1.4144166278292234,4.417791686085389,-104.17116674434155
1589542974.7309818,-3.200472205618649,-1.5132635983263598,8.64145248057382,0.3566666666666667,-0.4266666666666667,-0.6844444444444444,-0.8123132098027496,5.06268679019725,-95.0027644949193
1589542974.7409818,-2.53555272364976,-1.517222363817512,9.295929701800318,0.3566666666666667,-0.4266666666666667,-0.6844444444444444,-2.508110996547649,1.9490575546236006,-87.8356151092472
1589542974.7509818,-2.2765482854017884,-1.4467573827446438,9.06075339381072,0.3566666666666667,-0.4266666666666667,-0.6844444444444444,-2.026281927555813,2.7948473589397156,-86.78059657080358
1589542974.7609818,-3.592127384416424,-1.743647752990624,9.115459101196251,0.390520709846607,-0.46251212415130943,-0.6774744943779861,0.6453837293889428,5.582883729388943,-87.47161938247656
1589542974.7709818,-2.3696401939823746,-1.5118725556656412,8.593745111331282,0.3944444444444444,-0.4666666666666667,-0.6766666666666666,-0.17969768472649528,5.13020154351567,-86.19703616311206
1589542974.7809818,-2.3120126655152564,-1.6347670696603338,9.12745814622913,0.3944444444444444,-0.4666666666666667,-0.6766666666666666,-1.9870250431778929,2.9655699481865283,-84.02806994818653
1589542974.7909818,-2.660779971637395,-1.7715424893640233,9.299081487945893,0.3944444444444444,-0.4666666666666667,-0.6766666666666666,-2.007690629431657,2.600953147158285,-84.81444992909348
1589542974.8009818,-2.1881443750000003,-1.661426875,8.911591249999999,0.3944444444444444,-0.4666666666666667,-0.6766666666666666,-0.5819140624999999,4.642359375,-84.41753515625
1589542974.8109818,-2.4248809084194978,-1.8154597488921713,9.268649372230428,0.4177134621697029,-0.6186909158050221,-0.641763140078779,-1.4775116552806498,3.2182884047267355,-85.03532934822748
1589542974.8209817,-2.372278119388366,-1.8371801708657562,9.040261196060293,0.42777777777777776,-0.6844444444444444,-0.6266666666666667,-2.1606559830222563,2.9505138896446645,-87.43627564346738
1589542974.8309817,-2.407827258035554,-1.8872562398994432,8.822172741964446,0.42777777777777776,-0.6844444444444444,-0.6266666666666667,-0.5825215478541927,4.386054498114563,-89.87247486083677
1589542974.8409817,-2.2801742772728977,-1.998337260181757,8.957418751636187,0.42777777777777776,-0.6844444444444444,-0.6266666666666667,-0.17943359886308385,5.567151445454206,-95.09629660795093
1589542974.8509817,-2.3529750580480866,-2.089147030185005,8.961490974458842,0.42777777777777776,-0.6844444444444444,-0.6266666666666667,-1.0398752902404316,5.521281177439892,-98.70206351584152
1589542974.8609817,-1.9750219227021761,-2.037110263072426,8.870922783371224,0.5715433401898162,-0.9372402655984988,-0.4394819746670997,-1.2179456601169212,5.537821735953232,-102.73099778743098
1589542974.8709817,-1.7004497354497354,-2.1252061812379273,8.878801545309482,0.7588888888888888,-1.2666666666666666,-0.1955555555555556,-0.9080057949105569,5.345739375997312,-110.82514487276391
1589542974.8809817,-2.1596154534072616,-2.4017846539080665,8.90403076372742,0.7588888888888888,-1.2666666666666666,-0.1955555555555556,-0.6632690931854767,6.210288857091754,-121.27480996243963
1589542974.8909817,-2.640221027206854,-2.578922663263911,8.866906074830242,0.7588888888888888,-1.2666666666666666,-0.1955555555555556,-1.3381388711662034,6.5517092580777465,-129.81483132434033
1589542974.9009817,-3.8807550389941454,-3.1148473719458187,9.015908747218562,0.7588888888888888,-1.2666666666666666,-0.1955555555555556,-1.0359858713733283,6.2376901099613296,-133.6628734688587
1589542974.9109817,-3.798763358778626,-3.129587786259542,8.898129770992366,0.8155424088210348,-0.9203799830364716,-0.47118447837150124,-0.767581106870229,6.125,-132.20839694656487
1589542974.9209816,-2.7463859123857546,-2.848156712890009,8.777706823195713,0.8577777777777778,-0.6622222222222223,-0.6766666666666666,-1.1210088047589033,6.125,-123.56385912385755
1589542974.9309816,-3.0770827348101104,-3.100402207605655,9.198742471207883,0.8577777777777778,-0.6622222222222223,-0.6766666666666666,-1.534471787505355,3.678542627453945,-120.19142977747536
1589542974.9409816,-3.3050908899863405,-3.196946516759483,9.028860985604707,0.8577777777777778,-0.6622222222222223,-0.6766666666666666,-1.0153409687926869,4.5961897131448985,-119.03255358831565
1589542974.9509816,-4.014340625,-3.4999781249999997,9.034859375,0.8577777777777778,-0.6622222222222223,-0.6766666666666666,-1.3048046875,5.248515625,-115.9407421875
1589542974.9609816,-4.371257531888254,-3.6757484936223492,9.134012051021207,0.7108718296510769,-0.4610249454400014,-0.7054091347784125,-1.4797910634634948,4.757859574301588,-110.52133871977463
1589542974.9709816,-3.1339162041741577,-3.1655030094582974,8.832728836082232,0.6022222222222222,-0.31222222222222223,-0.7266666666666667,0.19061693895098886,5.33493902915657,-99.85743179863988
1589542974.9809816,-1.4837678747708363,-2.6051922154844167,9.202520942039206,0.6022222222222222,-0.31222222222222223,-0.7266666666666667,-1.5964144690452686,2.804183119447187,-94.60982936116204
1589542974.9909816,-1.7776291818144685,-2.693101588987378,9.032959029451412,0.6022222222222222,-0.31222222222222223,-0.7266666666666667,-3.0818849311711123,1.5495767125525919,-98.73239706302847
1589542975.0009816,-2.0531927409866713,-2.768487275774816,8.666556320208873,0.6022222222222222,-0.31222222222222223,-0.7266666666666667,-0.866613212564669,4.894409681370574,-101.99263663029639
1589542975.0109816,-2.329377344877345,-2.950821067821068,8.564119047619046,0.5919131794131794,-0.26789333814333816,-0.7266666666666667,1.2938334235209235,7.4194963023088025,-103.83634108946609
1589542975.0209816,-2.7443199949745587,-3.2718133467345103,8.795653412065247,0.5688888888888889,-0.1688888888888889,-0.7266666666666667,-1.308333071591599,3.958833260045648,-101.5125007852252
1589542975.0309815,-1.9752438716199139,-2.8989310083396513,8.813629011877685,0.5688888888888889,-0.1688888888888889,-0.7266666666666667,-2.3549090219863533,4.417409021986353,-96.99331880212281
1589542975.0409815,-1.533037291462218,-2.8078606476938175,9.221614327772325,0.5688888888888889,-0.1688888888888889,-0.7266666666666667,-1.2845620706575074,3.089241903827282,-95.35601692836114
1589542975.0509815,-1.7253195349220747,-2.9787540199554714,9.11819081388637,0.5688888888888889,-0.1688888888888889,-0.7266666666666667,0.8106034056238147,4.8360631236084775,-96.40777294466892
1589542975.0609815,-1.9189592004945395,-3.113654646610344,8.96895920049454,0.5612267555006067,-0.11879032442704399,-0.7231302974105365,-0.04409385946836997,5.736361528951164,-99.09517308881105
1589542975.0709815,-2.1581646572511195,-3.2755790561488114,9.049796073027903,0.5544444444444444,-0.07444444444444444,-0.72,-1.5637745435756114,4.232565449534964,-100.72746727523251
1589542975.0809815,-2.339389982417771,-3.440018439898795,8.76432544277199,0.5544444444444444,-0.07444444444444444,-0.72,-0.7264328444615978,4.406307624683734,-99.2653656889232
1589542975.0909815,-2.350329503576848,-3.438076631259484,8.37038315629742,0.5544444444444444,-0.07444444444444444,-0.72,-0.14319924669412532,5.906944369174074,-95.36364960437894
1589542975.1009815,-2.4839245143385753,-3.635886771507863,8.945650878815911,0.5544444444444444,-0.07444444444444444,-0.72,-2.123918825161887,3.713895698427382,-92.15110083256245
1589542975.1109815,-2.5231477481801456,-3.6825389968802495,9.235686745060395,0.5661758614866366,-0.04646952688229386,-0.7488773342577038,-1.2665186785057196,1.0745640348772096,-87.14597332213422
1589542975.1209815,-2.51,-3.66,9.2,0.5688888888888889,-0.04,-0.7555555555555555,-0.75,0.875,-86.3125
1589542975.1309814,-2.1776301620114418,-3.2870972549396664,8.940589394740638,0.5688888888888889,-0.04,-0.7555555555555555,-2.827311487428489,2.141653345992981,-75.67261189365895
1589542975.1409814,-2.2315899258343634,-3.3710669035846723,8.991851436959209,0.5688888888888889,-0.04,-0.7555555555555555,-2.284453704419036,2.1085251854140914,-68.54073074397404
1589542975.1509814,-2.253000387897595,-3.4991663434186706,8.967750678820792,0.5688888888888889,-0.04,-0.7555555555555555,-0.13438833397982952,2.647389974463408,-63.55470871314973
1589542975.1609814,-2.111108443377351,-3.5393325330132055,8.865834333733494,0.5696543506291406,-0.0331108443377351,-0.7603396914321284,1.9013705482192877,3.642356942777111,-58.67982693077231
1589542975.1709814,-1.817156091592379,-3.3347244071549262,9.064312183184757,0.5733333333333334,0.0,-0.7833333333333333,-1.6135363864126318,1.2284911583056575,-52.966738041135
1589542975.1809814,-1.8798702016017674,-3.2586085138280665,9.013172367538564,0.5733333333333334,0.0,-0.7833333333333333,-1.449441748530398,0.4540823371602162,-49.42821882274036
1589542975.1909814,-1.7881061096605744,-3.245796762402089,8.923187049608355,0.5733333333333334,0.0,-0.7833333333333333,-0.3034060052219322,1.4330261096605743,-44.28507180156658
1589542975.2009814,-1.62,-3.195686360229828,8.962039095678241,0.5733333333333334,0.0,-0.7833333333333333,0.1463238508618536,1.9872556520109916,-37.361769688358734
1589542975.2109814,-1.6024056337000347,-3.1443985915749915,9.07518873259993,0.5664910797722358,0.009774647944425188,-0.7647615022389255,0.3223767628117417,2.187279933592396,-29.97382920110193
1589542975.2209814,-3.445910323253389,-4.894016684045881,9.710715328467153,0.5577777777777778,0.022222222222222227,-0.7411111111111112,0.8125,3.0625,-24.6875
1589542975.2309813,-1.3680016194331976,-2.110396761133603,2.6582089068825914,0.5577777777777778,0.022222222222222227,-0.7411111111111112,-20.435728744939272,4.984078947368421,-48.07902834008097
1589542975.2409813,1.3507148338686297,1.7796779694738936,4.794336753545746,0.5577777777777778,0.022222222222222227,-0.7411111111111112,-43.74150690674473,-27.921693360429757,-80.13064725861922
1589542975.2509813,2.4324886209865912,0.3729581334317462,15.056784352318857,0.5577777777777778,0.022222222222222227,-0.7411111111111112,8.662133001189154,-33.64490814778365,-65.42279826341904
1589542975.2609813,0.6965351951931789,1.2131586720821725,9.922351381289651,0.546457431215244,0.05780045427589988,-0.7257477836333867,42.364650817360946,25.34311327246484,-45.634856164613474
1589542975.2709813,0.7288458078652982,1.2079464882943145,8.310408026755853,0.5422222222222223,0.07111111111111111,-0.72,22.408565909353015,27.90062132395341,-35.77599469496021
1589542975.2809813,1.9671583439049707,0.22600334448160564,10.554849498327759,0.5422222222222223,0.07111111111111111,-0.72,1.0646047168723314,8.793845865528773,-24.650530503978782
1589542975.2909813,0.11633891017852127,-0.7617992335732312,7.5969324235909905,0.5422222222222223,0.07111111111111111,-0.72,6.323020843069445,7.072991634732218,-17.76495466866062
1589542975.3009813,-0.755951881579478,-1.2024345581414109,6.607997216956399,0.5422222222222223,0.07111111111111111,-0.72,8.714304440769572,6.936615173637721,-14.81400370064131
1589542975.3109813,-1.1196732948816197,-2.4881474609768888,9.441640785705642,0.5422222222222223,0.07111111111111111,-0.72,-4.925248558060744,-3.953880631629895,-3.4477095349493805
1589542975.3209813,-1.1223420595945797,-2.3267448214747257,8.842529631133921,0.5188888888888888,0.09222222222222222,-0.7477777777777778,0.9060342281135769,0.3540689731565927,9.316016966362664
1589542975.3309813,-1.2898926325151945,-2.5011831600347305,8.993332627432709,0.5188888888888888,0.09222222222222222,-0.7477777777777778,1.5967630926918108,-0.4623684377713305,17.087381673408018
1589542975.3409812,-1.1798376298274205,-2.4893004535369996,8.843010621797262,0.5188888888888888,0.09222222222222222,-0.7477777777777778,-1.4556525239039524,-1.530918068835529,22.859228054502974
1589542975.3509812,-0.9934469314866817,-2.4110223833801356,8.847575451893455,0.5188888888888888,0.09222222222222222,-0.7477777777777778,-1.285054118160255,-1.819133564164781,27.91972927288094
1589542975.3609812,-0.97608436838189,-2.4563339247896514,8.869251330776716,0.5283792188960753,0.08349111861561063,-0.735630155368579,1.5,-1.2348856676778661,31.268716730582106
1589542975.3709812,-1.0433225554688372,-2.579254097446761,8.903974802096108,0.5466666666666666,0.06666666666666668,-0.7122222222222222,1.0854052848701081,-1.8084234585795518,33.268243393912364
1589542975.3809812,-5.582306232520975,-11.735188274071115,8.996618557730724,0.5466666666666666,0.06666666666666668,-0.7122222222222222,0.07014395225729125,-2.054856047742709,32.80125724131043
1589542975.3909812,-10.761857098860487,-22.73261780104712,8.403865106251924,0.5466666666666666,0.06666666666666668,-0.7122222222222222,-0.8681475207884202,-2.5855212503849705,22.2036880197105
1589542975.4009812,-0.14119566212135082,-1.7561663768646474,9.020958863365975,0.5466666666666666,0.06666666666666668,-0.7122222222222222,0.6131143040175715,0.9256143040175715,-19.121623901802874
1589542975.4109812,-0.7117448278087981,-0.7130803989284447,9.570933737856244,0.5426760911897922,0.06799685849229148,-0.7208684690887834,5.269833457057096,5.769391682535584,-13.186709243778846
1589542975.4209812,-1.6031583971092058,-2.5324554705210587,9.140641735840052,0.54,0.06888888888888889,-0.7266666666666667,-2.3760876698085873,-1.405327984114268,1.1056168930781167
1589542975.4309812,-1.7869056799403817,-4.1053057058613875,9.54926287139941,0.54,0.06888888888888889,-0.7266666666666667,-3.9670438713022063,-3.094512442082753,9.472720166542462
1589542975.4409811,-1.885084849723983,-4.359427519934574,9.004160703332651,0.54,0.06888888888888889,-0.7266666666666667,0.9831961766509917,0.07458852995297494,5.174951441423022
1589542975.4509811,-1.3457510217475612,-3.03346842277975,9.149209450792041,0.54,0.06888888888888889,-0.7266666666666667,0.5639822797649234,-1.198801684018973,-1.3159586527848215
1589542975.4609811,-1.5834876644491511,-3.3400235673160106,8.89896035321142,0.54,0.06888888888888889,-0.7266666666666667,1.033199337728588,0.16974806837504852,-2.4107984547000387
1589542975.4709811,-1.8457944427645063,-3.7888317709908272,8.736027954171286,0.5544444444444444,0.08333333333333333,-0.7266666666666667,-0.15800238551221316,-0.1766937976682458,0.06980143130732788
1589542975.480981,-1.6836625255862028,-3.733604969296557,8.96569827533794,0.5544444444444444,0.08333333333333333,-0.7266666666666667,0.5399689418965203,-0.2194789534483108,0.04360420931033783
1589542975.490981,-1.7576023070585005,-3.6609942323537488,8.816491348530624,0.5544444444444444,0.08333333333333333,-0.7266666666666667,0.5482439577039275,0.3256574430101621,0.2068713952210931
1589542975.500981,-1.740238978967246,-3.7479182131926807,8.891842807840073,0.5544444444444444,0.08333333333333333,-0.7266666666666667,-0.8430031907273556,0.049488832454255394,0.25
1589542975.510981,-1.7640896385542169,-3.7926120481927708,8.83068626506024,0.5544444444444444,0.08431839357429718,-0.7256816064257028,-0.6114759036144578,0.310355421686747,0.22229518072289156
1589542975.520981,-1.7317480481927712,-3.7521850602409637,8.943881831325301,0.5544444444444444,0.08970865863453815,-0.7202913413654618,0.1465301204819277,-0.0433807228915663,0.07069397590361445
1589542975.530981,-1.760023324851569,-3.691995335029686,8.857981340118744,0.5544444444444444,0.09,-0.72,0.5877332485156913,-0.2375291560644614,-0.05002915606446141
1589542975.540981,-1.720501379393067,-3.7005013793930672,8.889832873535646,0.5544444444444444,0.09,-0.72,0.17914367678221582,-0.18018821718443884,0.0010445404022230219
1589542975.550981,-1.7608455575929323,-3.7516911151858645,8.883615185864311,0.5544444444444444,0.09,-0.72,-0.402879646607768,0.227405088348058,0.085094911651942
1589542975.560981,-1.7872437664252292,-3.7755124671495417,8.861024934299085,0.5620906423377419,0.08476839091511228,-0.7248291776168194,-0.35876906929043006,0.1422264598423178,0.1023632299211589
1589542975.570981,-1.7713262363679727,-3.75,8.862568566658718,0.5755555555555556,0.07555555555555556,-0.7333333333333333,0.3285535416169807,-0.056974015133447534,0.002762992433276233
1589542975.580981,-1.74,-3.7071377150673097,8.885710172053848,0.5755555555555556,0.07555555555555556,-0.7333333333333333,0.7142889280829314,-0.02676643150241162,-0.035711071917068606
1589542975.590981,-1.74,-3.67292412447848,8.866198999403977,0.5755555555555556,0.07555555555555556,-0.7333333333333333,0.4634484440190005,0.1670320317156429,0.0
1589542975.600981,-1.7438436836662494,-3.7238436836662494,8.908468949001252,0.5755555555555556,0.07555555555555556,-0.7333333333333333,-0.18105372013280358,0.1570306972187449,0.008007674304686225
1589542975.610981,-1.77,-3.7548100036421026,8.834810003642103,0.5675388828187178,0.07555555555555556,-0.7317299987859657,-0.5023749544737162,0.2998436930921452,0.01740621585528712
1589542975.620981,-1.7607791421653407,-3.7607791421653407,8.85307361927822,0.5422222222222223,0.07555555555555556,-0.7266666666666667,-0.08197855413351779,0.02407975902225297,-0.10578987951112648
1589542975.630981,-1.74,-3.7186142348924385,8.881385765107561,0.5422222222222223,0.07555555555555556,-0.7266666666666667,0.49096441276890385,-0.1694288255378077,-0.11596441276890385
1589542975.640981,-1.7471143303845316,-3.6971143303845317,8.888657008846405,0.5422222222222223,0.07555555555555556,-0.7266666666666667,0.42910630529003146,-0.15687402283837004,-0.16526771754833858
1589542975.650981,-1.7553460241919492,-3.71,8.866288915328177,0.5422222222222223,0.07555555555555556,-0.7266666666666667,0.04206325599841362,0.11045632559984137,-0.0813689767995241
1589542975.660981,-1.752041867601929,-3.722041867601929,8.901937198597107,0.5446751952522448,0.07711653839284265,-0.7280046519557699,-0.4249563879146573,0.0625,0.08758722417068537
1589542975.670981,-1.7980118369136344,-3.7680118369136344,8.832982244629548,0.5540394482601847,0.08307560848880445,-0.7331124263237371,-0.3770710032149642,0.0625,0.1833579935700716
1589542975.680981,-1.7499910176652582,-3.7425067367510563,8.87252470142054,0.5544444444444444,0.08333333333333333,-0.7333333333333333,0.35927675571376294,-0.21877806979606773,0.03127806979606773
1589542975.690981,-1.7778981336704482,-3.721576399747164,8.795780132406266,0.5544444444444444,0.08333333333333333,-0.7333333333333333,0.6645108370205263,-0.13156833227984965,-0.05593166772015036
1589542975.700981,-1.7515428910762807,-3.7069257346457687,8.895382843569488,0.5544444444444444,0.08333333333333333,-0.7333333333333333,0.2354994061650861,0.08657168307210596,-0.04807138615464901
1589542975.710981,-1.7892810998542406,-3.729568659912544,8.880287560058305,0.5544444444444444,0.08333333333333333,-0.7333333333333333,-0.42491924744920906,0.3696082489068039,-0.0008986251821993529
1589542975.720981,-1.763405649832334,-3.753405649832334,8.88297175083833,0.5688888888888889,0.07555555555555556,-0.7122222222222222,-0.37093219693120616,0.061144065643735396,0.0638559343562646
1589542975.7309809,-1.77,-3.741240905036849,8.84624818100737,0.5688888888888889,0.07555555555555556,-0.7122222222222222,0.23448868703938414,-0.13284660611181523,0.11715339388818477
1589542975.7409809,-1.7620933672767305,-3.70472891151782,8.858448809687628,0.5688888888888889,0.07555555555555556,-0.7122222222222222,0.5755835454795651,-0.18411139397275356,0.03294430301362323
1589542975.7509809,-1.7404494633273704,-3.690299642218247,8.908951252236136,0.5688888888888889,0.07555555555555556,-0.7122222222222222,0.4403091457960644,-0.00374552772808584,0.12312723613595708
1589542975.7609808,-1.7421472568716194,-3.7264417706148585,8.914631857820952,0.5660258797267297,0.07352759073235947,-0.7144887711422648,-0.29026106634286347,0.19421017772381058,0.006710177723810575
1589542975.7709808,-1.7605289875367596,-3.778413037389721,8.867355062316202,0.5422222222222223,0.05666666666666665,-0.7333333333333333,-0.6018567952667694,0.23346913947626383,0.0625
1589542975.7809808,-1.7661738102579916,-3.742347620515983,8.82,0.5422222222222223,0.05666666666666665,-0.7333333333333333,0.02772317298797411,-0.11032737177510535,0.0625
1589542975.7909808,-1.763878054587563,-3.7261219454124372,8.839390272937814,0.5422222222222223,0.05666666666666665,-0.7333333333333333,0.42347568234453803,-0.21173784117226901,0.038262158827731
1589542975.8009808,-1.761962457337884,-3.72,8.888754266211603,0.5422222222222223,0.05666666666666665,-0.7333333333333333,0.3995307167235495,-0.19976535836177475,-0.016744880546075085
1589542975.8109808,-1.7416633663366337,-3.7224950495049507,8.9350099009901,0.5432387238723873,0.057221122112211205,-0.7327788778877887,0.07821782178217822,-0.046905940594059406,-0.0521039603960396
1589542975.8209808,-1.7567643564356437,-3.7451465346534656,8.88970693069307,0.552467106710671,0.062254785478547854,-0.7277452145214521,-0.34649752475247525,0.09466584158415842,0.04227722772277229
1589542975.8309808,-1.77,-3.7417798687213004,8.849320787672196,0.5544444444444444,0.06333333333333334,-0.7266666666666667,-0.10963074344310786,0.07362417950812744,0.05137582049187255
1589542975.8409808,-1.7652197442091269,-3.7404394884182537,8.826291406849803,0.5544444444444444,0.06333333333333334,-0.7266666666666667,0.30975319738591467,0.06524680261408536,0.014938299346478662
1589542975.8509808,-1.7502236093010495,-3.71,8.9095527813979,0.5544444444444444,0.06333333333333334,-0.7266666666666667,0.49021709307908634,-0.12220488373688182,0.06110244186844091
1589542975.8609807,-1.757415975032581,-3.71,8.895168049934838,0.5544444444444444,0.06333333333333334,-0.7266666666666667,0.17555109232457644,-0.03230031209273612,0.01615015604636806
1589542975.8709807,-1.7500026040697891,-3.749989583720844,8.909994791860422,0.5422254049741867,0.06888744218345051,-0.7055610530362214,-0.31240234738290984,0.24993489825527324,-0.06248372456381831
1589542975.8809807,-1.7764147140337616,-3.767609809355841,8.830755857898716,0.5422222222222223,0.06888888888888889,-0.7055555555555556,-0.36753065423700343,0.029877383051986228,-0.0625
1589542975.8909807,-1.76,-3.742601928902197,8.789247588872254,0.5422222222222223,0.06888888888888889,-0.7055555555555556,0.3634405139096828,-0.09717845827095156,0.05094051390968281
1589542975.9009807,-1.76,-3.713394728595801,8.82575658925525,0.5422222222222223,0.06888888888888889,-0.7055555555555556,0.31780426343093904,-0.23408720970718289,0.005304263430939038
1589542975.9109807,-1.7504047437443102,-3.7208094874886206,8.92,0.5419973645864944,0.06915871805176237,-0.7064100145713216,0.29479246118642816,-0.11235175799030583,-0.05997035159806117
1589542975.9209807,-1.7608639657347376,-3.742591897204213,8.915680171326311,0.5366666666666666,0.07555555555555556,-0.7266666666666667,-0.14119935752632967,0.17130064247367033,0.010799571684219791
1589542975.9309807,-1.7723700956727815,-3.7676299043272183,8.83918875625384,0.5366666666666666,0.07555555555555556,-0.7266666666666667,-0.25324760818046166,0.0,0.125
1589542975.9409807,-1.7780683562713782,-3.754205068814134,8.768974655929327,0.5366666666666666,0.07555555555555556,-0.7266666666666667,0.009936639823318702,-0.01207277330388645,0.1008544533922271
1589542975.9509807,-1.7630006034298171,-3.7183343390496955,8.903998793140365,0.5366666666666666,0.07555555555555556,-0.7266666666666667,0.29791792381211923,-0.0770820761878808,0.0
1589542975.9609807,-1.7416265232746826,-3.684066308186707,8.946746953450635,0.5366666666666666,0.07555555555555556,-0.7272088410915609,0.22966845906646727,-0.0995855738330841,0.0
1589542975.9709806,-1.76,-3.7331387334598114,8.91,0.5366666666666666,0.07555555555555556,-0.7333333333333333,-0.05885125237146082,0.1875,0.0
1589542975.9809806,-1.7629772454023245,-3.745954490804649,8.868318564367458,0.5366666666666666,0.07555555555555556,-0.7333333333333333,-0.15028443247094447,0.09446108117736117,0.0
1589542975.9909806,-1.7679589874411303,-3.7559179748822604,8.792451138147566,0.5366666666666666,0.07555555555555556,-0.7333333333333333,-0.02423101452119309,-0.09948734301412873,0.0
1589542976.0009806,-1.7596785954808296,-3.739035786442489,8.880642809038342,0.5366666666666666,0.07555555555555556,-0.7333333333333333,0.133035112979262,0.0,0.0
1589542976.0109806,-1.75,-3.71,8.900281195822235,0.5367354034232126,0.0756367899042008,-0.7332146062083903,0.37324252611104064,0.0007029895555837456,0.0007029895555837456
1589542976.0209806,-1.75,-3.71,8.94462027992727,0.5475738462044437,0.08844585864565567,-0.7144936595862639,0.09612325045456466,0.11155069981817413,0.11155069981817413
1589542976.0309806,-1.7825234964479548,-3.7262617482239775,8.876822132992102,0.5488888888888889,0.09,-0.7122222222222222,-0.0899538895997882,0.0233640736001412,0.0741820368000706
1589542976.0409806,-1.7685690149498259,-3.751430985050174,8.76715492525087,0.5488888888888889,0.09,-0.7122222222222222,-0.1605634343641204,0.16961268687282408,-0.04461268687282408
1589542976.0509806,-1.7614110178169158,-3.758588982183084,8.802944910915421,0.5488888888888889,0.09,-0.7122222222222222,0.2868113864427606,0.08013772271144787,0.04486227728855213
1589542976.0609806,-1.76,-3.72,8.920589801575723,0.5488888888888889,0.08957403219531174,-0.7130086243231851,0.5532843503793405,-0.11947061022760432,-0.0036862598482637872
1589542976.0709805,-1.76,-3.72,8.935888532243945,0.5488888888888889,0.0785249489349285,-0.7334069318808157,0.31424168368835714,0.02395498978698571,-0.09930332652465712
1589542976.0809805,-1.77,-3.74,8.907604053635096,0.5488888888888889,0.07555555555555556,-0.7388888888888889,-0.25,0.13095958959851187,-0.0059595895985118585
1589542976.0909805,-1.77,-3.74,8.801950085258099,0.5488888888888889,0.07555555555555556,-0.7388888888888889,-0.25,0.18175476670283677,-0.056754766702836766
1589542976.1009805,-1.76,-3.7378961468308254,8.862623119015048,0.5488888888888889,0.07555555555555556,-0.7388888888888889,0.07889449384404924,0.0,-0.0625
1589542976.1109805,-1.759656509034528,-3.7297710060230185,8.910343490965472,0.5489524983269393,0.07547922422989511,-0.7385835635862471,0.37428439382193335,0.002146818534200012,-0.0625
1589542976.1209805,-1.7371023657043576,-3.713551182852179,8.924019677165195,0.5544444444444444,0.06888888888888889,-0.7122222222222222,0.25701276793470573,0.17640255358694115,-0.02920766076082345
1589542976.1309805,-1.7696496561913964,-3.731401375234415,8.846846905722566,0.5544444444444444,0.06888888888888889,-0.7122222222222222,-0.008758595215093482,0.12281035119622663,0.12718964880377337
1589542976.1409805,-1.761688597419082,-3.77,8.768442987095408,0.5544444444444444,0.06888888888888889,-0.7122222222222222,-0.20778506452295326,0.051946266130738314,0.15583879839221493
1589542976.1509805,-1.77,-3.767867127249357,8.813199309125965,0.5544444444444444,0.06888888888888889,-0.7122222222222222,0.016663068364395888,-0.006665227345758354,0.0
1589542976.1609805,-1.77,-3.734172557840617,8.863741163239073,0.5544444444444444,0.06888888888888889,-0.7122222222222222,0.27990189187017994,-0.11196075674807197,0.0
1589542976.1709805,-1.7465481812380346,-3.73,8.940355456285896,0.5501015150440804,0.06888888888888889,-0.7287253539436054,0.2636420442459051,-0.027284088491810243,-0.09771591150818976
1589542976.1809804,-1.74,-3.73,8.926839888007954,0.5488888888888889,0.06888888888888889,-0.7333333333333333,-0.009063374937854918,0.0,-0.125
1589542976.1909804,-1.758149106845383,-3.757223660268074,8.811105358927703,0.5488888888888889,0.06888888888888889,-0.7333333333333333,-0.34607979445910964,0.05671595889182193,0.15857979445910964
1589542976.2009804,-1.76,-3.738660580081278,8.835565699864537,0.5488888888888889,0.06888888888888889,-0.7333333333333333,-0.10825725101597727,-0.0264142496613409,0.009671500677318201
1589542976.2109804,-1.7691209512945487,-3.73,8.886483805178196,0.5488888888888889,0.06888888888888889,-0.7333333333333333,0.17101783677278853,-0.17651189118185903,-0.005494054409070484
1589542976.2209804,-1.7627750169622063,-3.73,8.94779986430235,0.5440722335303598,0.07370554424741797,-0.7285166779748042,0.413280719931051,-0.14234385601378982,-0.09031228797242037
1589542976.2309804,-1.740221320545924,-3.73,8.950221320545923,0.5422222222222223,0.07555555555555556,-0.7266666666666667,0.005533013648100327,-0.125,0.060425119881962364
1589542976.2409804,-1.7566772126551862,-3.7633544253103723,8.808243692430917,0.5422222222222223,0.07555555555555556,-0.7266666666666667,-0.05211628954745695,-0.07288371045254305,0.0625
1589542976.2509804,-1.769010651686773,-3.7419786966264543,8.815936089879363,0.5422222222222223,0.07555555555555556,-0.7266666666666667,-0.2190828652116524,0.11881657304233048,0.11263314608466096
1589542976.2609804,-1.7625731344199895,-3.7548537311600207,8.854561193480063,0.5422222222222223,0.07555555555555556,-0.7266666666666667,-0.017910450624673863,0.07858209012493478,0.03216418024986954
1589542976.2709804,-1.7417926745489387,-3.732689011823408,8.933725639078714,0.5422222222222223,0.06948644707186849,-0.7327357751503537,0.23319367610369887,0.1193978920345663,0.0
1589542976.2809803,-1.7479751030636166,-3.73,8.908099587745534,0.5422222222222223,0.06888888888888889,-0.7333333333333333,0.05062242340958695,0.07515560585239674,0.0
1589542976.2909803,-1.7508133356835294,-3.7491866643164706,8.80081333568353,0.5422222222222223,0.06888888888888889,-0.7333333333333333,-0.125,0.0625,0.1097499559338252
1589542976.3009803,-1.76,-3.7419887450144786,8.818949352565154,0.5422222222222223,0.06888888888888889,-0.7333333333333333,-0.11257034365950937,0.056285171829754684,-0.06871482817024531
1589542976.3109803,-1.76,-3.7572660219636123,8.887697098836258,0.5422222222222223,0.06888888888888889,-0.7333333333333333,-0.01708736272742173,0.008543681363710864,-0.11645631863628914
1589542976.3209803,-1.745829561352975,-3.7245739033824377,8.92834087729405,0.5382859892647153,0.0791230945784069,-0.7238863742353167,0.1328478623158588,-0.1771304830878117,0.007847862315858795
1589542976.3309803,-1.7469959448908143,-3.7239918897816287,8.94,0.5366666666666666,0.08333333333333333,-0.72,0.14377534443241063,-0.25,-0.024949311135178703
1589542976.3409803,-1.75,-3.73,8.85586372091838,0.5366666666666666,0.08333333333333333,-0.72,-0.11402352011823763,-0.1065858879290574,-0.0625
1589542976.3509803,-1.7679347647327548,-3.7359782549109184,8.835978254910918,0.5366666666666666,0.08333333333333333,-0.72,-0.2622281863864778,0.012228186386477838,0.08695637277295568
1589542976.3609803,-1.7732653130173317,-3.74,8.860204060948005,0.5366666666666666,0.08333333333333333,-0.72,-0.10204103179161458,0.0625,0.06122461907496876
1589542976.3709803,-1.7799079133157345,-3.7201841733685312,8.909631653262938,0.5223552363217168,0.08993860887715636,-0.7122938451988731,0.06192445822334091,0.0005755417766590901,0.0
1589542976.3809803,-1.7637917680256885,-3.728104115987156,8.885687652038534,0.5222222222222223,0.09,-0.7122222222222222,0.0625,-0.15195217475917097,0.05065072491972365
1589542976.3909802,-1.7533770053475937,-3.7167540106951873,8.833639037433155,0.5222222222222223,0.09,-0.7122222222222222,0.1038937165775401,-0.1875,0.021106283422459897
1589542976.4009802,-1.7594571862610693,-3.738371558783208,8.81,0.5222222222222223,0.09,-0.7122222222222222,-0.052322242395049845,-0.010177757604950155,0.05910741413168328
1589542976.4109802,-1.7836418503231837,-3.755761233548789,8.841522467097578,0.5222222222222223,0.09,-0.7122222222222222,-0.013246145160034264,-0.09850770967993147,0.013246145160034264
1589542976.4209802,-1.778606177015519,-3.72965154425388,8.92,0.5422222222222223,0.08333333333333333,-0.72,0.1875,0.05378860634699393,0.0625
1589542976.4309802,-1.7500885587530384,-3.7225221396882597,8.92,0.5422222222222223,0.08333333333333333,-0.72,0.1875,-0.12444650779351024,0.0625
1589542976.4409802,-1.7502078885940586,-3.730103944297029,8.810415777188117,0.5422222222222223,0.08333333333333333,-0.72,0.060551044430700474,-0.0012993037128663488,-0.06120069628713365
1589542976.4509802,-1.766943917961814,-3.7384719589809072,8.843887835923628,0.5422222222222223,0.08333333333333333,-0.72,-0.09634923089200567,-0.1058994872613371,0.043399487261337105
1589542976.4609802,-1.7617902298850574,-3.74,8.874629310344828,0.5422222222222223,0.08333333333333333,-0.72,-0.07368893678160919,-0.125,0.11381106321839081
1589542976.4709802,-1.76,-3.7301209550288057,8.88,0.536733863904892,0.07564963168907106,-0.7265860299807962,0.12273209320989423,-0.06325596893003525,-0.06023209320989423
1589542976.4809802,-1.76,-3.73,8.919585279816951,0.5366666666666666,0.07555555555555556,-0.7266666666666667,0.24870399942797217,-0.0625,-0.0625
1589542976.4909801,-1.7408568924964258,-3.7395715537517873,8.814712908730343,0.5366666666666666,0.07555555555555556,-0.7266666666666667,0.19017778905133054,-0.002677789051330537,-0.002677789051330537
1589542976.5009801,-1.7791332791247783,-3.7308667208752215,8.86086672087522,0.5366666666666666,0.07555555555555556,-0.7266666666666667,-0.11687449179479598,0.18208299452986398,-0.002708502735068007
1589542976.5109801,-1.7636309875813128,-3.746369012418687,8.876369012418687,0.5366666666666666,0.07555555555555556,-0.7266666666666667,0.02845949142519219,0.0851936723832052,-0.0511531638083974
1589542976.5209801,-1.7597535134275548,-3.7204929731448906,8.900246486572446,0.5488888888888889,0.09,-0.72,0.07020270538891207,-0.24229729461108793,0.0625
1589542976.53098,-1.7514161051145964,-3.7371677897708073,8.908583894885403,0.5488888888888889,0.09,-0.72,0.33074671516886317,0.01824671516886317,0.0625
1589542976.54098,-1.7601109976798144,-3.7300554988399073,8.83,0.5488888888888889,0.09,-0.72,0.12395939675174014,-0.12465313225058004,0.0
1589542976.55098,-1.7756814849187936,-3.737840742459397,8.83,0.5488888888888889,0.09,-0.72,-0.022013921113689106,-0.0759953596287703,0.0
1589542976.56098,-1.7690381729082656,-3.74,8.851923654183468,0.5488888888888889,0.09,-0.72,-0.09675570966166977,-0.0625,0.06851141932333954
1589542976.57098,-1.76,-3.74,8.889638554216868,0.5488888888888889,0.08054439982150825,-0.7243641231593039,-0.0022590361445783136,0.060240963855421686,0.043172690763052204
1589542976.58098,-1.748405537402059,-3.74,8.917391693896912,0.5488888888888889,0.07555555555555556,-0.7266666666666667,0.13496539123713153,0.016301913144302738,0.036232695618565756
1589542976.59098,-1.7465843320666472,-3.733415667933353,8.850988015200235,0.5488888888888889,0.07555555555555556,-0.7266666666666667,0.1875,0.10210830166617949,-0.06095622624963461
1589542976.60098,-1.75,-3.748192727374208,8.837289091061312,0.5488888888888889,0.07555555555555556,-0.7266666666666667,0.1306477269555996,0.07379545391119917,-0.011295453911199169
1589542976.61098,-1.765179919599961,-3.7424100402000198,8.847589959799981,0.5488888888888889,0.07555555555555556,-0.7266666666666667,0.03012550250024512,0.15737449749975488,0.0
1589542976.62098,-1.7633780705672175,-3.7333780705672175,8.883109647163913,0.5488888888888889,0.08070594511438638,-0.7222520470448116,-0.08277411790978115,0.06333882313532828,-0.041387058954890574
1589542976.63098,-1.76,-3.749687506828959,8.888593780730316,0.5488888888888889,0.08333333333333333,-0.72,0.06347654115950263,0.06152345884049737,0.12011729420248683
1589542976.64098,-1.76,-3.7313561766569787,8.806102794956404,0.5488888888888889,0.08333333333333333,-0.72,0.12076194794694173,0.004238052053058279,-0.16630973973470858
1589542976.65098,-1.7506090572789477,-3.73,8.83756377088421,0.5488888888888889,0.08333333333333333,-0.72,-0.05108017601972967,-0.11738678401315313,0.04727356802630625
1589542976.66098,-1.7736847164370395,-3.73,8.879474527395066,0.5488888888888889,0.08333333333333333,-0.72,-0.1118431592438321,0.02302947773149633,0.0625
1589542976.67098,-1.7503928033157499,-3.73,8.899869065561417,0.5488888888888889,0.08333333333333333,-0.712324060118898,-0.125,0.18586331951770912,0.0625
1589542976.68098,-1.7697437299417569,-3.73,8.9,0.5488888888888889,0.08333333333333333,-0.7122222222222222,-0.001601687864019971,0.06410168786401997,-0.06089831213598003
1589542976.69098,-1.7404503390032116,-3.73984988699893,8.821200904008565,0.5488888888888889,0.08333333333333333,-0.7122222222222222,0.1231235874866183,0.12406179374330914,-0.0009382062566908531
