time,acc_x,acc_y,acc_z,mag_x,mag_y,mag_z,gyr_x,gyr_y,gyr_z
1589543005.170984,0.09,-4.19,8.85,0.4577777777777778,0.24,-0.6522222222222223,0.125,0.0,0.0625
1589543005.180984,0.09,-4.209685080020651,8.840157459989674,0.4577777777777778,0.24,-0.6522222222222223,0.001968249870934427,0.18454762519359832,0.0625
1589543005.190984,0.09,-4.190671115794403,8.73369113686922,0.4577777777777778,0.24,-0.6522222222222223,-0.06040276314248917,0.06669447371502166,0.0625
1589543005.200984,0.09,-4.209383238833465,8.80753295533386,0.4577777777777778,0.24,-0.6522222222222223,-0.12307262135457786,-0.30093572812746716,-0.05864524270915572
1589543005.210984,0.08249760094485864,-4.1874928028345755,8.802497600944859,0.4577777777777778,0.24,-0.6522222222222223,-0.0781100059053665,-0.4531699822839005,-0.0625
1589543005.220984,0.08,-4.18,8.8,0.4577777777777778,0.24,-0.6641430955401266,-0.165661403712634,-0.654742105568951,-0.010919298143682997
1589543005.230984,0.1,-4.21,8.828471205929867,0.4577777777777778,0.24,-0.6666666666666666,-0.4366313670056068,-0.8125,0.12065683502803383
1589543005.240984,0.10021347434390913,-4.209928841885364,8.72042694868782,0.4577777777777778,0.24,-0.6666666666666666,-0.3741105235670453,-0.8133894764329547,-0.1866105235670453
1589543005.250984,0.12074960830395613,-4.203083463898682,8.761499216607913,0.4577777777777778,0.24,-0.6666666666666666,-0.28854329873351614,-0.8989567012664839,-0.10104329873351613
1589543005.260984,0.13,-4.186671678038626,8.799992482942061,0.4577777777777778,0.24,-0.6666666666666666,-0.3333020122585868,-0.4793389325777726,-0.1041510061292934
1589543005.270984,0.10343536127209715,-4.171145120424033,8.84541951830387,0.4459712716764876,0.2331128714409141,-0.6538762850569357,-0.26431400530040483,-0.08397100795060722,-0.125
1589543005.280984,0.1,-4.208520432722758,8.85,0.4444444444444444,0.23222222222222225,-0.6522222222222223,-0.12962364774137974,0.11806452838793038,0.055564528387930384
1589543005.290984,0.1,-4.200757727957628,8.748335007533903,0.4444444444444444,0.23222222222222225,-0.6522222222222223,-0.06723579973517191,0.125,0.004735799735171908
1589543005.300984,0.11934149578106612,-4.209670747890533,8.788353739452665,0.4444444444444444,0.23222222222222225,-0.6522222222222223,-0.1833843486316633,0.06455782568416835,0.06044217431583165
1589543005.310984,0.14214542679603182,-4.217381808932011,8.871199898252117,0.4444444444444444,0.23222222222222225,-0.6522222222222223,-0.37204522330026524,-0.07590891747519896,0.10863630582506631
1589543005.320984,0.12384700630085806,-4.202564670867239,8.873847006300858,0.4444444444444444,0.23222222222222225,-0.6270378579193447,-0.3285291929202419,0.14742701769939526,0.016029192920241908
1589543005.3309839,0.11086078819159713,-4.218278423616805,8.851721576383193,0.4444444444444444,0.23222222222222225,-0.6233333333333333,-0.1411397785924461,0.24462007380251796,0.05712007380251797
1589543005.3409839,0.11,-4.2011910597000295,8.699528477600234,0.4444444444444444,0.23222222222222225,-0.6233333333333333,-0.18377793843740808,0.48511175374963234,0.0625
1589543005.3509839,0.08726393923701019,-4.2,8.705157373841994,0.4444444444444444,0.23222222222222225,-0.6233333333333333,-0.09276641348754243,0.5473667932562288,0.015133206743771214
1589543005.3609838,0.0962540192926045,-4.205418006430868,8.737090032154342,0.4444444444444444,0.23222222222222225,-0.6233333333333333,0.039087620578778126,0.6640876205787781,0.03386254019292605
1589543005.3709838,0.11612406699760723,-4.203875933002393,8.772248133995214,0.4526098671079207,0.2410680967743216,-0.6498709569896313,0.23982625620513554,0.7882754187350451,0.10077541873504517
1589543005.3809838,0.10838213037872985,-4.194191065189365,8.750955325946824,0.4577777777777778,0.2466666666666667,-0.6666666666666666,0.3851116851329385,0.8125,0.016082472300592288
1589543005.3909838,0.08455045726275784,-4.197724771368621,8.706825685894136,0.4577777777777778,0.2466666666666667,-0.6666666666666666,0.29266053683835463,0.4745412526228275,0.08233946316164537
1589543005.4009838,0.09643728618570434,-4.18904180920953,8.749311858557112,0.4577777777777778,0.2466666666666667,-0.6666666666666666,0.07877826889891312,0.1352895764584784,0.09075565377978262
1589543005.4109838,0.10570121734178117,-4.192896347974656,8.820091478607532,0.4577777777777778,0.2466666666666667,-0.6666666666666666,0.01810217484160319,-0.11623478322773546,0.03563260838613227
1589543005.4209838,0.12036166578311835,-4.204909583554221,8.880361665783118,0.44533453757698327,0.24327305570281363,-0.6519610191566367,0.125,-0.2193151027861224,-0.0636302055722448
1589543005.4309838,0.12693609964906868,-4.206531950175465,8.88693609964907,0.43333333333333335,0.24,-0.6377777777777778,0.125,-0.1275259342100189,0.03829875438664149
1589543005.4409838,0.11372488525776533,-4.197449770515531,8.804698623093184,0.43333333333333335,0.24,-0.6377777777777778,0.007341598583100045,-0.0625,0.08578053286103335
1589543005.4509838,0.10181632056156771,-4.181816320561568,8.768183679438431,0.43333333333333335,0.24,-0.6377777777777778,-0.01135200350979819,-0.0625,0.01135200350979819
1589543005.4609838,0.09309033487815817,-4.1938193302436835,8.776909665121842,0.43333333333333335,0.24,-0.6377777777777778,-0.04318540701151144,0.23979784908058005,0.04318540701151144
1589543005.4709837,0.09807847626315622,-4.216156952526312,8.78,0.45936397907017007,0.22384304747368755,-0.6494466879356702,-0.0625,0.2740190467105472,0.012009523355273624
1589543005.4809837,0.09139274497110936,-4.194178234913329,8.76278548994222,0.4655555555555556,0.22,-0.6522222222222223,-0.11629534393056655,0.1424093121388669,0.05379534393056655
1589543005.4909837,0.27185639649139626,-4.293917940852226,9.19299142021761,0.4655555555555556,0.22,-0.6522222222222223,-0.9909828404352202,-1.498717825816038,0.008376072472798736
1589543005.5009837,0.08928220196689854,-4.179209642600144,8.744104701367235,0.4655555555555556,0.22,-0.6522222222222223,-0.12590699208443268,-0.20594716958503234,0.04541331854161669
1589543005.5109837,0.03564681864579789,-4.168470227968697,8.67823409322899,0.4655555555555556,0.22,-0.6522222222222223,0.3702194624021776,0.6555120789384143,0.10257315413405921
1589543005.5209837,0.0579614786822296,-4.182038521317771,8.813691829457836,0.4540556419034461,0.22973069616716954,-0.6407223085701128,-0.3088886264590254,-0.23244407704263548,0.025481516472129956
1589543005.5309837,0.005486315138394926,-4.116400700994794,8.675544559558785,0.4511111111111111,0.23222222222222225,-0.6377777777777778,-0.3864298232049894,0.12463597237255808,0.05678508839750528
1589543005.5409837,0.09938932555184261,-4.119035393231986,8.759389325551842,0.4511111111111111,0.23222222222222225,-0.6377777777777778,-1.5044241539982115,-1.5631074386972277,0.006028792300089424
1589543005.5509837,0.2444638138171482,-4.12,9.064139592725011,0.4511111111111111,0.23222222222222225,-0.6377777777777778,-1.5724750727276764,-2.0126246363616174,0.3151495636339411
1589543005.5609837,0.1810452227669167,-3.9010343945031796,8.969461146220937,0.4511111111111111,0.23222222222222225,-0.6377777777777778,-0.9209992026460339,-0.5656648061740792,0.5033001594707932
1589543005.5709836,0.12504013397239708,-3.7252006698619855,8.929919732055206,0.4461244891019101,0.23222222222222225,-0.6485821254643799,-1.466492464052665,-1.5579849281053302,0.9364966506900734
1589543005.5809836,0.022884485628176868,-3.6327661823579684,8.76070981962125,0.4444444444444444,0.23222222222222225,-0.6522222222222223,-1.5632393954388017,-1.4246477328955063,1.7628522671044937
1589543005.5909836,-0.07330594988485203,-3.509765579348984,8.758030454061114,0.4444444444444444,0.23222222222222225,-0.6522222222222223,-1.8297184889836042,-1.6820777334754065,2.395662186780325
1589543005.6009836,-0.17118984004844856,-3.353066509921271,8.789405079975776,0.4444444444444444,0.23222222222222225,-0.6522222222222223,-2.221538687613551,-2.253718250151402,3.4257708132948594
1589543005.6109836,-0.18688811645288683,-3.262265739743464,8.802356636965959,0.4444444444444444,0.23222222222222225,-0.6522222222222223,-2.456949272169457,-2.4038898544338916,4.784746360847286
1589543005.6209836,-0.12751906864712967,-3.2191730228823765,8.897743877960659,0.4492564342744993,0.2298162273071948,-0.6522222222222223,-2.8505620232838216,-2.5277248093135287,5.873118225612204
1589543005.6309836,-0.003737023543698828,-2.9808224624906963,8.969417087789399,0.4577777777777778,0.2255555555555556,-0.6522222222222223,-2.6128559956124886,-2.2096419967093666,6.185071199122498
1589543005.6409836,0.06,-2.811744772382665,8.719349060263056,0.4577777777777778,0.2255555555555556,-0.6522222222222223,-0.13639409005959302,-0.11002679925244196,8.075194382735638
1589543005.6509836,0.013983186031472306,-2.853147661133865,8.70147661133865,0.4577777777777778,0.2255555555555556,-0.6522222222222223,0.9195677947833585,0.38370338435007545,12.970933929726234
1589543005.6609836,-0.03532471320241105,-2.9233117830060276,8.858636496208439,0.4577777777777778,0.2255555555555556,-0.6522222222222223,-0.1371767450904141,-0.9663164738479486,17.740669964028775
1589543005.6709836,-0.061375548164311594,-2.9827510963286232,8.836058936931975,0.4577777777777778,0.2337712292297806,-0.6477983979361011,-0.2964655318517891,-1.2781112958922103,22.2813870410779
1589543005.6809835,-0.027434510731789756,-3.0243231367246914,8.828646273449383,0.4577777777777778,0.24,-0.6444444444444445,0.19002450566165285,-1.1765147033969918,27.13584798039547
1589543005.6909835,-0.03876303935514462,-3.0953757705073497,8.843387268847795,0.4577777777777778,0.24,-0.6444444444444445,0.07023100403034616,-1.5268788525367474,30.743932254623044
1589543005.7009835,-0.05761136712749616,-3.214331797235023,8.836194316436252,0.4577777777777778,0.24,-0.6444444444444445,0.06857238863287252,-1.517713133640553,34.49543970814132
1589543005.7109835,-0.02010267226456016,-3.254020534452912,8.863917862188352,0.4577777777777778,0.24,-0.6444444444444445,0.37435829834649903,-1.4871149790078995,37.78095464313429
1589543005.7209835,-0.0065674663121638764,-3.2302976010635085,8.886567466312165,0.44902115602822595,0.23051365977131888,-0.6495524737983497,0.21267334884283035,-1.8908733156081938,40.293899933530724
1589543005.7309835,-0.07530739114960257,-3.2345127535888007,8.969820144738403,0.4444444444444444,0.2255555555555556,-0.6522222222222223,-0.07355706489500533,-2.3346141297900105,41.572432969510025
1589543005.7409835,-0.06614098634717192,-3.138422959041516,8.813775424909446,0.4444444444444444,0.2255555555555556,-0.6522222222222223,0.22769805888362588,-2.014262329339649,42.658975341320705
1589543005.7509835,-0.0875667331317939,-3.1372959413391652,8.788916832829484,0.4444444444444444,0.2255555555555556,-0.6522222222222223,0.388515469222358,-1.984792082073712,44.20437624622114
1589543005.7609835,-0.1326780466724287,-3.1857739844425237,8.810835782195333,0.4444444444444444,0.2255555555555556,-0.6522222222222223,0.10119922212618843,-2.345975583405359,45.155863764044945
1589543005.7709835,-0.15354596408281543,-3.186382735349068,8.735673542532504,0.4440504484352427,0.2251615595463539,-0.6516706278093398,-0.16533772448240364,-2.597959640828154,45.740243832691505
1589543005.7809834,-0.245347179669107,-3.3380207695036606,8.872352372045022,0.4388888888888889,0.22,-0.6444444444444445,0.2667099364659593,-2.8145076111845713,48.489961944077145
1589543005.7909834,-0.29283572682663306,-3.364328546346734,8.817314185386936,0.4388888888888889,0.22,-0.6444444444444445,0.29477670733354344,-2.504665061000315,50.721072682663305
1589543005.8009834,-0.3436456187419154,-3.343764911608298,8.791175441958512,0.4388888888888889,0.22,-0.6444444444444445,0.4448465122406937,-2.398530697551861,53.035241400373685
1589543005.8109834,-0.3863069971812303,-3.3563069971812305,8.869792322997844,0.4388888888888889,0.22,-0.6444444444444445,0.6644187323826894,-2.375,55.69864553971149
1589543005.8209834,-0.403855279455024,-3.343013043814832,8.850604969809568,0.451311456021744,0.2144312630094098,-0.6555819184256249,0.9186684761572999,-2.0858540408732003,58.4261568160706
1589543005.8309834,-0.42764619313509067,-3.313234644851318,8.810584772540363,0.4711111111111111,0.20555555555555555,-0.6733333333333333,1.1599278232264207,-1.8731495909622127,61.79589230835822
1589543005.8409834,-0.4718960705935591,-3.357370088241949,8.795993664680594,0.4711111111111111,0.20555555555555555,-0.6733333333333333,0.7486612866732031,-2.8033269854438494,65.1481305151218
1589543005.8509834,-0.4843959888788229,-3.38,8.71,0.4711111111111111,0.20555555555555555,-0.6733333333333333,0.7527256255662116,-2.682048748867577,68.59395403142669
1589543005.8609834,-0.49611972238288027,-3.406866203971467,8.833584538268749,0.4711111111111111,0.20555555555555555,-0.6733333333333333,0.9328344900713321,-2.7248240794293426,71.63155846346636
1589543005.8709834,-0.4588855831618927,-3.401603101756607,8.854809305269821,0.4786836173093493,0.18662429005996026,-0.6651297849519087,0.697519385978794,-3.2584922456084824,73.93988368412724
1589543005.8809834,-0.4439935546792181,-3.320016113301955,8.84398549802824,0.4844444444444445,0.17222222222222222,-0.6588888888888889,0.5999899291862782,-3.3499899291862785,75.31234893779417
1589543005.8909833,-0.4403253661968828,-3.186545489435193,8.693090978870387,0.4844444444444445,0.17222222222222222,-0.6588888888888889,0.7787080765868531,-3.0675838468262935,75.71824161531737
1589543005.9009833,-0.41445773915172285,-3.101084521696554,8.705063651386252,0.4844444444444445,0.17222222222222222,-0.6588888888888889,0.6603869575861436,-3.5120608666381052,75.43824782728441
1589543005.9109833,-0.4199251336898396,-3.134812834224599,8.974213903743316,0.4844444444444445,0.17222222222222222,-0.6588888888888889,-0.027740641711229974,-4.652272727272727,74.75327540106952
1589543005.9209833,-0.420287851236834,-3.106583181802587,8.851764504065597,0.4941565932076105,0.16358920109940797,-0.6588888888888889,0.04630836792808868,-4.064532799258929,73.76619163207191
1589543005.9309833,-0.4341729328928288,-3.094317043636853,8.755037597356973,0.5044444444444445,0.15444444444444444,-0.6588888888888889,0.8264411074402405,-2.7742794462798797,72.43209584709909
1589543005.9409833,-0.47447410611088325,-3.1644741061108834,8.972237053055443,0.5044444444444445,0.15444444444444444,-0.6588888888888889,1.0457710376197755,-2.746173707169755,71.11675785764886
1589543005.9509833,-0.5811914371991509,-3.2404765748796605,9.0,0.5044444444444445,0.15444444444444444,-0.6588888888888889,0.44643577899363174,-3.3541498490148594,67.7596552007654
1589543005.9609833,-0.5798894822291337,-3.189845275120787,8.90980106801244,0.5044444444444445,0.15444444444444444,-0.6588888888888889,0.7185427791796256,-3.157700545742621,65.84147057097589
1589543005.9709833,-0.5419075674892548,-3.12,8.847784324141594,0.5101777176800116,0.1443009610276718,-0.6703554353600232,0.4513479741150336,-3.6636554063843145,63.86981757376733
1589543005.9809833,-0.6501315542778576,-3.1677167052059247,8.895301856133992,0.5188888888888888,0.1288888888888889,-0.6877777777777778,0.15436339916255234,-3.1724071933004185,60.78066995812762
1589543005.9909832,-0.759164769894431,-3.151670460211138,8.934997723873318,0.5188888888888888,0.1288888888888889,-0.6877777777777778,0.41664769894431075,-3.0833238494721553,57.92717343001453
1589543006.0009832,-0.78,-3.07057315682483,8.87551390748178,0.5188888888888888,0.1288888888888889,-0.6877777777777778,0.5897974614507412,-3.0114873072537063,56.44466446031038
1589543006.0109832,-0.8090905104542465,-3.098181020908493,8.76151581590959,0.5188888888888888,0.1288888888888889,-0.6877777777777778,0.7140130752825338,-2.268947698869865,55.78977646449144
1589543006.0209832,-0.9078911851539435,-3.205260790102629,8.85030844931815,0.5214033772279238,0.12033962853617008,-0.678222722089445,0.620408055672712,-2.332199845353578,55.075680092787856
1589543006.0309832,-0.9692857142857143,-3.234107142857143,8.880178571428571,0.5244444444444445,0.11,-0.6666666666666666,0.37723214285714285,-2.8638392857142856,54.400669642857146
1589543006.0409832,-0.95,-3.2141995684143225,8.766798273657288,0.5244444444444445,0.11,-0.6666666666666666,0.6737257233056266,-2.2737796715153453,54.19750539482097
1589543006.0509832,-0.9613510900140647,-3.2285133175105485,8.838242132559774,0.5244444444444445,0.11,-0.6666666666666666,0.7162227496483826,-2.247457641086498,53.89443098408931
1589543006.0609832,-1.009608859746102,-3.253565247226564,8.9403911402539,0.5244444444444445,0.11,-0.6666666666666666,0.05570698791506233,-3.0872274217528877,53.2233688193359
1589543006.0709832,-1.0975530860432314,-3.2695551065533146,8.852446913956769,0.5244444444444445,0.11,-0.6666666666666666,0.3055485398955434,-2.6375126281880217,52.82362233616713
1589543006.0809832,-1.20082431178472,-3.2717522424992267,8.926288277141975,0.5311111111111111,0.09555555555555556,-0.7233333333333334,0.5115991339313332,-2.363400866068667,52.97680173213733
1589543006.0909832,-1.2593789959629909,-3.31,8.885589036333082,0.5311111111111111,0.09555555555555556,-0.7233333333333334,0.4336187247686929,-2.5293093623843466,54.0706621467617
1589543006.1009831,-1.3201334400854017,-3.294574326127569,8.828564184681078,0.5311111111111111,0.09555555555555556,-0.7233333333333334,0.5241026154256738,-2.7071156925540434,55.86769415532426
1589543006.1109831,-1.3477469682674827,-3.2133925489564397,8.894354419311044,0.5311111111111111,0.09555555555555556,-0.7233333333333334,0.5080697586119612,-2.883069758611961,58.229744344984695
1589543006.1209831,-1.2891307540341614,-3.161305092746377,8.927392262102485,0.5304347589604325,0.08811568189809069,-0.7189370443539224,0.4184775957621637,-2.793477595762164,60.48916502036749
1589543006.130983,-1.312605486083098,-3.2160794675272286,8.983052037111738,0.5288888888888889,0.07111111111111111,-0.7088888888888889,0.4238528640580879,-2.7065752319483662,62.939983360225895
1589543006.140983,-1.3499958579268925,-3.273336094715405,8.890008284146216,0.5288888888888889,0.07111111111111111,-0.7088888888888889,1.0207988160574368,-2.25,65.47894230437333
1589543006.150983,-1.3725390610004224,-3.2396875119966215,8.830957042496832,0.5288888888888889,0.07111111111111111,-0.7088888888888889,1.1875,-2.186523474989443,66.68945305002111
1589543006.160983,-1.4074040335372762,-3.104351008384319,8.591224790392022,0.5288888888888889,0.07111111111111111,-0.7088888888888889,0.9971433831860412,-1.9403566168139588,68.26953886245185
1589543006.170983,-1.5262905203584343,-3.206290520358434,8.765618927841533,0.5253225733200579,0.05268514733881814,-0.7279092385893203,-0.4201972960226381,-4.4944603835874855,69.95648679452916
1589543006.180983,-1.6461767400029979,-3.2312127974951284,8.845550022483886,0.5222222222222223,0.03666666666666667,-0.7444444444444445,-0.33523995303365917,-4.4367952967040285,71.698996968839
1589543006.190983,-1.6635236479569453,-3.1547047295913893,8.631181081634443,0.5222222222222223,0.03666666666666667,-0.7444444444444445,1.3144066805112755,-1.7389273596770891,73.79429056129165
1589543006.200983,-1.5201141246592431,-3.050701381509033,8.756003326710715,0.5222222222222223,0.03666666666666667,-0.7444444444444445,1.3139265582405395,-2.4250623758259024,77.0434349443238
1589543006.210983,-1.4279517914931286,-2.905512052126718,8.806144625520613,0.5222222222222223,0.03666666666666667,-0.7444444444444445,-0.020425488687979804,-4.150602606335893,79.13629478732821
1589543006.220983,-1.4766455760495727,-2.893338605987607,8.660063271851282,0.5222222222222223,0.03666666666666667,-0.7444444444444445,0.09370056886618583,-3.541930299380342,80.35363940123932
1589543006.230983,-1.6343485963477786,-3.07,9.063917279912783,0.5288888888888889,0.012222222222222223,-0.7511111111111111,0.5053914554374489,-3.8478766353229763,82.47832345325702
1589543006.240983,-1.725276240353905,-3.096346684123867,8.965573211132932,0.5288888888888889,0.012222222222222223,-0.7511111111111111,0.09547650221190662,-4.286904372235117,84.7850483048662
1589543006.250983,-1.85,-3.147511259382819,8.732608840700584,0.5288888888888889,0.012222222222222223,-0.7511111111111111,0.875,-3.265554628857381,87.26677439532943
1589543006.260983,-1.820753138075314,-3.1141650817801443,8.952658805629516,0.5288888888888889,0.012222222222222223,-0.7511111111111111,0.5426492963103842,-3.590290985165462,90.29367154811716
1589543006.270983,-1.7522902438562968,-2.952625853686222,8.969832195085038,0.5338049864314076,0.0010244444864850096,-0.7617626557865684,-0.34427439035925766,-4.99790243856297,93.23426828922227
1589543006.280983,-1.7892819856881115,-2.9199477996335603,9.012206243302105,0.5488888888888889,-0.03333333333333333,-0.7944444444444444,-0.25,-5.375,96.0625
1589543006.290983,-1.78,-2.75796731575317,9.044538653366583,0.5488888888888889,-0.03333333333333333,-0.7944444444444444,-0.3667858279832334,-5.375,96.36280641481403
1589543006.300983,-1.782162661737523,-2.6728280961182995,8.702994454713492,0.5488888888888889,-0.03333333333333333,-0.7944444444444444,-0.6677449168207024,-5.35420517560074,97.28419593345656
1589543006.310983,-1.9401832460732984,-2.842743931461209,8.890975725844836,0.5488888888888889,-0.03333333333333333,-0.7944444444444444,0.41425214183722037,-4.056401713469777,103.61738457877202
1589543006.320983,-2.050294609208586,-2.8555081107651974,8.925508110765197,0.5381786735121161,-0.054753764086878945,-0.7919963952154677,0.15307430771751598,-3.909425692282484,105.99015238407341
1589543006.330983,-2.089509085547061,-2.8295090855470613,8.890511104557518,0.51,-0.1111111111111111,-0.7855555555555556,0.006262618815362622,-4.168712143553912,108.94977286132347
1589543006.340983,-1.9594629039599454,-2.6681429221665907,8.785257168866636,0.51,-0.1111111111111111,-0.7855555555555556,-0.39807123350022755,-5.10207100591716,111.16624943104233
1589543006.350983,-1.9953018183012763,-2.605901020022667,8.83230137481316,0.51,-0.1111111111111111,-0.7855555555555556,-0.5237461194789836,-5.236864744337314,113.48876496772392
1589543006.360983,-2.2680552119644664,-2.757406949285955,9.033517373214888,0.51,-0.1111111111111111,-0.7855555555555556,0.07870656696277971,-3.642931940852356,115.86749761048016
1589543006.370983,-2.181057256990679,-2.639925432756325,8.81105725699068,0.5043104009468856,-0.12743778665483058,-0.7803607042461903,0.3676930758988016,-3.1056424766977364,119.87593209054594
1589543006.3809829,-2.0913881555044207,-2.4924078963303864,8.858046021557467,0.4844444444444445,-0.18444444444444444,-0.7622222222222222,-0.7158305074482257,-6.064802591740341,122.45538633886399
1589543006.3909829,-2.194850563245625,-2.510546202768425,9.110182067589475,0.4844444444444445,-0.18444444444444444,-0.7622222222222222,-0.6325575716007815,-5.7810460572806255,124.80949411813609
1589543006.4009829,-2.3053883934025654,-2.5203530849114233,9.018294441050703,0.4844444444444445,-0.18444444444444444,-0.7622222222222222,0.8745586438607208,-3.7561789859499086,127.51021838729383
1589543006.4109828,-2.117807756794917,-2.3527393663960465,8.672602585598305,0.4844444444444445,-0.18444444444444444,-0.7622222222222222,1.0008548799858807,-1.818507600158842,130.07449176006
1589543006.4209828,-2.0794732860520093,-2.3103156501182034,8.71336756501182,0.48378948253217763,-0.19410513265038087,-0.7653332913054899,0.6651335697399527,-4.112497635933806,131.07762884160758
1589543006.4309828,-2.2381229314420805,-2.365843026004728,9.054464302600472,0.48026393485684266,-0.2461069608615708,-0.7820796427633308,-0.12811465721040194,-5.054479905437352,132.1683451536643
1589543006.4409828,-2.493259337276189,-2.419445029571417,8.914631775095195,0.48,-0.25,-0.7833333333333333,0.4578708579761808,-4.190274852142915,132.8546291420238
1589543006.4509828,-2.4403082667773055,-2.2586582304740173,8.622166787677628,0.48,-0.25,-0.7833333333333333,0.7583860595373924,-4.168801213567058,132.7796351519552
1589543006.4609828,-2.3938185578774696,-2.1579395192924897,8.75,0.48,-0.25,-0.7833333333333333,1.3010395121603309,-3.5353264745738535,132.15264603095358
1589543006.4709828,-2.4835618001569078,-2.187853933385636,8.75,0.48,-0.25,-0.7833333333333333,0.7868855199343842,-4.610375731046288,130.84389041437842
1589543006.4809828,-2.3842230765142522,-2.1191119102875264,9.22066823746169,0.3888888888888889,-0.3211111111111111,-0.7977777777777778,0.25971929420518364,-5.304170283628891,128.49583901713112
1589543006.4909828,-2.153877265399401,-1.903627119244601,8.797129165411802,0.3888888888888889,-0.3211111111111111,-0.7977777777777778,1.049210985526246,-4.328915841408755,126.96329632221376
1589543006.5009828,-2.307072411955793,-1.911878276413262,9.353976899675152,0.3888888888888889,-0.3211111111111111,-0.7977777777777778,-1.794530216049913,-9.098045324074869,122.48445691033155
1589543006.5109828,-2.379162956979082,-1.8902511129062751,9.23142297313556,0.3888888888888889,-0.3211111111111111,-0.7977777777777778,-0.08237977174679001,-6.529819657620185,121.94377782265688
1589543006.5209827,-2.4499953970080552,-1.8366674338319908,8.97497583429229,0.3809277585986447,-0.3344413757831479,-0.7814852320675105,1.8126006904487917,-3.697770425776755,121.23971518987342
1589543006.5309827,-2.54447572339382,-1.807570377636096,9.466854340362923,0.3411111111111111,-0.4011111111111111,-0.7,-0.3145782246199117,-6.749840608141246,118.28436733692986
1589543006.5409827,-2.4954192909206707,-1.6336451772698322,8.940564715872902,0.3411111111111111,-0.4011111111111111,-0.7,0.7978823154766117,-4.645464758332744,116.92348825277759
1589543006.5509827,-2.5195470256503545,-1.6064653447334911,8.786918319083137,0.3411111111111111,-0.4011111111111111,-0.7,1.0779857194833546,-4.42673276332545,115.8002319446971
1589543006.5609827,-2.4451495495495497,-1.5443589189189189,8.953654054054054,0.3411111111111111,-0.4011111111111111,-0.7,0.375,-5.694310810810811,113.22222072072073
1589543006.5709827,-2.425328620057607,-1.4552098062319978,9.231678449855982,0.340898213610311,-0.40334653486951205,-0.6965936399871985,0.47080387536004187,-5.358916764859911,110.51835804529982
1589543006.5809827,-2.581806468902678,-1.3922902966459831,8.952645282318745,0.3388888888888889,-0.4244444444444445,-0.6644444444444444,1.2089715310560927,-3.7880045455482487,105.06824377950484
1589543006.5909827,-2.5875357622698174,-1.3275357622698174,9.096902710819569,0.3388888888888889,-0.4244444444444445,-0.6644444444444444,0.9401377143760373,-4.3186694854975105,100.1342764561764
1589543006.6009827,-2.5486336727444945,-1.2261046649301444,8.910843002604784,0.3388888888888889,-0.4244444444444445,-0.6644444444444444,1.3651284631778358,-3.0815770779067013,93.17690326781909
1589543006.6109827,-2.721089923287395,-1.1754632132006109,8.966893727023988,0.3388888888888889,-0.4244444444444445,-0.6644444444444444,1.1186989072230709,-2.928048360834606,87.48535410336898
1589543006.6209826,-2.8759832474443123,-1.112097762409145,8.783837980293086,0.3388888888888889,-0.4244444444444445,-0.6644444444444444,1.0306913366793682,-2.7960370050190524,83.78903614053347
1589543006.6309826,-2.878729356049204,-1.105700238797584,9.328827684466116,0.35,-0.4177777777777778,-0.6577777777777778,0.2884785182509582,-4.099552505367929,76.67427206870948
1589543006.6409826,-3.0723137278510224,-1.1646172215198762,9.109993177211887,0.35,-0.4177777777777778,-0.6577777777777778,-0.6057971123552666,-3.8365302610719803,73.30758734172134
1589543006.6509826,-2.8624073606411096,-1.0858730238900955,9.038809535835144,0.35,-0.4177777777777778,-0.6577777777777778,0.478504806640066,-4.073082394733741,71.04745399599307
1589543006.6609826,-3.1095587319224878,-1.0435042173847164,8.975256326077075,0.35,-0.4177777777777778,-0.6577777777777778,3.038286866340051,-2.042910416350994,69.50275792548445
1589543006.6709826,-1.3651402548533311,0.30636021551355513,8.876824595912085,0.34976766726531544,-0.4184747759818315,-0.6569646132063818,-0.13752351834430854,-3.8744548020183016,52.12088963482425
1589543006.6809826,-2.1794903926482876,-0.41045080650343807,10.219078786710366,0.3477777777777778,-0.4244444444444445,-0.65,-5.0534348692243425,-8.674024805603754,24.21765953344901
1589543006.6909826,-1.8564784720276455,-0.6095096665732699,9.389197721117027,0.3477777777777778,-0.4244444444444445,-0.65,1.2775812552535724,0.3313515690669653,4.176914051555057
1589543006.7009826,-1.4666287621928955,-0.5877904126023682,8.814962182463095,0.3477777777777778,-0.4244444444444445,-0.65,4.112570744875072,4.213225705492672,-12.146386469146105
1589543006.7109826,-0.7059874729353541,-0.6143887256418188,9.661621172285802,0.3477777777777778,-0.4244444444444445,-0.65,-1.8292655815032477,-1.9513827134240644,-37.39523565573771
1589543006.7209826,-0.33396087180367257,-0.18533585035181055,8.216644585550025,0.3476323627557539,-0.4264802547527793,-0.6502908300440479,-1.040897974944225,0.4773532692637721,-66.77751415822894
1589543006.7309825,-1.2280404257962971,-0.5060549641718096,8.745702481050408,0.3466666666666667,-0.44,-0.6522222222222223,-2.6463519446630492,2.7931892784658077,-110.65746670877687
1589543006.7409825,-1.0847456877487838,-0.7558646616541354,9.171304732419284,0.3466666666666667,-0.44,-0.6522222222222223,-4.193111455108359,1.9849624060150375,-138.05097302078727
1589543006.7509825,-1.0665661689507058,-1.1184184904888526,8.890707711188382,0.3466666666666667,-0.44,-0.6522222222222223,-0.4398074759664553,7.9284618531397015,-163.8708478216404
1589543006.7609825,-1.2479019760671222,-1.516156526523314,9.04971619824859,0.3466666666666667,-0.44,-0.6522222222222223,1.971141281921966,11.841788547063409,-186.79998051441933
1589543006.7709825,-1.2292954081136298,-1.9346607160229594,8.47747908356844,0.3494067462247733,-0.4366336165428976,-0.6532399660580904,-0.05114797159256737,12.435640930537991,-211.52739809319974
1589543006.7809825,-1.2559840682519856,-2.299494709057057,8.916356437510311,0.3855555555555555,-0.3922222222222223,-0.6666666666666666,-2.479222148900568,9.904587742452453,-238.89046039452288
1589543006.7909825,-1.5972052351169792,-2.7015670604586517,9.588190873291639,0.3855555555555555,-0.3922222222222223,-0.6666666666666666,-3.3633889274959463,10.019284225156358,-264.2822055246699
1589543006.8009825,-1.2004136063013062,-2.621768586526638,8.394082721260261,0.3855555555555555,-0.3922222222222223,-0.6666666666666666,-1.7359489763701021,14.0616753630895,-285.9385146980624
1589543006.8109825,-0.8867715776529629,-2.6287384093854897,8.331354315530593,0.3855555555555555,-0.3922222222222223,-0.6666666666666666,-2.912106583801389,12.580588005583436,-300.9671952374622
1589543006.8209825,-1.8744705598953852,-3.3244705598953854,9.268263532812554,0.3903790755206839,-0.38913516944454013,-0.6674384298610871,-3.723059121098455,12.98052883788155,-324.0064695963385
1589543006.8309824,-2.0696754044467514,-3.5751217233324684,8.914882948351934,0.4688888888888889,-0.3388888888888889,-0.68,-0.7616943507223808,18.34856821524353,-333.2108595034172
1589543006.8409824,-1.9535601695648412,-3.6186649364131847,7.978703867116533,0.4688888888888889,-0.3388888888888889,-0.68,0.6443885716757503,20.07215373302189,-335.97766783458775
1589543006.8509824,-1.6865807831026067,-3.857077295207654,8.29244498196661,0.4688888888888889,-0.3388888888888889,-0.68,-4.635763341468156,11.61875445435501,-340.1235462605015
1589543006.8609824,-1.9624275622214977,-4.025144875557005,9.092552983371373,0.4688888888888889,-0.3388888888888889,-0.68,-4.631901423758287,12.41395772198674,-338.4325086947071
1589543006.8709824,-1.98369092727879,-3.9996886841068235,8.21382976143563,0.4706830896494118,-0.3343777555481457,-0.6796924227267676,-1.189375625208403,17.86836521264664,-331.80009813877354
1589543006.8809824,-2.1011415106689357,-4.2502840685953664,9.229710695117161,0.5077777777777778,-0.2411111111111111,-0.6733333333333333,-3.7267885194397175,12.90534592224113,-324.3179244665532
1589543006.8909824,-2.1936127603904603,-4.386866257421757,9.263692512830835,0.5077777777777778,-0.2411111111111111,-0.6733333333333333,-2.8887223885478512,14.725174851564859,-315.43874691808395
1589543006.9009824,-1.9432328976404685,-4.251671193345781,7.86062977423188,0.5077777777777778,-0.2411111111111111,-0.6733333333333333,-0.7421225173994228,16.758392038703107,-304.31352911220506
1589543006.9109824,-1.8476005815333492,-4.362800706147638,9.125733444101591,0.5077777777777778,-0.2411111111111111,-0.6733333333333333,-3.42416701281747,11.099165714751958,-297.86917817618087
1589543006.9209824,-1.5862657251364825,-4.045465523380014,9.075955376216474,0.5077777777777778,-0.2411111111111111,-0.6733333333333333,-3.2686105506764775,11.526945985639687,-292.6969258099929
1589543006.9309824,-1.513389255121778,-4.014702167133778,8.915297832866223,0.5333095610907161,-0.22966582893634566,-0.6398778931301727,-2.246565744286109,12.24522855563889,-283.5125059211305
1589543006.9409823,-1.5410201179569667,-4.292550294892417,8.898778702473367,0.54,-0.22666666666666666,-0.6311111111111111,-2.6683727883068746,12.396057707998228,-271.2852443061286
1589543006.9509823,-1.5627933135991643,-4.346875848859481,8.69859481107435,0.54,-0.22666666666666666,-0.6311111111111111,-2.3138429392303674,11.596798276162284,-260.0022810377851
1589543006.9609823,-1.6577365488420686,-4.580582274072785,8.99072784259098,0.54,-0.22666666666666666,-0.6311111111111111,-2.359488725404841,10.638236766498345,-249.45810443148181
1589543006.9709823,-1.8253608715388108,-4.911384475714934,8.87729005901044,0.54,-0.22666666666666666,-0.6311111111111111,-2.2541420789832047,10.372928960508398,-226.83987743985475
1589543006.9809823,-1.6162285118319788,-4.8757714162411,8.781542832482199,0.749676248931086,-0.4920381692200724,-0.2756443453451293,-1.697142703013738,10.65142864849313,-207.71285199237576
1589543006.9909823,-1.6522599198877057,-5.159359786367215,9.105489746311068,0.8244444444444444,-0.5866666666666667,-0.14888888888888888,0.37099866479509735,10.282250333801226,-177.85445410661097
1589543007.0009823,-1.2961325358098537,-4.914114066845061,8.595808804239466,0.8244444444444444,-0.5866666666666667,-0.14888888888888888,-0.8456273938821555,7.132801432394144,-147.94877092187417
1589543007.0109823,-1.1138804887136946,-4.603791845619815,9.292439253985997,0.8244444444444444,-0.5866666666666667,-0.14888888888888888,-3.237668166931419,2.164909003549646,-125.02911543213509
1589543007.0209823,-0.8506622737345806,-4.28299464611402,9.020995469788787,0.8244444444444444,-0.5866666666666667,-0.14888888888888888,-1.027046439567767,4.88962880704438,-109.14348487968465
1589543007.0309823,-0.8976513584333196,-4.334406748494461,8.84575070105273,1.1766666666666667,0.5644444444444444,-0.3688888888888889,0.03677366340274904,5.470641980416494,-92.3125818852572
1589543007.0409822,-0.8398069231830093,-4.401891922953156,8.63847480807245,1.1766666666666667,0.5644444444444444,-0.3688888888888889,-0.08373557670206408,4.747586539787616,-78.84567430354434
1589543007.0509822,-0.7927593390464467,-4.41033189716396,8.487593390464468,1.1766666666666667,0.5644444444444444,-0.3688888888888889,-0.16163119643956253,3.909426636996354,-65.39606907816865
1589543007.0609822,-0.81,-4.1,8.66,1.1766666666666667,0.5644444444444444,-0.3688888888888889,0.0,2.5625,-53.8125
1589543007.0709822,-0.6669907232822988,-3.9123003243080174,9.089027830153103,1.1766666666666667,0.5644444444444444,-0.3688888888888889,-0.7262189833320762,0.43970604872162333,-42.36058526284033
1589543007.0809822,-0.6889858711464498,-4.045943484585799,9.015245212331362,0.7608173744378682,0.3556534456379019,-0.618398464226168,0.0646821007951216,0.7722880671967478,-31.88705261951735
1589543007.0909822,-0.5942640346873573,-3.887339399817435,8.433697512551346,0.6433333333333333,0.2966666666666667,-0.6888888888888889,0.5327832610680054,2.6446952732770423,-18.683832653468734
1589543007.1009822,-0.6637493903250122,-3.9521243293575137,8.527498780650024,0.6433333333333333,0.2966666666666667,-0.6888888888888889,-1.0078010685939787,-2.1499634195007316,-7.357103267857935
1589543007.1109822,-0.6007063495093735,-4.016254629452866,8.308903440113015,0.6433333333333333,0.2966666666666667,-0.6888888888888889,0.587243709671261,-0.8535673036539269,3.6895295616814927
1589543007.1209822,-0.3983010033444816,-4.2016989966555185,8.39829364548495,0.6433333333333333,0.2966666666666667,-0.6888888888888889,1.8656856187290969,1.222056856187291,18.43065635451505
1589543007.1309822,-0.36639040830010233,-4.163315100398772,8.935671030807779,0.5851096132657342,0.2668447612661891,-0.6981194786557035,-0.21926280128453968,-2.037284513180647,27.20290830010234
1589543007.1409822,-0.15751277402340533,-3.9871954837646286,8.501709246744685,0.5522222222222222,0.25,-0.7033333333333334,0.6652381737267183,-1.7865913960771387,38.89144140431844
1589543007.1509821,-0.24785276304405068,-3.8595130346462025,8.586779144566076,0.5522222222222222,0.25,-0.7033333333333334,0.5692101154873415,-2.1905435334612346,44.63319602753639
1589543007.1609821,-0.45803920181149166,-3.7112687517690346,8.887231814322107,0.5522222222222222,0.25,-0.7033333333333334,-1.0451988395131617,-5.8971306255307105,51.19305034673082
1589543007.1709821,-0.6312707936232889,-4.30494065153353,9.20549883035869,0.5522222222222222,0.25,-0.7033333333333334,0.571333228643216,-4.0783104639577195,58.79943629786865
1589543007.180982,-0.5228296358308916,-3.8613185433235664,8.095466722478024,0.49896283893772386,0.23586995953676573,-0.7152895214176084,2.033931561322729,0.22135307660108783,68.06226454583508
1589543007.190982,-0.5486113962592432,-3.842847150935189,8.656533623314486,0.4977777777777778,0.23555555555555555,-0.7155555555555555,1.526036320139191,-2.2804077859939107,73.34640495867768
1589543007.200982,-0.4273239227890778,-3.773661961394539,8.937384313289614,0.4977777777777778,0.23555555555555555,-0.7155555555555555,0.18712255937164235,-6.629401930273054,81.653421510874
1589543007.210982,-0.40355340042200943,-3.465737907807174,8.62751460801818,0.4977777777777778,0.23555555555555555,-0.7155555555555555,0.27918687104366174,-5.116444418519721,86.26583676554131
1589543007.220982,-0.4680302370275464,-3.37448866111467,8.517481101857783,0.4977777777777778,0.23555555555555555,-0.7155555555555555,0.6845403587443946,-3.208689942344651,90.53586322869955
1589543007.230982,-0.4194786690134943,-3.4910426619730113,9.069822311625177,0.5011400739436948,0.22126579685040837,-0.7323670363851404,1.2228228983320761,-6.152695708658117,93.72552594082642
1589543007.240982,-0.26614798438308485,-3.717233407027612,8.951392821863681,0.5022222222222222,0.21666666666666667,-0.7377777777777778,0.7096538524860059,-5.225023813443718,97.55865750976058
1589543007.250982,-0.46341110682607023,-3.6363517161588894,8.687998457385268,0.5022222222222222,0.21666666666666667,-0.7377777777777778,-0.5360345160046278,-4.4529381989973,97.44117576166603
1589543007.260982,-0.6588647319706903,-4.000299845738526,9.146303509448515,0.5022222222222222,0.21666666666666667,-0.7377777777777778,0.9804160239105284,-5.337534347281141,97.6517938922098
1589543007.270982,-0.5800564412318051,-3.889223685513417,8.828002772551738,0.5022222222222222,0.21666666666666667,-0.7377777777777778,3.026729131597188,-3.487164570749579,99.13540944647985
1589543007.280982,-0.79,-3.52,8.89,0.5188888888888888,0.17222222222222222,-0.7233333333333334,1.375,-3.25,97.75
1589543007.290982,-0.79,-3.561767414844625,8.914680745135461,0.5188888888888888,0.17222222222222222,-0.7233333333333334,1.274141185744513,-3.594106542754014,97.99918059992532
1589543007.300982,-0.8704078526860448,-4.101670978542079,9.069592147313955,0.5188888888888888,0.17222222222222222,-0.7233333333333334,0.5996709024501599,-6.539967280474814,103.17491629888906
1589543007.310982,-0.8533940141931502,-4.11171997668758,8.623982652816345,0.5188888888888888,0.17222222222222222,-0.7233333333333334,1.2253955397853886,-5.694570862902396,109.80514201721004
1589543007.320982,0.4358291333743086,1.1367889776685107,1.5666746568326166,0.5188888888888888,0.17222222222222222,-0.7233333333333334,0.42149405859455036,9.656476644130302,96.10255582872362
1589543007.330982,0.14722657862154342,0.2145205667904797,2.0453193928555047,0.5235999144005747,0.14552641098933575,-0.7084150858796615,-60.119757990553495,-35.17470021094144,-243.47588790296692
1589543007.340982,-0.04973677352097994,-2.9965832681782643,14.250510815741464,0.5255555555555556,0.13444444444444445,-0.7022222222222222,-77.20185040396143,-52.95649270263226,-390.2645132916341
1589543007.350982,-1.3100043327556323,-2.1813344887348354,4.107409012131717,0.5255555555555556,0.13444444444444445,-0.7022222222222222,7.381607452339679,72.08833405545927,-326.88713171577126
1589543007.360982,-0.5251674583463941,1.0209459166204518,7.378587755889374,0.5255555555555556,0.13444444444444445,-0.7022222222222222,90.05476153159887,65.2411764883177,-290.0359375376751
1589543007.370982,-0.4510389246709605,-0.17930831699803984,6.455497059647158,0.5255555555555556,0.13444444444444445,-0.7022222222222222,60.88431111733408,39.770950014001684,-253.4242159059087
1589543007.380982,0.8912458231231901,-1.5368202829137891,9.639295778569839,0.49009619192594245,0.2063762963788025,-0.6890516014455088,-31.669894464245928,-13.118270007239921,-200.1263191969258
1589543007.390982,0.46027447124537146,-1.3155214326060125,6.984797179975315,0.4866666666666667,0.21333333333333332,-0.6877777777777778,-13.522916623083201,4.519001956026024,-177.5487803602435
1589543007.400982,0.39626539979064335,-1.6640985586601176,7.078558257508656,0.4866666666666667,0.21333333333333332,-0.6877777777777778,9.522676946614059,18.88182422095177,-159.97658829213302
1589543007.410982,0.5199143163156016,-2.3835201713673686,9.628952159942877,0.4866666666666667,0.21333333333333332,-0.6877777777777778,-5.47750803284541,0.6905457872188521,-132.73199303820064
1589543007.420982,0.2939494625683575,-2.56540184801056,9.98802526871582,0.4866666666666667,0.21333333333333332,-0.6877777777777778,-10.522388270790119,-2.151621723552706,-114.90057986045635
1589543007.4309819,0.01081009060223842,-2.460607567951679,8.62571113874578,0.4302295256706342,0.2730903061526618,-0.71101660054085,3.937724284952921,11.38205942440931,-92.38161085450346
1589543007.4409819,-0.08037712871481605,-2.509296615662627,8.948644104417513,0.43,0.2733333333333333,-0.7111111111111111,0.9189615210858166,5.0700204769106865,-79.57754095382137
1589543007.4509819,-0.1826899849018621,-2.455685567298552,8.99243667169938,0.43,0.2733333333333333,-0.7111111111111111,-4.975547656992675,1.2757087736956887,-59.872537815243525
1589543007.4609818,-0.06409127560070957,-2.5309413228281152,8.612273826802129,0.43,0.2733333333333333,-0.7111111111111111,0.9141454719284905,3.367079330522727,-41.84947992259313
1589543007.4709818,-2.8947403580653783,-17.25902128796651,9.399994833882605,0.43,0.2733333333333333,-0.7111111111111111,3.047370179032689,4.210681838425225,-28.83021065289035
1589543007.4809818,-1.2063772984441297,-14.050266973125884,8.018592644978783,0.4116265912305516,0.3146735030645922,-0.6957999371365708,-1.5897719236209333,4.284686615983027,13.635276697312584
1589543007.4909818,0.7490697173725829,-3.0657915133484703,6.030424332576528,0.4033333333333333,0.3333333333333333,-0.6888888888888889,0.7613080325686994,1.8068459837156503,97.08600539223362
1589543007.5009818,1.1169790434019164,-1.17748520822995,8.32075924724205,0.4033333333333333,0.3333333333333333,-0.6888888888888889,4.386714127571859,-17.462436061381073,133.90628697942512
1589543007.5109818,0.9904853475170051,-1.5011456042551015,7.493620416304403,0.4033333333333333,0.3333333333333333,-0.6888888888888889,3.204853475170051,-6.297441569068685,120.372321382908
1589543007.5209818,-0.8235443407234538,-7.7468319719953325,9.852392065344224,0.4033333333333333,0.3333333333333333,-0.6888888888888889,1.724401983663944,-2.3004302800466747,105.86035953908984
1589543007.5309818,4.341522398458953,-13.963512848887248,8.76171523423091,0.41980315677782787,0.32806298983109505,-0.6882300959511092,2.4728843907537197,-1.1416323414894052,113.4163439075372
1589543007.5409818,2.057174213095437,-2.8311045278572635,10.991073219996634,0.4311111111111111,0.3244444444444444,-0.6877777777777778,-1.79728791449251,-15.658752735229761,109.03803021376872
1589543007.5509818,0.9499961367587404,-3.780839289163608,7.689158779215763,0.4311111111111111,0.3244444444444444,-0.6877777777777778,-4.235712043654626,-2.183992901294186,51.75196180220205
1589543007.5609818,-0.584294163317501,-2.956576315308732,7.742298364998173,0.4311111111111111,0.3244444444444444,-0.6877777777777778,7.808353980179028,6.984209444647424,22.263965164870296
1589543007.5709817,-0.09496034077555815,-3.695821092831962,8.724837690951821,0.4311111111111111,0.3244444444444444,-0.6877777777777778,0.8283017222385425,0.43716950646298525,3.9074824654817863
1589543007.5809817,0.07409591623036649,-4.277047958115183,8.795546387434555,0.43778061663758,0.2853801977894125,-0.7001640023269342,-2.5879397905759163,-3.3476439790575916,-3.972803664921466
1589543007.5909817,0.0,-4.24,8.73,0.4388888888888889,0.2788888888888889,-0.7022222222222222,-2.0625,-3.125,-3.8125
1589543007.6009817,0.19985251339627455,-4.349010461852513,8.757252615463129,0.4388888888888889,0.2788888888888889,-0.7022222222222222,-1.665066024496045,-1.0810538402653735,-0.34914678489410544
1589543007.6109817,0.10260417091784681,-4.2817361139452315,8.705215279761662,0.4388888888888889,0.2788888888888889,-0.7022222222222222,-0.744531281883851,-0.23910592580500345,-0.14674478635269153
1589543007.6209817,0.1273936170212766,-4.193776595744681,8.791542553191489,0.4388888888888889,0.2788888888888889,-0.7022222222222222,0.2726063829787234,0.10305851063829788,-0.10472074468085106
1589543007.6309817,0.187770197486535,-4.122229802513465,8.904947935368043,0.43941153002194294,0.27899341711549974,-0.7014905246359465,1.1676840215439857,0.28310143626570916,0.0
1589543007.6409817,0.07734268537074149,-4.251014028056113,8.745314629258518,0.4444444444444444,0.28,-0.6944444444444444,-0.03802605210420845,-0.16062124248496995,-0.022945891783567134
1589543007.6509817,0.09938595241487391,-4.2606140475851255,8.68871349195042,0.4444444444444444,0.28,-0.6944444444444444,-0.6326755948140761,-0.2419593246901268,-0.0625
1589543007.6609817,0.14053953572723976,-4.264647442872688,8.685726514327166,0.4444444444444444,0.28,-0.6944444444444444,-0.3236511606819006,-0.0435697769314472,-0.036825580340950306
1589543007.6709816,0.1496981317299138,-4.270997331042734,8.77129919931282,0.4444444444444444,0.28,-0.6944444444444444,0.021900021474368814,-0.22998665521366995,0.05438000429487376
1589543007.6809816,0.11173777315296567,-4.2,8.796951092611863,0.4422707827494508,0.2830431263729911,-0.691836050410452,0.6875,0.10054630593132154,0.11413891779396462
1589543007.6909816,0.1250057052921503,-4.229965768247098,8.830045642337202,0.4388888888888889,0.2877777777777778,-0.6877777777777778,0.2504992130631517,0.0937143419240606,0.0
1589543007.7009816,0.16543166825844569,-4.253509761677365,8.731587855096283,0.4388888888888889,0.2877777777777778,-0.6877777777777778,-0.5931398951646936,-0.07781994758234681,0.08112797903293871
1589543007.7109816,0.15603123862986643,-4.236412495451947,8.761143770466239,0.4388888888888889,0.2877777777777778,-0.6877777777777778,-0.38789048287333017,0.15218761370133582,-0.0023828551380009333
1589543007.7209816,0.13419216886377905,-4.200960844318895,8.801615662272441,0.4388888888888889,0.2877777777777778,-0.6877777777777778,0.1754894460138104,0.09470633239171375,-0.0625
1589543007.7309816,0.12342736653781029,-4.199717900386569,8.849435800773138,0.4425403519234387,0.2921595334192376,-0.6972715816676074,0.5196579182773713,0.10181583655474266,0.01965791827737133
1589543007.7409816,0.1326967663209274,-4.178258084197681,8.857303233679072,0.4444444444444444,0.29444444444444445,-0.7022222222222222,0.28475823672971323,-0.16959655277608293,0.02282260524710189
1589543007.7509816,0.1466201186697944,-4.226201186697944,8.74407810128329,0.4444444444444444,0.29444444444444445,-0.7022222222222222,-0.3301331585483648,-0.1267455498827101,0.04137574168621498
1589543007.7609816,0.1253728774905148,-4.253843219372628,8.677686438745257,0.4444444444444444,0.29444444444444445,-0.7022222222222222,-0.5240201210789294,-0.07695975784214128,-0.05293963676321192
1589543007.7709816,0.12359917883565094,-4.25,8.728929774954487,0.4444444444444444,0.29444444444444445,-0.7022222222222222,-0.2450153968315451,0.016658112871363817,-0.06833675485145446
1589543007.7809815,0.13520118964310707,-4.21640832750175,8.81439643107068,0.441778438690615,0.29817685249980563,-0.6952906072622658,0.36242564730580823,0.09752230580825752,0.0
1589543007.7909815,0.14237832566360895,-4.196504434218145,8.821747782890927,0.4388888888888889,0.3022222222222222,-0.6877777777777778,0.45540639380733244,0.1547290707951117,-0.0515763569317039
1589543007.8009815,0.15737949133572615,-4.221310254332137,8.787725676353674,0.4388888888888889,0.3022222222222222,-0.6877777777777778,0.034920014665586044,0.3176763729690093,-0.09224364169657674
1589543007.8109815,0.14661187121366825,-4.253141549247839,8.669753420461507,0.4388888888888889,0.3022222222222222,-0.6877777777777778,-0.6038241950854264,-0.02117580491457355,0.08367580491457355
1589543007.8209815,0.159150614386754,-4.292355529480786,8.735096313679476,0.4388888888888889,0.3022222222222222,-0.6877777777777778,-0.6184874189237639,0.04657401975163782,0.005308660082787393
1589543007.8309815,0.14436420530743285,-4.2015463079611495,8.809725281423985,0.44045438741460197,0.3000305242862239,-0.6918480739446319,0.17783557524281707,-0.08977628317145528,0.009664424757182918
1589543007.8409815,0.1248917882999729,-4.185108211700027,8.854891788299973,0.4444444444444444,0.29444444444444445,-0.7022222222222222,0.3284631615625847,0.0,-0.07711051531224593
1589543007.8509815,0.12656226071103008,-4.208281130355515,8.802734913400183,0.4444444444444444,0.29444444444444445,-0.7022222222222222,0.09033614402917045,0.0,0.0366214676390155
1589543007.8609815,0.1581499646701858,-4.236299929340372,8.745925017664907,0.4444444444444444,0.29444444444444445,-0.7022222222222222,-0.4143745583773224,-0.025468639594330603,0.0
1589543007.8709815,0.1531072877581526,-4.247330465818615,8.761115890302309,0.4444444444444444,0.29444444444444445,-0.7022222222222222,-0.35134109697690735,-0.0625,0.05278972575577316
1589543007.8809814,0.1283991029625841,-4.225197308887752,8.79320179407483,0.4451559542388515,0.29213203761262146,-0.7043567516054434,0.01754485187079513,-0.0625,0.10498878703230122
1589543007.8909814,0.12419518455145441,-4.2041951845514545,8.801609630897092,0.4488888888888889,0.28,-0.7155555555555555,0.4375,-0.0625,0.0
1589543007.9009814,0.14289371903468115,-4.222893719034682,8.751318842895955,0.4488888888888889,0.28,-0.7155555555555555,0.27632851206648557,0.01808574396675723,-0.05372382931117149
1589543007.9109814,0.1490498580352073,-4.245475070982397,8.705475070982397,0.4488888888888889,0.28,-0.7155555555555555,-0.24547274275979558,-0.04609596819988643,-0.09078080636002273
1589543007.9209814,0.13081210755783634,-4.25,8.719187892442164,0.4488888888888889,0.28,-0.7155555555555555,-0.44257567223647704,-0.13007567223647704,-0.005075672236477043
1589543007.9309814,0.12642817036977622,-4.233929574075559,8.762140851848882,0.4488888888888889,0.28,-0.7134128320989634,-0.11385557872784152,-0.042411967594449346,0.0625
