time,acc_x,acc_y,acc_z,mag_x,mag_y,mag_z,gyr_x,gyr_y,gyr_z
1589543883.621265,0.22,-4.16,8.72,0.5022222222222222,0.3333333333333333,-0.7144444444444444,-0.25,-0.3125,0.0
1589543883.631265,0.2,-4.164717275024981,8.799434550049961,0.5058912139083185,0.32704363330002545,-0.7076306027416942,-0.1875,-0.12146593781226121,0.05896593781226121
1589543883.641265,0.18872545099607216,-4.175637274501963,8.838186372509819,0.51,0.32,-0.7,-0.2931988969118235,-0.1875,0.125
1589543883.651265,0.18,-4.175524392577004,8.824195140616032,0.51,0.32,-0.7,-0.4029725463937249,-0.24344509278744977,0.09702745360627511
1589543883.661265,0.1849415724388307,-4.16505842756117,8.799766289755322,0.51,0.32,-0.7,-0.34484551677192454,-0.34338482774269186,0.0007303445146163434
1589543883.671265,0.19439695243958752,-4.168793904879175,8.841984762197937,0.51,0.32,-0.7,-0.25,-0.4024809527474219,-0.03501904725257811
1589543883.6812649,0.20218652563444764,-4.18,8.865626948731103,0.5112147364635821,0.32291536751259686,-0.7,-0.2363342147847022,-0.45116578521529777,0.0
1589543883.6912649,0.2165308168681805,-4.17346918313182,8.810815098790917,0.5155555555555555,0.3333333333333333,-0.7,-0.269135210852256,-0.5,-0.04081760542612799
1589543883.7012649,0.2051360602851725,-4.17,8.723112271283275,0.5155555555555555,0.3333333333333333,-0.7,-0.12670075356465632,-0.5,-0.15539962321767184
1589543883.7112648,0.20708552542830164,-4.17,8.728342101713206,0.5155555555555555,0.3333333333333333,-0.7,-0.0182154660731148,-0.3228618642924592,-0.010361864292459194
1589543883.7212648,0.10508869313382406,-4.095063352238445,8.720016893930252,0.5155555555555555,0.3333333333333333,-0.7,0.0,-0.09388198383009533,0.031276396766019066
1589543883.7312648,0.13342878228782287,-4.077183763837638,8.82389815498155,0.5129081590815908,0.3333333333333333,-0.6968231242312423,-0.17869926199261993,0.00293357933579335,0.08934963099630996
1589543883.7412648,0.2143418095801301,-4.153131638083974,8.881210171496157,0.51,0.3333333333333333,-0.6933333333333334,-0.2929272619751626,-0.18560910703725608,0.7209727971614429
1589543883.7512648,0.16857410686386834,-4.177138839704198,8.794296427455473,0.51,0.3333333333333333,-0.6933333333333334,-0.25,-0.2142940839495886,0.8928822518487658
1589543883.7612648,0.19580191050779286,-4.201933970169264,8.81966985084632,0.51,0.3333333333333333,-0.6933333333333334,-0.47376194067370536,-0.37396828389475445,0.9243809703368527
1589543883.7712648,0.2096671425351266,-4.199667142535127,8.849667142535127,0.51,0.3333333333333333,-0.6933333333333334,-0.5604196408445413,-0.5,0.9031294612668119
1589543883.7812648,0.20902089535627835,-4.19,8.83548955232186,0.51,0.3273194030958144,-0.6933333333333334,-0.44361940402326033,-0.4154291060348905,0.6997388080465207
1589543883.7912648,0.20998150820855133,-4.179981508208551,8.83,0.51,0.32,-0.6933333333333334,-0.4063077868482771,-0.4064233605448313,0.49988442630344576
1589543883.8012648,0.19636296881023627,-4.155451875240945,8.779081563343308,0.51,0.32,-0.6933333333333334,-0.41476855506397664,-0.5,0.46023144493602336
1589543883.8112648,0.1799336466685098,-4.1224502350013825,8.70006635333149,0.51,0.32,-0.6933333333333334,-0.34354264583909316,-0.4842713229195466,0.5629147083218137
1589543883.8212647,0.15,-4.1,8.750142296937307,0.51,0.32,-0.6933333333333334,-0.25,-0.3955368813806112,0.8968709151678608
1589543883.8312647,0.14774213836477987,-4.1,8.79451572327044,0.5104181225250408,0.3205017470300489,-0.6927479617982762,-0.2452961215932914,-0.27486897274633126,1.2157232704402516
1589543883.8412647,0.1497885087771853,-4.111915403510874,8.855957701755436,0.5155555555555555,0.32666666666666666,-0.6855555555555556,-0.37367817985740814,0.1875,1.9348563597148163
1589543883.8512647,0.15641079531884405,-4.126794602340578,8.805643181275375,0.5155555555555555,0.32666666666666666,-0.6855555555555556,-0.4150674707427753,0.4422975877716742,2.4422975877716744
1589543883.8612647,0.11381604820805581,-4.111908024104028,8.767938682736018,0.5155555555555555,0.32666666666666666,-0.6855555555555556,-0.2619251506501744,0.4871167671001163,2.750958082249709
1589543883.8712647,0.11951655024522813,-4.104919425040872,8.804274825367841,0.5155555555555555,0.32666666666666666,-0.6855555555555556,-0.2797392195163379,0.2530215609673242,3.18246406505446
1589543883.8812647,0.1671553735536403,-4.13144421694205,8.85428884338841,0.49840018200191527,0.32666666666666666,-0.6831728647842167,-0.32138945764487403,-0.04472108471025189,3.7948579829531925
1589543883.8912647,0.20108709747136372,-4.154456451264318,8.837825805057273,0.4755555555555556,0.32666666666666666,-0.68,-0.18070564080397666,-0.25679435919602334,4.326088718392047
1589543883.9012647,0.21655960130672197,-4.189357607840332,8.741284784319335,0.4755555555555556,0.32666666666666666,-0.68,-0.08400249183298758,-0.23050498366597516,4.4375
1589543883.9112647,0.2388527772702357,-4.1974314818198435,8.712568518180158,0.4755555555555556,0.32666666666666666,-0.68,-0.0625,-0.1875,4.358946761374018
1589543883.9212646,0.23956235389775385,-4.163905884744384,8.751312938306738,0.4755555555555556,0.32666666666666666,-0.68,-0.09511764406951925,-0.15488235593048075,4.247264711860962
1589543883.9312646,0.23,-4.130972263059884,8.79805547388023,0.4966202750824921,0.3356944036067823,-0.6860184912934105,-0.09678832206213858,0.0724817455650299,4.102864966186416
1589543883.9412646,0.17216799763383617,-4.079962459900348,8.806654153300116,0.5222222222222223,0.3466666666666667,-0.6933333333333334,-0.09030384729142493,0.4793230837485496,3.972196152708575
1589543883.9512646,0.06949220335053041,-4.050338531099647,8.79,0.5222222222222223,0.3466666666666667,-0.6933333333333334,-0.125,0.5921631354704076,4.255289548431975
1589543883.9612646,0.01574368932038835,-4.050594951456311,8.799702524271844,0.5222222222222223,0.3466666666666667,-0.6933333333333334,-0.125,0.5,5.138587378640777
1589543883.9712646,-0.025386226499775594,-4.019742515666817,8.820257484333183,0.5222222222222223,0.3466666666666667,-0.6933333333333334,-0.044863403647002115,0.4839726807294004,6.1667103010355895
1589543883.9812646,-0.06721837131601258,-3.9918544191226584,8.848145580877341,0.5222222222222223,0.3466666666666667,-0.6933333333333334,0.1730123506042321,0.4403975298791536,7.299664223142007
1589543883.9912646,-0.10780730324162771,-3.8676411985592765,8.883089700360182,0.4955555555555556,0.3144444444444445,-0.7022222222222222,-0.24543188175339106,-0.395348781515825,10.113371953789562
1589543884.0012646,-0.17233725927104887,-3.8423372592710487,8.864290148018462,0.4955555555555556,0.3144444444444445,-0.7022222222222222,-0.4042157408881108,-0.9269606477797231,12.19470694731816
1589543884.0112646,-0.21022852954893728,-3.8651142647744687,8.790076176516312,0.4955555555555556,0.3144444444444445,-0.7022222222222222,-0.4370238967730473,-0.593035845159571,15.605414529060342
1589543884.0212646,-0.24426460989513077,-3.8885292197902612,8.825587659370784,0.4955555555555556,0.3144444444444445,-0.7022222222222222,-0.588230494756538,-0.6599228710674035,18.484344404072928
1589543884.0312645,-0.18043608839465086,-3.764034172771363,8.825218044197324,0.4976635528769298,0.32041710352167146,-0.6994115591270565,-0.9540498995515331,-0.9145249497757666,21.300623744394166
1589543884.0412645,0.02070093457943925,-3.2976168224299065,8.797320872274144,0.5022222222222222,0.3333333333333333,-0.6933333333333334,-1.315128504672897,-1.1056269470404985,24.26139018691589
1589543884.0512645,0.07500174459176553,-2.910501919050942,8.867500872295883,0.5022222222222222,0.3333333333333333,-0.6933333333333334,-1.9687390963014655,-1.5093673674110257,26.240610825191904
1589543884.0612645,0.024093213345384525,-2.8377203599638463,8.778601799819231,0.5022222222222222,0.3333333333333333,-0.6933333333333334,-1.570605081149055,-1.289513498644241,28.503863422014383
1589543884.0712645,0.03,-2.9014807339079183,8.755184587126335,0.5022222222222222,0.3333333333333333,-0.6933333333333334,0.04320489271945582,-0.625,34.89348394324122
1589543884.0812645,-0.029277448663249342,-3.0411329383958994,8.84556646919795,0.49827039231133896,0.32213648191916405,-0.6972851632442166,0.35180637834187667,-1.4771133245342092,40.91522721691887
1589543884.0912645,-0.058737505645778926,-3.0956312471771104,8.841843764114447,0.4955555555555556,0.3144444444444445,-0.7,0.2851952948569409,-1.9921094102861183,45.162694165701154
1589543884.1012645,-0.040747259630441596,-3.0907472596304415,8.804578766050737,0.4955555555555556,0.3144444444444445,-0.7,0.33177654243658,-2.05315925461948,48.03626291888506
1589543884.1112645,-0.02104337613529596,-3.0710433761352958,8.771738960225493,0.4955555555555556,0.3144444444444445,-0.7,0.3728262997181334,-2.2994577983088007,50.3760990839336
1589543884.1212645,-0.05415626588818001,-3.198117199416135,8.913960933527955,0.4955555555555556,0.3144444444444445,-0.7,-0.21184889213258326,-2.8238605612320207,52.013802215734835
1589543884.1312644,-0.13670362291506075,-3.2600277171862957,8.893324094271236,0.4955555555555556,0.3144444444444445,-0.7,0.13209842881275324,-2.2219527495776816,52.70169685762551
1589543884.1412644,-0.15508057866726632,-3.35,8.907298553331835,0.5222222222222223,0.2933333333333333,-0.7066666666666667,0.1875,-2.359123191664793,54.229206487519676
1589543884.1512644,-0.18651975114309272,-3.35,8.828700622142268,0.5222222222222223,0.2933333333333333,-0.7066666666666667,0.1875,-2.2608757776778354,55.26080433438273
1589543884.1612644,-0.24686010305585407,-3.382849742360365,8.743720206111709,0.5222222222222223,0.2933333333333333,-0.7066666666666667,0.39462435590091205,-2.126813466148632,57.13769426304042
1589543884.1712644,-0.2675867127737609,-3.372760138321283,8.823106989416326,0.5222222222222223,0.2933333333333333,-0.7066666666666667,0.21766609032798911,-2.4633762967620245,58.47416954836005
1589543884.1812644,-0.2824097421763522,-3.4027707734709436,8.893131804765535,0.5238287170064571,0.2919945876798043,-0.7085409105816072,0.2131088860220098,-2.827560888602201,59.52109599483962
1589543884.1912644,-0.30284122690385584,-3.3785731970106827,8.842853605978634,0.5288888888888889,0.2877777777777778,-0.7144444444444444,0.6429124065838339,-2.883917518683233,60.5355153362982
1589543884.2012644,-0.3838925545098302,-3.3777851090196607,8.84442978196068,0.5288888888888889,0.2877777777777778,-0.7144444444444444,0.3993284656864387,-2.9375,62.01089777941521
1589543884.2112644,-0.38644425675675675,-3.3775548986486488,8.814666385135135,0.5288888888888889,0.2877777777777778,-0.7144444444444444,0.4375,-2.9375,63.09029244087838
1589543884.2212644,-0.3904882255117334,-3.3473176340156443,8.810488225511733,0.5288888888888889,0.2877777777777778,-0.7144444444444444,0.3307904921263884,-2.873474295275833,64.759154228345
1589543884.2312644,-0.42662286105407254,-3.376360027378508,8.833114305270362,0.5397707810479884,0.2806482622252643,-0.7073149288919309,0.18832135523613963,-2.8344284736481864,65.68996406570842
1589543884.2412643,-0.4582323200270779,-3.349116160013539,8.852569440037232,0.5611111111111111,0.26666666666666666,-0.6933333333333334,0.3423690000211546,-2.940261999957691,66.36119000021155
1589543884.2512643,-0.4960850436557433,-3.3739149563442568,8.88651026193446,0.5611111111111111,0.26666666666666666,-0.6933333333333334,0.20372065993876856,-3.0218108629096267,66.54068913709037
1589543884.2612643,-0.5337113103847266,-3.3760262445104794,8.818209956083836,0.5611111111111111,0.26666666666666666,-0.6933333333333334,0.061679859047518854,-3.05131222552397,66.38700791542851
1589543884.2712643,-0.6105592630103917,-3.37,8.804317604783773,0.5611111111111111,0.26666666666666666,-0.6933333333333334,0.33249424226868485,-2.815995393814948,66.91247121134343
1589543884.2812643,-0.633836036461007,-3.37,8.879967118498273,0.5611111111111111,0.26666666666666666,-0.6933333333333334,0.5143440348516171,-2.9614752278812935,67.82172017425809
1589543884.2912643,-0.6201202761369298,-3.22,8.891927264963346,0.5466666666666666,0.2411111111111111,-0.6933333333333334,0.052709771546509146,-3.3019580456906983,69.50300690342324
1589543884.3012643,-0.6846482981532943,-3.1687309564634702,8.89746191292694,0.5466666666666666,0.2411111111111111,-0.6933333333333334,0.3125,-3.3873277951871343,71.73418253217446
1589543884.3112643,-0.71,-3.0748768292363673,8.771231707636327,0.5466666666666666,0.2411111111111111,-0.6933333333333334,0.1363910050001309,-3.8491387209089245,74.09390625409043
1589543884.3212643,-0.7158049429331502,-3.05419505706685,8.91419505706685,0.5466666666666666,0.2411111111111111,-0.6933333333333334,-0.3205786600017163,-4.336735980005149,76.74375831330988
1589543884.3312643,-0.753194584689031,-3.0781053891319794,8.901656756049217,0.5499801787650996,0.2366930949798671,-0.6992240215083254,0.10243230861288755,-3.7407602191555407,79.03881736414975
1589543884.3412642,-0.8629971203111559,-3.2584952690826134,8.90949979430794,0.5656662552825461,0.21577832628993854,-0.7271103797615635,1.47496400388945,-2.809399425932159,81.29369086353267
1589543884.3512642,-0.9061270015782101,-3.3807513343854736,8.67780416009079,0.5666666666666667,0.21444444444444444,-0.7288888888888889,1.2395177592963667,-3.164384320749029,84.00542288049935
1589543884.3612642,-0.8615012501551611,-3.3510008334367742,8.863744791020162,0.5666666666666667,0.21444444444444444,-0.7288888888888889,-0.201522130406256,-4.698394525916337,85.0280963506109
1589543884.3712642,-0.8709290610616147,-3.22793919519567,8.90206080480433,0.5666666666666667,0.21444444444444444,-0.7288888888888889,0.818940015013532,-3.549619969972936,86.63661326327018
1589543884.3812642,-0.9349705219925808,-3.26786135400106,8.898495627980921,0.5666666666666667,0.20874138844727078,-0.7288888888888889,0.5672011625596185,-3.90606576245363,87.43713152490726
1589543884.3912642,-1.023794312346621,-3.226205687653379,8.99494091687117,0.5666666666666667,0.18777777777777774,-0.7288888888888889,0.47702408694396903,-3.921444185518962,88.66477026664742
1589543884.4012642,-1.0675467264765568,-3.154433408095696,8.92,0.5666666666666667,0.18777777777777774,-0.7288888888888889,0.887375841076578,-3.705790077966464,90.18516367617217
1589543884.4112642,-1.0190355659397716,-3.0696853582554517,8.92,0.5666666666666667,0.18777777777777774,-0.7288888888888889,0.47379445742471443,-4.306472287123572,92.21763856438214
1589543884.4212642,-0.9715067457768036,-2.9408215864857716,8.886712142398247,0.5666666666666667,0.18777777777777774,-0.7288888888888889,0.4143834322210045,-4.055650296663013,93.56421478780092
1589543884.4312642,-0.9228853046594981,-2.8380983671843887,8.864229390681004,0.5689908845524139,0.17911478383999288,-0.731424399309704,0.5770484866587017,-3.866188769414576,94.34815561529271
1589543884.4412642,-0.8646698258988359,-2.8263325435252913,9.02283609766148,0.5788888888888889,0.14222222222222222,-0.7422222222222222,1.162440764396827,-3.837559235603173,94.2020191614299
1589543884.4512641,-0.9982365096510591,-2.8611773822382944,9.00749870849575,0.5788888888888889,0.14222222222222222,-0.7422222222222222,0.2840135255717841,-4.369472948856432,92.47517670126332
1589543884.4612641,-1.1225914671958328,-2.9698340154615734,8.815846872545372,0.5788888888888889,0.14222222222222222,-0.7422222222222222,1.0894944499565917,-3.2111703666956055,91.53010666005208
1589543884.4712641,-1.1722131934524507,-3.0503824087300657,8.73825047420556,0.5788888888888889,0.14222222222222222,-0.7422222222222222,1.346827213544716,-3.088282731892373,90.26093453621526
1589543884.481264,-1.1729269375971574,-3.066625953068325,8.986178843733807,0.5839837639104795,0.13330619093443877,-0.7477416701622787,0.3869411133318528,-3.886941113331853,88.18597324006218
1589543884.491264,-1.266071507883633,-3.012291620401214,8.970654748686062,0.604682557307474,0.09708330248969824,-0.7701653630090227,0.4354539103560589,-3.935453910356059,86.14843576504552
1589543884.501264,-1.3591893000220814,-2.9871959875082803,8.936418724961358,0.6055555555555555,0.09555555555555556,-0.7711111111111111,0.32749164064225106,-4.0200585155042425,84.132600312293
1589543884.511264,-1.4121125516545219,-3.0070422068704454,8.843803034604587,0.6055555555555555,0.09555555555555556,-0.7711111111111111,0.36883793098009526,-3.730634483139333,83.63644482823885
1589543884.521264,-1.446949419124218,-2.94474709562109,8.927797676496871,0.6055555555555555,0.09555555555555556,-0.7711111111111111,0.6440661304736371,-3.385603217158177,82.99046693476318
1589543884.531264,-1.4319563896336014,-2.869781948168007,8.867825558534404,0.6055555555555555,0.09555555555555556,-0.7711111111111111,0.7377725647899911,-2.823364611260054,82.943613717605
1589543884.541264,-1.488203904246224,-2.9172653652512586,8.946488790728603,0.5844444444444444,0.05666666666666665,-0.75,0.6079085328203667,-3.3862255984611,82.16403652512587
1589543884.551264,-1.4932278403073664,-2.8540928010245548,9.014092801024555,0.5844444444444444,0.05666666666666665,-0.75,0.3004350048026008,-3.6168909932763587,80.94831200896485
1589543884.561264,-1.4689738770104876,-2.731684430869129,8.975711600487003,0.5844444444444444,0.05666666666666665,-0.75,-0.3072361535339727,-4.460854230300959,79.24703499797083
1589543884.571264,-1.5444576101468626,-2.7883694926568756,9.155647530040053,0.5844444444444444,0.05666666666666665,-0.75,0.1399574432576769,-3.861398531375167,77.9809746328438
1589543884.581264,-1.6704472412354947,-2.7773165525870316,8.64280930301023,0.5844444444444444,0.055126169077740414,-0.7512423367652631,1.4273232992321092,-2.2685624739334167,77.5429331959471
1589543884.591264,-1.701643618553731,-2.7329861711322385,9.112685105157016,0.5844444444444444,0.022222222222222227,-0.7777777777777778,-0.07089095361567271,-3.8782546456352636,77.125
1589543884.601264,-1.8730398849433831,-2.822599712358458,8.869078331679058,0.5844444444444444,0.022222222222222227,-0.7777777777777778,0.4185007191038548,-2.875,77.40775467417505
1589543884.611264,-1.881610845295056,-2.805127591706539,8.755637958532695,0.5844444444444444,0.022222222222222227,-0.7777777777777778,0.45947966507177035,-3.0640948963317385,78.0590610047847
1589543884.621264,-1.952166586998088,-2.8317997131931167,9.008066443594647,0.5844444444444444,0.022222222222222227,-0.7777777777777778,0.35166706500956024,-3.6422905712237093,78.65666826003824
1589543884.631264,-1.953701318997312,-2.7174582734262676,8.919134212664876,0.5844444444444444,0.021297326582067476,-0.7837895994387837,0.4974682753016191,-3.1665507595174094,79.78613958867288
1589543884.641264,-2.1036377788287224,-2.8141857807204222,8.997275557657444,0.5844444444444444,0.017777777777777778,-0.8066666666666666,0.25,-3.5011416706077085,81.28405552928194
1589543884.651264,-2.0765307284080827,-2.7043262518206017,8.918244688865451,0.5844444444444444,0.017777777777777778,-0.8066666666666666,0.2581634105101033,-3.3668365894898966,82.30459503122228
1589543884.661264,-2.111639462273785,-2.6200652905429163,8.855048967907187,0.5844444444444444,0.017777777777777778,-0.8066666666666666,0.30204932784223126,-3.3229506721577686,83.27008521252908
1589543884.671264,-2.11,-2.5857169444559327,8.991440092642376,0.5844444444444444,0.017777777777777778,-0.8066666666666666,0.24107696761652675,-3.714307870466107,86.73188252202324
1589543884.681264,-2.109841855049966,-2.5595255651498983,8.88474434850102,0.5839875812554575,0.016916766383148454,-0.8070005282278494,0.19145362375084893,-3.5009884059377123,89.3063391384496
1589543884.691264,-2.073935194619931,-2.4961157530059097,8.994939881801509,0.5555555555555556,-0.03666666666666667,-0.8277777777777777,0.7633100672508661,-2.8945893621357244,93.49670114122682
1589543884.701264,-2.006565149802148,-2.4,8.537839881288864,0.5555555555555556,-0.03666666666666667,-0.8277777777777777,1.2224685556811759,-1.7932889344262295,95.47853218626342
1589543884.711264,-2.0583947086163747,-2.4283947086163744,8.893578834465497,0.5555555555555556,-0.03666666666666667,-0.8277777777777777,-0.5309036467643904,-4.727744011440829,95.68104218805864
1589543884.721264,-2.1940701772307065,-2.564070177230706,9.436280708922824,0.5555555555555556,-0.03666666666666667,-0.8277777777777777,-0.9772045303641658,-5.218674983400582,95.9488227182185
1589543884.7312639,-2.069462276871063,-2.3378491074842525,8.756990400676179,0.5559439111486766,-0.037861606953192954,-0.8279868923279198,2.4784807611036204,-0.9368484735666418,97.82090192388964
1589543884.7412639,-2.052580749028999,-2.2703229961159965,8.97645026262301,0.5681361257012782,-0.07537611326889063,-0.834551930933167,-0.1592579642188725,-4.8407017870439315,98.08467579642189
1589543884.7512639,-2.099490022739467,-2.2339490022739468,9.29968292495976,0.57,-0.0811111111111111,-0.8355555555555556,-1.443874715756662,-6.109083969953244,99.96655350162243
1589543884.7612638,-2.1667378183767156,-2.1788262298138092,8.792088411437094,0.57,-0.0811111111111111,-0.8355555555555556,0.4858041269545359,-3.5414443175727635,103.31526285740918
1589543884.7712638,-1.8699396081897186,-1.9579879216379437,8.874084548534393,0.57,-0.0811111111111111,-0.8355555555555556,0.212273530711445,-4.387198040948594,105.96567057003978
1589543884.7812638,-1.838381393390865,-1.9511973419129807,8.921618606609135,0.5625498725414532,-0.09068984641495692,-0.8388815053138354,0.032566452175481854,-4.030348873921279,108.3169351565084
1589543884.7912638,-1.930853663486909,-1.9702845544956362,8.842002029632637,0.5077777777777778,-0.16111111111111112,-0.8633333333333333,-0.46068347879033894,-3.4213669575806778,110.63744925918408
1589543884.8012638,-2.03803407703696,-1.9972255266096985,8.780289343133944,0.5077777777777778,-0.16111111111111112,-0.8633333333333333,-0.8598396794888445,-4.59249922079946,112.3970221552687
1589543884.8112638,-2.1712173412123237,-1.9783678968298213,8.695518452447319,0.5077777777777778,-0.16111111111111112,-0.8633333333333333,1.593101934440852,-1.5524677593191363,115.53561805478128
1589543884.8212638,-2.2725402311666105,-1.970573828371799,8.578607425576987,0.5077777777777778,-0.16111111111111112,-0.8633333333333333,1.7392407180287657,0.8831786338127627,116.89958003493514
1589543884.8312638,-2.0485058916986625,-1.8606833377465908,8.621443135178076,0.5077777777777778,-0.16111111111111112,-0.8633333333333333,-0.058547721104196926,-2.1125059992718125,115.99525126605323
1589543884.8412638,-1.7046806012212306,-1.6963276968842962,9.208235478315327,0.4882838404397821,-0.20541551415201018,-0.8411811318128838,-2.258718882104274,-7.912238727101926,113.79269903710663
1589543884.8512638,-1.8806660990746755,-1.7359045997356217,9.177000425693993,0.4833333333333333,-0.21666666666666667,-0.8355555555555556,-2.202084220195819,-5.899709855936191,112.39672859767437
1589543884.8612638,-2.4680098747956793,-1.840974841177561,9.09453280083582,0.4833333333333333,-0.21666666666666667,-0.8355555555555556,1.265891722696864,-1.42902069325784,112.27569068803398
1589543884.8712637,-2.7295219318200967,-1.8904500952092074,8.88956389127614,0.4833333333333333,-0.21666666666666667,-0.8355555555555556,1.619286394351482,-0.545534014121295,112.67325969364542
1589543884.8812637,-2.5485619688310592,-1.7943756721989077,9.614043105084459,0.4824855015921887,-0.21925053483015483,-0.8360400308362096,-0.6806870663658028,-3.3966223981948165,111.3954388009026
1589543884.8912637,-2.0266958392205656,-1.4140325607878697,8.251884054914697,0.4618467281047681,-0.282149654029913,-0.8478336156861642,-0.5148397794133153,-2.401538676479892,111.89298066176005
1589543884.9012637,-2.037350796460177,-1.4663575221238938,9.086158584070796,0.46,-0.2877777777777778,-0.8488888888888889,-1.6193436578171092,-7.502898230088496,112.24544690265486
1589543884.9112637,-2.5776509294703396,-1.6863359103305062,9.83883434661863,0.46,-0.2877777777777778,-0.8488888888888889,-0.30428113037604143,-4.637253246265856,112.9163554880032
1589543884.9212637,-2.6068400600068684,-1.5029244311095848,8.81475933992445,0.46,-0.2877777777777778,-0.8488888888888889,0.805140347389159,-2.650330082961303,115.0669157915665
1589543884.9312637,-2.5386117085690527,-1.518086286984655,9.565271205740416,0.46,-0.2877777777777778,-0.8488888888888889,-0.8531876389466264,-6.3460324525096246,116.06191258336797
1589543884.9412637,-1.9799626103212904,-1.23,8.531836441893832,0.3333333333333333,-0.3555555555555556,-0.8333333333333334,0.6523656580148689,-4.652599343506804,117.57827105343246
1589543884.9512637,-2.261656655824886,-1.234331331164977,8.803248498373733,0.3333333333333333,-0.3555555555555556,-0.8333333333333334,0.47969688516416986,-3.0441926236319174,116.40007508131336
1589543884.9612637,-2.447283496344127,-1.27,8.896591966574874,0.3333333333333333,-0.3555555555555556,-0.8333333333333334,0.19544380875510398,-4.515537460829931,115.01047502611338
1589543884.9712636,-2.5168948825761457,-1.2587958158137627,9.403636755204595,0.3333333333333333,-0.3555555555555556,-0.8333333333333334,-0.5701017844323659,-4.880462260280996,114.69177904830273
1589543884.9812636,-2.585717362321813,-1.1469592862270535,8.741220387652548,0.3333333333333333,-0.3555555555555556,-0.8333333333333334,1.8494385191262435,-1.8157112091067584,115.98220054353399
1589543884.9912636,-2.5383920488092895,-1.0969933740077413,9.353700715082333,0.2922381129407306,-0.374669611552115,-0.7597442177465795,-0.20408958210326045,-5.8719043167355505,115.8474668700387
1589543885.0012636,-2.212616071428571,-0.9842053571428572,9.186697172619049,0.2855555555555556,-0.37777777777777777,-0.7477777777777778,-1.3339192708333334,-7.664527529761905,115.48189174107142
1589543885.0112636,-2.2365443315579823,-0.9367278342210088,9.216544331557984,0.2855555555555556,-0.37777777777777777,-0.7477777777777778,0.3820715660385803,-4.9011854943382716,115.02159792776261
1589543885.0212636,-2.3879148723084627,-0.778293640460691,9.23,0.2855555555555556,-0.37777777777777777,-0.7477777777777778,0.7069016024036054,-4.226303204807211,113.04117050575864
1589543885.0312636,-2.4128150595844904,-0.6728150595844905,9.05337153302633,0.2855555555555556,-0.37777777777777777,-0.7477777777777778,-0.30022497978697227,-5.407630857383907,108.81761477484444
1589543885.0412636,-2.5206337599024984,-0.6552488320130002,9.003122080032501,0.3027652515403887,-0.3908899270995554,-0.7272900444625002,-0.19061040016250252,-4.854636400568759,105.61226640260004
1589543885.0512636,-2.433525961428735,-0.55992582448933,9.229051238160446,0.3088888888888889,-0.3955555555555556,-0.72,0.3912044961771083,-4.692405568869109,99.91453554718704
1589543885.0612636,-2.5034906358825304,-0.3712860237461954,8.089461460418438,0.3088888888888889,-0.3955555555555556,-0.72,1.8572023499410457,-1.275261180728838,97.08366352244371
1589543885.0712636,-2.8606794748889715,-0.5054539940915227,9.121365014771193,0.3088888888888889,-0.3955555555555556,-0.72,-0.23297522156789857,-4.355156711599789,92.23432761724023
1589543885.0812635,-2.721178565139984,-0.4726302506211727,9.203424373447069,0.3088888888888889,-0.3955555555555556,-0.72,-1.4638656017060239,-6.919511670220883,89.41353716275702
1589543885.0912635,-2.759959576942245,-0.354495265518578,8.91864056703029,0.3033333333333333,-0.38333333333333336,-0.7,-0.23569965114347416,-4.789955839193754,88.44961307381361
1589543885.1012635,-2.5199623456448306,-0.23062572678442883,8.50832271997342,0.3033333333333333,-0.38333333333333336,-0.7,0.8771907359211473,-2.6125616036325376,88.54638615094966
1589543885.1112635,-2.6432993758219734,-0.2066624219777467,9.473261173621694,0.3033333333333333,-0.38333333333333336,-0.7,-1.3852707554850427,-6.640326545310314,84.82766736947582
1589543885.1212635,-2.363113166190009,-0.17163914577375114,8.877865478153769,0.3033333333333333,-0.38333333333333336,-0.7,-0.18134563597269482,-4.177752437216876,81.05172040373255
1589543885.1312635,-2.4326697300402067,-0.07814474439977025,8.960226306720276,0.3033333333333333,-0.38333333333333336,-0.7,1.138009764503159,-3.0291283744974153,77.77488512349224
1589543885.1412635,-2.2994646271510515,0.17275334608030593,8.751013384321222,0.27555555555555555,-0.3977777777777778,-0.7266666666666667,-0.8123804971319312,-4.937260994263863,71.75095602294455
1589543885.1512635,-2.1485990950911535,0.35538004278439317,9.481520171137571,0.27555555555555555,-0.3977777777777778,-0.7266666666666667,-1.705663252749749,-6.723826505499498,64.604693978002
1589543885.1612635,-2.6017832753511145,0.29510329424902293,9.831692651290641,0.27555555555555555,-0.3977777777777778,-0.7266666666666667,-0.23255701584847333,-2.500158377356869,49.79109221320277
1589543885.1712635,-2.6541522183400357,0.07606862680466742,9.774471619750807,0.27555555555555555,-0.3977777777777778,-0.7266666666666667,1.2220523765574527,-0.5704850352692993,32.34872931636891
1589543885.1812634,-2.5076117457973157,0.1144963294383389,9.716604404673994,0.27555555555555555,-0.3977777777777778,-0.7266666666666667,-2.865910473046349,-6.291402415186135,21.981446288171668
1589543885.1912634,-2.750754280530672,0.4365687719696111,8.693891824469896,0.2788888888888889,-0.41,-0.7066666666666667,0.5810664474430207,0.9565880485315795,12.081317326227463
1589543885.2012634,-3.4791416168400358,0.2513596527152101,9.073461790482432,0.2788888888888889,-0.41,-0.7066666666666667,0.2615718936849865,-0.2392113399950856,4.398202657875338
1589543885.2112634,-3.0497145548365956,0.13112007535424686,8.704154517159472,0.2788888888888889,-0.41,-0.7066666666666667,0.4226070419362765,0.7806779322630846,0.3723239515930876
1589543885.2212634,-2.8010418407045847,0.11091486263932979,9.178767692197532,0.2788888888888889,-0.41,-0.7066666666666667,-1.1523990381172877,-1.339502231663365,-1.3627706041005323
1589543885.2312634,-2.5921895823959202,0.10183432966938785,9.254497010991836,0.2788888888888889,-0.41,-0.7066666666666667,-1.465606318698978,-1.256287362602044,-4.613161813545885
1589543885.2412634,-3.029999519746426,0.11000192101429555,8.950002401267868,0.26222222222222225,-0.4355555555555555,-0.7288888888888889,0.2500090047545104,1.0625060031696736,-10.250174091920535
1589543885.2512634,-3.023285094529912,0.13685962188035283,8.983574527350441,0.26222222222222225,-0.4355555555555555,-0.7288888888888889,0.3759044775641539,1.1464363183761026,-12.684153232906976
1589543885.2612634,-2.725091151808435,0.1321267364732385,9.035746527053522,0.26222222222222225,-0.4355555555555555,-0.7288888888888889,-1.5173881982395394,-0.32055661007050196,-15.941596095281799
1589543885.2712634,-2.9146699301364003,0.13,8.834052564041633,0.26222222222222225,-0.4355555555555555,-0.7288888888888889,-1.281937645549166,-0.6755233829190628,-19.112889715317714
1589543885.2812634,-3.074308683538426,0.13759519387044347,9.101022173206408,0.26222222222222225,-0.4355555555555555,-0.7288888888888889,0.0316889656373347,2.018287816345484,-22.065757778035756
1589543885.2912633,-2.8342884801548887,0.15749254203133337,9.19,0.27777114847229634,-0.43944278711807405,-0.7288888888888889,0.03662924511527749,1.818158918940277,-23.921455489262502
1589543885.3012633,-2.6659114276688016,0.17598523794480025,8.878767626870387,0.2888888888888889,-0.44222222222222224,-0.7288888888888889,-0.8859315316350269,0.9876845256899969,-26.9816874407651
1589543885.3112633,-2.6594422589387183,0.08832677681615525,8.963354314188303,0.2888888888888889,-0.44222222222222224,-0.7288888888888889,-1.9618519975522335,-0.666781405717283,-31.61827410612816
1589543885.3212633,-2.5926605684416857,0.053669715779157134,8.613486442339106,0.2888888888888889,-0.44222222222222224,-0.7288888888888889,-1.092890395295655,1.2219025645213981,-35.78153585429598
1589543885.3312633,-2.9109202230106437,-0.04071485048150027,9.26133096806893,0.2888888888888889,-0.44222222222222224,-0.7288888888888889,-1.5593157627977698,0.4712924480486569,-38.66806132792701
1589543885.3412633,-2.56929615800677,0.027869630456781924,8.579560665805912,0.2823513355278718,-0.45965569785160115,-0.7419639956109231,-0.5266296192902258,2.2040033848623373,-40.42055387863349
1589543885.3512633,-2.991265936580582,-0.0883867276887872,9.43944426283099,0.2822222222222222,-0.46,-0.7422222222222222,-0.18289269369074862,2.6728097417456684,-43.608573063092514
1589543885.3612633,-2.100108035961621,0.03721574454153968,8.820622528897731,0.2822222222222222,-0.46,-0.7422222222222222,-1.0992218388778363,1.451037548162885,-47.0560420811403
1589543885.3712633,-2.025592073576294,0.001206164996215689,8.71679823857251,0.2822222222222222,-0.46,-0.7422222222222222,-1.9324284420082107,1.3549889910781863,-53.274394509300244
1589543885.3812633,-1.9670007307652155,-0.10489905000521975,9.026596930786095,0.2822222222222222,-0.46,-0.7422222222222222,-2.3362472596304418,0.5993827643804155,-60.9449342311306
1589543885.3912632,-1.8487388719368336,-0.11262166158105005,8.8114599389726,0.24673178353099076,-0.6039897798329961,-0.7361381470180111,-0.2700482084997957,3.734792302368744,-69.53512614426374
1589543885.4012632,-1.767732579595397,-0.1756976549132754,8.93767437179186,0.2433333333333333,-0.6177777777777778,-0.7355555555555555,-0.8837206864159426,4.1856831029623915,-76.24309411379878
1589543885.4112632,-2.2537329434697857,-0.3496621182586095,9.360426413255361,0.2433333333333333,-0.6177777777777778,-0.7355555555555555,-0.985166910331384,4.413666544834308,-88.38460445094216
1589543885.4212632,-1.9016299924122233,-0.23613437262881976,7.91739825481134,0.2433333333333333,-0.6177777777777778,-0.7355555555555555,1.02865140201421,8.118804752707456,-95.46045518038216
1589543885.4312632,-1.745135004237801,-0.4732425233079065,9.206211405739193,0.2433333333333333,-0.6177777777777778,-0.7355555555555555,-1.2305666545586633,4.811667574766921,-105.72126619445453
1589543885.4412632,-1.8280364413680783,-0.6422424674267101,9.61056901465798,0.17526590209916754,-1.0283318630112197,-0.4432238508867173,-4.178714118485342,0.7266642915309447,-116.11553974959283
1589543885.4512632,-1.7364821550761695,-0.7746951417149854,9.31235459358231,0.13777777777777778,-1.2544444444444445,-0.2822222222222222,-0.6989321856880464,6.422169301689055,-126.23103414124681
1589543885.4612632,-1.6084732260331993,-0.7969704233729251,9.07300560532055,0.13777777777777778,-1.2544444444444445,-0.2822222222222222,-0.6042166068885966,6.397631932303589,-133.94579308076348
1589543885.4712632,-1.5517698680375913,-0.9646026392481745,9.35681620223321,0.13777777777777778,-1.2544444444444445,-0.2822222222222222,-1.0696916238252725,7.59458806771669,-145.73345353482432
1589543885.4812632,-1.6190989703719267,-0.9385786930027317,8.534035721790293,0.13777777777777778,-1.2544444444444445,-0.2822222222222222,0.9383720319394833,10.576696785038873,-157.17409382223155
1589543885.4912632,-1.9284487484562787,-1.422459110214163,9.49753817886081,0.5895774303777557,-0.8522703829767295,-0.6823285507260928,-0.8800095635410705,7.129685758607187,-172.62397775535408
1589543885.5012631,-1.481327382332483,-1.4140517041502434,8.845637607233943,0.6233333333333333,-0.8222222222222222,-0.7122222222222222,-2.4983842453048926,6.8125,-184.99213859262693
1589543885.5112631,-1.2379707652622527,-1.5201977644024076,8.706534823731728,0.6233333333333333,-0.8222222222222222,-0.7122222222222222,-0.8457652622527945,9.33786543422184,-196.21625107480654
1589543885.5212631,-1.3232234726688101,-1.8335984490259125,8.870015131454512,0.6233333333333333,-0.8222222222222222,-0.7122222222222222,-1.4464961225647817,8.879403489691697,-206.49860211367505
1589543885.531263,-1.2584708879792832,-2.037109681730849,8.759599866343663,0.6233333333333333,-0.8222222222222222,-0.7122222222222222,-1.3820561147773787,9.99274287862334,-218.13915660763513
1589543885.541263,-1.406606450612498,-2.2690769886804154,8.802449604589858,0.5798997691287193,-0.6360783756310194,-0.7427689047397529,-0.8582580632656225,12.329241936734377,-235.39148026825865
1589543885.551263,-1.9864997002597746,-2.6929994005195494,9.184455471924332,0.5222222222222223,-0.3888888888888889,-0.7833333333333333,-1.8400552854193033,11.498580396989276,-253.225246453074
1589543885.561263,-1.8049749196141478,-3.0593414790996785,8.95688617363344,0.5222222222222223,-0.3888888888888889,-0.7833333333333333,-0.3166157556270095,13.605852090032155,-265.2345659163987
1589543885.571263,-1.9396657581672865,-3.275257449081065,8.968644985451732,0.5222222222222223,-0.3888888888888889,-0.7833333333333333,-1.0201557953666531,13.163109784170011,-273.88787245405325
1589543885.581263,-1.8975065404428622,-3.374398953529142,8.794808371766864,0.5222222222222223,-0.3888888888888889,-0.7833333333333333,-1.268142986217871,13.515584122232111,-282.314173881382
1589543885.591263,-1.6103766539491842,-3.445771572367887,8.681154314473577,0.545150535306798,-0.294696900000902,-0.7951073319443317,-1.278857861839435,13.741570439970777,-288.1707930838542
1589543885.601263,-1.8364116136062894,-3.984040242858255,8.831154355102358,0.5633333333333334,-0.22,-0.8044444444444444,-1.6960477154199425,11.86911827664046,-295.3386928854986
1589543885.611263,-1.8960940892641738,-4.239173186282957,8.681831811132174,0.5633333333333334,-0.22,-0.8044444444444444,-1.005167585731518,13.671997242805446,-298.25556824056525
1589543885.621263,-1.9048232349209615,-4.435363645715461,8.68839899873127,0.5633333333333334,-0.22,-0.8044444444444444,-0.6930871309536056,14.52118051983678,-299.92749374207045
1589543885.631263,-1.9805773807344487,-4.259805953209095,8.74,0.5633333333333334,-0.22,-0.8044444444444444,-1.3179129443854576,13.138813248270054,-299.9092522333687
1589543885.641263,-2.0404817342432757,-4.185099692225345,8.84240867121638,0.5944352260731225,-0.13959022852639874,-0.795341451447433,-1.6448297203265088,12.972383915428876,-296.2738776261207
1589543885.651263,-1.8553527420446851,-4.2513947190250505,8.971626269465132,0.6088888888888889,-0.10222222222222224,-0.7911111111111111,-1.8604603926878809,12.543618821936358,-289.428884563304
1589543885.661263,-1.609182563052106,-4.211858916912047,8.925520739982076,0.6088888888888889,-0.10222222222222224,-0.7911111111111111,-1.5003500672129049,11.352813740238126,-279.544514546793
1589543885.671263,-1.3523803604723432,-4.269853707510637,9.073663527274466,0.6088888888888889,-0.10222222222222224,-0.7911111111111111,-0.7635057608643687,11.811128507912224,-269.1643549505187
1589543885.681263,-1.2901954187754148,-4.103712956732879,8.77193736652722,0.6088888888888889,-0.10222222222222224,-0.7911111111111111,-0.16541025509756307,12.582147010209754,-262.2239307550537
1589543885.691263,-1.2572983354673495,-3.9035138101335285,8.542966892262667,0.6038440745482999,-0.05357579822368556,-0.7932731743999349,0.21115328333638195,12.640227730016463,-253.27213279678068
1589543885.701263,-1.3623590292648107,-1.4176284796573873,-3.3271698786581005,0.5933333333333334,0.04777777777777778,-0.7977777777777778,1.7313526052819417,18.94481620271235,-220.53009011420414
1589543885.711263,-0.4400490304342064,2.4584623879146608,-1.6055523653871635,0.5933333333333334,0.04777777777777778,-0.7977777777777778,-16.14407659348911,53.47470349838774,-252.31537943372058
1589543885.721263,-2.073613394304237,-0.051482692752952364,7.031031778189394,0.5933333333333334,0.04777777777777778,-0.7977777777777778,-72.56951298043529,10.209763544802037,-355.7689225659875
1589543885.731263,-0.0695117916362098,-1.2465282960797137,6.982793829107837,0.5933333333333334,0.04777777777777778,-0.7977777777777778,-62.20638970107336,-8.46273515946601,-300.7896933789866
1589543885.741263,0.3562701865331156,-1.1181599219065,6.575803323217961,0.5995309438420021,0.1097538828644658,-0.7724239166059509,-6.212705313753368,-28.714396366954567,-253.33415078624026
1589543885.751263,-1.7874740181599384,-0.048210261459358916,5.976789191554534,0.6055555555555555,0.17,-0.7477777777777778,94.6802797833935,26.94223598803923,-248.0992323961638
1589543885.761263,-0.9681307720724048,-0.9338271148873291,7.757303287772443,0.6055555555555555,0.17,-0.7477777777777778,67.77313446619874,38.792320834872555,-223.44514222386405
1589543885.771263,0.6485507715986877,-1.4098549961521325,8.788724533192921,0.6055555555555555,0.17,-0.7477777777777778,-10.520021568309776,-0.2453825590343861,-165.54030388027056
1589543885.7812629,1.2726026928538434,-0.8829116696035996,7.8470883303964,0.6055555555555555,0.17,-0.7477777777777778,-14.140925732664964,-2.272809703854511,-112.34294323450412
1589543885.7912629,1.1766281409017396,-1.4873949745572166,8.519923868880912,0.5827997580634557,0.24186041313294676,-0.7477777777777778,6.1226036448266346,8.193643741864227,-83.72173681511578
1589543885.8012629,0.6284537886777212,-2.4459378015123296,9.774190320192071,0.5633333333333334,0.3033333333333333,-0.7477777777777778,-4.695677294859424,-1.6390098054614404,-69.39478481836336
1589543885.8112628,0.2887538226299694,-2.431053072901253,8.38365936667653,0.5633333333333334,0.3033333333333333,-0.7477777777777778,-0.9986281690835552,2.405112459307487,-54.2739130166716
1589543885.8212628,0.30570193577318816,-2.4980156456314306,8.474995889284736,0.5633333333333334,0.3033333333333333,-0.7477777777777778,4.658823089763073,7.151078128503451,-35.07676760756372
1589543885.8312628,0.35,-2.5435182958254594,9.09070606425013,0.5633333333333334,0.3033333333333333,-0.7477777777777778,-0.7857004810170078,0.8353590448376567,-22.45641857069232
1589543885.8412628,0.35,-2.5089257560011156,9.31046868266964,0.5538997180750241,0.3164583632579374,-0.7424457343709073,-5.2973609667689034,-4.257932308433246,-11.936514600390357
1589543885.8512628,0.1329539027149321,-2.544261524321267,8.8379659219457,0.5377777777777778,0.3388888888888889,-0.7333333333333333,1.5245179051187785,1.4317510958710407,-1.0544776053450233
1589543885.8612628,0.027900322932307632,-2.7379180122179485,8.894786185902051,0.5377777777777778,0.3388888888888889,-0.7333333333333333,3.3747788839294897,1.970086338112183,5.342634777958327
1589543885.8712628,0.017852557243740637,-2.7528461373849775,8.993557671731221,0.5377777777777778,0.3388888888888889,-0.7333333333333333,0.048757489835223655,-1.3395837791568583,12.621275144446823
1589543885.8812628,2.752120264878871,-7.8025986097972275,8.334298317772385,0.5377777777777778,0.3388888888888889,-0.7333333333333333,-0.2098877143914779,-1.1768652572697733,21.123322656603463
1589543885.8912628,2.629996225397681,-17.484564572661093,7.974985710434079,0.53580851382523,0.34414025942901655,-0.7504002875887481,0.48865260177945535,-1.062321380425991,29.604114990563495
1589543885.9012628,-0.24390739747744394,-8.042038561070573,8.918552211316532,0.5344444444444445,0.3477777777777778,-0.7622222222222222,-12.822385062830765,-14.26089047163873,-28.518468922668035
1589543885.9112628,-1.3689992765854835,-0.6403725584760067,9.775695511385168,0.5344444444444445,0.3477777777777778,-0.7622222222222222,-11.69734791070998,-0.8378959402666304,-93.17201763753488
1589543885.9212627,-1.410257763200114,-2.063489250953688,9.54405968127206,0.5344444444444445,0.3477777777777778,-0.7622222222222222,11.121285518200294,25.32943019358979,-116.530012210774
1589543885.9312627,-0.4175448953678205,-3.4041950165729458,9.060338055111227,0.5344444444444445,0.3477777777777778,-0.7622222222222222,16.262874952589833,14.206535182467308,-80.4025855032074
1589543885.9412627,0.5533512109276795,-5.971413726640409,9.846127545462164,0.5344444444444445,0.34937335307317713,-0.7562957996964533,-8.304376518897175,-1.9630593731668482,-54.39239399145227
1589543885.9512627,0.8889634621671234,-9.188880478788946,8.502908190207961,0.5344444444444445,0.3555555555555556,-0.7333333333333333,-3.1875,1.8125,-43.5625
1589543885.9612627,-0.1301645181411789,-4.867663998336626,8.455753976504834,0.5344444444444445,0.3555555555555556,-0.7333333333333333,-0.7772458805489135,1.7307964705270817,-28.079681164882004
1589543885.9712627,-0.12997269987590854,-4.3393260060273,8.68798723630562,0.5344444444444445,0.3555555555555556,-0.7333333333333333,-1.4974383974472611,-0.2782330260592094,-12.519353837971991
1589543885.9812627,0.2728774580602155,-4.722420008887901,8.988246028219088,0.5344444444444445,0.3555555555555556,-0.7333333333333333,-1.374333407399178,-0.0997719003444062,-3.139902858015776
1589543885.9912627,0.24664343394024993,-4.210475605637262,8.9426294943044,0.5179969023031444,0.3726884119527431,-0.7422424186598708,1.2342660965949217,1.3902982897847647,0.2354021462126562
1589543886.0012627,0.1943784778966095,-4.184851575267372,8.838283858422457,0.5077777777777778,0.38333333333333336,-0.7477777777777778,-0.2677411514035706,-0.41123606255559464,0.035134513146190594
1589543886.0112627,0.18616271859109512,-4.205697631154657,8.811860349745752,0.5077777777777778,0.38333333333333336,-0.7477777777777778,0.10247426516185043,-0.24927136301624697,-0.032703398238868905
1589543886.0212626,0.1544529321502435,-4.151170525051705,8.78664120354927,0.5077777777777778,0.38333333333333336,-0.7477777777777778,0.688454866902395,0.402830825939022,0.0
1589543886.0312626,0.17089402824208547,-4.1513410423631285,8.794776492939478,0.5077777777777778,0.38333333333333336,-0.7477777777777778,-0.563379139949946,0.04853080871741472,-0.032646919128258525
1589543886.0412626,0.17738338658146965,-4.201027689030884,8.785794462193822,0.5129178795408827,0.3805296414625488,-0.7487123417347059,-0.9608692758253461,-0.17114616613418532,-0.0625
1589543886.0512626,0.16471957152212555,-4.206402142389372,8.794158714566377,0.52,0.37666666666666665,-0.75,-0.061045525774160336,-0.0625,-0.033002677986715315
1589543886.0612626,0.1665832745236415,-4.166333098094566,8.799749823570924,0.52,0.37666666666666665,-0.75,0.4572909315455187,-0.08385453422724065,0.0
1589543886.0712626,0.1581379726468222,-4.132551890587289,8.781862027353178,0.52,0.37666666666666665,-0.75,0.30517397425583265,-0.11336232904263878,-0.011637670957361223
1589543886.0812626,0.15645431709745983,-4.11290863419492,8.79645431709746,0.52,0.37666666666666665,-0.75,-0.2420368911547437,-0.20368818650693382,-0.08266974092956197
1589543886.0912626,0.1689226950460025,-4.1378453900920045,8.808922695046004,0.52,0.37666666666666665,-0.75,-0.7096010642250925,-0.47643395413130396,-0.12163342201875771
1589543886.1012626,0.1810528661852545,-4.185526433092627,8.826118391726844,0.5133333333333333,0.3888888888888889,-0.7555555555555555,-0.40665953463492915,-0.1389798965855398,-0.1147198448783097
1589543886.1112626,0.19160215778826703,-4.171602157788267,8.748004045853001,0.5133333333333333,0.3888888888888889,-0.7555555555555555,0.3574763991908294,0.23748314227916384,-0.029998314227916382
1589543886.1212626,0.15727627964560684,-4.115447440708786,8.724572097342051,0.5133333333333333,0.3888888888888889,-0.7555555555555555,0.6760697566448717,0.42606975664487173,-0.039761626107478625
1589543886.1312625,0.16558200800078057,-4.105462971997268,8.806746024002342,0.5133333333333333,0.3888888888888889,-0.7555555555555555,0.2166004000390282,0.15988755000487853,0.0
1589543886.1412625,0.16256974114099018,-4.166284870570495,8.783044525425149,0.5133333333333333,0.38772502396842684,-0.7525295067623542,-0.5755934803551981,-0.04224784284158499,-0.026186960710396247
1589543886.1512625,0.20107125132931583,-4.191488124778448,8.853630627437079,0.5133333333333333,0.38333333333333336,-0.7411111111111112,-0.550593761077632,-0.3351914214817441,-0.115699220134704
1589543886.1612625,0.16123519705925354,-4.185019737254329,8.745019737254328,0.5133333333333333,0.38333333333333336,-0.7411111111111112,0.13247326594122688,0.15637335783955386,-0.039093339459888465
1589543886.1712625,0.17343117658333562,-4.143577941458339,8.739706470249994,0.5133333333333333,0.38333333333333336,-0.7411111111111112,0.5419724268229238,0.12316543906245721,0.0
1589543886.1812625,0.16685411829522648,-4.113427059147614,8.803989414033293,0.5133333333333333,0.38333333333333336,-0.7411111111111112,0.3072279229467554,0.3107426409822518,-0.02141911967258274
1589543886.1912625,0.17317396866005755,-4.133652062679885,8.834072593540133,0.5148502291866539,0.38333333333333336,-0.7411111111111112,-0.20470898624880077,0.17327910137511993,-0.09094179724976015
1589543886.2012625,0.16523528443430613,-4.176952943113139,8.770858829339415,0.52,0.38333333333333336,-0.7411111111111112,-0.5351471556569386,0.06786768337135196,-0.16845589445711734
1589543886.2112625,0.193260305301944,-4.17,8.741013740402591,0.52,0.38333333333333336,-0.7411111111111112,-0.07517175503239977,-0.04845896937904997,-0.11095896937904998
1589543886.2212625,0.17042092461837258,-4.17,8.710561232824498,0.52,0.38333333333333336,-0.7411111111111112,0.30548458969379044,-0.0008769262882761947,-0.0633769262882762
1589543886.2312624,0.17685241755034536,-4.123704835100691,8.806852417550346,0.52,0.38333333333333336,-0.7411111111111112,0.3622932678276097,0.12151717093102442,0.08217239031034147
1589543886.2412624,0.1662548380809178,-4.12685322863587,8.79812741904046,0.52,0.38832688255877634,-0.7400707883558105,-0.06623994096845154,0.1914818450143402,0.1015927380057361
1589543886.2512624,0.15701299415354728,-4.2,8.7853246705643,0.52,0.41,-0.7355555555555555,-0.6103895955134432,-0.07711040448655683,-0.02922080897311365
1589543886.2612624,0.1799447762415119,-4.199889552483024,8.76966865744907,0.52,0.41,-0.7355555555555555,-0.5587033666039434,-0.12430970301889879,-0.125
1589543886.2712624,0.17791542277389957,-4.172084577226101,8.765407959417297,0.52,0.41,-0.7355555555555555,0.19920708850530852,0.04947139233687235,-0.05079291149469148
1589543886.2812624,0.1807031620634888,-4.156901054021163,8.834505270105815,0.52,0.41,-0.7355555555555555,0.3318684123677317,0.125,0.0625
1589543886.2912624,0.16772414211596226,-4.152574714038654,8.807724142115962,0.52,0.4045644925850636,-0.7369859522436967,0.1979884098425316,0.15718392548317606,0.0625
1589543886.3012624,0.17354680730834432,-4.168226596345828,8.821773403654172,0.52,0.3888888888888889,-0.7411111111111112,-0.363916227161424,0.172875659257864,0.011083772838575999
1589543886.3112624,0.1598513277767009,-4.176716224074433,8.780446016669897,0.52,0.3888888888888889,-0.7411111111111112,-0.33488200232603216,-0.01959439813917427,-0.08302359953479357
1589543886.3212624,0.17760404690733503,-4.167604046907335,8.73437571855599,0.52,0.3888888888888889,-0.7411111111111112,-0.005202345366750988,-0.14257587951253162,-0.11002529317084388
1589543886.3312624,0.16649836041138769,-4.152996720822776,8.804511477120286,0.52,0.3888888888888889,-0.7411111111111112,0.30934425771351914,-0.08754098971530778,-0.04061475257117306
1589543886.3412623,0.16212359854519223,-4.135752802909615,8.845752802909615,0.52,0.38629337955587617,-0.738043690990278,0.08132007274038895,-0.21018252727764586,-0.026544981814902762
1589543886.3512623,0.17385967923880524,-4.143158075432831,8.814561283044778,0.52,0.37666666666666665,-0.7266666666666667,-0.4813609666977292,-0.03837700475746726,-0.14912299524253275
1589543886.3612623,0.1742823318506993,-4.182858834074651,8.755693991104195,0.52,0.37666666666666665,-0.7266666666666667,-0.607058296267483,0.05360313889969389,-0.11602914813374147
1589543886.3712623,0.16009538466742207,-4.18995230766629,8.670572308004532,0.52,0.37666666666666665,-0.7266666666666667,-0.2523846166855519,0.18660576874291804,0.06130769165722405
1589543886.3812623,0.18224885205510136,-4.171004591779594,8.764737372606115,0.52,0.37666666666666665,-0.7266666666666667,0.2984446746556165,0.13905532534438347,0.01405532534438347
1589543886.3912623,0.18812059021166985,-4.14751763915332,8.829326492328368,0.52,0.37666666666666665,-0.7266666666666667,0.2617463111770635,0.17575368882293652,0.0507536888229365
1589543886.4012623,0.16,-4.160640440685511,8.855516915201424,0.5077777777777778,0.3888888888888889,-0.7477777777777778,-0.14501377142221233,0.0745082628533274,0.06650275428444247
1589543886.4112623,0.16,-4.168419764077454,8.801061651457822,0.5077777777777778,0.3888888888888889,-0.7477777777777778,-0.3881176274204318,0.22037057645225908,0.11512352548408636
1589543886.4212623,0.17900302866863047,-4.185015143343152,8.715981827988218,0.5077777777777778,0.3888888888888889,-0.7477777777777778,-0.15011357507364229,0.13123107082105961,-0.0625
1589543886.4312623,0.17030224453387546,-4.141511222669377,8.768186532796747,0.5077777777777778,0.3888888888888889,-0.7477777777777778,0.17616582997967056,0.18561097166327842,-0.0625
1589543886.4412622,0.160924622903851,-4.14092462290385,8.822773868711554,0.5089078724380401,0.3888888888888889,-0.7452093808226361,0.3461055342546558,0.05672110685093115,-0.10188442740372461
1589543886.4512622,0.16976068087975058,-4.1497606808797505,8.849282042639251,0.5197074988530285,0.3888888888888889,-0.7206647753340262,0.06997872250779474,0.0014957445015589405,0.11901702199376424
1589543886.4612622,0.17,-4.172935474212141,8.72238715472715,0.52,0.3888888888888889,-0.72,-0.3050401414776555,0.06995985852234449,0.01834671382588517
1589543886.4712622,0.17,-4.18,8.689165599725197,0.52,0.3888888888888889,-0.72,-0.38021500171751554,-0.0625,0.0625
1589543886.4812622,0.1646151057862907,-4.177307552893145,8.758077341320563,0.52,0.3888888888888889,-0.72,0.11779456092489078,-0.012016616746475382,0.0625
1589543886.4912622,0.15324042742653607,-4.166759572573464,8.786480854853071,0.5186798258632631,0.3882888097358267,-0.7230003957653112,0.40374554764024934,0.13175089047195013,0.0422473285841496
1589543886.5012622,0.17117302125343295,-4.148826978746567,8.831173021253433,0.5077777777777778,0.38333333333333336,-0.7477777777777778,0.03305230472326001,0.169110460944652,-0.088220921889304
1589543886.5112622,0.15518109506525601,-4.17,8.776322882075837,0.5077777777777778,0.38333333333333336,-0.7477777777777778,-0.25226368831570006,0.09261815584214997,0.0
1589543886.5212622,0.1689849088838269,-4.171015091116173,8.684060364464692,0.5077777777777778,0.38333333333333336,-0.7477777777777778,-0.399434083143508,0.006344319476082005,-0.01268863895216401
1589543886.5312622,0.16,-4.175464217619748,8.733607347140758,0.5077777777777778,0.38333333333333336,-0.7477777777777778,-0.024701813497896866,0.0625,-0.10610090674894843
1589543886.5412621,0.16,-4.157150363136216,8.788548910591352,0.5077777777777778,0.38333333333333336,-0.7477777777777778,0.12791364053153245,0.0625,-0.029793179734233774
1589543886.5512621,0.16,-4.15,8.839455069124424,0.5077777777777778,0.38333333333333336,-0.7477777777777778,0.2488647273425499,0.0625,-0.06136472734254992
1589543886.5612621,0.17497521424127482,-4.147462821361912,8.797661107431713,0.5077777777777778,0.38333333333333336,-0.7477777777777778,-0.4375,-0.09390491099203244,-0.15640491099203244
1589543886.5712621,0.18755984096502853,-4.171220079517486,8.703660238552457,0.5077777777777778,0.38333333333333336,-0.7477777777777778,-0.42224900603142834,0.0,-0.07012549698428583
1589543886.581262,0.1661033249763676,-4.178051662488183,8.741690025070897,0.5077777777777778,0.38333333333333336,-0.7477777777777778,-0.21508312440918992,0.0,-0.125
1589543886.591262,0.15053673798558076,-4.169463262014419,8.79161021395674,0.5092090790726598,0.3839893464268209,-0.7474199524540572,0.1942092248197594,0.00335461240987971,-0.11829077518024059
1589543886.601262,0.15868749878544083,-4.161312501214559,8.816062496356322,0.53094444120562,0.39395138740442776,-0.7419861119208173,0.29609373481801043,0.054296867409005224,-0.01640626518198955
1589543886.611262,0.1716519379187516,-4.1616519379187515,8.793480620812485,0.5344444444444445,0.3955555555555556,-0.7411111111111112,0.021201552031210248,0.14564922398439487,-0.11467538800780257
1589543886.621262,0.17876634721397675,-4.168766347213976,8.722336527860234,0.5344444444444445,0.3955555555555556,-0.7411111111111112,-0.15665868034941904,0.23457934017470952,-0.07021032991264524
1589543886.631262,0.15,-4.167554204512159,8.756114488719602,0.5344444444444445,0.3955555555555556,-0.7411111111111112,-0.26664133460298856,0.054856889100498095,-0.015286221799003808
1589543886.641262,0.15,-4.152192719015529,8.794518202461179,0.5344444444444445,0.3955555555555556,-0.7411111111111112,0.02138651845883388,0.006852246923527684,-0.11129550615294463
1589543886.651262,0.16531521475370056,-4.127027177869449,8.83234239262315,0.5011111111111111,0.38333333333333336,-0.7555555555555555,0.253940184421257,0.08108013831594273,-0.014639953894685757
1589543886.661262,0.15247621772405406,-4.154952435448108,8.812761605035405,0.5011111111111111,0.38333333333333336,-0.7555555555555555,-0.030358164652027758,-0.0625,-0.047023639224662045
1589543886.671262,0.16513726072117524,-4.172568630360588,8.74027452144235,0.5011111111111111,0.38333333333333336,-0.7555555555555555,-0.32855393975367264,-0.030392120492654696,0.016053939753672652
1589543886.681262,0.18,-4.18,8.771631150238605,0.5011111111111111,0.38333333333333336,-0.7555555555555555,-0.32402655504360706,0.0726946889912786,0.052305311008721406
1589543886.691262,0.18,-4.18,8.777382754648675,0.5011111111111111,0.38333333333333336,-0.7555555555555555,-0.14428891722889584,0.10864221655422082,0.01635778344577917
1589543886.701262,0.16228963272896327,-4.153434449093445,8.806565550906555,0.5178375690893124,0.3882528797975102,-0.7614590113125678,0.21422448860994886,0.014310204556020459,0.0
1589543886.711262,0.1616180856832972,-4.144854257049891,8.777055314533621,0.52,0.3888888888888889,-0.7622222222222222,0.1470478579175705,0.15716089343817788,-0.0625
1589543886.721262,0.17117132571456184,-4.1723426514291235,8.713513977143686,0.52,0.3888888888888889,-0.7622222222222222,-0.07714157143202299,0.014641571432023,-0.055179214283988504
1589543886.731262,0.17893333859884686,-4.187866677197694,8.744266645604613,0.52,0.3888888888888889,-0.7622222222222222,-0.16083346497117132,0.10500009872837848,-0.006666633757207172
1589543886.741262,0.17065140984124477,-4.17130281968249,8.77739436063502,0.52,0.3888888888888889,-0.7622222222222222,0.046214753968880834,-0.05028606547666062,-0.05842868849222021
1589543886.751262,0.16196941044450447,-4.153938820889009,8.820152947777478,0.5315997404690491,0.3888888888888889,-0.7452687553828429,0.162882369443694,0.08807355416554105,-0.112691184721847
1589543886.761262,0.16,-4.152437808481487,8.826592053351822,0.5344444444444445,0.3888888888888889,-0.7411111111111112,0.1570273939814127,0.1570273939814127,-0.007618151504646824
1589543886.771262,0.16,-4.166285181333466,8.75043150266594,0.5344444444444445,0.3888888888888889,-0.7411111111111112,-0.016064766668317382,-0.016064766668317382,-0.050891191667079345
1589543886.781262,0.20551232379853268,-4.18,8.728975352402935,0.5344444444444445,0.3888888888888889,-0.7411111111111112,-0.3469520237408293,-0.05548800593520732,-0.0625
1589543886.791262,0.17093726815596408,-4.18,8.798125463688073,0.5344444444444445,0.3888888888888889,-0.7411111111111112,-0.13085792597477536,-0.0014644814936938394,-0.0625
1589543886.801262,0.17163744862655864,-4.17,8.833274897253117,0.5344444444444445,0.3955555555555556,-0.7411111111111112,0.125,0.13523405391599136,-0.16703189216801728
1589543886.811262,0.17851629373779845,-4.168516293737799,8.832195524853582,0.5344444444444445,0.3955555555555556,-0.7411111111111112,0.0879073434449617,0.1875,-0.08104632827751915
1589543886.821262,0.17,-4.163587547580207,8.731793773790104,0.5344444444444445,0.3955555555555556,-0.7411111111111112,-0.14742217237629146,0.17628891381185427,-0.1538667414355628
1589543886.8312619,0.16888949247245072,-4.17888949247245,8.745552537637746,0.5344444444444445,0.3955555555555556,-0.7411111111111112,-0.243059327952817,0.11111865590563402,0.0
1589543886.8412619,0.1607521729008226,-4.170752172900823,8.786239135495887,0.5344444444444445,0.3955555555555556,-0.7411111111111112,-0.19220108063014124,0.009402161260282468,0.0
1589543886.8512619,0.16784461617722823,-4.17,8.805689232354457,0.5292147003262924,0.3903258114374034,-0.7297799988551148,-0.13847114889232354,-0.049028851107676456,0.09805770221535291
1589543886.8612618,0.16813055272130006,-4.1581305527213,8.80158748724585,0.5277777777777778,0.3888888888888889,-0.7266666666666667,0.10747393176218799,0.11331595450812533,-0.05081595450812533
1589543886.8712618,0.15113243959021946,-4.142264879180439,8.724529758360879,0.5277777777777778,0.3888888888888889,-0.7266666666666667,-0.07665549487774334,-0.007077747438871667,0.0625
1589543886.8812618,0.15974337391447166,-4.159486747828943,8.758973495657887,0.5277777777777778,0.3888888888888889,-0.7266666666666667,-0.18429217393089575,-0.06089608696544787,0.0625
1589543886.8912618,0.16,-4.17829515567045,8.814885467011353,0.5277777777777778,0.3888888888888889,-0.7266666666666667,-0.30184472294031695,-0.0625,0.0625
