time,acc_x,acc_y,acc_z,mag_x,mag_y,mag_z,gyr_x,gyr_y,gyr_z
1589543041.4176302,-0.15,-4.21,8.85,0.4655555555555556,0.2311111111111111,-0.6222222222222222,-0.125,0.0625,0.0
1589543041.4276302,-0.12250856178412833,-4.21,8.795017123568256,0.4655555555555556,0.2311111111111111,-0.6222222222222222,-0.16795537221229948,-0.15227686106149738,0.0
1589543041.4376302,-0.1188125987894676,-4.192374802421065,8.761187401210533,0.4655555555555556,0.2311111111111111,-0.6222222222222222,-0.1324212575658275,-0.08476377269748256,0.16523622730251744
1589543041.4476302,-0.12,-4.19,8.76,0.4655555555555556,0.2311111111111111,-0.6222222222222222,-0.125,-0.10877605357415028,-0.043880267870751416
1589543041.4576302,-0.14711413251627728,-4.208076088344185,8.83230435337674,0.4655555555555556,0.243161836673901,-0.6021376796175724,-0.29446332822673305,-0.06851222392442233,0.10095110430231072
1589543041.4676301,-0.1407455128967075,-4.1914910257934155,8.784473077380245,0.4655555555555556,0.24444444444444444,-0.6,-0.2546594556044217,0.22670272197789137,0.009318911208843456
1589543041.4776301,-0.1307284499235474,-4.19,8.74291379969419,0.4655555555555556,0.24444444444444444,-0.6,-0.1341056240443425,0.018211248088685017,-0.057947187977828746
1589543041.4876301,-0.13,-4.208219036912123,8.776438073824245,0.4655555555555556,0.24444444444444444,-0.6,-0.23886898070076823,0.05693449035038411,0.10830347105115234
1589543041.4976301,-0.12381048976015059,-4.2038104897601505,8.804758040959397,0.4655555555555556,0.24444444444444444,-0.6,-0.25,0.02381556100094122,0.008946683002823669
1589543041.50763,-0.12,-4.185610849148513,8.84158372627723,0.4703519391727178,0.23964806082728218,-0.6159879453905408,-0.16006780717820818,-0.17986438564358365,-0.0625
1589543041.51763,-0.14799001047289131,-4.18,8.859330003490964,0.4722222222222222,0.23777777777777775,-0.6222222222222222,-0.1833125218185236,-0.1916874781814764,0.05412504363704719
1589543041.52763,-0.13391879496952774,-4.18,8.77959397484764,0.4722222222222222,0.23777777777777775,-0.6222222222222222,-0.28800753144045166,-0.23775376572022583,-0.08826129716067752
1589543041.53763,-0.12078418517146033,-4.19843162965708,8.8060790741427,0.4722222222222222,0.23777777777777775,-0.6222222222222222,-0.19730231464325418,-0.25,-0.06740115732162709
1589543041.54763,-0.12,-4.193064713064714,8.83080586080586,0.4722222222222222,0.23777777777777775,-0.6222222222222222,-0.31753663003663,-0.25,0.02419108669108669
1589543041.55763,-0.11487181623175126,-4.19,8.834871816231752,0.46880343304338973,0.24803414531427526,-0.6148148456680851,-0.40705114855155466,-0.21794885144844534,-0.0016022971031093153
1589543041.56763,-0.13657022129914775,-4.203285110649574,8.770217002076917,0.4655555555555556,0.2577777777777778,-0.6077777777777778,-0.5205319415598367,-0.22901597077991837,0.020531941559836717
1589543041.57763,-0.15,-4.20398444715357,8.73398444715357,0.4655555555555556,0.2577777777777778,-0.6077777777777778,-0.8256804370312905,-0.47558323174110606,0.024902794709815657
1589543041.58763,-0.14275378814825354,-4.192753788148254,8.766231059258732,0.4655555555555556,0.2577777777777778,-0.6077777777777778,-0.9547111759265846,-0.9873105925873231,0.0
1589543041.59763,-0.1331555564449959,-4.196844443555005,8.76631111288999,0.4655555555555556,0.2577777777777778,-0.6077777777777778,-1.279722177750205,-1.381666633312654,-0.042777772218775635
1589543041.60763,-0.13925893172974887,-4.181482136540502,8.787776795189245,0.45835416421019537,0.23925991431828006,-0.6077777777777778,-1.3796316766890697,-1.673604969932791,-0.0625
1589543041.61763,-0.20188675896343627,-4.056226482073128,8.6220216542421,0.4577777777777778,0.23777777777777775,-0.6077777777777778,-1.7065362087326945,-2.240060347887824,-0.28352413915512953
1589543041.62763,-0.02088631894372131,-4.065788229234947,9.167341043168836,0.4577777777777778,0.23777777777777775,-0.6077777777777778,-1.6425490448543871,-2.6348528654368386,-0.25877452242719357
1589543041.63763,-0.1657651439640419,-3.955076636638896,8.807066744400354,0.4577777777777778,0.23777777777777775,-0.6077777777777778,-0.18845795798619602,-0.3214307543302053,-0.29225123652981777
1589543041.64763,-0.20432689642428162,-3.8588942067818532,8.740721241799871,0.4577777777777778,0.23777777777777775,-0.6077777777777778,0.014723274507992212,0.013220687424928323,-0.34104568973482396
1589543041.65763,-0.16271995943890485,-3.7760801081629203,8.898800067601824,0.45589333934238446,0.2349511201246878,-0.616728860345896,-0.6684996619908737,-0.9375,-0.48099966199087374
1589543041.66763,-0.22158511739754852,-3.6052446478073543,8.770195718245883,0.4533333333333333,0.2311111111111111,-0.6288888888888889,-1.0204255869877425,-0.7295744130122575,-1.1448139674693563
1589543041.67763,-0.1920110351642922,-3.283686074281479,8.871564687474265,0.4533333333333333,0.2311111111111111,-0.6288888888888889,-2.202168945071234,-1.68471032693733,-2.674586181339043
1589543041.68763,-0.22098749052312358,-3.0588400303260044,8.844420015163003,0.4533333333333333,0.2311111111111111,-0.6288888888888889,-3.0748436315390446,-1.6413594579226687,-5.5842494313874145
1589543041.69763,-0.24424804667783812,-2.9658837899497286,8.89411621005027,0.4533333333333333,0.2311111111111111,-0.6288888888888889,-3.7663268962871737,-1.5625,-8.70745846035816
1589543041.70763,-0.28845965147763303,-2.94,8.689242091134203,0.4440745283479772,0.2396577003283629,-0.638147693874245,-3.9198757260882644,-0.36063589132396845,-7.025774687000995
1589543041.71763,-0.25964915065883476,-3.091052548023496,8.83692967137641,0.4388888888888889,0.24444444444444444,-0.6433333333333333,-0.9903159231624068,0.3125,8.50382997301159
1589543041.72763,-0.27761000992007784,-3.2166350347202726,8.841682482639865,0.4388888888888889,0.24444444444444444,-0.6433333333333333,0.5547347315027983,-0.6797347315027983,19.297940414022875
1589543041.73763,-0.2553655210038189,-3.2184386252045827,8.605266230223677,0.4388888888888889,0.24444444444444444,-0.6433333333333333,0.39389661756683025,-1.0817069012547735,29.08512002182215
1589543041.74763,-0.3084576189236434,-3.2570480157697026,8.743896864655781,0.4388888888888889,0.24444444444444444,-0.6433333333333333,-0.0889300591363856,-2.167805305537992,36.3050312418641
1589543041.7576299,-0.3017013817281914,-3.345343369766962,8.783969890699113,0.4604809697302995,0.24444444444444444,-0.6339767649687221,0.43824757681996296,-2.352237574757682,45.233965766137345
1589543041.7676299,-0.2999529371739624,-3.405943524608755,8.817830573826265,0.4722222222222222,0.24444444444444444,-0.6288888888888889,0.775058828532547,-2.3369705432070766,51.39505840326605
1589543041.7776299,-0.35840192658001174,-3.449200963290006,8.825996789033313,0.4722222222222222,0.24444444444444444,-0.6288888888888889,0.5099879588749267,-2.8025120411250732,56.66015854148013
1589543041.7876298,-0.4262527682321497,-3.5447967417589408,8.905631920580374,0.4722222222222222,0.24444444444444444,-0.6288888888888889,0.2786400661830215,-3.2747597683594245,62.9182369224895
1589543041.7976298,-0.44,-3.546871445622411,8.922653584216809,0.4722222222222222,0.24444444444444444,-0.6288888888888889,0.35841509864494836,-3.338861633785017,67.6108680579934
1589543041.8076298,-0.469493922883487,-3.546087594300084,8.86709974853311,0.47043471174443513,0.23729440253329606,-0.6250159495203502,0.38722626781223807,-3.5973844823973176,72.89458691324393
1589543041.8176298,-0.5385534666507006,-3.5837564363549275,8.766649503053527,0.46624928484945255,0.2205526949533655,-0.6159475245812212,0.2695111363908514,-4.2644368937851755,79.52587264998203
1589543041.8276298,-0.4649953621908127,-3.6209107773851588,8.688178445229681,0.4655555555555556,0.21777777777777774,-0.6144444444444445,0.6846828069787987,-4.278403820671378,85.16502042844523
1589543041.8376298,-0.46248366322568424,-3.615010891182877,8.77492376171986,0.4655555555555556,0.21777777777777774,-0.6144444444444445,0.5314542096789469,-4.905773510749124,89.16993500805
1589543041.8476298,-0.4867786635279011,-3.5764426729441974,8.759664009416298,0.4655555555555556,0.21777777777777774,-0.6144444444444445,0.7171443921316856,-4.915266705901236,91.18107756852675
1589543041.8576298,-0.5241035146004547,-3.5921811505507955,8.810388179751705,0.46957280798896467,0.21376052534436865,-0.6271657438169066,0.824514775310369,-4.674676516873579,92.89105831439063
1589543041.8676298,-0.5632793666099931,-3.6587989443499884,8.823441266780014,0.4722222222222222,0.2111111111111111,-0.6355555555555555,0.7015013195625143,-4.8189947217499425,94.21347888699977
1589543041.8776298,-0.57,-3.645445998250115,8.800178399300046,0.4722222222222222,0.2111111111111111,-0.6355555555555555,0.6875,-4.782922493437931,94.37611499562529
1589543041.8876297,-0.6147017441008353,-3.6451447310567198,8.795587718012603,0.4722222222222222,0.2111111111111111,-0.6355555555555555,0.7573464751575554,-4.582730287263667,94.10296057452733
1589543041.8976297,-0.7207973229777741,-3.691594645955548,8.860614723622243,0.4722222222222222,0.2111111111111111,-0.6355555555555555,0.9950167313889119,-4.427533462777824,93.33243307444435
1589543041.9076297,-0.7198231985831028,-3.655265202125346,8.934734797874654,0.47822528802300734,0.19528484672722313,-0.6393756883378733,0.8476175309946244,-4.65459248671659,92.72482754870583
1589543041.9176297,-0.7900806809577273,-3.653351262435051,8.9767025248701,0.4844444444444445,0.17888888888888888,-0.6433333333333333,0.7084453902190657,-4.624831914671401,91.79088226846655
1589543041.9276297,-0.9032301263177889,-3.6808075315794473,8.781924684205528,0.4844444444444445,0.17888888888888888,-0.6433333333333333,0.7933490241238484,-4.4324529276284546,91.10985878288537
1589543041.9376297,-0.9198608285555762,-3.669860828555576,8.817548085814686,0.4844444444444445,0.17888888888888888,-0.6433333333333333,0.4768471425929351,-4.836522678934714,90.9375
1589543041.9476297,-0.9286832440446107,-3.645987566966542,8.865987566966542,0.4844444444444445,0.17888888888888888,-0.6433333333333333,0.45846284409852084,-4.9457297247211836,90.76234458708177
1589543041.9576297,-0.9689343058033372,-3.619180396683807,8.860819603316193,0.4937613250778326,0.16656656288989166,-0.641229521577407,0.7602450414524085,-4.643443698184489,90.37653806800294
1589543041.9676297,-1.014052086839448,-3.572156260518344,8.866208347357793,0.5188888888888888,0.13333333333333333,-0.6355555555555555,0.7532554274654999,-4.52207011528105,89.0571619404241
1589543041.9776297,-1.0877682478557675,-3.56,8.786371433572553,0.5188888888888888,0.13333333333333333,-0.6355555555555555,0.7651190267810257,-4.2197619464379486,87.5278969018029
1589543041.9876297,-1.146461224773512,-3.56,8.819537755740402,0.5188888888888888,0.13333333333333333,-0.6355555555555555,0.999036991125837,-3.9173086725827755,85.96732141615885
1589543041.9976296,-1.184615038271049,-3.5796920306168394,8.899230076542098,0.5188888888888888,0.13333333333333333,-0.6355555555555555,0.9394248086447546,-3.905768797838811,84.5750112561909
1589543042.0076296,-1.21,-3.5917317461748883,8.941731746174888,0.5156734568457897,0.11174400390109651,-0.6415270722070253,0.7349851203895752,-4.015014879610424,83.18155754952355
1589543042.0176296,-1.21,-3.5112362995324595,8.95292123348918,0.5111111111111111,0.0811111111111111,-0.65,0.7324432819805319,-4.053371145346312,81.12149504356046
1589543042.0276296,-1.21,-3.4414890807268104,8.89595632290724,0.5111111111111111,0.0811111111111111,-0.65,0.6968067545425644,-4.038564415152479,78.79918105451077
1589543042.0376296,-1.2611113703984598,-3.394222040721078,8.834666588880461,0.5111111111111111,0.0811111111111111,-0.65,0.40138775450673825,-3.902776967504813,77.04305101802696
1589543042.0476296,-1.3074202809549398,-3.3367825285944575,8.835478314270363,0.5111111111111111,0.0811111111111111,-0.65,0.20362324403162663,-3.84673946418976,75.80054214324096
1589543042.0576296,-1.3009808858524603,-3.2788279726721425,8.874114684885239,0.5111111111111111,0.0811111111111111,-0.65,0.2438694634221233,-4.08821678053274,74.83463287786904
1589543042.0676296,-1.385878571981724,-3.2613738093394256,8.849616665375978,0.5188888888888888,0.054444444444444434,-0.6433333333333333,0.6445684581429567,-3.765974696042748,73.09684523348564
1589543042.0776296,-1.42,-3.230926522043387,8.77,0.5188888888888888,0.054444444444444434,-0.6433333333333333,1.0,-3.375,72.4151358759039
1589543042.0876296,-1.4732378081285271,-3.2635582066506132,8.823237808128527,0.5188888888888888,0.054444444444444434,-0.6433333333333333,0.788258717670631,-3.5262437730924066,71.55227615301189
1589543042.0976295,-1.5364983251739244,-3.3035016748260757,8.88,0.5188888888888888,0.054444444444444434,-0.6433333333333333,0.6843435970110796,-3.606270935325947,70.61100553980933
1589543042.1076295,-1.555043815819817,-3.279912368360366,8.88252190790991,0.5202899488388381,0.04968084061461722,-0.6486573611431402,0.9847857733107849,-3.374452302252287,69.88911883119378
1589543042.1176295,-1.5867273931765487,-3.2667273931765486,8.90672739317655,0.5244444444444445,0.03555555555555556,-0.6644444444444444,1.0831815170586288,-3.2223487357844762,69.20772606823452
1589543042.1276295,-1.6524687038988408,-3.302454794520548,8.964965226554266,0.5244444444444445,0.03555555555555556,-0.6644444444444444,0.5858614330874605,-3.5234483667017913,67.35913593256059
1589543042.1376295,-1.5483724889342867,-3.1106962887299967,8.911166155941437,0.5244444444444445,0.03555555555555556,-0.6644444444444444,0.4171561116785836,-3.5625,65.84589930200885
1589543042.1476295,-1.5746262277726588,-3.03587213519713,8.970996725939576,0.5244444444444445,0.03555555555555556,-0.6644444444444444,0.4710860764208834,-3.379672152841767,64.11477468778796
1589543042.1576295,-1.6092,-3.0192,8.906,0.5276444444444445,0.020088888888888892,-0.6783111111111111,0.585,-2.6475,62.59
1589543042.1676295,-1.5742008460548096,-2.9842008460548097,8.844491447489425,0.5311111111111111,0.0033333333333333327,-0.6933333333333334,0.8759081294831709,-2.2210203237079273,61.11410244620195
1589543042.1776295,-1.5619682815555072,-2.9461416467521184,8.787401694547034,0.5311111111111111,0.0033333333333333327,-0.6933333333333334,0.8164376493591137,-2.5565935259613295,59.74951118835542
1589543042.1876295,-1.6445390014036494,-2.958156005614598,8.74910166432725,0.5311111111111111,0.0033333333333333327,-0.6933333333333334,0.5738770804090636,-2.8123521155003006,58.15307298977341
1589543042.1976295,-1.632743106379833,-2.8727431063798328,8.847343978709247,0.5311111111111111,0.0033333333333333327,-0.6933333333333334,0.6648222074369778,-2.4690221409033786,56.417044614474754
1589543042.2076294,-1.657548606490722,-2.897548606490722,8.958968729208252,0.5311111111111111,0.0033333333333333327,-0.6933333333333334,0.7423393952835071,-2.895366674059289,55.52559695423967
1589543042.2176294,-1.850627802690583,-2.9129596412556054,8.8952466367713,0.5511111111111111,-0.022222222222222227,-0.6844444444444444,0.44478699551569506,-3.1507847533632285,53.672645739910315
1589543042.2276294,-1.93,-2.95,8.8,0.5511111111111111,-0.022222222222222227,-0.6844444444444444,0.3125,-3.25,53.375
1589543042.2376294,-2.1635423319237077,-3.1749244843358935,9.22429748856477,0.5511111111111111,-0.022222222222222227,-0.6844444444444444,-0.17305493225166135,-4.307637330629153,53.45869562872184
1589543042.2476294,-2.261597168228506,-3.21,8.981712567009044,0.5511111111111111,-0.022222222222222227,-0.6844444444444444,0.42158407333142367,-2.8509867209559276,54.606477881900396
1589543042.2576294,-2.3651078274760384,-3.2504426763332512,9.039784345047924,0.5324946410529477,-0.029925589142841547,-0.6850863916878294,0.5278093511919391,-2.684662232735316,57.43884784345048
1589543042.2676294,-2.35688192501399,-3.191634695019586,8.784828427532176,0.5188888888888888,-0.03555555555555556,-0.6855555555555556,0.47338556239507557,-2.8196264689423614,59.78184946838277
1589543042.2776294,-2.3072000134034782,-3.1357333378011596,8.806666554971015,0.5188888888888888,-0.03555555555555556,-0.6855555555555556,0.48333361257246255,-3.1124991622826124,61.41666596856884
1589543042.2876294,-2.2565223045397227,-3.0600011822194197,8.876957755359394,0.5188888888888888,-0.03555555555555556,-0.6855555555555556,0.1820642536254729,-4.016307239123582,62.84509970050441
1589543042.2976294,-2.2303920999128666,-2.93023525994772,8.815823409817021,0.5188888888888888,-0.03555555555555556,-0.6855555555555556,0.6904407493465001,-3.152574063316875,64.75539137380191
1589543042.3076293,-2.347463252979849,-3.0033692340584746,8.982644449195575,0.5274556511720443,-0.050547389551077626,-0.7021536574791692,0.8215598107862526,-3.169380378427495,65.97961542573093
1589543042.3176293,-2.3966554200906627,-2.9986419241994575,8.989304092235724,0.5366666666666666,-0.06666666666666668,-0.72,0.7375843493200307,-3.4832349257932975,67.43792174660015
1589543042.3276293,-2.31767233251623,-2.878951054602268,8.906918083129058,0.5366666666666666,-0.06666666666666668,-0.72,1.019261980443391,-3.086476039113218,69.30962779139617
1589543042.3376293,-2.3147549496147004,-2.834868049792531,8.904943449911086,0.5366666666666666,-0.06666666666666668,-0.72,0.8448103141671606,-3.1551896858328394,71.15354030823949
1589543042.3476293,-2.37167794912878,-2.840872821950731,8.949127178049268,0.5366666666666666,-0.06666666666666668,-0.72,0.48448077308231524,-3.489512817945123,72.36912177047867
1589543042.3576293,-2.365427807486631,-2.786430481283422,9.000855614973261,0.5327465834818775,-0.07390374331550803,-0.72,0.4428475935828877,-3.4776905080213902,73.43566176470588
1589543042.3676293,-2.372649512093008,-2.723048211007697,9.034900325271327,0.5222222222222223,-0.09333333333333334,-0.72,0.5637459341084023,-3.326567582364497,74.68251626356638
1589543042.3776293,-2.3788759560282737,-2.64,8.847868307802083,0.5222222222222223,-0.09333333333333334,-0.72,0.5554747251767119,-3.3046789640332688,76.15939890070685
1589543042.3876293,-2.5361220390635824,-2.7156143510181465,8.708528189499932,0.5222222222222223,-0.09333333333333334,-0.72,0.6943525765341461,-3.308820473749827,77.67696789721568
1589543042.3976293,-2.8484140808976313,-2.9189673084914807,9.10797149882255,0.5222222222222223,-0.09333333333333334,-0.72,0.3766135804820612,-4.307428747056379,78.99331516657432
1589543042.4076293,-2.798705371399374,-2.774352685699687,8.866227885290924,0.5115823238452095,-0.1073586539212138,-0.7330580570990611,0.77204285623044,-3.798548572523472,83.15653142364438
1589543042.4176292,-2.8000381898817346,-2.7451336645860707,9.099732670827859,0.4977777777777778,-0.12555555555555556,-0.75,0.9070854036629434,-4.02874378901117,86.65016348759855
1589543042.4276292,-2.7660239787616683,-2.6620479575233364,9.074095915046673,0.4977777777777778,-0.12555555555555556,-0.75,0.7998875995546801,-4.369068467928407,89.14910079643744
1589543042.4376292,-2.7132080200501254,-2.551203007518797,8.864436090225563,0.4977777777777778,-0.12555555555555556,-0.75,1.0399436090225564,-3.6726190476190474,91.34774436090225
1589543042.4476292,-2.767425326801075,-2.5310882080689954,9.085839297405911,0.4977777777777778,-0.12555555555555556,-0.75,0.5470305691644278,-4.765469430835572,94.55756552954192
1589543042.4576292,-2.7117689760570554,-2.408980196128375,8.97571287570046,0.49119435246504783,-0.13770957151751856,-0.75,0.738943899643403,-4.374154275980642,97.02549509679062
1589543042.4676292,-2.709746177335316,-2.3458955876176315,9.06743294018821,0.4833333333333333,-0.15222222222222226,-0.75,0.8044779380881568,-4.176305154779608,99.11389525842007
1589543042.4776292,-2.7430747051411575,-2.3220894963277448,9.02934319412439,0.4833333333333333,-0.15222222222222226,-0.75,0.6854474816387227,-4.473881295903193,100.57201834992564
1589543042.4876292,-2.752610874467552,-2.280443497870208,9.01,0.4833333333333333,-0.15222222222222226,-0.75,0.5557269481332999,-4.8097281383112005,101.9590484840892
1589543042.4976292,-2.733815107466194,-2.2129915455320326,9.006907553733097,0.4833333333333333,-0.15222222222222226,-0.75,0.5631306295929416,-4.931722108318551,103.39107241585846
1589543042.5076292,-2.7090364532868247,-2.118870443339147,9.023886699825592,0.4833333333333333,-0.15824652441343873,-0.7537651888695103,1.144104063045023,-4.058552957388627,105.229858374782
1589543042.5176291,-2.7826344598650987,-2.1086827700674506,9.281306282445174,0.4833333333333333,-0.20555555555555555,-0.7833333333333333,0.31579307483137337,-5.488474238090193,105.59543074831373
1589543042.5276291,-2.9643117987827234,-2.0951299161594683,8.956487008384054,0.4833333333333333,-0.20555555555555555,-0.7833333333333333,0.6570619759966757,-4.733157036004987,107.60292311358803
1589543042.5376291,-2.9456379218739173,-2.04968929751207,9.003376146365127,0.4833333333333333,-0.20555555555555555,-0.7833333333333333,0.9957798170435908,-4.347400609854698,109.55178134168034
1589543042.547629,-2.6488268380875852,-1.8311731619124147,9.074897549216553,0.4833333333333333,-0.20555555555555555,-0.7833333333333333,0.7573322619525914,-4.828445158698273,110.3786661309763
1589543042.557629,-2.679478579481398,-1.7829857196542653,9.027014280345734,0.46268017453755894,-0.22854680779990813,-0.7860611090233413,0.6095981304021045,-4.73696448703495,110.11848224351748
1589543042.567629,-2.6787549739145815,-1.7231125652135466,9.058754973914581,0.4244444444444445,-0.27111111111111114,-0.7911111111111111,0.7831953532584667,-4.103476766292333,109.5233442391016
1589543042.577629,-2.7309477866061296,-1.6788422247446084,9.155158910329172,0.4244444444444445,-0.27111111111111114,-0.7911111111111111,0.52894438138479,-4.407243189557321,108.51709704880817
1589543042.587629,-2.7101412566032623,-1.6301412566032625,9.01056502641305,0.4244444444444445,-0.27111111111111114,-0.7911111111111111,0.4370585731148049,-4.462206602294936,107.53955910524584
1589543042.597629,-2.578988691437803,-1.4967735979690746,8.532471728594507,0.4244444444444445,-0.27111111111111114,-0.7911111111111111,1.05457535195015,-3.0779483037156705,107.20134433417955
1589543042.607629,-2.5112746400488315,-1.397689131449499,8.51354421744282,0.4133068431614265,-0.2884726660522862,-0.785214733961278,1.609066999389609,-2.4437183584072386,106.95518114250835
1589543042.617629,-2.523785791203026,-1.3876556589446944,8.987599607918932,0.38666666666666666,-0.33,-0.7711111111111111,0.375,-5.0,106.25
1589543042.627629,-2.3616514344092554,-1.289216942319905,8.738607559985642,0.38666666666666666,-0.33,-0.7711111111111111,0.375,-5.0,106.25
1589543042.637629,-2.669827479721662,-1.361264462469634,9.13471280932186,0.38666666666666666,-0.33,-0.7711111111111111,1.460130419566023,-3.834052167826409,108.1738507226088
1589543042.647629,-2.7475412772265,-1.2921855313542225,9.01382467986989,0.38666666666666666,-0.33,-0.7711111111111111,0.650611695557294,-3.5102446782229175,108.06591489274098
1589543042.657629,-2.7073529739486997,-1.2394118957947986,9.04602946092305,0.381372614564066,-0.33705873613680093,-0.7718463961253612,0.5294121743587458,-3.420035433334076,108.14154391282062
1589543042.667629,-2.6918372206618635,-1.1681627793381364,9.038372206618634,0.3466666666666667,-0.38333333333333336,-0.7766666666666666,0.35843051654658686,-4.033138966906826,108.19258685431677
1589543042.677629,-2.6774923065739418,-1.1174923065739417,9.107700695437254,0.3466666666666667,-0.38333333333333336,-0.7766666666666666,0.7755594392885701,-3.3097028035571494,107.23712411252998
1589543042.687629,-2.5970084377397087,-1.028033750958834,8.932738430069037,0.3466666666666667,-0.38333333333333336,-0.7766666666666666,0.5940136793658911,-3.918275377141396,105.95725198159039
1589543042.697629,-2.6378163902518144,-0.9976091804874093,9.15,0.3466666666666667,-0.38333333333333336,-0.7766666666666666,0.5543114634443048,-3.7745656096670857,104.63189347552816
1589543042.707629,-2.718762395264817,-0.9577734645245599,9.116077331078484,0.3427090219591565,-0.3912486227483537,-0.7766666666666666,0.9765883234683681,-2.4017266892151587,102.37344578753171
1589543042.717629,-2.37,-0.8,8.95,0.3233333333333333,-0.43,-0.7766666666666666,0.25,-4.0625,99.0
1589543042.727629,-2.476698453723096,-0.7923786818769217,9.026213181230784,0.3233333333333333,-0.43,-0.7766666666666666,0.20236676173076065,-4.205399714807718,94.7606417940377
1589543042.737629,-2.7812803510482693,-0.7828610433934666,9.064277913213067,0.3233333333333333,-0.43,-0.7766666666666666,0.7229217454900049,-3.580722818137494,89.95725865431497
1589543042.747629,-3.0655911355087935,-0.78,8.829717393514283,0.3233333333333333,-0.43,-0.7766666666666666,0.5331783063942259,-3.139219274168954,85.55896741892853
1589543042.757629,-3.2136818674946688,-0.7280126070854065,9.114497587071192,0.3233333333333333,-0.43,-0.7766666666666666,0.22149610938610603,-3.682007781227788,83.2237208203958
1589543042.767629,-2.8026064405813624,-0.4816430132041417,8.854503277286977,0.19333333333333333,-0.4566666666666666,-0.7688888888888888,0.5582525885817422,-3.232822741521801,79.05330578512397
1589543042.777629,-2.7308885722428045,-0.49758031727937685,9.189186662866915,0.19333333333333333,-0.4566666666666666,-0.7688888888888888,-0.08920038947468423,-4.278708321459105,74.72035123966943
1589543042.787629,-2.4326126238284096,-0.43631031355042954,9.000522524765682,0.19333333333333333,-0.4566666666666666,-0.7688888888888888,0.04607106016682377,-2.671071060166824,68.06219987728315
1589543042.7976289,-2.096931367492486,-0.3393357283867181,8.933386273498497,0.19333333333333333,-0.4566666666666666,-0.7688888888888888,0.3724278371600832,-2.997427837160083,62.74724665196436
1589543042.8076289,-2.457833466453674,-0.3490255591054313,9.27689696485623,0.18525492545260916,-0.4580384717784877,-0.7573047568335107,0.7353359624600639,-2.2035243610223643,51.88653154952077
1589543042.8176289,-2.5667110623003193,-0.28202396166134186,8.891637779552717,0.13593430511182109,-0.4664136714589989,-0.6865808484203053,0.2642309804313099,-1.1566244009584665,46.233271765175715
1589543042.8276289,-2.3205110748211695,-0.3162407709823585,8.99427030383881,0.13444444444444445,-0.4666666666666667,-0.6844444444444444,-0.10310192745589622,-2.078009637279481,37.3886997722934
1589543042.8376288,-2.3526757560953944,-0.3555904427765688,9.065351512190789,0.13444444444444445,-0.4666666666666667,-0.6844444444444444,0.23178320824266113,-2.5,31.480098370120352
1589543042.8476288,-2.5283793208932397,-0.33126440297746507,9.352844906699296,0.13444444444444445,-0.4666666666666667,-0.6844444444444444,1.082507392678699,-1.9310709187315185,26.243068726419903
1589543042.8576288,-2.4994658033184947,-0.17884809241749752,9.010350612560245,0.13601743865199956,-0.4676497880463886,-0.6829697623748615,0.00886878702034509,0.24947803612817776,20.279945090320446
1589543042.8676288,-2.7,-0.27,9.22,0.15222222222222226,-0.4777777777777778,-0.6677777777777778,-1.1875,-1.6875,15.4375
1589543042.8776288,-2.5592741742746523,-0.23560035371158167,9.004220400554466,0.15222222222222226,-0.4777777777777778,-0.6677777777777778,-1.0702284785622103,-1.4138664499784905,12.505711964055255
1589543042.8876288,-2.4258552036199097,-0.1725610859728507,8.68387330316742,0.15222222222222226,-0.4777777777777778,-0.6677777777777778,-0.8713800904977376,-0.7536199095022624,4.629751131221719
1589543042.8976288,-2.81,-0.19630750639350253,8.979382570328527,0.15222222222222226,-0.4777777777777778,-0.6677777777777778,-0.746141064553298,-0.336523936992384,0.9692040440659866
1589543042.9076288,-2.81,-0.18452013602000955,8.849721496220106,0.15222222222222226,-0.4777777777777778,-0.6677777777777778,0.0642406486243432,0.5843643734367536,-0.7252304471236264
1589543042.9176288,-2.7612280542163194,-0.24983625943782406,9.249508778313473,0.17777777777777778,-0.4722222222222222,-0.6533333333333333,-0.8048246611480033,-1.0466376330392069,-5.144444191758391
1589543042.9276288,-2.8756908942054036,-0.23457454743927955,9.203723642317838,0.17777777777777778,-0.4722222222222222,-0.6533333333333333,-0.08943191121622851,0.4318407168197944,-6.956772491585554
1589543042.9376287,-2.79287057914063,-0.25215293435547254,9.06148231656252,0.17777777777777778,-0.4722222222222222,-0.6533333333333333,-0.4240441602782967,-0.4375,-10.496396476196612
1589543042.9476287,-2.8288971204019844,-0.27917284030148815,9.205588481607938,0.17777777777777778,-0.4722222222222222,-0.6533333333333333,-0.25516974811569926,-0.4375,-12.80434677575211
1589543042.9576287,-2.518162277658059,-0.29303663391650536,8.790638810767376,0.17924782172873777,-0.4717579978166559,-0.6518632893823734,-0.9505563114065525,-0.3662957923956317,-16.05186570912013
1589543042.9676287,-2.387947331896709,-0.2164396069980642,9.127665729208516,0.19541830518929756,-0.46665152935542653,-0.6356928059218135,-1.0941757368786296,-0.27054950874758027,-18.684888509441542
1589543042.9776287,-2.4346100837563918,-0.1658405879442113,8.78076260469549,0.1988888888888889,-0.4655555555555556,-0.6322222222222222,0.2164206971757418,1.2000646042189762,-27.43143590894929
1589543042.9876287,-2.5883516302256107,-0.3272692117368913,8.972939537782013,0.1988888888888889,-0.4655555555555556,-0.6322222222222222,-1.9455698000476516,-0.6736604933746313,-35.9833094312996
1589543042.9976287,-2.5411666201507117,-0.4365252581635501,9.06505302818867,0.1988888888888889,-0.4655555555555556,-0.6322222222222222,-2.846654339938599,-0.6098328914317611,-42.90724427853754
1589543043.0076287,-3.0240437482556515,-0.3779946971811331,9.087001988557075,0.1988888888888889,-0.4655555555555556,-0.6322222222222222,0.2627817122523024,1.356428141571309,-43.318787285445154
1589543043.0176287,-3.558449443360496,-0.4628876391598761,9.008662917479628,0.24444444444444444,-0.4533333333333333,-0.6255555555555555,-0.23328646849535178,2.030884884655113,-41.57981751405945
1589543043.0276287,-3.373526955201215,-0.4871271606592523,9.100690740988878,0.24444444444444444,-0.4533333333333333,-0.6255555555555555,-1.2361329782482469,0.6475012841127339,-38.548861885300816
1589543043.0376287,-3.2157519335433973,-0.4416165377637735,9.02030077341736,0.24444444444444444,-0.4533333333333333,-0.6255555555555555,0.025846223622648712,1.0965697507877399,-38.20653107991979
1589543043.0476286,-3.0955943425233166,-0.4513985856308292,8.97,0.24444444444444444,-0.4533333333333333,-0.6255555555555555,-1.01354668443169,0.45891795633903865,-40.713281490212154
1589543043.0576286,-3.1299844214410166,-0.4599961053602542,8.97,0.24444444444444444,-0.4533333333333333,-0.6255555555555555,-2.2494401455365383,-0.5620375115301834,-43.561209900584196
1589543043.0676286,-2.813360117486625,-0.5831377320885346,9.16350215042484,0.2796266536125972,-0.4386740795132697,-0.6382602421996108,-2.7447498164271478,-1.5519996328542955,-44.38708302737858
1589543043.0776286,-3.020249044720521,-0.6208540870600434,8.932799592926132,0.28444444444444444,-0.43666666666666665,-0.64,-0.11884708807772792,1.5275050884233567,-41.936685132202996
1589543043.0876286,-2.7245769390294483,-0.5939623945803953,8.98216922438822,0.28444444444444444,-0.43666666666666665,-0.64,0.8935737245956035,2.712264966127471,-39.91155986450988
1589543043.0976286,-2.538787570667426,-0.6167507219262212,9.077833814617481,0.28444444444444444,-0.43666666666666665,-0.64,-1.3738078049375686,0.9558074388904706,-45.99399835278806
1589543043.1076286,-2.999380973685281,-0.795870378655387,9.197246919103591,0.28444444444444444,-0.43666666666666665,-0.64,-0.9473324317728882,1.9153770285110019,-52.23120068532151
1589543043.1176286,-2.523464848022121,-0.7409005179422629,9.079373929551599,0.29444444444444445,-0.4244444444444445,-0.6488888888888888,-0.6883576484183158,2.4019082354883308,-60.061535306741504
1589543043.1276286,-3.0369570480444126,-0.89,9.127944233418209,0.29444444444444445,-0.4244444444444445,-0.6488888888888888,-1.3137339817172433,2.5714770213298825,-66.61108705180115
1589543043.1376286,-3.3258327419960763,-0.89,8.891591392912302,0.29444444444444445,-0.4244444444444445,-0.6488888888888888,-0.6571983136452811,3.337435300747172,-68.4712714446717
1589543043.1476285,-2.963332567331556,-0.9060198547660631,9.162188620277599,0.29444444444444445,-0.4244444444444445,-0.6488888888888888,-1.024875907712106,2.4185328384961853,-69.91698168489751
1589543043.1576285,-2.532811839323467,-0.8803171247357294,8.91801268498943,0.29444444444444445,-0.4244444444444445,-0.6488888888888888,-1.1855179704016914,2.6996564482029597,-72.2061310782241
1589543043.1676285,-2.898564432145068,-1.0110891017004697,9.209455449149766,0.3088888888888889,-0.4244444444444445,-0.6622222222222223,-1.7091586862323853,2.213489513163165,-80.53929263918727
1589543043.1776285,-2.7382026726868878,-1.0263616502202964,9.20181917488985,0.3088888888888889,-0.4244444444444445,-0.6622222222222223,-1.136438116738885,3.454384080399082,-84.59606333976623
1589543043.1876285,-2.9947051236116087,-1.1333249731279111,8.933964887137227,0.3088888888888889,-0.4244444444444445,-0.6622222222222223,-0.7623118953780007,4.60853188821211,-90.59912217843068
1589543043.1976285,-2.7683623678465947,-1.181837520866327,9.114687326113941,0.3088888888888889,-0.4244444444444445,-0.6622222222222223,-1.7895309891709112,3.5229690108290885,-95.90195768950905
1589543043.2076285,-2.597811282797586,-1.208766639558276,8.890278003681034,0.3088888888888889,-0.4244444444444445,-0.6622222222222223,-1.4529170055215512,3.859582994478449,-101.79270240337286
1589543043.2176285,-2.6190189728096676,-1.3550948640483385,9.054113836858006,0.3518799597180261,-0.41799578382007385,-0.6622222222222223,-1.9211495468277946,3.995912386706949,-107.98720694864048
1589543043.2276285,-3.156952193514429,-1.5385502437238254,9.069870242808431,0.3533333333333333,-0.4177777777777778,-0.6622222222222223,-1.9463292674554318,4.901835366272284,-112.01777438954619
1589543043.2376285,-2.5481701200553752,-1.4771488550484533,8.686765540249189,0.3533333333333333,-0.4177777777777778,-0.6622222222222223,-1.5739367496539047,5.0880316251730475,-112.018082064317
1589543043.2476285,-2.6394591500930034,-1.5487566175418515,9.002702818715123,0.3533333333333333,-0.4177777777777778,-0.6622222222222223,-1.1189190155959365,5.355066890828445,-114.55134854771784
1589543043.2576284,-2.982389877971506,-1.703075445087178,8.874103795760684,0.3533333333333333,-0.4177777777777778,-0.6622222222222223,-1.0117531631339043,6.10522785806267,-117.65915826911677
1589543043.2676284,-2.330571624556991,-1.6902858122784954,9.109303761289585,0.3411111111111111,-0.4711111111111111,-0.67,-2.249106836629702,4.290513890476735,-122.35926603406882
1589543043.2776284,-2.6421168507857473,-1.8352554846740314,9.338540065349308,0.3411111111111111,-0.4711111111111111,-0.67,-1.8015510735957678,5.131387116850786,-126.21259141123386
1589543043.2876284,-3.001050256729423,-1.893990042010269,8.875189668585655,0.3411111111111111,-0.4711111111111111,-0.67,-1.679187412478606,6.59975105025673,-127.19150070017115
1589543043.2976284,-2.949554645927139,-2.0634854686860415,8.80391977077364,0.3411111111111111,-0.4711111111111111,-0.67,-1.5054287760949652,6.054287760949652,-126.72821582071224
1589543043.3076284,-2.907063050869306,-2.1424612880875267,8.81,0.3411111111111111,-0.4711111111111111,-0.67,-1.2118016951064274,6.288198304893572,-128.54020338860153
1589543043.3176284,-3.149582447805976,-2.3617077134641833,9.23398466474976,0.357455191158154,-0.7047353141364894,-0.5402087760970121,-2.5767309455348584,4.977348731091387,-133.77229445347336
1589543043.3276284,-3.0046664538780723,-2.505833466326205,8.998832987551868,0.36,-0.7411111111111112,-0.52,-1.9920129468560486,6.246182273380147,-136.99548904803703
1589543043.3376284,-4.500595572976712,-3.110595572976712,9.048088540465761,0.36,-0.7411111111111112,-0.52,-1.3638330066866498,7.268611655522251,-141.6888834447775
1589543043.3476284,-4.493863365767541,-3.11810157244324,8.860711910333784,0.36,-0.7411111111111112,-0.52,-1.203814611815905,7.520971897195878,-138.60613478671428
1589543043.3576283,-3.9083799318471075,-3.049221168452601,8.886542061830275,0.36,-0.7411111111111112,-0.52,-1.795755583610461,6.014213059900644,-133.38629167179866
1589543043.3676283,-2.8961182519280206,-2.840452617933338,8.850090523586667,0.855764384778952,-1.0470837636133266,-0.009158701909344535,-1.276357853800013,5.912273691033331,-130.64213933381671
1589543043.3776283,-2.7451542376632,-2.9468723168842663,9.089118831599912,0.9811111111111112,-1.1244444444444444,0.12,-1.9892620048683336,5.473293317105554,-134.2345845319761
1589543043.3876283,-2.8286875414914805,-3.058250055321974,8.912770745740207,0.9811111111111112,-1.1244444444444444,0.12,-1.8152342885594157,6.053385704801947,-139.04935134985615
1589543043.3976283,-2.610520999468368,-3.219621091295733,8.900023681794018,0.9811111111111112,-1.1244444444444444,0.12,-1.0019241457638586,7.122483809385724,-143.4272872263303
1589543043.4076283,-2.357068423597679,-3.211568947453256,8.891568947453257,0.9811111111111112,-1.1244444444444444,0.12,-1.5796348625886525,6.650753294245648,-147.49494403812056
1589543043.4176283,-2.95,-3.53,9.06,0.86,-0.44,-0.6344444444444445,-2.0625,6.375,-153.75
1589543043.4276283,-2.933256257352643,-3.5325759604072857,9.049696158370857,0.86,-0.44,-0.6344444444444445,-2.0303004949089285,6.463548639000447,-154.10419455600177
1589543043.4376283,-3.2921421726940414,-3.8332853036164245,8.98,0.86,-0.44,-0.6344444444444445,-1.7671017141640344,7.289491429179828,-156.86318628668772
1589543043.4476283,-4.012825429280811,-4.182842955204574,8.880005841974587,0.86,-0.44,-0.6344444444444445,-1.6160792526445367,7.464280498236976,-154.72334729495714
1589543043.4576283,-3.5452368184239043,-4.025807606839177,8.746623202512351,0.86,-0.44,-0.6344444444444445,-1.4328100034893758,7.273042506106408,-148.68974513783036
1589543043.4676282,-3.50368527063649,-4.193475426646159,9.109586903977148,0.7146207589703524,-0.309350814228863,-0.673511112738755,-1.6367213249835202,6.017786841719769,-140.73131134182964
1589543043.4776282,-3.7415060252541754,-4.419943303030886,8.955441179296956,0.6077777777777778,-0.21333333333333332,-0.7022222222222222,-1.2547063289192981,6.527075205166151,-134.87216515154427
1589543043.4876282,-3.4019987507807623,-4.330399750156153,8.93472204871955,0.6077777777777778,-0.21333333333333332,-0.7022222222222222,-1.4065037476577138,5.358486883198001,-128.6129762648345
1589543043.4976282,-2.9104106717484517,-4.082761314911863,8.936268699380658,0.6077777777777778,-0.21333333333333332,-0.7022222222222222,-1.5188899475940925,4.63805979037637,-125.35727727489281
1589543043.5076282,-3.2251285211267606,-4.355019659624413,8.846425762910798,0.6077777777777778,-0.21333333333333332,-0.7022222222222222,-1.404331719483568,5.184343823356808,-123.56181961561033
1589543043.5176282,-2.531033895599425,-3.91907518756984,8.848063108604267,0.5656305243678201,-0.10997221187558014,-0.6821521015508138,-1.4878944287766722,5.375,-120.4901392805832
1589543043.5276282,-2.5453306167345815,-4.041934701632459,9.108538786530335,0.5611111111111111,-0.09888888888888887,-0.68,-1.6196938826529337,4.716683645408865,-119.70872446938827
1589543043.5376282,-2.313572356826233,-3.9711907856087443,8.804763142434977,0.5611111111111111,-0.09888888888888887,-0.68,-1.1772203727769568,5.359169440834565,-119.91138981361152
1589543043.5476282,-2.3509304120252317,-4.24550429472554,8.85457388270031,0.5611111111111111,-0.09888888888888887,-0.68,-1.3818803684069252,4.970347939873842,-120.87286941350155
1589543043.5576282,-2.075208402940194,-4.0430124457066485,8.808293935850317,0.5611111111111111,-0.09888888888888887,-0.68,-1.337908244236552,5.522346412462412,-121.34857114517207
1589543043.5676281,-2.3851744966442956,-4.251125950782998,9.044825503355703,0.5522222222222222,-0.031111111111111114,-0.7111111111111111,-1.4344840604026845,5.135053131991051,-122.74095218120806
1589543043.5776281,-2.103677852348993,-4.316808501118569,9.326322147651007,0.5522222222222222,-0.031111111111111114,-0.7111111111111111,-1.2585486577181209,5.721504474272931,-122.21314597315437
1589543043.5876281,-2.3398262164846075,-4.509523336643496,8.297621648460776,0.5522222222222222,-0.031111111111111114,-0.7111111111111111,0.5806231380337636,7.903674280039722,-121.21834657398213
1589543043.597628,-2.213202566644061,-4.308336898116751,8.28753090928061,0.5522222222222222,-0.031111111111111114,-0.7111111111111111,-0.6308101622411184,6.165032083050759,-120.135847592467
1589543043.607628,-2.611911933796499,-4.89836224068406,9.421667881261236,0.5522222222222222,-0.031111111111111114,-0.7111111111111111,-2.928380419116099,2.673018996259049,-118.71586483181913
1589543043.617628,-2.550399209332972,-4.905459090732918,9.148727568698888,0.5563833443148198,0.025480149348216487,-0.7002921936703573,-0.9574289756210996,5.946201213131274,-113.06898715166079
1589543043.627628,-2.541870031893021,-5.0081913257459245,8.977805047839531,0.5577777777777778,0.04444444444444445,-0.6966666666666667,-0.018546924832844952,6.144370558046917,-107.45407283588855
1589543043.637628,-2.7634378519783453,-5.437095520110453,8.704929695164045,0.5577777777777778,0.04444444444444445,-0.6966666666666667,-0.5512162554954039,5.106554063873851,-100.06024733858955
1589543043.647628,-2.3599134948096885,-5.02684538335458,8.956510289564742,0.5577777777777778,0.04444444444444445,-0.6966666666666667,-1.7988378710617372,3.5793377800036423,-93.74490529958113
1589543043.657628,-1.977791618775434,-4.546550899319685,9.08669938802771,0.5577777777777778,0.04444444444444445,-0.6966666666666667,-1.9651047653070735,1.8517365102047156,-88.4250896989842
1589543043.667628,-1.7842262873789736,-4.224965298603376,8.689237854511182,0.5558609183255743,0.0648909452679481,-0.7139184017364979,-0.35926655813554964,3.22517350698312,-81.63394846199982
1589543043.677628,-1.5930710319739614,-4.029251388091136,8.97243729657285,0.5544444444444444,0.08,-0.7266666666666667,-1.41410587784798,1.6961396706873448,-72.3103460654796
1589543043.687628,-1.6027262052537996,-3.976368973731003,8.906374844835106,0.5544444444444444,0.08,-0.7266666666666667,-1.590922434327507,1.505655131344986,-65.73909337571712
1589543043.697628,-1.6416013568838461,-4.090106445198269,8.901103052988654,0.5544444444444444,0.08,-0.7266666666666667,-0.6112118376418294,1.9343856006550473,-54.823415019300505
1589543043.707628,-1.657254147154536,-4.122745852845464,8.818441939836495,0.5544444444444444,0.08,-0.7266666666666667,-0.2389847408524486,2.090676839431701,-44.54374603143107
1589543043.717628,-1.6010302140159463,-4.178969785984054,9.041151909357952,0.5301077073716604,0.10995290716650347,-0.7191784398750408,-0.34545478388585815,1.3352260805707092,-31.749606588334032
1589543043.727628,-1.523897775731246,-4.123897775731246,8.950450859877074,0.5255555555555556,0.11555555555555555,-0.7177777777777777,-0.09957406554685777,0.4989351638671444,-21.491104676770306
1589543043.737628,-1.4625029417148236,-4.197492351541459,8.780009413487436,0.5255555555555556,0.11555555555555555,-0.7177777777777777,0.7968124885599979,0.6718419057082341,-10.32876114583061
1589543043.747628,-1.3823708325718613,-4.322990105213691,9.297940631282145,0.5255555555555556,0.11555555555555555,-0.7177777777777777,1.9606998799049684,1.6050293057985014,-0.4922362478134872
1589543043.757628,-1.0463172943386978,-3.939810473000572,8.923303651662446,0.5255555555555556,0.11555555555555555,-0.7177777777777777,3.375592271873213,3.8097990360264684,3.9021985540397024
1589543043.767628,-0.9914795725005685,-3.818777381944971,8.837692715834155,0.5220271692901117,0.1353145186420408,-0.7100153279938014,2.0271166527704088,1.7965919426968844,6.380054763889942
1589543043.777628,-26.504763638164576,-30.421055394596735,8.315823242453508,0.52,0.14666666666666667,-0.7055555555555556,-0.1502395810118119,5.113910865958448,2.9615416759527524
1589543043.787628,-12.501723373600797,-15.15246259558905,2.2332317411060627,0.52,0.14666666666666667,-0.7055555555555556,-22.33762329602128,-4.5438116480106405,-114.46141804277957
1589543043.797628,-1.5821351114881885,-3.705854389267439,6.717165999416709,0.52,0.14666666666666667,-0.7055555555555556,-39.240801561630036,-32.557706074184054,-235.2408927009041
1589543043.807628,-0.4399656076945497,-1.6097936461672984,7.9185222967065,0.52,0.14666666666666667,-0.7055555555555556,13.96091882832993,32.79854998542699,-225.45242276304285
1589543043.817628,-0.5130023007831512,-1.1262076899252245,7.205440024777665,0.5143792310074775,0.16290444375617597,-0.6936894876824526,42.014249922569796,44.80529899119508,-196.16421701473385
1589543043.827628,0.048496891381201945,-1.871996830427892,9.557987321711568,0.51,0.17555555555555555,-0.6844444444444444,-6.427899853712056,-2.543612093136659,-153.96419754967695
1589543043.837628,0.2529326880618895,-2.1105560167440873,8.970842326509706,0.51,0.17555555555555555,-0.6844444444444444,-16.971127267428514,-4.715914610452691,-123.64455684688345
1589543043.8476279,-0.034069798555101144,-2.3727506593784637,7.685625549482054,0.51,0.17555555555555555,-0.6844444444444444,6.1162560681931115,12.459128091433813,-98.25388221016016
1589543043.8576279,-0.1185842756066918,-2.693140415261522,8.55671890497917,0.51,0.17555555555555555,-0.6844444444444444,3.7890826472922043,6.896386092375852,-80.08694124842954
1589543043.8676279,-0.19531075277530185,-2.8392456040839478,8.906493801150635,0.4919345631994526,0.21729294402578578,-0.6844444444444444,-5.048355076574022,-1.7528664613888663,-59.55971456932177
1589543043.8776278,-0.4542685311370504,-2.98056111868223,8.675430862515059,0.4777777777777778,0.25,-0.6844444444444444,-0.09694406588848725,2.7218811103869163,-40.841120064782444
1589543043.8876278,-0.5557022552553511,-3.11433985135092,8.881615043542059,0.4777777777777778,0.25,-0.6844444444444444,1.4090600976107692,2.7385901464161537,-22.257556062394336
1589543043.8976278,-0.25918830052437036,-7.402873936215938,8.430934410728101,0.4777777777777778,0.25,-0.6844444444444444,-1.2369041734720192,-1.4520115189546976,-8.996431219375912
1589543043.9076278,-0.3896072280085331,-5.396977036014556,9.141569833103276,0.4777777777777778,0.25,-0.6844444444444444,-7.627305810013803,-7.952652465804994,-38.602028171665204
1589543043.9176278,-0.6793006579176384,-1.0956883767883872,9.842314547290007,0.47317792398169745,0.25536649609542705,-0.686488823909369,-10.212015264385421,-6.536503115535907,-84.20110653740383
1589543043.9276278,-1.086602552247087,-2.65606590222551,7.998375254299981,0.4577777777777778,0.2733333333333333,-0.6933333333333334,11.0928715091548,17.146234048455707,-80.75249676345479
1589543043.9376278,-0.15588802139668423,-7.673809711105429,8.324785934826645,0.4577777777777778,0.2733333333333333,-0.6933333333333334,0.6525890381325095,3.7522861806525203,-49.7626293044111
1589543043.9476278,-0.566150287982333,-5.246857262228057,9.26448924169626,0.4577777777777778,0.2733333333333333,-0.6933333333333334,-8.424928750484945,-4.877915261571518,-32.5266066579128
1589543043.9576278,-0.5723025457605723,-4.738297917104987,8.654826846202397,0.4577777777777778,0.2733333333333333,-0.6933333333333334,0.4404744371975591,3.3845623816536925,-30.044729644435094
1589543043.9676278,-0.18839999999999996,-5.5138,8.3963,0.45557777777777775,0.29368333333333335,-0.6718833333333334,4.0459375,4.852499999999999,-23.2221875
1589543043.9776278,-0.21174639331814732,-4.291171132082294,8.737082474599559,0.4533333333333333,0.3144444444444445,-0.65,-1.4287499548034854,-0.8333762700220559,-10.596198521170049
1589543043.9876277,-0.13511552048102218,-4.282310409620443,8.690693122886133,0.4533333333333333,0.3144444444444445,-0.65,-0.9967042465238634,-0.25268414130026295,-4.874592258549418
1589543043.9976277,-0.0719823196317269,-4.173553591070192,8.708348066973562,0.4533333333333333,0.3144444444444445,-0.65,1.1818093860756915,0.7060842465474396,-1.500504134924838
1589543044.0076277,0.03750777432252332,-4.193312601806604,8.789179623870872,0.4533333333333333,0.3144444444444445,-0.65,-0.6869169258107508,-0.6717292314526877,-0.21352547016140974
1589543044.0176277,-0.006230703780235811,-4.245246140756048,8.749507718487905,0.4498359061626352,0.31677606255824325,-0.655537593020272,-1.3770207852193996,-0.6229336331591102,-0.21721162027470525
1589543044.0276277,-0.0052429070103146985,-4.222621453505157,8.857054670481089,0.44,0.3233333333333333,-0.6711111111111111,0.6864878874570222,-0.029731831185533186,-0.08606401406787223
1589543044.0376277,0.014407943578322195,-4.251184112843355,8.837631774313289,0.44,0.3233333333333333,-0.6711111111111111,0.27518617761692654,-0.5124379407943578,-0.10248758815887157
1589543044.0476277,0.006047847985347986,-4.261856456043956,8.786047847985348,0.44,0.3233333333333333,-0.6711111111111111,-0.21369619963369962,-0.32260760073260075,-0.04940190018315019
1589543044.0576277,0.0008889545186060253,-4.268222090962788,8.785444477259302,0.44,0.3233333333333333,-0.6711111111111111,-0.36944403425871236,-0.2673600856467808,-0.08541605138806851
1589543044.0676277,-0.01,-4.2801467134601685,8.78328442884661,0.4418246826925614,0.32077877756374734,-0.6805994611124304,-0.37591695912605216,-0.3143339182521044,-0.1875
1589543044.0776277,-0.01,-4.244023571197934,8.795325476267356,0.4455555555555555,0.31555555555555553,-0.7,0.01627381336777528,-0.02921577332902809,-0.12093154665805618
1589543044.0876276,-0.0035364992704852447,-4.236463500729515,8.767682496352426,0.4455555555555555,0.31555555555555553,-0.7,0.29039687955946725,-0.08079375911893444,0.01829375911893444
1589543044.0976276,0.0,-4.24594543848023,8.761890876960459,0.4455555555555555,0.31555555555555553,-0.7,0.052387066489949174,-0.08784100949856416,-0.04897697150430748
1589543044.1076276,-0.009481850705470918,-4.268963701410942,8.765259074647265,0.4455555555555555,0.31555555555555553,-0.7,-0.33241548418217626,-0.03286921654540338,-0.1546307834545966
1589543044.1176276,-0.010953555045871559,-4.280953555045872,8.778092889908256,0.4520890991335372,0.3220890991335372,-0.6934664564220183,-0.44941943807339446,-0.028270140481651378,-0.10268957855504586
1589543044.1276276,-0.005477086880410542,-4.242614565597947,8.816431260641233,0.46,0.33,-0.6855555555555556,-0.03864565597947289,-0.09673179300256589,-0.10269537900769767
1589543044.1376276,-0.006027194492254734,-4.227945611015491,8.802190361445783,0.46,0.33,-0.6855555555555556,0.3364802065404475,-0.125,-0.13783993115318416
1589543044.1476276,0.0,-4.2453684251327575,8.762684212566379,0.46,0.33,-0.6855555555555556,0.44506570022093883,-0.10822367146013412,-0.07927632853986588
1589543044.1576276,0.0,-4.270023898496567,8.77,0.46,0.33,-0.6855555555555556,0.020584390660757235,-0.0625,-0.10411687813215144
1589543044.1676276,0.0,-4.288248891978795,8.77,0.46,0.33,-0.6855555555555556,-0.1692592914457866,-0.0625,-0.06614814171084267
1589543044.1776276,-0.015055412013409921,-4.27505541201341,8.79494458798659,0.4533333333333333,0.33555555555555555,-0.6933333333333334,-0.33002978796096605,-0.015451837458093996,-0.109548162541906
1589543044.1876276,0.0,-4.252983744100682,8.786612480335606,0.4533333333333333,0.33555555555555555,-0.6933333333333334,0.23135159937073937,-0.07711719979024646,-0.07711719979024646
1589543044.1976275,0.0,-4.226369042223391,8.739047662212876,0.4533333333333333,0.33555555555555555,-0.6933333333333334,0.28422605558476405,-0.07961302779238202,-0.07961302779238202
1589543044.2076275,0.001832759362892811,-4.227331037451571,8.791832759362892,0.4533333333333333,0.33555555555555555,-0.6933333333333334,0.06772626990959965,-0.011454746018080069,-0.011454746018080069
1589543044.2176275,0.006561006737304484,-4.270316979788086,8.793122013474608,0.44874800898307265,0.33135234156781657,-0.6856911260828988,-0.2734748315673879,-0.04100629210815303,-0.08399370789184697
1589543044.2276275,0.0,-4.259926472446118,8.764963236223059,0.44,0.3233333333333333,-0.6711111111111111,-0.3435202263941178,-0.06265318240392147,-0.06234681759607853
1589543044.2376275,0.0,-4.235385940228993,8.728456239084029,0.44,0.3233333333333333,-0.6711111111111111,0.019297011449640966,-0.19232425286241023,0.0
1589543044.2476275,0.0,-4.229032798258415,8.748385206095548,0.44,0.3233333333333333,-0.6711111111111111,0.25,-0.18145498911509295,0.0
1589543044.2576275,0.0,-4.237584964641747,8.788792482320874,0.44,0.3233333333333333,-0.6711111111111111,0.05766444923088654,-0.0975234927472695,-0.027476507252730497
1589543044.2676275,-0.00727757955501407,-4.263638789777507,8.792722420444987,0.44202154987639275,0.3233333333333333,-0.6816231704683536,-0.27846974443767586,-0.08524243610941896,-0.08524243610941896
1589543044.2776275,-0.009867098701364454,-4.259867098701364,8.800265802597272,0.4455555555555555,0.3233333333333333,-0.7,-0.4375,-0.125,-0.125
1589543044.2876275,-0.0038295187092813043,-4.246170481290719,8.785534331616468,0.4455555555555555,0.3233333333333333,-0.7,-0.19815508066991847,-0.2207379677320326,-0.0771310161339837
1589543044.2976274,-0.01,-4.237895870604988,8.742624776370075,0.4455555555555555,0.3233333333333333,-0.7,0.20065080871882873,-0.34869838256234253,-0.013150808718828727
1589543044.3076274,-0.01,-4.23283749057289,8.78716250942711,0.4455555555555555,0.3233333333333333,-0.7,0.05492252311387949,-0.2677343160805564,-0.027031367838887183
1589543044.3176274,-0.01,-4.238695287841122,8.781304712158878,0.4455555555555555,0.3233333333333333,-0.7,-0.3478010390771208,-0.304345549007011,0.046191098014021964
1589543044.3276274,-0.021506849315068494,-4.263013698630137,8.793972602739727,0.4533333333333333,0.33555555555555555,-0.6933333333333334,-0.2123287671232877,-0.3030821917808219,-0.05308219178082192
1589543044.3376274,-0.029833829660512207,-4.279667659321024,8.760664681357952,0.4533333333333333,0.33555555555555555,-0.6933333333333334,-0.0041542584871947785,-0.2510385646217987,-0.0010385646217986946
1589543044.3476274,0.0,-4.254568690095846,8.730862619808308,0.4533333333333333,0.33555555555555555,-0.6933333333333334,0.19369009584664537,-0.19289137380191693,-0.0740814696485623
1589543044.3576274,-0.0010362569338371252,-4.24,8.76414502773535,0.4533333333333333,0.33555555555555555,-0.6933333333333334,-0.15738302918241015,-0.36204678832703596,0.0430701824905539
1589543044.3676274,-0.01,-4.24531887355698,8.8,0.4533333333333333,0.3345705789709297,-0.6933333333333334,-0.4596619731540822,-0.2721619731540822,-0.1139190134229589
1589543044.3776274,-0.009049958742779987,-4.27,8.799049958742781,0.4533333333333333,0.33,-0.6933333333333334,-0.5209356949966244,-0.3631244842847498,-0.0625
1589543044.3876274,-0.004509645081261709,-4.260980709837477,8.749413194268644,0.4533333333333333,0.33,-0.6933333333333334,-0.04044415472634297,-0.25,-0.09068528175788568
1589543044.3976274,-0.0010863203291746424,-4.25,8.740111558518713,0.4533333333333333,0.33,-0.6933333333333334,0.0625,-0.22214475102867076,-0.06928950205734152
1589543044.4076273,0.0032657942873223584,-4.2466328971436615,8.793367102856338,0.4533333333333333,0.33,-0.6933333333333334,-0.0006331785563528924,-0.12436682144364711,0.0
1589543044.4176273,-0.007565655191182474,-4.24,8.804868689617635,0.45143995403758636,0.3283771034607883,-0.6898170574983747,-0.15542931011021907,-0.015214655055109539,-0.030429310110219078
1589543044.4276273,0.0,-4.246978683509326,8.816510658245337,0.4455555555555555,0.3233333333333333,-0.6788888888888889,-0.20638322806671272,-0.08430838596664364,-0.10319161403335636
1589543044.4376273,-0.003838029906726546,-4.252323940186547,8.767781671026007,0.4455555555555555,0.3233333333333333,-0.6788888888888889,-0.02904925233183636,-0.17297537383408182,-0.03851231308295909
1589543044.4476273,-0.006810861599173166,-4.24,8.72870224560744,0.4455555555555555,0.3233333333333333,-0.6788888888888889,0.14493211500516773,-0.17027153997932915,-0.019932115005167717
1589543044.4576273,0.0,-4.24,8.791924460127982,0.4455555555555555,0.3233333333333333,-0.6788888888888889,0.16945818630016715,0.0,-0.0625
1589543044.4676273,0.0,-4.24,8.806087932868456,0.4455555555555555,0.3233333333333333,-0.6788888888888889,0.036675629358231904,0.0,-0.0625
1589543044.4776273,-0.00828874199979016,-4.25171125800021,8.803154967999161,0.44,0.31555555555555553,-0.6577777777777778,-0.1875,-0.14471854999475398,0.0
1589543044.4876273,0.0,-4.267323417835852,8.74070632865659,0.44,0.31555555555555553,-0.6577777777777778,-0.073071596314807,0.0396143192629614,0.0228856807370386
1589543044.4976273,0.0,-4.2703976654237215,8.702002918220348,0.44,0.31555555555555553,-0.6577777777777778,0.140003647775436,0.0,0.03249270444912801
1589543044.5076272,0.0,-4.241915500639829,8.75532400511863,0.44,0.31555555555555553,-0.6577777777777778,0.15158436300320963,-0.011971878998930123,-0.07447187899893012
1589543044.5176272,-0.0007380833676543906,-4.25,8.82,0.44041004631536357,0.31555555555555553,-0.658269833356214,-0.023065105239199704,-0.0625,-0.11116093685648018
1589543044.5276272,-0.009829839810981294,-4.25,8.82,0.4454610221172118,0.31555555555555553,-0.664331004318432,-0.3071824940931654,-0.0625,0.05930949645589925
1589543044.5376272,0.0,-4.274551901210417,8.79458735786771,0.4455555555555555,0.31555555555555553,-0.6644444444444444,-0.25582283897787017,-0.125,-0.17047469128255288
1589543044.5476272,-0.00010931050298119553,-4.259562757988075,8.70087448402385,0.4455555555555555,0.31555555555555553,-0.6644444444444444,0.06454957193089741,-0.125,-0.12295042806910259
1589543044.5576272,-0.00711180626719163,-4.228664581198425,8.79732916239685,0.4455555555555555,0.31555555555555553,-0.6644444444444444,0.19584636750984305,-0.17915363249015695,0.026397578339895367
1589543044.5676272,0.0,-4.25,8.837726695049883,0.4451345731573856,0.3161449309129934,-0.6649496233222483,0.03881974010294211,-0.30302789604117686,-0.053027896041176845
1589543044.5776272,-0.0030420788564396273,-4.256084157712879,8.794789605717803,0.44,0.3233333333333333,-0.6711111111111111,-0.2880259857054953,-0.20651299285274766,-0.03256496426373835
1589543044.5876272,-0.01,-4.273064051201876,8.738551641586866,0.44,0.3233333333333333,-0.6711111111111111,-0.31754903996482314,-0.25,-0.1350980799296463
1589543044.5976272,-0.012872284048754637,-4.2713831478537365,8.701489136195018,0.44,0.3233333333333333,-0.6711111111111111,-0.11569289878113408,-0.2679517753047165,0.08909644939056705
1589543044.6076272,-0.016922564652780348,-4.24692256465278,8.73769358836805,0.44,0.3233333333333333,-0.6711111111111111,0.052883014539938586,-0.33173397092012286,0.009616985460061416
1589543044.6176271,-0.0014047874505161116,-4.231404787450517,8.77648803137371,0.44,0.3233333333333333,-0.6711111111111111,0.004389960782862849,-0.4287200784342743,0.05811003921713715
1589543044.6276271,-0.01,-4.252702673093777,8.804594653812446,0.44,0.33,-0.6855555555555556,-0.22128341367221735,-0.3462834136722174,0.0
1589543044.6376271,-0.0068060542797494785,-4.26,8.758060542797494,0.44,0.33,-0.6855555555555556,-0.2526135177453027,-0.3776135177453027,-0.03992432150313153
1589543044.647627,0.0,-4.258123606563962,8.7050111474883,0.44,0.33,-0.6855555555555556,-0.125,-0.2617274589752345,-0.0898176230742965
1589543044.657627,0.0,-4.249630406355629,8.771478374577484,0.44,0.33,-0.6855555555555556,-0.11807011916804422,-0.3194298808319558,0.05557011916804421
1589543044.667627,0.0,-4.24,8.811101771921853,0.44030604775607046,0.3288370185269322,-0.6847598313897724,0.05561392548841436,-0.4862278509768287,-0.12155696274420717
1589543044.677627,0.0,-4.24,8.826982053611994,0.4447172371144429,0.31207449896511685,-0.673290739058004,-0.04363783507496592,-0.28772432985006813,-0.07193108246251703
1589543044.687627,0.0,-4.2551022262607905,8.813417764652431,0.4455555555555555,0.3088888888888889,-0.6711111111111111,-0.25797222853248525,-0.25,0.04655554293502953
1589543044.697627,0.0,-4.286862789641073,8.710195933666515,0.4455555555555555,0.3088888888888889,-0.6711111111111111,-0.3075981088141754,-0.25,-0.05269621762835075
1589543044.707627,0.006327579120427456,-4.258163789560213,8.773672420879572,0.4455555555555555,0.3088888888888889,-0.6711111111111111,-0.028071054254007397,-0.2155710542540074,-0.0739763152486642
1589543044.717627,-0.009289444177478776,-4.251421111645042,8.792131667467563,0.4470556178475447,0.3093625927705697,-0.6706374072294303,0.1072361044369694,-0.05805902610924235,-0.1161180522184847
1589543044.727627,-0.002258075769203935,-4.265483848461592,8.813225772692387,0.4666666666666667,0.31555555555555553,-0.6644444444444444,-0.13911297355752458,0.0,0.028225947115049183
1589543044.737627,-0.00957388543919626,-4.250852229121607,8.79127834368241,0.4666666666666667,0.31555555555555553,-0.6644444444444444,-0.1848367839949766,0.0,0.11967356798995324
1589543044.747627,-0.015494109770000543,-4.244505890229999,8.70901178046,0.4666666666666667,0.31555555555555553,-0.6644444444444444,-0.20775727909375508,-0.04224272090624491,-0.07658090696874831
1589543044.757627,-0.00031414559997104685,-4.259685854400029,8.739371708800059,0.4666666666666667,0.31555555555555553,-0.6644444444444444,-0.06544511499972858,-0.18455488500027142,-0.12401829500009048
1589543044.767627,-0.012810916179337233,-4.234378167641325,8.784838206627681,0.4666666666666667,0.31555555555555553,-0.6644444444444444,-0.022465886939571147,-0.14746588693957113,-0.125
1589543044.777627,-0.006495353824160116,-4.23350464617584,8.83025696926376,0.4666666666666667,0.3208073624017155,-0.6779490906202843,0.08440403859899928,-0.08279798070050036,-0.125
1589543044.787627,-0.009046803303762618,-4.241906393392475,8.817608442948915,0.4666666666666667,0.3233333333333333,-0.6844444444444444,-0.011914958702967268,0.11308504129703273,0.005957479351483634
1589543044.797627,-0.0004931171612113788,-4.259013765677577,8.706410523095748,0.4666666666666667,0.3233333333333333,-0.6844444444444444,-0.11883603548485776,0.006163964515142242,0.05941801774242888
1589543044.807627,0.0,-4.268445307600493,8.76466407719852,0.4666666666666667,0.3233333333333333,-0.6844444444444444,0.05278317250308511,-0.00971682749691489,0.01943365499382978
1589543044.817627,0.0,-4.259888652335286,8.790037115888238,0.466588310902609,0.3233044654202594,-0.6843702126679687,0.0006959229044595588,-0.06180407709554044,0.12476802569851347
1589543044.827627,0.0,-4.236181773649604,8.797939408783465,0.44990569256823937,0.3171582376128601,-0.6685656268775133,0.14886391468997873,0.08636391468997873,0.07537869510334043
1589543044.837627,-0.0009407127607160454,-4.232822138282149,8.753415010674987,0.4455555555555555,0.31555555555555553,-0.6644444444444444,-0.07425890950895056,0.1308794547544753,0.005879454754475283
1589543044.847627,-0.007829035966496962,-4.253487107899491,8.70519674823452,0.4455555555555555,0.31555555555555553,-0.6644444444444444,-0.160362949581212,0.173931474790606,0.04893147479060601
1589543044.857627,-0.0011385479816649416,-4.250569273990832,8.73227709596333,0.4455555555555555,0.31555555555555553,-0.6644444444444444,-0.17326815022918823,-0.003557962442702942,0.05894203755729706
1589543044.867627,-0.01664313174626645,-4.258321565873133,8.763286263492533,0.4455555555555555,0.31555555555555553,-0.6644444444444444,0.020539146828330607,-0.05200978670708265,0.010490213292917348
1589543044.877627,-0.001407057721943702,-4.228592942278056,8.814371769112226,0.46,0.3233333333333333,-0.6788888888888889,0.09861766771355558,0.0625,-0.008794110762148137
1589543044.887627,-0.009588982306927023,-4.220411017693073,8.781644070772291,0.46,0.3233333333333333,-0.6788888888888889,-0.05479341825488171,0.0625,-0.059931139418293894
1589543044.8976269,-0.0011692604324473213,-4.261169260432447,8.705846302162236,0.46,0.3233333333333333,-0.6788888888888889,-0.0625,0.16557636689161273,0.0
1589543044.9076269,-0.008389856769040078,-4.26838985676904,8.7419492838452,0.46,0.3233333333333333,-0.6788888888888889,-0.0625,0.030190185580498574,0.0
1589543044.9176269,-0.0012224945460421778,-4.243667483638126,8.802665032723747,0.46,0.3233333333333333,-0.6788888888888889,0.10207822726170918,0.05485940908723639,0.05485940908723639
1589543044.9276268,-0.008189700472937466,-4.231810299527063,8.81,0.4436205990541251,0.328793133648625,-0.6788888888888889,0.125,0.011314372044140826,0.11368562795585918
1589543044.9376268,0.0,-4.241849709623569,8.805953774893608,0.44,0.33,-0.6788888888888889,0.10187862970539135,-0.01156068514730432,0.0625
1589543044.9476268,0.0,-4.25,8.707542536215364,0.44,0.33,-0.6788888888888889,-0.00942817026920606,-0.07192817026920606,0.04364365946158788
1589543044.9576268,0.0,-4.250205854860639,8.750823419442556,0.44,0.33,-0.6788888888888889,-0.05992681424201224,-0.12242681424201224,-0.06121340712100612
1589543044.9676268,0.0,-4.259116247450714,8.786464989802855,0.44,0.33,-0.6788888888888889,0.05145309313392249,-0.01104690686607751,-0.005523453433038755
