time,acc_x,acc_y,acc_z,mag_x,mag_y,mag_z,gyr_x,gyr_y,gyr_z
1589543174.3475876,0.05,-4.31,8.85,0.5155555555555555,0.3322222222222222,-0.6355555555555555,-1.0625,-1.875,0.0625
1589543174.3575876,0.03290411574118629,-4.292556378917653,8.649530042023546,0.5155555555555555,0.3322222222222222,-0.6355555555555555,-0.09228138132358127,0.6904372373528375,0.02543467102941648
1589543174.3675876,0.0708689849484689,-4.335652109438719,8.753912656632313,0.5155555555555555,0.3322222222222222,-0.6355555555555555,-0.39130273596796916,-0.23369726403203084,0.03532568399199229
1589543174.3775876,0.0033326864295764383,-4.313332686429576,8.706110572024647,0.5155555555555555,0.3322222222222222,-0.6355555555555555,-0.11110572024647034,-0.2013821503080879,-0.017361784969191208
1589543174.3875875,-0.020484207150873818,-4.312934744268078,8.709031585698252,0.4995092369907185,0.32658432651025243,-0.6355555555555555,0.10363155363155363,0.05484207150873818,-0.0625
1589543174.3975875,0.046689304508604756,-4.3963063575593795,8.880067913525814,0.4744444444444445,0.31777777777777777,-0.6355555555555555,-0.048563948940406776,-0.35191473474612434,-0.03702131631346892
1589543174.4075875,0.07151898734177216,-4.385189873417722,8.916582278481012,0.4744444444444445,0.31777777777777777,-0.6355555555555555,0.20094936708860758,-0.025316455696202556,0.0
1589543174.4175875,0.034721289456010745,-4.330601074546675,8.724163868368032,0.4744444444444445,0.31777777777777777,-0.6355555555555555,0.24248656816655473,0.3819677635997314,0.0
1589543174.4275875,0.05919504721094199,-4.355678018884377,8.819195047210941,0.4744444444444445,0.31777777777777777,-0.6355555555555555,-0.07097523605470987,-0.4054566630957423,-0.02701238197264506
1589543174.4375875,0.022449618927385794,-4.342449618927386,8.799596951419085,0.48097676158413993,0.31777777777777777,-0.6339224762706317,0.125,-0.04718988170383878,-0.09437976340767756
1589543174.4475875,0.03,-4.3469854067060405,8.838897846942283,0.5011111111111111,0.31777777777777777,-0.6288888888888889,0.16268241617449455,0.05652362426174182,0.05652362426174182
1589543174.4575875,-0.03467303384034902,-4.29842447824549,8.595980898478953,0.5011111111111111,0.31777777777777777,-0.6288888888888889,0.22112810989270132,0.274115670321896,0.07201243957080533
1589543174.4675875,0.042103379721669984,-4.354571073558648,8.726492296222663,0.5011111111111111,0.31777777777777777,-0.6288888888888889,-0.22840767892644137,-0.51623074055666,-0.0625
1589543174.4775875,0.12875110811673346,-4.403523633913691,8.916877770291833,0.5011111111111111,0.31777777777777777,-0.6288888888888889,-0.2489406404028226,-0.5536350661324067,0.029828286230984713
1589543174.4875875,0.007117141321869963,-4.304977498656636,8.63846856528748,0.49992242074153675,0.31658908740820346,-0.6319794838497821,0.44650893336915637,1.0223817000268673,0.16075446668457818
1589543174.4975874,0.005251245750477335,-4.325467331066921,8.760502491500954,0.4955555555555556,0.31222222222222223,-0.6433333333333333,0.1690640571880967,0.5782348763563545,0.03552135239603223
1589543174.5075874,0.0016440806724336426,-4.3401587962849515,8.731802876957385,0.4955555555555556,0.31222222222222223,-0.6433333333333333,-0.07178302742176587,-0.0004962383904722201,-0.05371321096870635
1589543174.5175874,0.047686357657498485,-4.379679407896028,8.79170720694191,0.4955555555555556,0.31222222222222223,-0.6433333333333333,0.07073198264522845,0.29982625596324874,-0.03336229067279188
1589543174.5275874,-0.056970067004821844,-4.306970067004822,8.589694564468658,0.4955555555555556,0.31222222222222223,-0.6433333333333333,0.5397831345106143,1.174251675120546,0.125
1589543174.5375874,-0.043837435030371345,-4.293837435030372,8.675056672302587,0.4955555555555556,0.31222222222222223,-0.6433333333333333,0.17042786022919404,0.8459358757592836,0.125
1589543174.5475874,0.042216233002817155,-4.37532973980169,8.818205452407888,0.5011111111111111,0.3244444444444444,-0.6222222222222222,-0.6777702912535214,-1.028446019387325,0.05763514562676072
1589543174.5575874,-0.05067906431892229,-4.319592561408647,8.55755536845188,0.5011111111111111,0.3244444444444444,-0.6222222222222222,-0.5523140352161657,-0.6063257312296372,0.0008488303986528535
1589543174.5675874,-0.034357670746283736,-4.317771754684265,8.539056413191698,0.5011111111111111,0.3244444444444444,-0.6222222222222222,-0.0018528728472584632,0.11882375717580507,-0.04795584249423411
1589543174.5775874,0.14922812747260145,-4.395442669315332,8.983898924260535,0.5011111111111111,0.3244444444444444,-0.6222222222222222,-0.5314272907863503,-1.6464243026211682,-0.3568742529587044
1589543174.5875874,0.04930868360833433,-4.342067927255209,8.836203781765628,0.5011111111111111,0.31988544970358773,-0.6273175692855327,0.0775849090690112,-0.349150909309888,0.0301698181380224
1589543174.5975873,0.09177177438666,-4.365417419509328,8.898960968282648,0.5011111111111111,0.3055555555555556,-0.6433333333333333,-0.1484233842001001,-0.4218467684002002,0.03385887193329995
1589543174.6075873,0.04452399733025909,-4.33742066622171,8.760992658212487,0.5011111111111111,0.3055555555555556,-0.6433333333333333,-0.5605166555427462,-1.084824949942358,-0.14112083611431345
1589543174.6175873,0.0052343308865048,-4.333489553924337,8.661874647092038,0.5011111111111111,0.3055555555555556,-0.6433333333333333,-0.41861942405420666,-0.3699534161490683,-0.16569028797289667
1589543174.6275873,0.02025193945847277,-4.33700258594463,8.843753232430787,0.5011111111111111,0.3055555555555556,-0.6433333333333333,-0.5843830810769699,-0.8562661621539398,-0.04219154053848494
1589543174.6375873,0.008876025084418716,-4.316657018813314,8.81443801254221,0.49987832984938624,0.30974701184542,-0.6433333333333333,-0.45839363241678727,-0.5488121080559576,0.0
1589543174.6475873,0.044413769520118544,-4.34,8.821172460959763,0.4955555555555556,0.3244444444444444,-0.6433333333333333,-0.25732788099851817,-0.03491394049925909,-0.02758605950074091
1589543174.6575873,0.04215590140338251,-4.320389753508456,8.743325161928752,0.4955555555555556,0.3244444444444444,-0.6433333333333333,-0.13847438377114069,0.0490256162288593,-0.0625
1589543174.6675873,0.03,-4.29,8.651612275478234,0.4955555555555556,0.3244444444444444,-0.6433333333333333,-0.08064418043474031,0.08871163913051938,-0.11693254130422091
1589543174.6775873,0.03125937514379055,-4.291259375143791,8.687556250862743,0.4955555555555556,0.3244444444444444,-0.6433333333333333,-0.125,-0.031484378594763725,-0.24212890535130907
1589543174.6875873,0.0433893070835746,-4.297458019687319,8.741694653541787,0.4955555555555556,0.3238795599305153,-0.6438982178472624,-0.1302957923180853,-0.2552957923180853,-0.21397896159042656
1589543174.6975873,0.07936949108923631,-4.270472881683072,8.759684745544618,0.4955555555555556,0.3178828625962384,-0.6498949151815394,-0.18651482982693174,-0.31151482982693174,-0.4950741491346587
1589543174.7075872,0.10177559939751599,-4.157040667670807,8.75526506827329,0.4955555555555556,0.31777777777777777,-0.65,-0.18380083458850835,-0.18010166917701673,-0.6656908195264081
1589543174.7175872,0.12855296865581675,-4.107829452983726,8.683617578360458,0.4955555555555556,0.31777777777777777,-0.65,-0.13404394590114527,-0.05345605409885473,-1.3351098647528632
1589543174.7275872,0.11275165762507534,-4.084127486437613,8.723120855937312,0.4955555555555556,0.31777777777777777,-0.65,-0.23280213984327908,0.04530213984327908,-1.5820053496081976
1589543174.7375872,0.01356813906726341,-4.146913147823831,8.791349808652786,0.4873239497524378,0.31777777777777777,-0.6455412135233112,-0.8657569566063437,-0.26929282610105726,-2.572549782707401
1589543174.7475872,-0.031860097673082455,-4.173860549103295,8.820837608240653,0.4688888888888889,0.31777777777777777,-0.6355555555555555,-1.2572677699347479,-0.7357568637911931,-3.0337213239216974
1589543174.7575872,0.16435967469069118,-4.208719349381382,8.952574957705712,0.4688888888888889,0.31777777777777777,-0.6355555555555555,-1.3846219502252297,-1.1009878009009193,-3.2323739834084098
1589543174.7675872,0.1233284178884383,-4.155233530896407,8.731905113007969,0.4688888888888889,0.31777777777777777,-0.6355555555555555,-1.1904652185009783,-0.3838956555029351,-3.1398721748007827
1589543174.7775872,0.05765992766941364,-4.020874488646469,8.771773285112943,0.4688888888888889,0.31777777777777777,-0.6355555555555555,-1.0036943439852968,-0.08836040789707711,-2.9705971719926483
1589543174.7875872,0.17176513961465714,-3.9172064245183216,8.823530279229313,0.46973309538821034,0.3187908255769635,-0.6377504924537912,-1.1020240919437052,-1.2135455070047767,-2.977024091943705
1589543174.7975872,0.05443085685568306,-3.758861713711366,8.661517715051511,0.4744444444444445,0.3244444444444444,-0.65,-0.7385250020939778,-0.37737142976798727,-2.435128570232013
1589543174.8075871,0.012273557249350864,-3.6745471144987016,8.773937180668398,0.4744444444444445,0.3244444444444444,-0.65,-1.0459219783901499,-0.5530268447943714,-2.2594731552056286
1589543174.8175871,-0.08707999793420441,-3.512920002065796,8.739559985539431,0.4744444444444445,0.3244444444444444,-0.65,-1.860624967721944,-1.1471249935443888,-0.9690001549346692
1589543174.8275871,-0.09339705079191699,-3.4900955761878754,8.823397050791916,0.4744444444444445,0.3244444444444444,-0.65,-2.103768432550519,-1.2906710813762972,0.5983922719825232
1589543174.837587,-0.08,-3.4529394204655133,8.813412115906898,0.4769087503772037,0.32330707247547863,-0.6488626280310342,-2.1768371377909457,-1.5,2.1643744528987945
1589543174.847587,-0.08972778066528067,-3.326224987006237,8.813787032224532,0.4888888888888889,0.31777777777777777,-0.6433333333333333,-2.0135358465436592,-1.4290682659823284,4.2803241943866945
1589543174.857587,-0.11774715811229763,-3.144505683775405,8.755961648868986,0.4888888888888889,0.31777777777777777,-0.6433333333333333,-1.5534002181651165,-1.3174804799632565,7.000861178091629
1589543174.867587,-0.14052000277334814,-3.2031888881185147,8.786551110494813,0.4888888888888889,0.31777777777777777,-0.6433333333333333,-1.771013889851857,-1.834055559407428,8.167569449259284
1589543174.877587,-0.22247633334009043,-3.1780407857128377,8.68495266668018,0.4888888888888889,0.31777777777777777,-0.6433333333333333,-1.3099508929476396,-1.430444345340658,9.162326934382031
1589543174.887587,-0.1183509991803047,-3.209894004918172,8.55420503688629,0.4876063326957925,0.32015966785067096,-0.6409514432604401,0.18617506147714746,0.011631193645948168,12.600781890386953
1589543174.897587,-0.10558200445434299,-3.2798809799554562,8.93,0.4811111111111111,0.3322222222222222,-0.6288888888888889,0.494956570155902,-0.949074610244989,20.547042316258352
1589543174.907587,-0.09063572383073497,-3.347139242761693,8.93,0.4811111111111111,0.3322222222222222,-0.6288888888888889,-0.5793073496659242,-2.2568741648106907,25.35787639198218
1589543174.917587,-0.09829337298391261,-3.366586745967825,8.813892778225222,0.4811111111111111,0.3322222222222222,-0.6288888888888889,0.46350520413852925,-1.1203276335625632,30.33118946574975
1589543174.927587,-0.15071975080307604,-3.372251143774944,8.88702910542198,0.4811111111111111,0.3322222222222222,-0.6288888888888889,0.26914241214835005,-2.0822167331840746,35.76627080696973
1589543174.937587,-0.20787948992504623,-3.4375765599143384,8.764543950160615,0.4811111111111111,0.3322222222222222,-0.6288888888888889,0.371213374866154,-1.5208264382361532,39.185648058016156
1589543174.947587,-0.1209426332551123,-3.4637470667113646,8.816873533355682,0.5077777777777778,0.3244444444444444,-0.65,0.5175277091015755,-1.6563233322158901,44.129172079282604
1589543174.957587,-0.17653953927381058,-3.4270338908061233,8.790607320886059,0.5077777777777778,0.3244444444444444,-0.65,-0.025423635076541898,-2.4691030292304514,47.3450745509247
1589543174.967587,-0.12553814169198785,-3.4010762833839756,8.669932832240525,0.5077777777777778,0.3244444444444444,-0.65,0.5626399328322406,-2.0969734527426835,50.902186950263875
1589543174.977587,-0.1898207171314741,-3.51,8.853811420982737,0.5077777777777778,0.3244444444444444,-0.65,0.125,-2.8954598273572376,53.08758715139442
1589543174.987587,-0.24071562677378508,-3.5117890669344627,8.724651574029604,0.5073404503049092,0.32400711697157575,-0.65,0.13841800200847051,-3.004472667336157,54.88853534471467
1589543174.997587,-0.2590289481727285,-3.557572370431821,8.843688163122735,0.496148976116666,0.3128156427833326,-0.65,0.48179277823865874,-3.118930926079553,56.8343257433524
1589543175.007587,-0.32633235858539705,-3.571661792926985,8.791489765146668,0.4955555555555556,0.31222222222222223,-0.65,0.26772965594443937,-3.123924826373024,59.44699379740474
1589543175.017587,-0.30849738169123353,-3.499015709852599,8.629015709852599,0.4955555555555556,0.31222222222222223,-0.65,0.6156086355702095,-2.6188481865787434,61.75680639061288
1589543175.027587,-0.30417563556327365,-3.558351271126547,8.706445691900733,0.4955555555555556,0.31222222222222223,-0.65,0.55380075924318,-2.92010151848636,63.7799810189205
1589543175.037587,-0.3295838297356784,-3.6091676594713564,8.867364254992628,0.4955555555555556,0.31222222222222223,-0.65,0.5008670213840034,-2.814234042768007,65.10332446539992
1589543175.047587,-0.44169999408971805,-3.6933714218168205,8.954985716818692,0.5155555555555555,0.2855555555555556,-0.6355555555555555,0.4585713863551291,-3.1349108039953504,66.34437488918222
1589543175.057587,-0.4995421501605627,-3.7594767430406426,8.93019622135976,0.5155555555555555,0.2855555555555556,-0.6355555555555555,0.871729644004019,-2.2569495064914595,67.42891531551055
1589543175.067587,-0.5474156202283553,-3.6936181316803025,8.816202511451948,0.5155555555555555,0.2855555555555556,-0.6355555555555555,0.34157427243100347,-3.613199081565213,68.44508192985255
1589543175.077587,-0.5094329844320663,-3.701701046703801,8.624742404766277,0.5155555555555555,0.2855555555555556,-0.6355555555555555,0.7322807635020709,-3.1498069310971006,70.34214002978923
1589543175.0875869,-0.500875109669258,-3.7273746709922264,8.847247148599294,0.5155555555555555,0.2855555555555556,-0.6355555555555555,0.46484717716431007,-3.524213951969966,71.73279467874559
1589543175.0975869,-0.6020119944640935,-3.6590139935414427,8.72049300322928,0.5277777777777778,0.2644444444444444,-0.6577777777777778,0.2718187759495617,-3.959443718283869,72.56866254036599
1589543175.1075869,-0.5246144856220206,-3.5687168998923573,8.765641550053822,0.5277777777777778,0.2644444444444444,-0.6577777777777778,0.6346195986467784,-3.5160204905428265,73.13301937567276
1589543175.1175869,-0.5649626784549605,-3.5349626784549604,8.8075933038626,0.5277777777777778,0.2644444444444444,-0.6577777777777778,0.4111861970674203,-4.068135976036911,74.0
1589543175.1275868,-0.6281532900681837,-3.5867386839727264,8.689567896163641,0.5277777777777778,0.2644444444444444,-0.6577777777777778,0.8226916125852296,-3.386541937073852,74.02547903146308
1589543175.1375868,-0.7142926969522714,-3.552282921219091,8.896302472685452,0.5277777777777778,0.2644444444444444,-0.6577777777777778,0.9303658711903393,-2.8481706440483037,74.29466467797585
1589543175.1475868,-0.7236730830690562,-3.503673083069056,8.84418270767264,0.5488888888888889,0.24,-0.6788888888888889,1.25,-2.9375,75.1875
1589543175.1575868,-0.6932926386008423,-3.4716463193004214,8.781402150905475,0.5488888888888889,0.24,-0.6788888888888889,1.1985525218618374,-3.0403949562763253,75.13605252186184
1589543175.1675868,-0.7156793968607094,-3.4814198492151776,8.885740452354469,0.5488888888888889,0.24,-0.6788888888888889,0.9108778272154245,-3.5358778272154248,74.74632616487455
1589543175.1775868,-0.7873923444976076,-3.495653907496013,8.823915470494418,0.5488888888888889,0.24,-0.6788888888888889,0.5679326156299841,-3.2200956937799043,72.97014553429027
1589543175.1875868,-0.7623068181818182,-3.453844696969697,8.765382575757576,0.5488888888888889,0.24,-0.6788888888888889,0.6201941287878788,-3.5336647727272728,72.08169981060605
1589543175.1975868,-0.9086704885554103,-3.4897736373983053,8.874441259537159,0.5422222222222223,0.21333333333333332,-0.6977777777777778,0.09582736163217132,-4.240275787210724,70.9763968511571
1589543175.2075868,-1.0126830080913851,-3.377316991908615,8.781950975725843,0.5422222222222223,0.21333333333333332,-0.6977777777777778,-0.07367920038077107,-4.212653200856735,71.20985840076155
1589543175.2175868,-1.066954451987268,-3.3164468606518125,8.622182192050927,0.5422222222222223,0.21333333333333332,-0.6977777777777778,-0.29663777076702064,-4.7246204332272335,71.74777647108532
1589543175.2275867,-1.0116226110575315,-3.2289060562520913,8.809434723561713,0.5422222222222223,0.21333333333333332,-0.6977777777777778,0.28395693506800246,-3.9863257031511408,73.14881561595843
1589543175.2375867,-1.0198779695711222,-3.121586395575413,8.603050760721947,0.5422222222222223,0.21333333333333332,-0.6977777777777778,1.7286446749463658,-2.6448299446926606,74.54190736512685
1589543175.2475867,-0.964651571806506,-3.2336050309631843,8.982674214096747,0.5611111111111111,0.17333333333333334,-0.6711111111111111,0.5290723237906623,-3.6715094367508607,75.32558176054152
1589543175.2575867,-1.051437460279925,-3.3141919274027876,8.939281269860038,0.5611111111111111,0.17333333333333334,-0.6711111111111111,1.0714841267495308,-3.206585034214688,75.40306916096422
1589543175.2675867,-1.0181270559210527,-3.2302117598684212,8.74431058114035,0.5611111111111111,0.17333333333333334,-0.6711111111111111,1.2625882332785088,-3.0998235334429824,74.93838233278508
1589543175.2775867,-1.1194684171068918,-3.300604982826856,8.857195285666963,0.5611111111111111,0.17333333333333334,-0.6711111111111111,0.8177129644158516,-3.63588467841763,74.85179882141674
1589543175.2875867,-1.2302302657211877,-3.343907893711525,8.869539468557624,0.5611111111111111,0.17333333333333334,-0.6711111111111111,0.7636513286059379,-3.4346216784851555,75.27730265721188
1589543175.2975867,-1.1447869892899645,-3.208166600555335,8.908592621975407,0.5806419851029133,0.15949896425580679,-0.7077314998457402,0.9498264577548592,-3.2667245140817136,75.55810194367315
1589543175.3075867,-1.2185303129410954,-3.130979791372603,8.661714634902056,0.5877777777777777,0.15444444444444444,-0.7211111111111111,1.2255052156849244,-2.580871088236307,75.61275260784247
1589543175.3175867,-1.175211209419217,-3.159859193720522,8.712253589010913,0.5877777777777777,0.15444444444444444,-0.7211111111111111,0.5035201569869522,-3.122359882259786,75.25176007849348
1589543175.3275867,-1.1730982667559324,-3.11,8.87,0.5877777777777777,0.15444444444444444,-0.7211111111111111,0.09735550100424012,-4.016025998661013,74.01215316521609
1589543175.3375866,-1.2120990478315852,-3.11,8.87,0.5877777777777777,0.15444444444444444,-0.7211111111111111,0.5361142881053336,-3.4310142825262218,73.37839047273674
1589543175.3475866,-1.138628981348637,-2.907396269727403,8.79184906743185,0.5644444444444444,0.12777777777777774,-0.7144444444444444,1.414386657101865,-2.432783357245337,72.0556599713056
1589543175.3575866,-1.250958393113343,-3.0036786226685797,8.815919655667145,0.5644444444444444,0.12777777777777774,-0.7144444444444444,1.1135043041606887,-3.1849892395982784,71.15301291248207
1589543175.3675866,-1.276837093571309,-3.067239275546092,8.862010909873915,0.5644444444444444,0.12777777777777774,-0.7144444444444444,-0.08226816517931909,-3.76222725315214,69.18715906644017
1589543175.3775866,-1.4431952429879982,-3.2411982161204995,8.9096005946265,0.5644444444444444,0.12777777777777774,-0.7144444444444444,0.9424925671687472,-2.545026014909385,67.64506317906564
1589543175.3875866,-1.5165494173971974,-3.268706031523949,8.900431322825352,0.5644444444444444,0.12777777777777774,-0.7144444444444444,1.0571084646831208,-2.1438703736090767,66.67082805019348
1589543175.3975866,-1.42,-3.2,9.01,0.5722222222222222,0.08888888888888889,-0.7411111111111112,0.75,-2.0,64.5625
1589543175.4075866,-1.4247849363867684,-3.1617205089058524,8.818602544529261,0.5722222222222222,0.08888888888888889,-0.7411111111111112,0.600470737913486,-2.149529262086514,63.216736641221374
1589543175.4175866,-1.5327672076105205,-3.2056393396754337,8.809825125909345,0.5722222222222222,0.08888888888888889,-0.7411111111111112,-0.16911198936765537,-2.99047810576385,60.00153014829323
1589543175.4275866,-1.7104910260751778,-3.3248132869500973,8.896051165224888,0.5722222222222222,0.08888888888888889,-0.7411111111111112,0.9166236954714775,-1.2732102176523106,56.74619608718407
1589543175.4375865,-1.6949247132696865,-3.25477413980906,8.597454988146344,0.5722222222222222,0.08888888888888889,-0.7411111111111112,1.480421445505222,-0.4878580124303197,54.995294579355416
1589543175.4475865,-1.734338743496156,-3.293206492195387,8.726222722683854,0.5613838627009397,0.0652415590242724,-0.7489935543993166,-0.4881668866972122,-2.924477751028966,52.470562825192204
1589543175.4575865,-1.7574516316339566,-3.204016026013239,8.924516316339565,0.56,0.06222222222222223,-0.75,0.013508883985599907,-2.7591728602949717,50.93316397630937
1589543175.4675865,-1.773524632734827,-3.1359014690606912,8.679507345303458,0.56,0.06222222222222223,-0.75,0.5053802956670129,-1.7576814994806351,50.158297317851314
1589543175.4775865,-1.7324320124320125,-3.11,8.892489510489511,0.56,0.06222222222222223,-0.75,-0.2043997668997669,-2.6800796425796425,48.626340326340326
1589543175.4875865,-1.7377699064349819,-3.0245310292151997,8.715752339125453,0.56,0.06222222222222223,-0.75,0.33274298262363955,-1.584514034752721,48.028318932595
1589543175.4975865,-1.7585049986242318,-3.0,8.928322480051362,0.5353266685010242,0.04680139003536234,-0.7757013869780999,0.095203155094928,-2.059593689810144,47.00757818948913
1589543175.5075865,-1.81,-3.03,9.19,0.5333333333333333,0.045555555555555564,-0.7777777777777778,-0.375,-2.5,46.3125
1589543175.5175865,-1.7699587563451777,-2.972798223350254,8.984073604060914,0.5333333333333333,0.045555555555555564,-0.7777777777777778,0.26851998730964466,-0.7481955901015229,46.3125
1589543175.5275865,-1.7312359329282017,-2.9124718658564035,8.803707798784606,0.5333333333333333,0.045555555555555564,-0.7777777777777778,0.3665720656088229,-0.7521100607697502,45.92907206560882
1589543175.5375865,-1.788927637314734,-2.936190061028771,8.839285091543156,0.5333333333333333,0.045555555555555564,-0.7777777777777778,-0.6287053182214473,-1.8787053182214473,45.17932650392328
1589543175.5475864,-1.876252857989669,-2.987501905326446,8.972505715979338,0.5614597623281679,-0.020072778765724823,-0.7965287304410008,-0.6562261834194258,-2.375,44.51951636463714
1589543175.5575864,-1.8981048675733714,-3.0081048675733713,8.943790264853256,0.5633333333333334,-0.024444444444444446,-0.7977777777777778,-0.2289560218324982,-1.4131789101646386,45.06577711166786
1589543175.5675864,-1.915317463541455,-2.8644840963561764,8.717896778648901,0.5633333333333334,-0.024444444444444446,-0.7977777777777778,-0.4268353678352358,-1.7911707356704716,46.178075618475035
1589543175.5775864,-1.9803868625560157,-2.889013557206875,8.94330761812922,0.5633333333333334,-0.024444444444444446,-0.7977777777777778,-1.2009189403823246,-3.339337880764649,48.387089454875486
1589543175.5875864,-1.9372183155840987,-2.8245975936915695,9.118184090724332,0.5633333333333334,-0.024444444444444446,-0.7977777777777778,-0.2285904093163158,-1.7716928501747826,51.4208372286806
1589543175.5975864,-1.7440235893311888,-2.6080257338158424,8.824045034177724,0.5500017870705446,-0.06177277398025287,-0.8031103962828933,1.0248793727382388,0.11232576062190058,54.66218502881651
1589543175.6075864,-1.7830655070229118,-2.7178244633435322,9.205166839328307,0.5466666666666666,-0.07111111111111111,-0.8044444444444444,-0.09981448912231672,-0.6527347796757172,56.859394198568914
1589543175.6175864,-1.9007528181080349,-2.7751882045270087,8.834018216250339,0.5466666666666666,-0.07111111111111111,-0.8044444444444444,0.018565695734511722,0.30569708720353517,58.053344530615924
1589543175.6275864,-2.0806844075848465,-2.755518740690044,8.516898425862555,0.5466666666666666,-0.07111111111111111,-0.8044444444444444,-0.8275393534361286,-2.1248641249647733,59.80167025645155
1589543175.6375864,-2.0649296608240384,-2.6389439259427876,8.825633052583656,0.5466666666666666,-0.07111111111111111,-0.8044444444444444,-0.9634683966917065,-2.625,61.936174975339554
1589543175.6475863,-2.060371367625975,-2.4734216875896076,8.642572647480506,0.5432714387290042,-0.09431183535180458,-0.7863365621102446,0.049238119383152146,-2.0202250236038743,66.1772235724027
1589543175.6575863,-1.9965638145672737,-2.384040272469091,8.804254660374538,0.54,-0.11666666666666667,-0.7688888888888888,-0.6761733680681599,-3.1881699622045225,72.77407459802268
1589543175.6675863,-1.9732064041540458,-2.363396797922977,8.316633491994807,0.54,-0.11666666666666667,-0.7688888888888888,-0.6710298572046733,-0.5873945261791436,81.5493157723929
1589543175.6775863,-2.117221515838355,-2.442332909503013,8.483053789595887,0.54,-0.11666666666666667,-0.7688888888888888,-0.13732793410359884,-1.827941013875836,86.80050030405219
1589543175.6875863,-2.208787379734767,-2.48,8.942267487215048,0.54,-0.11666666666666667,-0.7688888888888888,-0.8096450550403052,-6.528343590188091,91.63867881598335
1589543175.6975863,-2.2884839531919825,-2.5360323253388946,9.321484184914842,0.5123297158820274,-0.14572046499053798,-0.7792652454331286,-1.2806453481635964,-5.976610473873247,96.31452033368092
1589543175.7075863,-1.8400871277022346,-2.112747985855419,8.35320039371514,0.4955555555555556,-0.16333333333333333,-0.7855555555555556,1.6869554518610332,-6.689238452845321,102.41804208741934
1589543175.7175863,-1.9812922569326246,-2.309617690958129,9.269475503417215,0.4955555555555556,-0.16333333333333333,-0.7855555555555556,-1.6118483071041396,-1.0843207468119092,106.51406000418969
1589543175.7275863,-1.7164201296225694,-2.0737781166603124,8.76284025924514,0.4955555555555556,-0.16333333333333333,-0.7855555555555556,0.24485322150209687,-4.465735798703774,108.04989515821579
1589543175.7375863,-2.058659428691894,-2.170215031095183,8.838229366501528,0.4955555555555556,-0.16333333333333333,-0.7855555555555556,0.6879479814482976,-3.259722515020554,109.74027748497944
1589543175.7475863,-1.9803833116036504,-2.0939895697522815,8.898269448066058,0.4405871843159979,-0.23008064126708194,-0.7439366459027477,-1.5468926553672318,-4.553498478922208,111.45013037809647
1589543175.7575862,-1.9537000737372496,-2.0150399410102002,8.98866013272705,0.4177777777777778,-0.2577777777777778,-0.7266666666666667,0.8321306224652822,-5.25,113.85725313383311
1589543175.7675862,-1.9481186813186813,-1.9565340659340658,8.750492307692308,0.4177777777777778,-0.2577777777777778,-0.7266666666666667,1.275370879120879,-5.65842032967033,115.5359065934066
1589543175.7775862,-1.8372573755439339,-1.9328428280570082,8.830435147111661,0.4177777777777778,-0.2577777777777778,-0.7266666666666667,-0.9172272346201442,-6.619775240528564,117.42307826659747
1589543175.7875862,-1.8303596133583764,-1.924892115992487,9.005251729350864,0.4177777777777778,-0.2577777777777778,-0.7266666666666667,-1.0548582161345,-6.1501815245773965,118.97616702551652
1589543175.7975862,-1.9694792182088074,-1.8944383968332508,8.99720559129144,0.41129377645829895,-0.26296497883336084,-0.7102405299906537,1.118490227610094,-4.728939881246907,120.70513514349332
1589543175.8075862,-2.2327453485586517,-1.9133218877265832,8.720610875988182,0.4011111111111111,-0.27111111111111114,-0.6844444444444444,1.2053022438712766,-4.715039327637148,121.8125
1589543175.8175862,-1.873537228201186,-1.8175741269492642,9.176184933011202,0.4011111111111111,-0.27111111111111114,-0.6844444444444444,-2.410299527783879,-8.8460630353613,122.02870360202064
1589543175.8275862,-1.7610354975778317,-1.7510354975778317,9.119227055536266,0.4011111111111111,-0.27111111111111114,-0.6844444444444444,-1.536126886893838,-7.830852264272606,122.55979572772515
1589543175.8375862,-1.6463366635477348,-1.6474917750747036,8.834785548278047,0.4011111111111111,-0.27111111111111114,-0.6844444444444444,0.14913336452265247,-6.429043041260451,122.31724442365156
1589543175.8475862,-1.8164368076899275,-1.6125177912085644,8.927695703294209,0.4023620995115869,-0.2723620995115869,-0.6562972054337388,0.9180521462901463,-5.245398780915448,121.34723926854927
1589543175.8575861,-1.8938530233290058,-1.5728439356386954,8.809724222038632,0.4033333333333333,-0.2733333333333333,-0.6344444444444445,1.5613542035485266,-4.40940339903222,121.49885420354853
1589543175.8675861,-1.8768648718326457,-1.5531351281673542,8.760594615497938,0.4033333333333333,-0.2733333333333333,-0.6344444444444445,0.7864855719652328,-5.705068917575133,121.36756730627577
1589543175.8775861,-2.1152316352575085,-1.6284105450858362,8.979094786895562,0.4033333333333333,-0.2733333333333333,-0.6344444444444445,-1.4763600923044649,-7.946053022621586,120.59657879095137
1589543175.887586,-1.80139519370007,-1.4594725110232505,8.748546395275053,0.4033333333333333,-0.2733333333333333,-0.6344444444444445,-0.6606099803127186,-7.2926439123997335,120.69453393208701
1589543175.897586,-2.080628272251309,-1.457324934554974,9.364272742146596,0.42888688917975565,-0.2886654668411867,-0.6506283631471786,1.1499100130890052,-7.851997095876963,119.27928664921465
1589543175.907586,-2.272313994901037,-1.525261662417531,9.818622306988694,0.43666666666666665,-0.2933333333333333,-0.6555555555555556,2.07300201428488,-5.278412850553686,117.8868813615398
1589543175.917586,-1.6705021268725726,-1.2343810492571357,8.745343998520436,0.43666666666666665,-0.2933333333333333,-0.6555555555555556,4.480742555945996,-1.3263843936871957,115.28013262129339
1589543175.927586,-1.9572921825256455,-1.4267951892465511,10.538311814644498,0.43666666666666665,-0.2933333333333333,-0.6555555555555556,-2.7864178015564205,-13.238672289529537,107.89106716483906
1589543175.937586,-1.6207865045659187,-1.1109527368171628,8.874015638955216,0.43666666666666665,-0.2933333333333333,-0.6555555555555556,-1.8672078632229367,-8.34047422671017,104.19449355667754
1589543175.947586,-1.269631883404703,-0.5053373150026295,8.873742769138307,0.3955828095393117,-0.30926380854598123,-0.6555555555555556,0.8960892307114418,-5.0433288257831865,96.88535093156037
1589543175.957586,-1.3264024741081704,-1.0181981204449557,9.246619198312237,0.38222222222222224,-0.3144444444444445,-0.6555555555555556,2.248645473724588,-6.058900915803606,77.69388605197545
1589543175.967586,-1.0887604135515017,-0.9777335839706072,8.60570769427949,0.38222222222222224,-0.3144444444444445,-0.6555555555555556,-0.3699120455419318,-4.269253054641774,56.44819658649122
1589543175.977586,-1.5311550019122548,-0.9916419894734926,9.004004625835474,0.38222222222222224,-0.3144444444444445,-0.6555555555555556,-1.3550715729661804,-4.38797715310787,42.58944116629332
1589543175.987586,-1.9232732055618187,-0.9117612426406113,9.291580859326068,0.38222222222222224,-0.3144444444444445,-0.6555555555555556,-0.07844795189778275,-3.299668044594764,30.47251190028811
1589543175.997586,-2.0192412222134943,-0.891930916660121,9.270165344434844,0.37797395246947524,-0.32112029691304694,-0.6640520950610496,-0.024136458251512005,-1.5562075347576783,20.953369236509307
1589543176.007586,-2.1650737539801157,-0.9171648580154655,8.953887192150237,0.3744444444444445,-0.32666666666666666,-0.6711111111111111,0.8078091493924231,1.1454854116576776,13.064425076353238
1589543176.017586,-1.8225433041144152,-0.8396724405485887,8.249633854800152,0.3744444444444445,-0.32666666666666666,-0.6711111111111111,1.5211343476072643,0.934308549679151,5.929972895608774
1589543176.027586,-2.2815851680185397,-1.2315990730011586,9.051024333719583,0.3744444444444445,-0.32666666666666666,-0.6711111111111111,-2.332575318655852,-3.5319090382387026,-5.438731170336036
1589543176.037586,-2.4200359773532027,-1.2360417337297154,9.026113688436121,0.3744444444444445,-0.32666666666666666,-0.6711111111111111,-0.9132105527257579,0.023794758667701643,-13.11152861146352
1589543176.047586,-1.528792367562139,-0.9110017574692443,8.045684157670099,0.3868848160236561,-0.3507180517198092,-0.6661349624794264,1.342408360532262,2.628577705247301,-18.09841827768014
1589543176.057586,-1.7088061687461829,-1.0910271791292208,9.333769958991363,0.3911111111111111,-0.3588888888888889,-0.6644444444444444,-3.411888687723584,-2.9973619775761273,-26.24416908428584
1589543176.067586,-2.064657425742574,-1.024339603960396,8.729046534653465,0.3911111111111111,-0.3588888888888889,-0.6644444444444444,0.09353341584158414,1.2059962871287127,-34.36016707920792
1589543176.077586,-1.8306182176915486,-0.9728718623259892,8.720766195330484,0.3911111111111111,-0.3588888888888889,-0.6644444444444444,0.19937246519785168,2.06443193028609,-45.12427381343856
1589543176.087586,-1.3146040274801463,-0.9654552187066683,8.79546262448002,0.3911111111111111,-0.3588888888888889,-0.6644444444444444,-1.8520539203327873,0.6649242090003782,-55.510362173830835
1589543176.097586,-1.0343104498390323,-1.0237083442095187,8.77778125815714,0.3801391184972495,-0.3645518528186239,-0.6690456026373541,-2.8883722700774386,-0.124505133559558,-68.96057382754721
1589543176.107586,-1.2217622503011794,-1.115824951671196,8.519237105314769,0.3566666666666667,-0.37666666666666665,-0.6788888888888889,-0.07007676575238841,5.782192936990446,-91.83290316028354
1589543176.117586,-1.171164762520658,-1.2869885751239492,8.865262628440037,0.3566666666666667,-0.37666666666666665,-0.6788888888888889,-2.059747071926421,4.6408035136882955,-108.74426959833298
1589543176.127586,-1.4072013233672345,-1.4669654454111016,9.267295674549688,0.3566666666666667,-0.37666666666666665,-0.6788888888888889,-2.75,3.9795597965935547,-122.3150578973165
1589543176.1375859,-1.478970417170358,-1.5358613689756633,8.93695185092261,0.3566666666666667,-0.37666666666666665,-0.6788888888888889,-1.064856419496841,7.176352268321055,-134.13710854640422
1589543176.1475859,-1.4082987091372832,-1.6465699655380541,9.008479001577072,0.3566666666666667,-0.43175355706556423,-0.6691071046124492,-1.3808799478203306,7.174098537801056,-145.0524790210471
1589543176.1575859,-1.4431181842703558,-1.8087884859928327,9.082115140071673,0.3566666666666667,-0.4955555555555556,-0.6577777777777778,-2.9172045393241106,6.356628838965744,-160.09725781280105
1589543176.1675858,-1.5027860909220465,-2.005919908792931,8.531941000427533,0.3566666666666667,-0.4955555555555556,-0.6577777777777778,-1.8933482969930169,8.877173293430241,-176.3914511187117
1589543176.1775858,-1.279366499315381,-2.1596323596531266,8.90195139205842,0.3566666666666667,-0.4955555555555556,-0.6577777777777778,-2.5105345732542217,9.355592480602464,-190.0556780579644
1589543176.1875858,-1.3055074664641861,-2.3255074664641864,9.08011726988948,0.3566666666666667,-0.4955555555555556,-0.6577777777777778,-3.4604477769341093,8.85205222306589,-202.41892347928794
1589543176.1975858,-1.3082631442126471,-2.4991674790407488,8.874234418665107,0.41198352866416815,-0.9884535646974719,-0.17891539033672005,-2.001285581984792,10.450538604016376,-216.62030650874115
1589543176.2075858,-1.3227656317821488,-2.7632670824480843,8.860541201197085,0.4311111111111111,-1.1588888888888889,-0.013333333333333334,-2.0310636693852375,11.100701345578324,-229.52845504077857
1589543176.2175858,-1.375466269161355,-3.0507251045164825,8.922823772645238,0.4311111111111111,-1.1588888888888889,-0.013333333333333334,-2.839539356452608,11.070757801612867,-241.65559034678913
1589543176.2275858,-1.4314875517052992,-3.2011215172090846,8.945926793100757,0.4311111111111111,-1.1588888888888889,-0.013333333333333334,-3.395882111917584,10.655032974322953,-251.55651486771248
1589543176.2375858,-1.5339249370661376,-3.3399955755587762,8.969284766191166,0.4311111111111111,-1.1588888888888889,-0.013333333333333334,-3.2634106339156306,11.07809043405294,-258.2923010908536
1589543176.2475858,-1.6811045846365091,-3.519170798687924,9.007679456861698,0.4311111111111111,-1.1588888888888889,-0.013333333333333334,-2.543510183843161,12.47789686474941,-262.7316871996338
1589543176.2575858,-1.5339959568733152,-3.5923948787061994,8.695987196765499,0.8333333333333334,-0.4044444444444445,-0.6788888888888889,-3.122477257412399,12.827552223719676,-267.9924738881402
1589543176.2675858,-1.773874948280478,-3.899682624674471,9.157740404507509,0.8333333333333334,-0.4044444444444445,-0.6788888888888889,-3.3951325845157836,10.36893056197824,-269.524218426753
1589543176.2775857,-1.8823384019591094,-4.172989540026957,8.895841258993489,0.8333333333333334,-0.4044444444444445,-0.6788888888888889,-2.6079491523814946,11.943203390474022,-269.32548123469445
1589543176.2875857,-1.841291715002563,-4.338592818409906,8.759734804543124,0.8333333333333334,-0.4044444444444445,-0.6788888888888889,-2.495963390616991,13.036115345185745,-266.82792477135996
1589543176.2975857,-1.5601014096235055,-4.0569541426277285,8.88279188723012,0.7025718194254447,-0.19693160715583843,-0.6966553989307216,-2.4352788764646407,11.87277887646464,-260.2750605929935
1589543176.3075857,-1.5775295761317798,-4.02752957613178,8.937044189557655,0.6288888888888889,-0.08,-0.7066666666666667,-2.3135112220294296,12.003033666088289,-252.87554363746986
1589543176.3175857,-1.6910198944014971,-4.29967161984539,8.734226390714461,0.6288888888888889,-0.08,-0.7066666666666667,-2.3368625659990645,12.111225131998129,-246.02733252389334
1589543176.3275857,-1.6683251824250893,-4.501674817574911,8.684884334730631,0.6288888888888889,-0.08,-0.7066666666666667,-2.4904081276199346,11.795637808570097,-241.08545111395745
1589543176.3375857,-1.615807892777364,-4.6608953834698434,8.880895383469843,0.6288888888888889,-0.08,-0.7066666666666667,-2.4899013402829486,11.080102848101266,-237.10671072226359
1589543176.3475857,-1.64601767692597,-4.83610606155582,8.84548736914687,0.6248771042715756,0.0062533692722372,-0.7327432666792035,-1.2096274995298688,11.340151538895505,-230.8512309596941
1589543176.3575857,-1.6641927184466019,-4.855269093851133,8.744192718446602,0.6222222222222222,0.06333333333333334,-0.75,-0.8877497977346278,11.375704894822006,-224.79388855177993
1589543176.3675857,-1.639830257727945,-4.8280892314879695,8.77460717900802,0.6222222222222222,0.06333333333333334,-0.75,-1.9118877988009033,10.065288483999066,-218.04485906719614
1589543176.3775856,-1.5048796843513454,-4.746586456234231,8.765269164987386,0.6222222222222222,0.06333333333333334,-0.75,-2.9539661405855755,8.73933267573197,-209.70618342844563
1589543176.3875856,-1.3511433783945448,-4.7231531881804045,8.750602942935759,0.6222222222222222,0.06333333333333334,-0.75,-2.302450951070702,8.721890327790405,-203.289498968178
1589543176.3975856,-1.243472014366956,-4.9517105656988925,8.848497455851541,0.6127806046093984,0.0996835611427051,-0.7429187867903821,-0.5203999551032625,9.267163648608202,-194.21662675845556
1589543176.4075856,-1.3649319700507208,-5.170544239594236,8.93602044923919,0.6,0.14888888888888888,-0.7333333333333333,-0.47342705901296195,9.27997443845101,-186.10820384832138
1589543176.4175856,-1.1523178613396006,-5.025393654524089,8.635018360752056,0.6,0.14888888888888888,-0.7333333333333333,-0.16349331668625144,10.088898171269095,-177.03633133813162
1589543176.4275856,-1.652478658079976,-6.420657480904597,9.660853676800958,0.6,0.14888888888888888,-0.7333333333333333,-0.5851711097798413,8.005691178673057,-170.47531638460387
1589543176.4375856,-5.907369939942283,-11.673334373293814,10.35199516418376,0.6,0.14888888888888888,-0.7333333333333333,-3.165558458778566,7.140799274627565,-167.65682766554872
1589543176.4475856,-14.333611179992207,-18.778838782812002,5.451189556838712,0.5799461546636437,0.1886033669079473,-0.7258622929139065,-52.49780367706968,5.5286319033617914,-334.22083894222254
1589543176.4575856,-0.926683355393144,-2.553009341850338,11.143211908461376,0.5433333333333333,0.2611111111111111,-0.7122222222222222,-160.61238034950412,-4.424795227407877,-702.7230462680554
1589543176.4675856,-1.3196169063012642,-0.7195390652642413,8.65791373154492,0.5433333333333333,0.2611111111111111,-0.7122222222222222,-180.5282776866416,78.39805879893208,-593.9240386471099
1589543176.4775856,-0.11820299837925446,-1.9751397893030793,5.369736628849269,0.5433333333333333,0.2611111111111111,-0.7122222222222222,-120.10442412884927,80.68263776337115,-316.45001012965963
1589543176.4875855,0.09496413707606483,-2.387195165146551,9.535665013725316,0.5433333333333333,0.2611111111111111,-0.7122222222222222,-56.77141121712565,8.338197611352165,-280.7971600216949
1589543176.4975855,0.0856336681013869,-1.7951231468197035,6.352234576757533,0.4968428184281843,0.3490784579414422,-0.6949022264732452,18.40276034194165,24.420201159732187,-255.78148912003826
1589543176.5075855,0.6332699016256191,-3.378647875531989,7.344237424126143,0.43,0.4755555555555556,-0.67,102.05742648084839,37.505439806739695,-234.73772282494943
1589543176.5175855,2.9656542114732836,-8.791510941880412,9.656519938072723,0.43,0.4755555555555556,-0.67,165.028319699569,30.448203899744758,-217.81687256788987
1589543176.5275855,4.186401710662144,-9.717157253109178,10.308056661587115,0.43,0.4755555555555556,-0.67,196.13301668059447,40.62409264448049,-185.53975261760803
1589543176.5375855,0.23648845459637768,-0.236702558038215,4.558396091367399,0.43,0.4755555555555556,-0.67,135.52697298811228,50.532236105060065,-143.00292525051347
1589543176.5475855,1.8438759024798577,-0.7197202050852778,12.085926755257926,0.3984642321509539,0.4900547591643124,-0.6797869624359109,-45.70055718321649,-13.068003819190123,-76.66643559694465
1589543176.5575855,2.7115792450162592,-0.3163102643856921,11.627665771242754,0.3333333333333333,0.52,-0.7,-9.458899600593806,-14.957589601300722,-60.31516418068712
1589543176.5675855,4.591556835620398,-5.178942241398483,8.054411627338034,0.3333333333333333,0.52,-0.7,15.493712886150835,13.379049162644842,-51.83453617418767
1589543176.5775855,4.32671218212527,-5.123861360230273,8.498672835835098,0.3333333333333333,0.52,-0.7,-5.896451340485762,2.8817663605871022,-34.759372695482554
1589543176.5875854,1.4254366349391079,-0.8361382434847666,8.316911758593458,0.3333333333333333,0.52,-0.7,-6.221580281807224,-1.869578432187539,-17.94699488756806
1589543176.5975854,2.240186782971461,-2.8632947757656204,9.201927562340002,0.3273878828102778,0.516036366317963,-0.6930636410564351,4.2998008912486965,-0.37829477576562054,-5.241934910401062
1589543176.6075854,1.619485609308022,-4.148755528339117,8.65892699190311,0.32,0.5111111111111111,-0.6844444444444444,-0.786504048445261,-0.44849288970538215,1.6486102605974007
1589543176.6175854,1.7248948344490682,-3.9937029582051746,8.589579337796273,0.32,0.5111111111111111,-0.6844444444444444,-2.291905079609191,0.05943267143115616,1.9641490071467342
1589543176.6275854,1.7288812906150823,-3.900630194952395,8.590420129968264,0.32,0.5111111111111111,-0.6844444444444444,0.6013983867311471,-0.25699193365573525,1.0528822540426175
1589543176.6375854,1.747556877117765,-4.039112267478044,8.710220074683631,0.32,0.5111111111111111,-0.6844444444444444,0.3875185844685706,-0.023615240993015693,0.5958364307447618
1589543176.6475854,1.6895484406334278,-3.988354885554249,8.80448378397068,0.32,0.5111111111111111,-0.6844444444444444,-0.428225053592421,0.157661123020538,0.45987915773459653
1589543176.6575854,1.7036920383191112,-3.8687693205602964,8.871694372886815,0.3333333333333333,0.5277777777777778,-0.6844444444444444,1.0076917464981485,0.3990412675092578,0.41442476050555466
1589543176.6675854,1.7290158589599098,-3.8603280470133634,8.677545081307358,0.3333333333333333,0.5277777777777778,-0.6844444444444444,1.0604497061664788,0.1352514691676059,0.25615088150056353
1589543176.6775854,1.7378576416519156,-4.0328541500885065,8.532135375221268,0.3333333333333333,0.5277777777777778,-0.6844444444444444,-1.1919923429202461,0.0357205206489436,0.4285589587021128
1589543176.6875854,1.7310461698361401,-4.07372298098316,8.634307452457898,0.3333333333333333,0.5277777777777778,-0.6844444444444444,-0.8088470532828815,-0.049422877048248534,0.5988457540964971
1589543176.6975853,1.7020309865767516,-3.9540619731535034,8.698123946307005,0.32904569500463565,0.5316140857560863,-0.6862497658460014,0.11617965598924435,0.15038733220939415,0.33691900168590877
1589543176.7075853,1.71,-3.9654191557148546,8.722365259524757,0.31222222222222223,0.5466666666666666,-0.6933333333333334,0.9670657440594717,0.22136972321784149,0.15886972321784149
1589543176.7175853,1.7138612836438922,-3.9786128364389235,8.649109730848862,0.31222222222222223,0.5466666666666666,-0.6933333333333334,0.09963768115942029,-0.058165113871635615,0.0
1589543176.7275853,1.7316292093614731,-4.012865178156563,8.584494387518035,0.31222222222222223,0.5466666666666666,-0.6933333333333334,-0.631320156024553,-0.1773174414907926,0.04845503900613827
1589543176.7375853,1.743323590401896,-3.9800146143971564,8.570014614397156,0.31222222222222223,0.5466666666666666,-0.6933333333333334,-0.6454070800829466,-0.041636220005924755,0.10413622000592476
1589543176.7475853,1.719272976680384,-3.9731824417009602,8.640953360768176,0.31222222222222223,0.5457727480566986,-0.691247523243408,0.10510973936899864,0.08380486968449932,0.07926097393689986
1589543176.7575853,1.6975549625848367,-3.9188874064620918,8.783777481292418,0.31222222222222223,0.5433333333333333,-0.6855555555555556,0.6333277742328441,0.26528148384477057,0.14860925807761471
1589543176.7675853,1.718030381968247,-3.960707175957663,8.747171296169348,0.31222222222222223,0.5433333333333333,-0.6855555555555556,0.4655906386245853,0.13731011269845622,0.17077003756615208
1589543176.7775853,1.743738987459815,-4.01243392475889,8.63747797491963,0.31222222222222223,0.5433333333333333,-0.6855555555555556,-0.5461867162384353,-0.11684335811921764,0.125
1589543176.7875853,1.7403375676311457,-4.014571081314201,8.643558378420764,0.31222222222222223,0.5433333333333333,-0.6855555555555556,-0.7361993256488669,-0.2923699325648867,0.10486993256488669
1589543176.7975852,1.718502857607745,-3.9474857119612747,8.65095999349157,0.31405206292386717,0.5433333333333333,-0.6855555555555556,-0.2189286004840645,-0.2125714401936258,0.0625
1589543176.8075852,1.7099719733235137,-3.989831839941083,8.770112106705945,0.3244444444444444,0.5433333333333333,-0.6855555555555556,0.31372616709627266,0.0005255001841168529,0.0625
1589543176.8175852,1.7013915142588274,-3.9383490855529644,8.80443394296469,0.3244444444444444,0.5433333333333333,-0.6855555555555556,0.6891212511763021,0.16140910764698663,0.0625
1589543176.8275852,1.722419963997035,-4.001209981998517,8.622740108008896,0.3244444444444444,0.5433333333333333,-0.6855555555555556,0.041813737601920156,-0.14012477498146905,-0.0625
1589543176.8375852,1.7372245949666443,-4.008612297483322,8.578326215100068,0.3244444444444444,0.5433333333333333,-0.6855555555555556,-0.4670954519783982,-0.23265371854152694,-0.0625
1589543176.8475852,1.7470903292374074,-4.026508395084889,8.675819341525186,0.32340989483996707,0.5426220804802552,-0.6863961271091934,-0.449080761654629,-0.0625,-0.0036370884532407844
1589543176.8575852,1.707747866053841,-3.9792974392646094,8.754504267892317,0.3094214634858101,0.5330050339242722,-0.6977617275844459,0.23941234405778078,-0.0625,-0.05281516743269862
