time,acc_x,acc_y,acc_z,mag_x,mag_y,mag_z,gyr_x,gyr_y,gyr_z
1589543413.5954106,0.03,-4.06,8.9,0.5311111111111111,0.37777777777777777,-0.6577777777777778,0.0625,0.4375,-3.125
1589543413.6054106,0.04116869644598436,-4.077445797630657,8.895108404738687,0.5188888888888888,0.3855555555555555,-0.6644444444444444,0.1875,0.375,-1.9867463536587895
1589543413.6154106,0.045579272054287474,-4.104420727945713,8.826737816162861,0.5188888888888888,0.3855555555555555,-0.6644444444444444,0.24758636644046883,0.5252159161011721,-0.9868522516964837
1589543413.6254106,0.018331940298507463,-4.049991641791045,8.809170149253731,0.5188888888888888,0.3855555555555555,-0.6644444444444444,0.20311194029850746,0.6875,-0.17183582089552235
1589543413.6354105,0.01,-4.0,8.855400286134564,0.5188888888888888,0.3855555555555555,-0.6644444444444444,0.045624105829487976,0.7933345255606827,0.11541726278034134
1589543413.6454105,0.019555853034685537,-3.996814715655105,8.905926421724477,0.5188888888888888,0.3855555555555555,-0.6598434781684848,-0.042591972844405135,0.9574080271555949,0.1875
1589543413.6554105,0.031574425386472676,-3.99,8.8936593396256,0.5188888888888888,0.3855555555555555,-0.65,0.0263299206672729,0.9473401586654542,0.1611700793327271
1589543413.6654105,0.013967173533340184,-3.9719015206000208,8.799835867666701,0.5188888888888888,0.3855555555555555,-0.65,0.02479483458337614,0.6487690075002569,0.011884503750128436
1589543413.6754105,0.014614688006130161,-3.9692293760122603,8.798458752024521,0.5188888888888888,0.3855555555555555,-0.65,-0.02884180003831351,0.557683600076627,0.02402540011494053
1589543413.6854105,0.022994727974346433,-3.9829947279743463,8.834973639871732,0.5188888888888888,0.3855555555555555,-0.65,-0.006348850481004399,0.625,0.0875659003206696
1589543413.6954105,0.01539747064137308,-3.975397470641373,8.850529960855164,0.5151030479440597,0.3888005620796949,-0.6602758539931078,0.1554219361638061,0.4728903191809696,0.06084387232761217
1589543413.7054105,-0.032482007349263986,-3.938345328433824,8.700071970602943,0.5111111111111111,0.3922222222222223,-0.6711111111111111,0.08599372703355004,0.07565202974495011,0.125
1589543413.7154105,0.05943135365948915,-4.001430468404197,8.877720988361496,0.5111111111111111,0.3922222222222223,-0.6711111111111111,0.0678587236701643,-0.15892936183508216,0.057141276329835705
1589543413.7254105,0.07134177100138608,-4.025670885500693,8.92606012406553,0.5111111111111111,0.3922222222222223,-0.6711111111111111,0.3674248449180849,0.6090387761594219,0.13852848281033425
1589543413.7354105,0.017583110130770442,-3.993516622026154,8.854398928627697,0.5111111111111111,0.3922222222222223,-0.6711111111111111,0.3207322357019064,0.7005278084134237,0.18406333700961083
1589543413.7454104,0.0475498223389464,-3.9987749111694733,9.004180828054997,0.5113493228281579,0.39177982903342096,-0.6707027481676021,-0.11734319480920748,-0.2914437857253206,0.06058579870230187
1589543413.7554104,-0.020374307103263045,-3.9632085642989123,8.852085642989124,0.5188888888888888,0.37777777777777777,-0.6577777777777778,0.024732365658990035,0.1544112044497781,0.0
1589543413.7654104,0.007755219464080224,-3.9648298536906132,8.89673434160776,0.5188888888888888,0.37777777777777777,-0.6577777777777778,-0.1875,-0.3609701216505014,0.048470121650501394
1589543413.7754104,0.034123634857921706,-3.966494539431687,8.813505460568313,0.5188888888888888,0.37777777777777777,-0.6577777777777778,-0.29059087144804263,-0.39690912855195737,0.13595456427597868
1589543413.7854104,0.04638454685348668,-3.985743635431009,8.838948192543397,0.5188888888888888,0.37777777777777777,-0.6577777777777778,-0.39759658216570826,-0.21009658216570826,0.04919886072190276
1589543413.7954104,0.04477806273426713,-3.9668472578417835,8.934875961728151,0.5248440685210758,0.37777777777777777,-0.6598796058832556,-0.26970463848885384,-0.042795361511146185,0.01970463848885382
1589543413.8054104,-0.01,-3.96,8.766674214132385,0.5377777777777778,0.37777777777777777,-0.6644444444444444,-0.3125,-0.026053459581850794,0.0625
1589543413.8154104,-0.004389241309312357,-3.96,8.756335447855873,0.5377777777777778,0.37777777777777777,-0.6644444444444444,-0.34756724181679777,-0.13263448363359553,0.09756724181679777
1589543413.8254104,0.011106103963407764,-3.96,8.774424415853632,0.5377777777777778,0.37777777777777777,-0.6644444444444444,-0.30558685022870147,-0.15279342511435073,0.09029342511435073
1589543413.8354104,0.011615253917311686,-3.96,8.805807626958657,0.5377777777777778,0.37777777777777777,-0.6644444444444444,-0.14519067396639607,0.11082098357560885,0.11490466301680197
1589543413.8454103,0.026361707144541384,-3.973180853572271,8.846132987502948,0.5315534858130944,0.375580968849066,-0.6644444444444444,-0.08238033482669183,0.31392949775996226,0.2698803348266918
1589543413.8554103,0.051640688483415825,-3.990546896161139,8.935273448080569,0.5188888888888888,0.3711111111111111,-0.6644444444444444,-0.07275430302134892,0.23974569697865108,0.4965818989928837
1589543413.8654103,-0.008220979790110446,-3.9564825168415747,8.807709087576187,0.5188888888888888,0.3711111111111111,-0.6644444444444444,0.03680943815590486,0.3787062921039366,0.6212937078960634
1589543413.8754103,-0.007240459343463637,-3.959119591694699,8.790118315740633,0.5188888888888888,0.3711111111111111,-0.6644444444444444,-0.13074904303445076,0.01675414685071336,0.5737515949425821
1589543413.8854103,0.03866228784878037,-4.000929830279024,8.961451778685854,0.5188888888888888,0.3711111111111111,-0.6644444444444444,-0.16496715886585275,-0.34410645792073,0.3608278598109755
1589543413.8954103,0.010351613504943107,-3.973450537834981,8.861054840514829,0.5211892474455428,0.3734114696677651,-0.6644444444444444,0.125,0.14436827706273705,0.269368277062737
1589543413.9054103,0.019427732198926365,-3.965903642931902,8.877710928795706,0.5255555555555556,0.37777777777777777,-0.6644444444444444,0.08094888416219319,0.040474442081096594,0.1654744420810966
1589543413.9154103,0.0,-3.942762158201242,8.788951367195033,0.5255555555555556,0.37777777777777777,-0.6644444444444444,0.0,-0.025895233136642368,0.13363174437888078
1589543413.9254103,0.0033027136355975057,-3.96,8.74642170908478,0.5255555555555556,0.37777777777777777,-0.6644444444444444,-0.10320980111242205,-0.24942588066745322,0.1875
1589543413.9354103,0.008122182849043232,-3.9593740609496813,8.799374060949681,0.5255555555555556,0.37777777777777777,-0.6644444444444444,-0.3359727143869596,-0.3867363571934798,0.17967576187101347
1589543413.9454103,-0.017529572211862285,-3.9450591444237246,8.802352138940687,0.5203402080028204,0.3813461734717545,-0.6592290968917093,-0.7801410420551643,-0.7014615630827465,0.10882052102758218
1589543413.9554102,0.00664012516413824,-3.9632802503282765,8.844160031291034,0.5044444444444445,0.3922222222222223,-0.6433333333333333,-1.348502151258626,-1.411002151258626,0.171999413293102
1589543413.9654102,0.07712693189062528,-4.006374851393029,8.908002377711538,0.5044444444444445,0.3922222222222223,-0.6433333333333333,-1.7046856424128602,-1.7898428212064301,0.10781435758713967
1589543413.9754102,0.11326148610323312,-3.970087351106069,8.961391945547362,0.5044444444444445,0.3922222222222223,-0.6433333333333333,-1.4380459444129325,-1.422830402722632,0.19918462847419172
1589543413.9854102,-0.1224207447089714,-3.753544680776076,8.731988475161682,0.5044444444444445,0.3922222222222223,-0.6433333333333333,-0.8501440604789681,-0.4052593088621425,0.3850864362873808
1589543413.9954102,-0.15524923175160632,-3.6517516063375504,8.83275412060502,0.5076945453255467,0.3874720747806114,-0.644833379893842,-1.4328181745619986,-1.5187622221335355,0.8921957935906134
1589543414.0054102,-0.06463267008221137,-3.7763267008221137,9.053837483617299,0.5188888888888888,0.3711111111111111,-0.65,-1.4251295722625996,-1.7679882044560944,2.8188743595853687
1589543414.0154102,-0.06,-3.73,8.85,0.5188888888888888,0.3711111111111111,-0.65,-0.875,-0.8125,3.6875
1589543414.0254102,-0.06731726861656459,-3.4446265239539806,8.996345372331293,0.5188888888888888,0.3711111111111111,-0.65,-1.8353915059241028,-1.9558232213382176,3.641767071146471
1589543414.0354102,-0.10061692270178006,-3.381079614728115,8.936298463789319,0.5188888888888888,0.3711111111111111,-0.65,-2.2999687576200927,-2.3470456900755914,3.07695912582297
1589543414.0454102,-0.12732920070970144,-3.443664600354851,8.750683197161193,0.5202967554766998,0.37416148871803484,-0.6544582441947346,-1.6319874926072766,-0.7736799881716426,4.17158374038946
1589543414.0554101,-0.078782460534149,-3.401736908012235,8.922954447478086,0.5255555555555556,0.3855555555555555,-0.6711111111111111,-2.1097807566768623,-1.494013405045881,4.941863568246669
1589543414.0654101,-0.07017223328474946,-3.2725834992712417,8.802411265986493,0.5255555555555556,0.3855555555555555,-0.6711111111111111,-2.002152916059368,-1.0096881222671565,5.856700213495371
1589543414.0754101,-0.2650477358792469,-2.8125094671715822,8.922089711451278,0.5255555555555556,0.3855555555555555,-0.6711111111111111,-2.097268520987786,-1.1505246946503813,7.933266440876847
1589543414.08541,-0.30514261353255245,-2.5748573864674476,8.986184859619563,0.5255555555555556,0.3855555555555555,-0.6711111111111111,-1.0346611786678577,-0.6875,15.018188300615115
1589543414.09541,-0.2140142865864827,-2.7045250015263447,8.972992856706759,0.5232198411244751,0.3855555555555555,-0.6613789676482759,0.16879464558275842,-0.9502678734965504,24.827946608462057
1589543414.10541,-0.25890479893865226,-2.768904798938652,8.936369001326685,0.5188888888888888,0.3855555555555555,-0.6433333333333333,0.07276750995013495,-1.5261162450249326,33.08229733748113
1589543414.11541,-0.3012643548750282,-2.7985057419500112,8.91,0.5188888888888888,0.3855555555555555,-0.6433333333333333,0.007902217968925929,-1.7313217743751408,38.97054435937852
1589543414.12541,-0.33,-2.841127962085308,8.913890995260664,0.5188888888888888,0.3855555555555555,-0.6433333333333333,0.21181872037914692,-1.9722748815165876,45.213240521327016
1589543414.13541,-0.3269424161023041,-2.9052879194884795,8.901654496613824,0.5188888888888888,0.3855555555555555,-0.6433333333333333,0.25,-2.1632197987211987,51.496198829026525
1589543414.14541,-0.31019629837352775,-2.949803701626472,8.866535801084314,0.519978189069608,0.3842847053447165,-0.6444226335140525,0.29084875677696764,-2.2908487567769678,57.30308235184147
1589543414.15541,-0.27130815913688466,-3.0452326365475386,8.941463250168578,0.5255555555555556,0.37777777777777777,-0.65,0.45288267026298046,-2.7355866486850977,63.764961227242075
1589543414.16541,-0.2864024132091448,-3.1056096528365793,8.938048264182896,0.5255555555555556,0.37777777777777777,-0.65,0.2625754127857748,-3.102515082557155,66.62462293607112
1589543414.17541,-0.3022260221918225,-3.0755547955616356,8.827780817753458,0.5255555555555556,0.37777777777777777,-0.65,0.20141263869889042,-2.9513698890408877,68.16675929092567
1589543414.18541,-0.3802670795944837,-3.0613353979724187,8.89,0.5255555555555556,0.37777777777777777,-0.65,0.6891692474655232,-2.5625,70.1426238783451
1589543414.19541,-0.37968453378001116,-3.1151577331099944,8.918883305415969,0.5268163347602208,0.3750269867857807,-0.6508023140393325,0.6984226689000559,-2.6721018285873814,73.37841115298716
1589543414.20541,-0.2960461035335407,-3.15697694823323,9.153070910106086,0.5370388095681228,0.352723405386722,-0.6573075252807247,0.2802305176677036,-3.56076014995613,75.93983807928531
1589543414.21541,-0.402769109535067,-3.087230890464933,8.774461780929865,0.5377777777777778,0.3511111111111111,-0.6577777777777778,0.4509554767533491,-3.3336583924349883,77.99517336485421
1589543414.22541,-0.4192330196327235,-3.08,8.766463113742907,0.5377777777777778,0.3511111111111111,-0.6577777777777778,0.7259404409432166,-3.1259770099749744,79.24041274540905
1589543414.23541,-0.49315180994677665,-3.08,8.818206266962743,0.5377777777777778,0.3511111111111111,-0.6577777777777778,0.03295178174896907,-3.6341686933840895,80.16439762433471
1589543414.24541,-0.5611978079331942,-3.0807802713987473,8.915571503131524,0.5409719322662956,0.3496471236372071,-0.6577777777777778,0.11751370041753653,-3.8248629958246347,82.35707528705636
1589543414.25541,-0.5760733643247193,-3.150889953512921,8.969266356752806,0.5644444444444444,0.3388888888888889,-0.6577777777777778,0.2143341081179838,-4.109290310793528,84.65085716895719
1589543414.26541,-0.59,-3.127237027662267,8.839670403182065,0.5644444444444444,0.3388888888888889,-0.6577777777777778,0.5193285572229254,-3.629514328331224,86.13814861688664
1589543414.27541,-0.59,-3.112070511661544,8.892753209184596,0.5644444444444444,0.3388888888888889,-0.6577777777777778,0.2823517447116254,-4.340444765865124,86.8964744169228
1589543414.28541,-0.6704547918800072,-3.1713637732666706,8.86590928257334,0.5644444444444444,0.3388888888888889,-0.6577777777777778,0.35511414975001504,-4.193181133666647,88.5596613155834
1589543414.29541,-0.7390072896337964,-3.2080145792675925,8.915036448168982,0.563782637533642,0.3350283485758747,-0.6584395846885802,0.4689778010561359,-4.037226638732637,89.28056659683159
1589543414.30541,-0.7354137111798588,-3.1827817184268548,8.873609140786572,0.5577777777777778,0.3,-0.6644444444444444,0.22133569487411764,-4.397557129916079,90.1813928247902
1589543414.31541,-0.7569203685029142,-3.1541061753294475,8.887946912335277,0.5577777777777778,0.3,-0.6644444444444444,0.3557523031432136,-4.487168202095476,90.4054205052387
1589543414.32541,-0.8700370605255856,-3.2457354631574775,8.828603194736216,0.5577777777777778,0.3,-0.6644444444444444,0.6516533552657656,-4.071461661183559,90.30376996710135
1589543414.3354099,-0.9282242657259503,-3.2789852947005427,8.878477942050816,0.5577777777777778,0.3,-0.6644444444444444,0.44384190812160607,-4.123414522969599,90.6154871378176
1589543414.3454099,-0.9680579343909401,-3.22291309841359,8.889514483597736,0.5577777777777778,0.3,-0.6644444444444444,0.615896567457532,-4.125,91.16018970237259
1589543414.3554099,-1.0030477670707698,-3.2365238835353853,8.931309708838462,0.5752196548429064,0.26144427175076845,-0.6883122762177782,0.5217257279038442,-4.331548544192311,91.91041990467309
1589543414.3654099,-1.0543662902927255,-3.24,8.94,0.5788888888888889,0.2533333333333333,-0.6933333333333334,0.6663735885977206,-4.0977106856704655,92.33978931432954
1589543414.3754098,-1.11,-3.2458043481619976,8.821356521470403,0.5788888888888889,0.2533333333333333,-0.6933333333333334,0.6431385880062426,-4.267744564797503,92.50847825919001
1589543414.3854098,-1.11,-3.180994483675078,8.873204413059938,0.5788888888888889,0.2533333333333333,-0.6933333333333334,0.44060776148461767,-4.348756895406153,92.83252758162462
1589543414.3954098,-1.170120084765717,-3.170080056510478,8.989799858723805,0.5788888888888889,0.2532488292389399,-0.6933022002459253,0.625,-4.125250176595244,93.24824876383329
1589543414.4054098,-1.1929106518628534,-3.1852737679085688,8.951815580228578,0.5788888888888889,0.23721102276317724,-0.6873935347022232,0.625,-4.172730524714278,92.91588632700005
1589543414.4154098,-1.2298800496346338,-3.1202798841858543,9.019680132359023,0.5788888888888889,0.23222222222222225,-0.6855555555555556,0.5004997931890253,-4.1875,92.62574968978353
1589543414.4254098,-1.1353254674266233,-3.0261537846907793,8.857633036808183,0.5788888888888889,0.23222222222222225,-0.6855555555555556,0.7899410056996751,-3.7818043200340914,91.84689281148458
1589543414.4354098,-1.1897108489474901,-2.9245662734212354,8.731502043334105,0.5788888888888889,0.23222222222222225,-0.6855555555555556,1.0643071940781865,-3.101154676536356,90.24892050273729
1589543414.4454098,-1.2382222993291696,-2.9973334489937544,9.03874122908474,0.5788888888888889,0.23222222222222225,-0.6855555555555556,0.7611106291926902,-3.6064822846788496,88.68240491749556
1589543414.4554098,-1.3037576507688917,-2.927643139316051,8.755858835896307,0.5955555555555555,0.18666666666666668,-0.7,0.6058921517098727,-3.533039241450637,86.4972205032129
1589543414.4654098,-1.3677591088655667,-2.9631995049253153,8.96919702955189,0.5955555555555555,0.18666666666666668,-0.7,0.5170012376867127,-3.9774938115664367,85.03052042183076
1589543414.4754097,-1.5158631055043612,-3.0370684472478193,9.000520869265264,0.5955555555555555,0.18666666666666668,-0.7,-0.19340566944266496,-4.914294645937023,82.72088897649435
1589543414.4854097,-1.5289732123090547,-2.981181315032101,9.01648350675227,0.5955555555555555,0.18666666666666668,-0.7,0.6314174230684082,-3.4752103165818022,82.12684580473766
1589543414.4954097,-1.4355398369440986,-2.803827749980951,8.576346989053413,0.596936874395031,0.18309825966468846,-0.7029928574855301,1.2024261549793005,-2.5692479618012345,81.6247269702588
1589543414.5054097,-1.5716504492875938,-2.991845057836469,9.335729782058284,0.6088888888888889,0.15222222222222226,-0.7288888888888889,0.21905407585761802,-4.239684691952539,79.74211729881348
1589543414.5154097,-1.5829924522183993,-2.895511321672401,8.968977356655198,0.6088888888888889,0.15222222222222226,-0.7288888888888889,0.1840683713724713,-4.000471736350044,78.30658021544502
1589543414.5254097,-1.5981035072865817,-2.872844739070128,9.014310521859745,0.6088888888888889,0.15222222222222226,-0.7288888888888889,0.7979549835173743,-3.056030794588655,77.64547155621206
1589543414.5354097,-1.5991240352924319,-2.785620176462159,8.978100882310795,0.6088888888888889,0.15222222222222226,-0.7288888888888889,0.25319735306761654,-3.9256305144424655,76.15692874982088
1589543414.5454097,-1.5905377796884277,-2.7426888984421383,8.76344449221069,0.6088888888888889,0.15222222222222226,-0.7288888888888889,0.8971665233679298,-2.5840280763168133,75.24463909189544
1589543414.5554097,-1.6380980307144648,-2.7817794308924535,9.03141181571321,0.6144444444444445,0.1111111111111111,-0.7211111111111111,0.3868873080345937,-3.6115809620518906,73.20821115624216
1589543414.5654097,-1.6805289878455416,-2.71902484672475,8.846016564483167,0.6144444444444445,0.1111111111111111,-0.7211111111111111,0.2721079380445305,-3.2654955899752607,71.51167177584166
1589543414.5754097,-1.739367627700488,-2.766838138502439,8.885058978396097,0.6144444444444445,0.1111111111111111,-0.7211111111111111,0.7183813850243915,-3.0237139612317065,69.69788252071342
1589543414.5854096,-1.7238370359597135,-2.7107555539395705,8.961027160673382,0.6144444444444445,0.1111111111111111,-0.7211111111111111,0.2949382794604225,-3.3108024579136823,67.86518516161873
1589543414.5954096,-1.6780860269788749,-2.6421290404683124,8.968652328836855,0.6144444444444445,0.1111111111111111,-0.7211111111111111,0.6285393866123696,-2.834229447696615,66.86438184016289
1589543414.6054096,-1.6254563261308688,-2.5373214176409378,8.934642835281876,0.5788888888888889,0.07777777777777778,-0.7422222222222222,0.6991568219379323,-2.420758860255861,64.16294683846483
1589543414.6154096,-1.7474060415008876,-2.595087072289894,9.050174144579788,0.5788888888888889,0.07777777777777778,-0.7422222222222222,0.29800644243129093,-2.781794201811838,61.99673478912897
1589543414.6254096,-1.809226425311364,-2.62,9.035415022820454,0.5788888888888889,0.07777777777777778,-0.7422222222222222,0.24033031639204766,-2.4761787344318096,58.69822851396302
1589543414.6354096,-1.7696076097440845,-2.5057645658464507,8.92409116095799,0.5788888888888889,0.07777777777777778,-0.7422222222222222,0.8654429269193671,-1.5415824388942476,56.64436682947852
1589543414.6454096,-1.8987239107681573,-2.5832343464608942,9.113461735793297,0.5788888888888889,0.07777777777777778,-0.7422222222222222,-0.1029293307611796,-2.9403423666550372,54.38483156155725
1589543414.6554096,-1.8430856321979012,-2.5284760536631685,8.861523946336831,0.5911111111111111,0.05666666666666665,-0.7355555555555555,-0.3870827347763629,-2.8173802683158433,51.697496408658175
1589543414.6654096,-1.79092114777807,-2.43907885222193,8.959211477780698,0.5911111111111111,0.05666666666666665,-0.7355555555555555,0.01151434722587431,-2.375,49.0813841457402
1589543414.6754096,-1.7978142256113594,-2.432185774388641,9.028142256113595,0.5911111111111111,0.05666666666666665,-0.7355555555555555,0.09767782014199317,-2.375,46.88421558637918
1589543414.6854095,-2.0168197084041246,-2.5675016792445375,8.769324746137737,0.5911111111111111,0.05666666666666665,-0.7355555555555555,0.9573768224742186,-0.8210246355051563,43.04967106562883
1589543414.6954095,-2.0996815362124144,-2.658649689833656,9.125630605713383,0.5911111111111111,0.05666666666666665,-0.7355555555555555,0.439490398672409,-0.9246019202655182,40.615604873760326
1589543414.7054095,-1.819376306060119,-2.300418117844577,8.750630659593849,0.5733333333333334,0.04444444444444445,-0.7644444444444445,0.33854529461144156,-0.4765679419171623,37.30594514100984
1589543414.7154095,-1.8867979424529817,-2.37533104716998,9.042791083962921,0.5733333333333334,0.04444444444444445,-0.7644444444444445,0.5258276179249496,-0.7574914268874243,35.01173668041937
1589543414.7254095,-2.059828743288924,-2.504212318552396,9.004383575263471,0.5733333333333334,0.04444444444444445,-0.7644444444444445,-0.07712610608470868,-2.128995575661165,31.52261725740704
1589543414.7354095,-2.2610420411713537,-2.585831835314584,8.89,0.5733333333333334,0.04444444444444445,-0.7644444444444445,-0.3554617280371122,-0.9114489707161496,29.424474485358076
1589543414.7454095,-2.2732029573789503,-2.5371881704841983,8.89,0.5733333333333334,0.04444444444444445,-0.7644444444444445,-0.12744454914467962,-0.6074260655262395,29.27246303276312
1589543414.7554095,-2.3420319660221303,-2.5168924406691255,9.00027905070601,0.5809916007434729,0.024532949178081628,-0.7835901129697933,0.043077754182034945,-0.7821220334562795,29.27365550836407
1589543414.7654095,-2.3610845347992946,-2.5529505238045846,9.175837153822219,0.5844444444444444,0.015555555555555557,-0.7922222222222223,-0.8275516025308578,-1.4845490613006949,29.74511591121253
1589543414.7754095,-2.378486464059745,-2.4398379836116586,8.627676382118038,0.5844444444444444,0.015555555555555557,-0.7922222222222223,-0.06621719738616327,-0.23378539570583956,30.669593403173945
1589543414.7854095,-2.5510499630064847,-2.529370022196109,9.148320059189624,0.5844444444444444,0.015555555555555557,-0.7922222222222223,0.5336260173216695,-0.413061158985072,32.61762305784045
1589543414.7954094,-2.596685816251034,-2.50198851024938,9.075302693998346,0.5844444444444444,0.015555555555555557,-0.7922222222222223,-0.7213599469034253,-2.06736083909997,35.01350535317927
1589543414.8054094,-2.6,-2.4847423853139037,9.008969541255615,0.5751203465807188,-0.023436126420024274,-0.8015463200859478,-0.33569954105948574,-1.18621903622492,39.14494380920627
1589543414.8154094,-2.6809420377856044,-2.4796859874047987,9.062463697715168,0.5722222222222222,-0.03555555555555556,-0.8044444444444444,0.4237619489599417,-0.580163208480075,46.930557242240766
1589543414.8254094,-2.702771811731233,-2.472409396089589,8.887825506150136,0.5722222222222222,-0.03555555555555556,-0.8044444444444444,0.10541107891951906,-0.9894714699606183,51.11459724848632
1589543414.8354094,-2.7793280889572363,-2.4893700833974095,9.029244100076891,0.5722222222222222,-0.03555555555555556,-0.8044444444444444,-0.31013781274028507,-1.2489501389956823,58.83979638611226
1589543414.8454094,-2.6470183947477377,-2.365329745076004,8.880395694091204,0.5722222222222222,-0.03555555555555556,-0.8044444444444444,0.1550134559649849,-1.04221624179334,64.21487771337316
1589543414.8554094,-2.6100292747042655,-2.3200585494085315,9.278741187716573,0.5578200634617172,-0.10202705752711728,-0.827709470134491,-0.310853297885052,-2.308657695065121,71.60652034293224
1589543414.8654094,-2.5333576865155276,-2.2178102486873703,8.981946558671495,0.5577777777777778,-0.10222222222222224,-0.8277777777777777,-0.7915144592779519,-2.9511859457039358,76.09580161992756
1589543414.8754094,-2.6382128329615537,-2.2272798845295894,8.77541398766566,0.5577777777777778,-0.10222222222222224,-0.8277777777777777,0.03432948431964311,-1.6985057735205356,81.53531360713816
1589543414.8854094,-2.739129729980084,-2.167609189013941,9.080867027928303,0.5577777777777778,-0.10222222222222224,-0.8277777777777777,-0.9891216247510537,-3.4008006808392386,86.45648649900421
1589543414.8954093,-2.697907139360884,-2.16,9.255441437661702,0.5577777777777778,-0.10222222222222224,-0.8277777777777777,-1.5808125305922662,-4.3087187958883995,90.54882613103979
1589543414.9054093,-2.672026689590241,-2.156853330058537,9.197493143395146,0.5584770377647696,-0.1148089019880743,-0.8249807378298106,-1.0559990175610956,-4.052499078963527,96.74283638298743
1589543414.9154093,-2.82696519524618,-2.16782753254103,8.969361559139784,0.56,-0.14222222222222222,-0.8188888888888889,2.0027987054329373,-1.2336233729485002,109.14179223259762
1589543414.9254093,-2.772093896713615,-2.144535211267606,9.151276995305164,0.56,-0.14222222222222222,-0.8188888888888889,-0.9519953051643193,-4.467253521126761,112.84589201877934
1589543414.9354093,-2.7778227899638654,-2.0687088401445366,8.894835360578146,0.56,-0.14222222222222222,-0.8188888888888889,-0.8873415949921115,-5.118196218637081,117.38512774186981
1589543414.9454093,-2.819510122731564,-2.0362939263610613,8.836293926361062,0.56,-0.14222222222222222,-0.8188888888888889,0.3728036819469214,-3.840921011224169,121.18397277876849
1589543414.9554093,-2.6402997070235172,-1.9035331380156781,9.044993665373347,0.5178443793385594,-0.18367524920597214,-0.8224018572773423,-0.2610014648824135,-4.804189514213318,124.03854471850502
1589543414.9654093,-2.465902358749314,-1.7750591646422695,9.050961523391583,0.4933333333333334,-0.20777777777777776,-0.8244444444444444,-0.7552699631690306,-6.363720515633571,128.3923820625343
1589543414.9754093,-2.46,-1.714014491988955,8.991012680490336,0.4933333333333334,-0.20777777777777776,-0.8244444444444444,0.16851224080620486,-5.9126358623964546,130.74321787228055
1589543414.9854093,-2.5893167471221687,-1.6992369105087264,9.006947642034905,0.4933333333333334,-0.20777777777777776,-0.8244444444444444,0.15838516524322316,-5.110193093204605,132.60642174155217
1589543414.9954093,-2.7251506024096384,-1.691656626506024,9.093433734939758,0.4933333333333334,-0.20777777777777776,-0.8244444444444444,0.3335843373493976,-5.583960843373494,133.67827560240963
1589543415.0054092,-2.61485402184707,-1.5645073060008512,8.936240885231948,0.3892923818981415,-0.2732055925978468,-0.7579440424961775,0.07333487019435381,-5.6875,136.04698893460065
1589543415.0154092,-2.8140219143467085,-1.5954820720602971,9.16063346839193,0.3855555555555555,-0.27555555555555555,-0.7555555555555555,-0.4919073759421426,-6.0755851631594995,137.51101843985535
1589543415.0254092,-2.4593093866828335,-1.377156714155805,8.97644185106598,0.3855555555555555,-0.27555555555555555,-0.7555555555555555,0.30798158532888753,-5.89287157724563,138.3838852682631
1589543415.0354092,-2.448363772947087,-1.33245434057937,9.18036527536504,0.3855555555555555,-0.27555555555555555,-0.7555555555555555,0.08806604770177001,-5.932386790459646,138.60966037137894
1589543415.0454092,-2.4101702638883133,-1.194578897220266,8.913225899995856,0.3855555555555555,-0.27555555555555555,-0.7555555555555555,0.3612230208376486,-5.788138489581176,136.43436451385725
1589543415.0554092,-2.4097837541497884,-1.1502162458502116,9.123728870343863,0.34859470654524416,-0.28533930970534394,-0.7272913769006115,-0.17398463436177025,-6.239187707489416,132.6952799013188
1589543415.0654092,-2.450733849787018,-1.1123995232735218,9.076732657970823,0.3477777777777778,-0.2855555555555556,-0.7266666666666667,0.22375521419585515,-5.819161204175771,131.66540450020966
1589543415.0754092,-2.548639227885459,-1.021360772114541,8.890886176916329,0.3477777777777778,-0.2855555555555556,-0.7266666666666667,0.2880747985961555,-5.522942091409428,128.07763270718672
1589543415.0854092,-2.5512200069732796,-1.01,9.335579574629941,0.3477777777777778,-0.2855555555555556,-0.7266666666666667,0.2849991283400426,-5.167750958825954,124.31412643823893
1589543415.0954092,-2.5341112802652708,-0.9385007611937186,9.036615086233864,0.3477777777777778,-0.2855555555555556,-0.7266666666666667,1.0333269900523452,-4.155911764092511,122.57293252486913
1589543415.1054091,-2.524361975048322,-0.914361975048322,9.080950623791951,0.3446455416935122,-0.2955787110252055,-0.7066203557273668,0.3770339131962748,-4.924154366543665,120.60180548234054
1589543415.1154091,-2.651785989222479,-0.8375177059276366,8.946195919938415,0.3422222222222222,-0.3033333333333333,-0.6911111111111111,0.9031274056966896,-5.15211941878368,116.78046333718245
1589543415.1254091,-2.754748174990809,-0.7768345500061271,9.01111496244945,0.3422222222222222,-0.3033333333333333,-0.6911111111111111,1.2828239063074418,-4.730215937538294,113.19334703184357
1589543415.135409,-2.8446359369358527,-0.76,9.250544790789103,0.3422222222222222,-0.3033333333333333,-0.6911111111111111,-1.1193033658282183,-6.0613541541300595,109.45285483612147
1589543415.145409,-2.773425196072621,-0.6841197969142022,9.131341393547878,0.3422222222222222,-0.3033333333333333,-0.6911111111111111,-0.14610867460834864,-5.504042454414351,107.76272496493412
1589543415.155409,-2.6033303164690618,-0.5708314477931639,9.067916855220684,0.33694431874176645,-0.3200466943547765,-0.674397750089668,1.2812641415512716,-4.6041572389658185,105.29682550457055
1589543415.165409,-2.02342796973715,-0.4497951277851442,9.07,0.33555555555555555,-0.3244444444444444,-0.67,-1.181490978342823,-6.834318045914255,99.2842796973715
1589543415.175409,-1.9133128112045916,-0.4494478647992347,9.315644484780103,0.33555555555555555,-0.3244444444444444,-0.67,-1.496549154995217,-6.826303380019132,91.54600309058353
1589543415.185409,-1.8549839002025803,-0.36959185414223267,9.135327646870667,0.33555555555555555,-0.3244444444444444,-0.67,-1.2619495681842414,-6.415749280307069,84.88278867683121
1589543415.195409,-1.7968477449621496,-0.28462362725237234,8.929615097558374,0.33555555555555555,-0.3244444444444444,-0.67,-1.010398896470839,-5.996498160784732,78.28657106301311
1589543415.205409,-1.1053894117647058,0.05540235294117646,9.132835294117648,0.34626366013071896,-0.3322321568627451,-0.67,-0.8279852941176471,-5.382183823529412,68.87324264705882
1589543415.215409,-1.3084045918611897,-0.1622343383022576,9.37797895796386,0.3477777777777778,-0.3333333333333333,-0.67,-0.6994679576283372,-4.06914753391171,52.94878642812635
1589543415.225409,-1.9388226684352556,-0.3201788409641861,9.165678086264466,0.3477777777777778,-0.3333333333333333,-0.67,1.0482178795224808,-0.7372701596304259,40.90645153913004
1589543415.235409,-1.7708146201624462,0.014220019111323423,8.74122193024367,0.3477777777777778,-0.3333333333333333,-0.67,1.0425152293358815,-0.8979634495938843,32.022911192068804
1589543415.245409,-1.8561058016985572,-0.011597871687301753,9.251185101811112,0.3477777777777778,-0.3333333333333333,-0.67,-0.8544970838023125,-2.761772229612197,23.549736518980865
1589543415.255409,-1.373249511163658,0.04668046018825884,8.876575417216134,0.34111005007098866,-0.35481823372187615,-0.6796311622431399,-1.249960210995407,-2.6665539311536537,13.498806329862216
1589543415.265409,-0.9711847263368943,-0.056980877996229445,9.071770655654307,0.3377777777777778,-0.3655555555555556,-0.6844444444444444,-0.716719783343807,-0.9345542687853488,-3.366001960080199
1589543415.275409,-1.0699681272385881,0.017364974675355416,8.631873550341608,0.3377777777777778,-0.3655555555555556,-0.6844444444444444,1.2821409975227605,2.2357114962841407,-14.647412507692065
1589543415.285409,-1.37217795724123,0.07407974907163717,8.121871146843567,0.3377777777777778,-0.3655555555555556,-0.6844444444444444,1.0327833759959621,3.88669466777229,-29.972586256624723
1589543415.295409,-1.6511351644322585,-0.09581626309161338,9.001475984760326,0.3377777777777778,-0.3655555555555556,-0.6844444444444444,-2.2428045942197636,-0.27040657729033457,-45.68321184900607
1589543415.305409,-1.6541104572204617,-0.29941376188320507,9.982341557265732,0.33352912328353707,-0.3593459836024345,-0.6821567074090841,-2.7425447034857404,-1.2608009846084198,-57.43034178361249
1589543415.315409,-1.7243340556759459,-0.36515919319886647,9.275029171528589,0.3233333333333333,-0.34444444444444444,-0.6766666666666666,0.08836889481580268,5.118217619603268,-68.75999124854143
1589543415.325409,-2.089628741146904,-0.4188862234407128,9.152830325184677,0.3233333333333333,-0.34444444444444444,-0.6766666666666666,-2.9991265897494475,0.7771209351915314,-79.10236986901226
1589543415.335409,-2.071486577938191,-0.45570268441236184,9.163054364989849,0.3233333333333333,-0.34444444444444444,-0.6766666666666666,-3.474664448454771,0.9344546582449809,-85.4841106474171
1589543415.345409,-2.2925509883903357,-0.5300702855349859,9.332550988390334,0.3233333333333333,-0.34444444444444444,-0.6766666666666666,-1.9942461562598055,2.972066206463759,-90.92594916849701
1589543415.355409,-2.8072612470402527,-0.5823184688239936,8.817936069455406,0.34125690607734804,-0.3555399894764536,-0.69288323248268,1.0209402131018153,7.2546985990528805,-94.57523924625099
1589543415.365409,-2.479226289517471,-0.5399263132873782,8.559926313287377,0.3466666666666667,-0.3588888888888889,-0.6977777777777778,-0.7753619958798827,4.639078718009666,-95.8141118968386
1589543415.375409,-2.297202498001167,-0.6288099920046676,9.12213345722497,0.3466666666666667,-0.3588888888888889,-0.6977777777777778,-2.9860905525423,1.5543844674460314,-97.67813114506126
1589543415.3854089,-2.185139573576534,-0.6493588242543751,8.993495193492729,0.3466666666666667,-0.3588888888888889,-0.6977777777777778,-0.9226337194971652,4.754525357406951,-97.67088904979049
1589543415.3954089,-2.953341877742538,-0.7483607768171351,8.913544336794544,0.3466666666666667,-0.3588888888888889,-0.6977777777777778,0.8933940131207369,6.960284789503411,-98.68833090759004
1589543415.4054089,-3.0518366705434885,-0.8529915443372206,9.041752113915694,0.3741596202810172,-0.3689696385474841,-0.7051092320749379,-2.1445065696413415,4.555282038789175,-100.9543307767265
1589543415.4154088,-2.98,-0.86,9.04,0.38,-0.3711111111111111,-0.7066666666666667,-2.8125,4.0625,-101.25
1589543415.4254088,-3.380049236290428,-0.9691043371701169,8.70541336601164,0.38,-0.3711111111111111,-0.7066666666666667,-0.08489157074707876,5.017162950238522,-103.0229454790144
1589543415.4354088,-2.897557610941651,-0.9925933287415133,8.904924530158418,0.38,-0.3711111111111111,-0.7066666666666667,-2.9064732362491386,1.4584989668405002,-104.41277796910362
1589543415.4454088,-3.043791453910239,-1.1683386186509004,9.55545283525934,0.38,-0.3711111111111111,-0.7066666666666667,-4.025688658962644,1.1869591507659232,-105.69916353130878
1589543415.4554088,-3.1133398226260005,-1.2322820679212632,9.352727666017739,0.40132033071358186,-0.4472551493739034,-0.701793448217848,-0.5288165152498379,5.34015385031365,-105.18176103179754
1589543415.4654088,-2.7578907418056353,-1.1963277745830936,9.049256469235193,0.4188888888888889,-0.51,-0.6977777777777778,-0.11229154686601484,5.662367021276596,-106.59616877515813
1589543415.4754088,-3.0889027880631668,-1.3273192162200027,9.083516201989472,0.4188888888888889,-0.51,-0.6977777777777778,-1.9531640914276567,4.67939525248684,-112.11416823449352
1589543415.4854088,-3.291193129834484,-1.4226014721783249,9.01479705564335,0.4188888888888889,-0.51,-0.6977777777777778,-2.3199570614655243,4.598746932961824,-116.44764721783248
1589543415.4954088,-3.069607629427793,-1.44,8.937456857402362,0.4188888888888889,-0.51,-0.6977777777777778,-1.4668369663941871,4.961341961852861,-120.31465712988192
1589543415.5054088,-2.818135462766981,-1.4753511641331538,9.039080238599192,0.5352531374938533,-0.7967372201911359,-0.6540798110020739,-1.8837791033288436,5.0581104483355785,-125.61789253415432
1589543415.5154088,-2.744666041546451,-1.55732833237161,9.198005626081939,0.6822222222222222,-1.1588888888888889,-0.5988888888888889,-2.8541862016733988,4.995766914310444,-130.23312626226198
1589543415.5254087,-3.4577837116154875,-1.8474365821094791,9.11547396528705,0.6822222222222222,-1.1588888888888889,-0.5988888888888889,-1.3208444592790387,6.389686248331108,-132.97104472630173
1589543415.5354087,-4.067741289547457,-2.077245309756323,8.88077077107914,0.6822222222222222,-1.1588888888888889,-0.5988888888888889,0.4046163088013307,7.590566371954037,-131.1143179507717
1589543415.5454087,-3.4734718672255736,-1.9716245782639814,8.86023463858501,0.6822222222222222,-1.1588888888888889,-0.5988888888888889,-0.5203817775960193,6.337169427120608,-127.8691340353747
1589543415.5554087,-2.6241737725518357,-1.8468521676689706,8.995739161655147,0.6661526493731861,-0.8316539508721539,-0.7018802421486202,-2.8576092810340183,3.9317386231038505,-128.46695763396463
1589543415.5654087,-2.47,-1.84,9.03,0.6577777777777778,-0.6611111111111111,-0.7555555555555555,-3.5,3.375,-129.6875
1589543415.5754087,-2.0411326194398685,-1.87458607907743,8.6841392092257,0.6577777777777778,-0.6611111111111111,-0.7555555555555555,-1.3816026565074138,6.574212314662273,-143.1760708401977
1589543415.5854087,-2.0821805710639656,-2.07437868878609,9.001189982453342,0.6577777777777778,-0.6611111111111111,-0.7555555555555555,-1.7179075610145158,6.804952943053118,-156.57118360185038
1589543415.5954087,-2.361959171152076,-2.265520400479683,9.055857154809383,0.6577777777777778,-0.6611111111111111,-0.7555555555555555,-2.263647962740887,7.275892782441364,-162.36932380706696
1589543415.6054087,-2.619299718325571,-2.423433918063419,8.810213905234683,0.6577777777777778,-0.6611111111111111,-0.7555555555555555,-2.1905398527484174,8.811163092283236,-165.91506714170177
1589543415.6154087,-2.2044969436127744,-2.4372760728542917,9.078190182135728,0.5522222222222222,-0.2433333333333333,-0.7266666666666667,-0.17059045970558878,8.437384995633732,-169.73914865581338
1589543415.6254086,-1.9790680884413518,-2.455116488944831,8.992320754268887,0.5522222222222222,-0.2433333333333333,-0.7266666666666667,-0.49563166456883656,8.255824447241551,-173.51024918659604
1589543415.6354086,-2.1535816720685523,-2.6166265595169382,8.932208853172313,0.5522222222222222,-0.2433333333333333,-0.7266666666666667,-0.5498129689650579,8.055038183190517,-177.47480908404742
1589543415.6454086,-2.6198580668343516,-2.996403162055336,9.154184333453108,0.5522222222222222,-0.2433333333333333,-0.7266666666666667,-1.4868285123966942,7.474544107078692,-181.60866196550484
1589543415.6554086,-2.797088943780993,-3.1786741080549006,9.095214976877218,0.5693308528705887,-0.1836724674826192,-0.7380724204322444,-1.805833627398176,8.115277287669706,-182.2415286109615
1589543415.6654086,-2.9016426223167664,-3.2266795590794817,8.850298975053182,0.5955555555555555,-0.09222222222222222,-0.7555555555555555,-1.034514600657513,8.820194353123187,-178.61589876232836
1589543415.6754086,-2.925744162634365,-3.292992238495762,8.972573636865521,0.5955555555555555,-0.09222222222222222,-0.7555555555555555,-0.9008236449842497,7.855910840126002,-172.57780989185855
1589543415.6854086,-2.493281399631676,-3.127709392265193,8.864885082872929,0.5955555555555555,-0.09222222222222222,-0.7555555555555555,-1.0577279005524862,7.3888374769797425,-167.08779696132598
1589543415.6954086,-2.71704851957559,-3.268204100307196,9.012051025076799,0.5955555555555555,-0.09222222222222222,-0.7555555555555555,-1.6121810932700058,6.525637813459988,-158.8861617355498
1589543415.7054086,-2.2900456621004563,-3.105169503251695,9.04756192057562,0.6147428624140953,-0.03913733991359562,-0.7593930169272635,-0.9944997924449979,6.573785803237858,-149.06180814999308
1589543415.7154086,-2.118558623466339,-3.112882753067322,8.819604161810515,0.6288888888888889,0.0,-0.7622222222222222,0.07342236867199259,7.205517206670764,-141.2090176092899
1589543415.7254086,-1.92878715505828,-3.143658783520677,8.755118247189845,0.6288888888888889,0.0,-0.7622222222222222,-0.6158150748942136,6.129624101139639,-135.14343312738507
1589543415.7354085,-1.9774611506319497,-3.3002838593825543,9.258794806271151,0.6288888888888889,0.0,-0.7622222222222222,-0.6665774570066993,5.455141929691277,-130.1373195662684
1589543415.7454085,-1.9896985748037497,-3.46030142519625,9.048019205853212,0.6288888888888889,0.0,-0.7622222222222222,0.1899221667555826,6.31599868531362,-125.70677373104184
1589543415.7554085,-1.7498282252600532,-3.4449141126300264,9.018580766011716,0.6197850490879864,0.011554873593453164,-0.7622222222222222,-0.17570294129369102,5.706901877167112,-121.57848929895181
1589543415.7654085,-0.09493165089379585,-2.4156782334384856,9.602181913774974,0.6,0.03666666666666667,-0.7622222222222222,-2.3866324921135647,4.4669755520504735,-128.91351209253418
1589543415.7754085,-6.977441220080492,-4.377479347595848,0.10431688201652278,0.6,0.03666666666666667,-0.7622222222222222,4.965910294429146,29.90760696886253,-175.09592776954037
1589543415.7854085,-7.448594066483976,-2.8858453473132366,-3.151778863338497,0.6,0.03666666666666667,-0.7622222222222222,-15.530442035029193,33.44708387942333,-207.35618968187777
1589543415.7954085,4.798072946885384,3.6021768025739753,6.370766918086397,0.6,0.03666666666666667,-0.7622222222222222,-61.6173420275331,-7.773870589166094,-220.070388733583
1589543415.8054085,1.2048528505142935,-1.239589863395957,13.455105616665044,0.5982638415695946,0.09627477277725502,-0.7437031989645637,-19.479071352088,-41.44659950030825,-174.97189233914145
1589543415.8154085,1.5721773228765121,-0.09761341410151747,13.62951520100264,0.5966666666666667,0.1511111111111111,-0.7266666666666667,54.55464076831051,2.1531363342891296,-142.4142712348797
1589543415.8254085,0.013242379728240907,0.8294439955930958,9.05986412045538,0.5966666666666667,0.1511111111111111,-0.7266666666666667,60.39009135145061,36.40510466397356,-124.69209511568124
1589543415.8354084,0.36404617545301954,-0.08934847394923441,6.79228684958723,0.5966666666666667,0.1511111111111111,-0.7266666666666667,8.886969907169526,16.382581012571507,-93.10507441852499
1589543415.8454084,1.6710689964328636,-0.8186551704404555,10.951494382236804,0.5966666666666667,0.1511111111111111,-0.7266666666666667,-21.63347791045915,-10.922486313259448,-53.42535957499571
1589543415.8554084,0.67342454459799,-1.170165279522613,7.464001648869346,0.589893434184813,0.16926337416247908,-0.7282922424623116,7.044009108040201,9.18321588410804,-37.44930217493719
1589543415.8654084,0.29819765306657814,-2.220734684598031,9.457169689232437,0.5688888888888889,0.2255555555555556,-0.7333333333333333,1.7757657700984595,0.29682499431629417,-17.90535754883615
1589543415.8754084,-0.21276753832281337,-2.428520468890893,9.629012443642921,0.5688888888888889,0.2255555555555556,-0.7333333333333333,-6.6333791704238045,-5.3515306582506765,-4.082520288548242
1589543415.8854084,-0.5462469708509312,-2.4224939417018625,8.894977497749775,0.5688888888888889,0.2255555555555556,-0.7333333333333333,3.374805268988437,2.2812608183895313,10.280784809250155
1589543415.8954084,-0.6222691090143528,-2.468767249592771,9.135741770906968,0.5688888888888889,0.2255555555555556,-0.7333333333333333,4.5068172388357866,1.4975451024986937,17.784318621876633
1589543415.9054084,-0.8196472574339533,-2.307080322236702,8.831240966710105,0.5703933512353723,0.23508381708328402,-0.7238050718056048,-2.5669092820755837,-1.4032086689965644,23.68811085771828
1589543415.9154084,-0.88,-2.34,8.93,0.5722222222222222,0.2466666666666667,-0.7122222222222222,-1.8125,-1.4375,26.5
1589543415.9254084,-0.92609340171828,-2.5605522733666604,8.92,0.5722222222222222,0.2466666666666667,-0.7122222222222222,2.132297009240624,-0.9560786318682508,35.004517518232376
1589543415.9354084,-0.892460388482392,-2.7786792651471286,8.945056587882297,0.5722222222222222,0.2466666666666667,-0.7122222222222222,0.749717060588514,-2.2034433068379218,41.43919763646892
1589543415.9454083,-0.7745216894680824,-2.5147831053191765,9.079304794787259,0.5722222222222222,0.2466666666666667,-0.7122222222222222,0.15760559175514655,-2.8625035694815817,47.408144258975625
1589543415.9554083,-3.2779599469176017,-9.490932259621186,9.0497629388346,0.5779136338654978,0.2474797254728489,-0.7227919867025911,0.4847161901314996,-1.910070952467125,50.56101836771625
1589543415.9654083,-6.159117223502304,-16.733966493855608,8.145500192012289,0.5877777777777777,0.2488888888888889,-0.7411111111111112,-1.597749255952381,-4.540925619239632,40.861484134984636
1589543415.9754083,-1.3659982661882628,-4.646568256796782,8.484124786283623,0.5877777777777777,0.2488888888888889,-0.7411111111111112,-4.285231596310834,-5.279878151564043,-3.9454978086546078
1589543415.9854083,1.0046146146146149,0.9982682682682682,9.273076409743076,0.5877777777777777,0.2488888888888889,-0.7411111111111112,3.5276526526526517,4.663469024580136,-37.88461656100545
1589543415.9954083,-0.4301962818666893,-1.0049733209113239,9.047793893453036,0.5877777777777777,0.2488888888888889,-0.7411111111111112,7.694474146692641,8.949888043110018,-29.34303670492081
1589543416.0054083,-1.0017960803770776,-2.364326469858596,9.428762093773257,0.5886953885167727,0.2406303922379338,-0.7351466413076436,-4.309011411560407,-0.6827787769784175,-5.276962912428678
1589543416.0154083,-1.3302745787630261,-4.264339929949985,8.851246774960723,0.59,0.2288888888888889,-0.7266666666666667,-4.497348801510544,-2.23737460182476,9.011378623214517
1589543416.0254083,-2.4426446042750687,-7.5349496245261545,8.397835079779183,0.59,0.2288888888888889,-0.7266666666666667,2.114905086553568,0.7475857247870401,12.449750645007855
1589543416.0354083,-0.6692449738450873,-2.3337366862040714,8.932376630743052,0.59,0.2288888888888889,-0.7266666666666667,-0.6584459885296527,-2.0225152832923676,-3.4784655259343293
1589543416.0454082,-1.605736509479825,-3.651679630529898,9.162946037919301,0.59,0.2288888888888889,-0.7266666666666667,2.392926592124453,0.1275826446280992,-5.456398881866797
1589543416.0554082,-1.4546628524724152,-3.676896199427871,8.808005721291376,0.594617672433365,0.2288888888888889,-0.7291853970848658,0.26790457703310167,1.102702288516551,-0.33470831630568043
1589543416.0654082,-1.38,-3.82,8.92,0.6022222222222222,0.2288888888888889,-0.7333333333333333,-2.6875,-0.375,-0.0625
1589543416.0754082,-1.4707916060669022,-3.726546852275088,8.741510492416372,0.6022222222222222,0.2288888888888889,-0.7333333333333333,-0.4379544982339497,0.04316434656139622,0.0553059422397673
1589543416.0854082,-1.4010754207355078,-3.7004032827758158,8.828655724080615,0.6022222222222222,0.2288888888888889,-0.7333333333333333,0.978155516309994,0.36995896530230626,0.0008401724496156227
1589543416.0954082,-1.393612442989124,-3.703193778505438,8.948744006548942,0.6022222222222222,0.2288888888888889,-0.7333333333333333,0.44273330604607647,-0.2725777686820255,0.125
1589543416.1054082,-1.3864674463578597,-3.71,8.981974399115941,0.5969524511158179,0.23200284454267325,-0.7318961230315867,0.09318307394787734,-0.07970922736900267,0.09805230684225066
1589543416.1154082,-1.4131421231235262,-3.728852738741157,8.870573630629423,0.5777777777777777,0.2433333333333333,-0.7266666666666667,-0.4267444256983455,0.3125,-0.019638269522038385
1589543416.1254082,-1.414792621544864,-3.764792621544864,8.834377864634591,0.5777777777777777,0.2433333333333333,-0.7266666666666667,-0.7474077693108006,0.24740776931080055,-0.051651294885133425
1589543416.1354082,-1.3927394539859894,-3.720823822098073,8.8120496257338,0.5777777777777777,0.2433333333333333,-0.7266666666666667,-0.14643301398860836,-0.0967431748248696,0.034243174824869604
1589543416.1454082,-1.3986639039945772,-3.6713360960054224,8.948663903994577,0.5777777777777777,0.2433333333333333,-0.7266666666666667,0.625,-0.17079879993221697,0.09994819989832546
1589543416.1554081,-1.3922024864048803,-3.6777975135951197,8.942202486404879,0.5777777777777777,0.2433333333333333,-0.7266666666666667,0.625,-0.09003108006100471,-0.021203379908492914
1589543416.1654081,-1.419014883924874,-3.738522325887311,8.966059535699497,0.5911111111111111,0.2288888888888889,-0.7411111111111112,-0.3873139509390758,0.12192151226523106,0.0030784877347689458
1589543416.1754081,-1.4,-3.7139181148946183,8.8792251840398,0.5911111111111111,0.2288888888888889,-0.7411111111111112,-0.6066338364314767,0.04413383643147668,0.05025589095431779
