time,acc_x,acc_y,acc_z,mag_x,mag_y,mag_z,gyr_x,gyr_y,gyr_z
1589543611.539692,0.18,-4.12,8.78,0.4811111111111111,0.2966666666666667,-0.6944444444444444,-0.0625,0.0,0.0
1589543611.549692,0.15,-4.132434872962074,8.794869745924148,0.4811111111111111,0.2966666666666667,-0.6944444444444444,-0.10815386803889068,0.13858978006481779,0.04728204398703644
1589543611.559692,0.1523339015423795,-4.14,8.817001704627138,0.47773991999434073,0.2948514099114826,-0.6923698652956627,-0.23541311536012816,0.33123934608038447,0.014586884639871844
1589543611.569692,0.16,-4.138114610137646,8.832458440550585,0.4666666666666667,0.2888888888888889,-0.6855555555555556,-0.1757163133602908,0.1875,0.0625
1589543611.579692,0.15586723327779545,-4.134132766722204,8.754539566055751,0.4666666666666667,0.2888888888888889,-0.6855555555555556,-0.125,0.11001062395866484,0.0625
1589543611.5896919,0.1608969439495683,-4.132735370700288,8.719058517198848,0.4666666666666667,0.2888888888888889,-0.6855555555555556,-0.17040393312320132,-0.022701966561600655,-0.02830786624640262
1589543611.5996919,0.17574654453408117,-4.12,8.787013821863676,0.4666666666666667,0.2888888888888889,-0.6855555555555556,-0.17024771001402217,-0.1156681933239852,-0.10774771001402218
1589543611.6096919,0.16323322475570035,-4.1267667752443,8.8167667752443,0.46929819037278325,0.29152041259500544,-0.6814203040173724,-0.08364617263843649,-0.14520765472312702,0.021146172638436482
1589543611.6196918,0.15801244651886426,-4.14,8.821987553481137,0.4744444444444445,0.2966666666666667,-0.6733333333333333,-0.125,-0.03746110462854921,0.03746110462854921
1589543611.6296918,0.16771541652758573,-4.137715416527586,8.798577082637928,0.4744444444444445,0.2966666666666667,-0.6733333333333333,-0.125,-0.02855729340517858,-0.04283594010776787
1589543611.6396918,0.1569608651528606,-4.133039134847139,8.772156539388558,0.4744444444444445,0.2966666666666667,-0.6733333333333333,-0.16298918558924266,-0.125,-0.16850540720537865
1589543611.6496918,0.15291891734065227,-4.14,8.805837834681306,0.4744444444444445,0.2966666666666667,-0.6733333333333333,-0.28648646675815354,-0.14324323337907677,-0.08851353324184648
1589543611.6596918,0.15904216181494352,-4.14,8.818084323629888,0.4744444444444445,0.2966666666666667,-0.6733333333333333,-0.36302702268679377,-0.18151351134339688,-0.011972977313206234
1589543611.6696918,0.18154441555300235,-4.147181471851001,8.808725887404004,0.46,0.2822222222222222,-0.6588888888888889,-0.125,-0.1875,0.0625
1589543611.6796918,0.16,-4.14,8.747018402683347,0.46,0.2822222222222222,-0.6588888888888889,-0.09923312709636478,-0.05866563548182396,0.03673312709636479
1589543611.6896918,0.1570748908336835,-4.142925109166316,8.738026419162114,0.46,0.2822222222222222,-0.6588888888888889,-0.025936135421043977,0.08843613542104398,-0.018281932289478012
1589543611.6996918,0.15091929083278613,-4.149080709167214,8.831838581665572,0.46,0.2822222222222222,-0.6588888888888889,0.05100886459017329,0.02298227081965341,-0.04526329688525994
1589543611.7096918,0.15553312914527467,-4.135533129145275,8.85,0.4614889569515751,0.2822222222222222,-0.6653410356790477,-0.09041794284203336,0.3058358856840667,0.06916411431593328
1589543611.7196918,0.14232952964096857,-4.129318118563874,8.856988588922906,0.4666666666666667,0.2822222222222222,-0.6877777777777778,-0.24573824102421374,0.39808307820762595,-0.09588087948789313
1589543611.7296917,0.1535795894132676,-4.152840821173465,8.83704492704079,0.4666666666666667,0.2822222222222222,-0.6877777777777778,-0.4375,-0.026989735331690023,0.0
1589543611.7396917,0.1580199304017716,-4.1380199304017715,8.767920278392914,0.4666666666666667,0.2822222222222222,-0.6877777777777778,-0.4375,-0.2122508699778551,0.0
1589543611.7496917,0.14669942311517803,-4.133300576884822,8.786797692460713,0.4666666666666667,0.2822222222222222,-0.6877777777777778,-0.3962427889397255,-0.3125,-0.020628605530137258
1589543611.7596917,0.1483778213272064,-4.14,8.773963035545345,0.463253480200027,0.2822222222222222,-0.6856057500262799,-0.38231517772671986,-0.36486138329503986,-0.07995379443167996
1589543611.7696917,0.2390750670241287,-4.199207200306396,9.017225201072387,0.4544444444444444,0.2822222222222222,-0.68,-0.8091966679433167,-1.1475787533512065,-0.18667416698582917
1589543611.7796917,0.18891512277458505,-4.163967166338464,8.870920708917735,0.4544444444444444,0.2822222222222222,-0.68,-0.2796236386287827,-0.6120895792308001,-0.14561648515050435
1589543611.7896917,0.06836239076017742,-4.058448465153045,8.472414474550963,0.4544444444444444,0.2822222222222222,-0.68,0.5635759299108516,0.7068941855869307,-0.05334087216196039
1589543611.7996917,0.17824128180961357,-4.125590480678605,8.732939679547597,0.4544444444444444,0.2822222222222222,-0.68,-0.0808729971724788,-0.233432492931197,-0.16912700282752122
1589543611.8096917,0.1255325164938737,-4.105824693685203,8.746116870876532,0.4544444444444444,0.2822222222222222,-0.68,-0.16323044297832234,-0.43932610744580586,-0.08676955702167766
1589543611.8196917,0.10734571788413098,-4.097709207948503,8.777345717884131,0.4866666666666667,0.2822222222222222,-0.6666666666666666,-0.2650040232297789,-0.27477784774699127,0.0022718129023229713
1589543611.8296916,0.26002639081976486,-4.125554089398902,8.992269139235137,0.4866666666666667,0.2822222222222222,-0.6666666666666666,-1.124917528688235,-1.3262697636607836,-0.36114776502745116
1589543611.8396916,0.3211240424901604,-4.04224808498032,9.010608574209657,0.4866666666666667,0.2822222222222222,-0.6666666666666666,-0.27795558423970546,-0.0245884294722587,-0.7672722078801473
1589543611.8496916,0.21776256200129396,-3.863683416001725,8.76,0.4866666666666667,0.2822222222222222,-0.6666666666666666,0.1577245525124002,0.7317352275177917,-1.4162861224929912
1589543611.8596916,0.1483274117556191,-3.7583274117556194,8.801660230169151,0.48777760613784404,0.28333316169339956,-0.6688885456090213,-0.875,-0.7187548273731367,-2.114565632965166
1589543611.8696916,0.3346039623078706,-3.9446039623078706,9.004134741638989,0.4931769264437065,0.288732481999262,-0.6796871862207462,-0.875,-0.5668989437707577,-2.6713705395072216
1589543611.8796916,0.10106744868035192,-3.8479193548387096,8.688986803519061,0.4933333333333334,0.2888888888888889,-0.68,-0.5514021260997067,0.25823863636363636,-3.783632697947214
1589543611.8896916,0.29240078201368525,-3.9230860215053767,8.955486803519062,0.4933333333333334,0.2888888888888889,-0.68,-1.36286045943304,-1.065719696969697,-4.210716031280548
1589543611.8996916,0.2,-3.810121420906986,8.719757158186027,0.4933333333333334,0.2888888888888889,-0.68,-0.843370559665669,-0.15738832100299316,-5.091852798328345
1589543611.9096916,0.19471322957198445,-3.753566147859922,8.782265758754864,0.4908158236057069,0.2888888888888889,-0.6794964980544748,-0.961101653696498,0.11083900778210116,-5.5672203307393
1589543611.9196916,0.04125736396277059,-3.182788371039147,8.724426743821244,0.46,0.2888888888888889,-0.6733333333333333,-1.210382751769094,-0.04269137588454701,-4.991124028305505
1589543611.9296916,-0.13865550310931296,-2.642780774705926,8.6018790739492,0.46,0.2888888888888889,-0.6733333333333333,-1.253914737394171,-0.29005815913688465,-3.470302315126995
1589543611.9396915,-0.024246083836527522,-2.598904699396167,9.058079635949944,0.46,0.2888888888888889,-0.6733333333333333,-2.04022928152621,-2.123266167848079,-1.3569965870307166
1589543611.9496915,0.016475213872166376,-2.6667102572226864,8.893759829478354,0.46,0.2888888888888889,-0.6733333333333333,-1.2366185874355504,-0.5946474349742201,0.5249679551804591
1589543611.9596915,0.09802398560863482,-3.000089946032381,8.987814111533082,0.4588855575543563,0.2888888888888889,-0.6775682146267795,-0.11171297221666998,-0.17477513491904856,3.6521362182690384
1589543611.9696915,0.12928801052093228,-3.1264079053116096,8.734304084167459,0.4544444444444444,0.2888888888888889,-0.6944444444444444,0.9775494081975598,0.1427997369766932,6.864894608022211
1589543611.9796915,0.12393848354792561,-3.198184549356223,8.72301573676681,0.4544444444444444,0.2888888888888889,-0.6944444444444444,0.6384567238912732,-0.3880811874105866,13.151162374821173
1589543611.9896915,0.13646096087288087,-3.1993828826186426,8.787695195635596,0.4544444444444444,0.2888888888888889,-0.6944444444444444,-0.18273743180618285,-1.0981184372616883,16.549906141843138
1589543611.9996915,0.1391783655977538,-3.259839663070785,8.756072114674154,0.4544444444444444,0.2888888888888889,-0.6944444444444444,0.7848197133146151,-0.2828155016994237,19.22344650509827
1589543612.0096915,0.06418626660590977,-3.3439261803778613,8.916963090188931,0.4544444444444444,0.2878765856185324,-0.6890454936692099,0.30856759788285604,-1.037961372638368,21.70716201058572
1589543612.0196915,-0.06077973290336147,-3.314522415787444,8.902261207893723,0.4544444444444444,0.2829759581867963,-0.6629088140332838,-0.013036077324827366,-1.2217349013284728,23.315180386624135
1589543612.0296915,-0.02038233627041789,-3.3084588035245015,8.866535270778586,0.4544444444444444,0.2822222222222222,-0.6588888888888889,-0.0913233627041789,-1.7596324779718657,30.923384603493584
1589543612.0396914,0.013655941878567723,-3.26,8.78462376751427,0.4544444444444444,0.2822222222222222,-0.6588888888888889,0.4314510897768552,-1.917115334717177,36.81115399584847
1589543612.0496914,-0.014040024324174914,-3.2662844822820496,8.691346674774724,0.4544444444444444,0.2822222222222222,-0.6588888888888889,0.8497498479739068,-1.403055724473437,38.527278318315
1589543612.0596914,-0.08360108353142795,-3.374490574382221,8.714533694510477,0.4544444444444444,0.2822222222222222,-0.6588888888888889,0.4149932279285754,-1.8861186356349162,40.07307963403173
1589543612.0696914,-0.06358468065140467,-3.3923016167816855,8.865396766436628,0.4744444444444445,0.2822222222222222,-0.68,0.5304234032570233,-2.104248939414674,44.9169957576587
1589543612.0796914,-0.02258548219976149,-3.3431025786397135,8.963794842720572,0.4744444444444445,0.2822222222222222,-0.68,0.32542741099880745,-2.770485914253876,47.5819436570155
1589543612.0896914,0.014080577399547562,-3.4339462817336353,8.693543394735897,0.4744444444444445,0.2822222222222222,-0.68,0.8133393479119537,-2.036157043340874,49.47617508707673
1589543612.0996914,-0.008510718517720561,-3.4490071456784808,8.821560738267083,0.4744444444444445,0.2822222222222222,-0.68,0.5780133487737441,-2.4126786419620094,49.146718688283244
1589543612.1096914,-0.019974286514422464,-3.48989714605769,8.90979429211538,0.4744444444444445,0.2822222222222222,-0.68,0.31314283713943836,-2.4998392907151405,48.501607092848595
1589543612.1196914,-0.07495523498894556,-3.5541144408204364,8.845885559179564,0.48563902934960007,0.27611608500122825,-0.6738938627790061,0.5414801457872731,-2.042039708425454,47.46958934395727
1589543612.1296914,-0.0920026875383092,-3.518024187844783,8.877943561695506,0.4866666666666667,0.27555555555555555,-0.6733333333333333,0.10005039134329766,-2.2999832028855676,46.349714449054645
1589543612.1396914,-0.10197941604758497,-3.59395883209517,8.719897080237926,0.4866666666666667,0.27555555555555555,-0.6733333333333333,0.33659945208184217,-2.1510291976207516,45.20308759286225
1589543612.1496913,-0.1192693266343493,-3.6137077306537395,8.782246383922438,0.4866666666666667,0.27555555555555555,-0.6733333333333333,0.6179800502423802,-1.8658665829293664,43.779853492434206
1589543612.1596913,-0.16055540390529746,-3.6294445960947024,8.880238030245128,0.486719562276695,0.2753968687254706,-0.673500836098423,0.3149794817200779,-2.3730164146239376,42.802086176775674
1589543612.1696913,-0.21398500482247823,-3.576014995177522,8.903136430638206,0.49180809569737893,0.2601312684634189,-0.689614525263922,0.5535044858146349,-2.182196411348292,41.80028115957853
1589543612.1796913,-0.2407141163380333,-3.5092858836619665,8.779761961220656,0.4933333333333334,0.25555555555555554,-0.6944444444444444,0.5565490305163892,-1.8154754847418055,40.42113483392007
1589543612.1896913,-0.2636659796070992,-3.4863340203929005,8.772111340130966,0.4933333333333334,0.25555555555555554,-0.6944444444444444,0.36528350327417325,-1.9111082483629134,39.89515463400398
1589543612.1996913,-0.3490521119034558,-3.569763027975864,8.810236972024137,0.4933333333333334,0.25555555555555554,-0.6944444444444444,0.3824053757542512,-1.9286135490948986,39.568424300603404
1589543612.2096913,-0.31837520570488204,-3.5620938014262205,8.81790619857378,0.4933333333333334,0.25555555555555554,-0.6944444444444444,0.6220687054306089,-1.6410175534832694,39.76015496434449
1589543612.2196913,-0.3761647567331965,-3.547397708079836,8.872465902693278,0.5077777777777778,0.2433333333333333,-0.68,0.6095881081670087,-1.671235675498974,39.89041189183299
1589543612.2296913,-0.4142511305232188,-3.5931013566278627,8.887700452209288,0.5077777777777778,0.2433333333333333,-0.68,0.5143721736919529,-1.9568834789241414,39.98562782630805
1589543612.2396913,-0.4027565718100643,-3.5827565718100645,8.817243428189936,0.5077777777777778,0.2433333333333333,-0.68,0.38361428690645083,-1.7672285738129017,40.35557143453225
1589543612.2496912,-0.41675740632562797,-3.596757406325628,8.803242593674373,0.5077777777777778,0.2433333333333333,-0.68,0.42736689476758744,-1.8547337895351748,40.574334473837936
1589543612.2596912,-0.4391264354173467,-3.5808735645826535,8.866942523960713,0.5077777777777778,0.2433333333333333,-0.68,0.6765804427168334,-1.9945402213584167,40.32614944660396
1589543612.2696912,-0.3728077041919868,-3.4899567411679886,8.812850963024,0.5011111111111111,0.2288888888888889,-0.6877777777777778,0.4643629622000206,-1.9553185188999898,40.464498146050055
1589543612.2796912,-0.48676276549541914,-3.5814003267635925,8.808550245072695,0.5011111111111111,0.2288888888888889,-0.6877777777777778,0.3058587367898579,-1.9954695158521705,39.81914126321014
1589543612.2896912,-0.3830027162950811,-3.4566059758491785,8.714203802813115,0.5011111111111111,0.2288888888888889,-0.6877777777777778,0.5700067907377027,-1.6912533953688513,39.50619906946723
1589543612.2996912,-0.4509008308924622,-3.56,8.79672066471397,0.5011111111111111,0.2288888888888889,-0.6877777777777778,0.6439566023073704,-1.7674173590770519,38.41599169107538
1589543612.3096912,-0.5762609839201387,-3.56,8.89700878713611,0.5011111111111111,0.2288888888888889,-0.6877777777777778,0.3827896168330444,-1.8718841532667823,37.162390160798616
1589543612.3196912,-0.6012414068390473,-3.54,8.861172661551425,0.5277777777777778,0.21666666666666667,-0.7088888888888889,0.6560351709761831,-1.2655175854880916,36.85172362176786
1589543612.3296912,-0.6076063192389524,-3.541196840380524,8.926236335623976,0.5277777777777778,0.21666666666666667,-0.7088888888888889,0.8562993690543151,-1.3974407571348217,36.69872037856741
1589543612.3396912,-0.5796661908927666,-3.5632220636309224,8.72127722270823,0.5277777777777778,0.21666666666666667,-0.7088888888888889,0.542362102306736,-1.760068948846632,36.8447931534601
1589543612.3496912,-0.6884850603821366,-3.597348855668739,8.845833916050875,0.5277777777777778,0.21666666666666667,-0.7088888888888889,0.3361709315291138,-1.8418606958592407,36.49053162738836
1589543612.3596911,-0.6567779184699413,-3.541861357322397,8.758639275792339,0.5277777777777778,0.21666666666666667,-0.7088888888888889,0.8315950239071683,-1.1482669665299643,36.29236199043713
1589543612.3696911,-0.6612475222083548,-3.5199801776668376,8.907465310916967,0.5344444444444445,0.20444444444444448,-0.7355555555555555,0.5704209033844798,-1.6248761104177374,35.88292090338448
1589543612.3796911,-0.6689457455399751,-3.5815659643198003,9.01524043755965,0.5344444444444445,0.20444444444444448,-0.7355555555555555,0.23362363262609204,-2.009787276998752,35.54612363262609
1589543612.389691,-0.6025036353607782,-3.3558418158418157,8.498374534088821,0.5344444444444445,0.20444444444444448,-0.7355555555555555,1.0,-0.7395681859967574,35.51555683698541
1589543612.399691,-0.6235350749636464,-3.4049151749151747,8.736730849587993,0.5344444444444445,0.20444444444444448,-0.7355555555555555,1.0,-0.6519371876514733,35.12121734443163
1589543612.409691,-0.63,-3.4109981097579873,8.927024573146168,0.5344444444444445,0.20444444444444448,-0.7355555555555555,0.1560727898112857,-2.2003307923522666,34.043549161786125
1589543612.419691,-0.7612839512112974,-3.5641049390141215,8.988716048788703,0.54,0.21666666666666667,-0.73,0.5,-1.5184220655808693,32.9647376524647
1589543612.429691,-0.826606780275562,-3.6251163886874544,8.890592095721537,0.54,0.21666666666666667,-0.73,0.5494844543147208,-1.1227542603335752,32.77827683103698
1589543612.439691,-0.8037951414068165,-3.4578310369833214,8.692891225525743,0.54,0.21666666666666667,-0.73,0.882154187817259,-0.26731780275562,32.96837382160986
1589543612.449691,-0.7721243877434788,-3.324956904734784,8.578238979382617,0.54,0.21666666666666667,-0.73,0.8357064206249762,-0.8910871587500475,33.25885161559783
1589543612.459691,-0.7960126438090899,-3.3806961688878765,9.008227588563617,0.54,0.21666666666666667,-0.73,-0.30893918251888985,-3.1803783650377797,33.35838601587121
1589543612.469691,-0.8670009067026248,-3.3609996977657914,8.819500151117104,0.5188888888888888,0.18444444444444444,-0.7511111111111111,-0.06251888963801641,-2.1218948341199173,34.34059761002488
1589543612.479691,-0.8153691910702873,-3.3825567576525177,8.810767027295755,0.5188888888888888,0.18444444444444444,-0.7511111111111111,1.1026283705404702,-0.9053614971236477,36.10564528538624
1589543612.489691,-1.0198301181786584,-3.479490354535975,8.83813129996524,0.5188888888888888,0.18444444444444444,-0.7511111111111111,0.24893823861661452,-2.0625,37.78822340980188
1589543612.499691,-1.0107184132777198,-3.45215523983316,8.737902546054919,0.5188888888888888,0.18444444444444444,-0.7511111111111111,0.19199008298574904,-2.0625,39.838357012513036
1589543612.509691,-1.1067254155818147,-3.5660704986981773,8.913778289605448,0.5188888888888888,0.18444444444444444,-0.7511111111111111,0.6106736931704386,-1.8206864610454636,43.20402939114761
1589543612.519691,-1.2045131878866817,-3.522743406056659,8.929451318788669,0.5440924056586707,0.15294004848221715,-0.7700137486884474,0.21150480299576685,-2.107853712145881,46.85674454575057
1589543612.529691,-1.3599710442742388,-3.5993050625817298,8.979507752662059,0.5455555555555556,0.1511111111111111,-0.7711111111111111,0.8742761068559686,-2.1891287595740705,52.01701148888474
1589543612.539691,-1.3501767700354943,-3.3642424808518587,8.8130050906034,0.5455555555555556,0.1511111111111111,-0.7711111111111111,0.6294192508873528,-2.740056685503456,57.77114760414721
1589543612.549691,-1.3357164160987707,-3.352858208049385,8.81,0.5455555555555556,0.1511111111111111,-0.7711111111111111,0.7589085990740259,-2.571455201234632,63.00816296450433
1589543612.559691,-1.4106870761234709,-3.438755783735818,8.874549660898778,0.5455555555555556,0.1511111111111111,-0.7711111111111111,0.7620705774228307,-2.853005958040185,71.31574839956899
1589543612.569691,-1.4088264130884176,-3.4035371015691136,8.98175220995019,0.5494765901688116,0.15973738726027428,-0.7860110426414839,0.4412185242060914,-3.378616393991298,77.66478033390428
1589543612.579691,-1.503965903521669,-3.38,9.038902891549393,0.5511111111111111,0.16333333333333333,-0.7922222222222223,0.962286897010432,-4.094143824826717,85.53558207309389
1589543612.589691,-1.5102899353647277,-3.3171006463527237,8.692609418282547,0.5511111111111111,0.16333333333333333,-0.7922222222222223,1.2998153277931672,-3.9375,92.18483379501384
1589543612.599691,-1.5199720683287166,-3.2202793167128347,8.779748614958448,0.5511111111111111,0.16333333333333333,-0.7922222222222223,0.8762220106186518,-3.9375,98.35719355955679
1589543612.609691,-1.52,-3.22,8.820622025370554,0.5511111111111111,0.16333333333333333,-0.7922222222222223,1.1288876585659615,-4.039055063426384,103.35119810789284
1589543612.619691,-1.4818543046357615,-3.0923334631865993,8.938500194779898,0.5333333333333333,0.11333333333333333,-0.8066666666666666,0.7264316322555512,-4.973047331515388,110.98215329178029
1589543612.629691,-1.4001577717179587,-3.015442608675726,8.82316391301359,0.5333333333333333,0.11333333333333333,-0.8066666666666666,1.1168930028185797,-4.702727921125598,115.81786718875318
1589543612.6396909,-1.3223300970873788,-2.942718446601942,8.7173786407767,0.5333333333333333,0.11333333333333333,-0.8066666666666666,1.4781553398058251,-4.467839805825243,120.59283980582525
1589543612.6496909,-1.44,-3.0781249885558384,9.088124988555839,0.5333333333333333,0.11333333333333333,-0.8066666666666666,0.3468748283375753,-6.039843993188435,122.18593787193525
1589543612.6596909,-1.44,-3.039724790800725,9.049724790800724,0.5333333333333333,0.11333333333333333,-0.8066666666666666,-0.22912813798912346,-6.855848195484592,123.43394429897643
1589543612.6696908,-1.4648018371144633,-2.9865967850496893,8.971794947935225,0.5443563720508726,0.07130799822271493,-0.8163118255445134,0.6325746327750721,-5.512385180346043,124.64131602130102
1589543612.6796908,-1.5138985576349981,-3.021017403742997,9.004576826796995,0.5511111111111111,0.045555555555555564,-0.8222222222222222,1.2923731970437478,-4.604873197043748,125.14512680295626
1589543612.6896908,-1.6095362608271602,-3.05,8.794160648352413,0.5511111111111111,0.045555555555555564,-0.8222222222222222,1.086544713559204,-4.444235770847363,124.67308942711841
1589543612.6996908,-1.649493642861661,-2.907595357075084,8.785442785754949,0.5511111111111111,0.045555555555555564,-0.8222222222222222,1.1186705357707636,-3.7223120532608007,123.49130044594851
1589543612.7096908,-1.5734222681543037,-2.7128099888216313,8.56026680446291,0.5511111111111111,0.045555555555555564,-0.8222222222222222,0.6463891759643979,-4.538363687174404,123.0652471368612
1589543612.7196908,-1.7916100556515064,-2.8612900061835007,9.118069894880488,0.5333333333333333,-0.02666666666666667,-0.8355555555555556,-1.0,-7.0,121.9375
1589543612.7296908,-1.869037522544319,-2.8673531869968767,8.965428232085515,0.5333333333333333,-0.02666666666666667,-0.8355555555555556,-0.9608993533629525,-6.96691483746096,121.94501935512251
1589543612.7396908,-1.832136981480667,-2.7658766990718338,8.790150662033167,0.5333333333333333,-0.02666666666666667,-0.8355555555555556,0.5381851273479084,-5.698458738397924,122.23330483218228
1589543612.7496908,-1.9331893072503679,-2.76,9.098948767864773,0.5333333333333333,-0.02666666666666667,-0.8355555555555556,-0.3130846113669816,-5.507739423579127,120.60835193010779
1589543612.7596908,-2.035653231199465,-2.823768820799643,9.199711025999555,0.5333333333333333,-0.02666666666666667,-0.8355555555555556,1.2192205199910835,-2.859572263764768,120.15126426125195
1589543612.7696908,-2.031907690522468,-2.6061846189550635,8.566753793043427,0.54,-0.10666666666666667,-0.8211111111111111,0.6932693423457399,-3.4586536508949552,118.7439423718488
1589543612.7796907,-2.056242928838734,-2.557514142322532,9.290727132952336,0.54,-0.10666666666666667,-0.8211111111111111,-0.8276830524208756,-6.120320341736532,117.869394744858
1589543612.7896907,-1.9468842105263158,-2.3706736842105265,8.888884210526315,0.54,-0.10666666666666667,-0.8211111111111111,0.575657894736842,-3.46078947368421,118.05394736842105
1589543612.7996907,-1.805802952197586,-2.186819245181459,8.333638490362917,0.54,-0.10666666666666667,-0.8211111111111111,-0.19283351965716422,-5.180954081527027,117.18032394468253
1589543612.8096907,-1.7774356777526807,-2.117692966741958,8.961260742010023,0.54,-0.10666666666666667,-0.8211111111111111,-1.0913379157255239,-6.065716112365968,116.42468909832023
1589543612.8196907,-1.8588655114589154,-2.1028304080491895,8.64360223588597,0.5224743307869076,-0.16641326625675423,-0.8107550338488293,0.20160844046953597,-3.248903018446059,116.26769005030744
1589543612.8296907,-2.0165303951872904,-2.1194662146441985,8.984520224681756,0.5155555555555555,-0.19,-0.8066666666666666,-1.0141257021304881,-5.776583325024097,115.03336158473759
1589543612.8396907,-1.9912996767667372,-2.0530325791223865,9.0,0.5155555555555555,-0.19,-0.8066666666666666,-1.182084680138595,-6.054377020207893,115.0
1589543612.8496907,-1.8194468085106383,-1.956195744680851,9.0,0.5155555555555555,-0.19,-0.8066666666666666,0.14494680851063824,-4.463563829787234,116.17255319148936
1589543612.8596907,-1.8403896984769696,-1.839220603046061,8.784044149384416,0.5155555555555555,-0.19,-0.8066666666666666,0.9148896265389596,-3.3776655601915606,116.50997240663474
1589543612.8696907,-1.8404028378612218,-1.7902014189306108,8.846978716040837,0.4905147372671166,-0.22810559304762454,-0.8131990540462595,-0.5897516871431043,-5.573386399030975,115.95008868316317
1589543612.8796906,-1.8204785840707964,-1.8778463716814158,9.464924601769912,0.49,-0.2288888888888889,-0.8133333333333334,0.046048672566371684,-4.282902654867256,115.20544690265487
1589543612.8896906,-1.9040749687630154,-1.8589812578092462,9.259303206997085,0.49,-0.2288888888888889,-0.8133333333333334,0.28144523115368597,-4.162421907538525,114.85908215326947
1589543612.8996906,-1.9832965699396796,-1.7739779419638078,8.926703430060321,0.49,-0.2288888888888889,-0.8133333333333334,0.6155905343184496,-4.215728397044652,114.13015089053074
1589543612.9096906,-2.0203140737531813,-1.6666012346347538,8.809528889370227,0.49,-0.2288888888888889,-0.8133333333333334,0.37475462988032704,-4.8964876536524615,113.77050617317377
1589543612.9196906,-2.0182269025898485,-1.704515398273434,9.362356578705688,0.3850073811030158,-0.31268107512398213,-0.8133333333333334,-1.0503849568358539,-5.573581858813445,114.31215560521643
1589543612.9296906,-2.0232619574468083,-1.6503211914893618,9.111713021276595,0.3744444444444445,-0.3211111111111111,-0.8133333333333334,0.7603500000000001,-2.682503191489362,114.78943617021277
1589543612.9396906,-2.0385103930533677,-1.5008544972528528,8.320230914050795,0.3744444444444445,-0.3211111111111111,-0.8133333333333334,2.0159497829177395,-2.942768567257079,114.04258078149614
1589543612.9496906,-2.078553704360156,-1.537830556540234,8.775454330615622,0.3744444444444445,-0.3211111111111111,-0.8133333333333334,-0.3872666312182438,-6.342328370554177,112.54971641261965
1589543612.9596906,-2.0704142686192943,-1.4930770984101658,9.054497122343154,0.3744444444444445,-0.3211111111111111,-0.8133333333333334,-0.8254458943529546,-6.509249102512964,111.88646432845177
1589543612.9696906,-2.1846381388005294,-1.44,9.19669483851494,0.36518362008250327,-0.34889358419693467,-0.7542065316378628,1.134838863219485,-4.555940757853676,111.9375
1589543612.9796906,-2.080860869565217,-1.3376347826086956,8.854947826086956,0.36,-0.3644444444444445,-0.7211111111111111,0.48880434782608684,-3.742608695652174,111.56429347826086
1589543612.9896905,-2.024015802766643,-1.3113386009222143,9.195747155733716,0.36,-0.3644444444444445,-0.7211111111111111,0.14173251152767802,-5.744582280974118,109.44291771902589
1589543612.9996905,-2.240843086568015,-1.3247228724378677,9.120132711840258,0.36,-0.3644444444444445,-0.7211111111111111,0.8611436218933828,-4.360167874371553,108.48087433084329
1589543613.0096905,-2.005451308991447,-1.1853076021360658,8.77432423045196,0.36,-0.3644444444444445,-0.7211111111111111,0.8890884817435853,-3.867955759128207,107.69953979073503
1589543613.0196905,-1.828261982317357,-1.0917380176826432,8.913955328059563,0.35173801768264307,-0.37913241300863454,-0.7036691484411354,1.0598243369008842,-5.8997208003722665,104.27675663099116
1589543613.0296905,-1.9102628254955305,-1.0543276331130975,9.318887485425574,0.35,-0.38222222222222224,-0.7,-0.49140412456276716,-5.810857340652935,98.94300184609405
1589543613.0396905,-2.1274354656337957,-1.059018933288426,9.026299468328242,0.35,-0.38222222222222224,-0.7,0.4962349941059012,-2.9315833473669013,94.99290001684028
1589543613.0496905,-2.2028873611024893,-0.9953598919858464,8.860719783971692,0.35,-0.38222222222222224,-0.7,1.9104566934632814,-1.8537259839220313,92.6784512927556
1589543613.0596905,-2.128666321779617,-0.8768378685980341,8.843162131401966,0.35,-0.38222222222222224,-0.7,2.0570214692188307,-2.6047659079151577,89.60273279875841
1589543613.0696905,-1.594680175691138,-0.4445893773299376,8.953545196176133,0.35516164486931845,-0.37964139978756306,-0.700737377838474,0.33380624146458493,-5.934946296091241,82.28747969955339
1589543613.0796905,-1.302585331562915,-0.0017238147309224378,9.209136921034132,0.3655555555555556,-0.3744444444444445,-0.7022222222222222,-1.1260739670389752,-7.3243526907756,63.125034171678514
1589543613.0896904,-1.41250356546188,-0.2784352715863249,9.33094168941771,0.3655555555555556,-0.3744444444444445,-0.7022222222222222,-2.0058677315512816,-2.9863977629273464,39.431792714233325
1589543613.0996904,-1.4407800379712503,-0.7355446162191484,9.009922701383239,0.3655555555555556,-0.3744444444444445,-0.7022222222222222,2.819307702739355,0.07910225115269867,19.275474640629238
1589543613.1096904,-1.3741046998077866,-0.72230919986432,8.984359099988694,0.3655555555555556,-0.3744444444444445,-0.7022222222222222,3.1004362491991104,0.2740337504240003,13.912467493310217
1589543613.1196904,-1.256962445692969,-0.5274408024930055,8.973920114641858,0.3557599193261,-0.3801156022614977,-0.7053155810315239,-0.6840169574414849,0.9554980893023679,-11.607091474649136
1589543613.1296904,-1.2750300587028787,-0.5880048093924606,8.730024046962303,0.34444444444444444,-0.38666666666666666,-0.7088888888888889,-1.5595140215008132,-0.7748647358370464,-36.09579664403423
1589543613.1396904,-0.7933367039237283,-0.36905870244307615,8.41063090229501,0.34444444444444444,-0.38666666666666666,-0.7088888888888889,1.600603094924252,1.2943868384463983,-54.525809844531516
1589543613.1496904,-0.6430764698951338,-0.3323070578531872,8.396922351832213,0.34444444444444444,-0.38666666666666666,-0.7088888888888889,0.16107723577235777,2.4615441263108284,-85.89168728643808
1589543613.1596904,-1.0736877387289265,-0.5799176241390418,9.575708171624047,0.34444444444444444,-0.38666666666666666,-0.7088888888888889,-1.5382503183052356,2.5959690285170813,-111.64699470002608
1589543613.1696904,-0.7997068131388454,-0.7858455494525481,9.361104725182788,0.37220447904162574,-0.3814018325189254,-0.6964447354487732,0.1807182350587464,4.292277472627405,-139.54777472627404
1589543613.1796904,-0.4320458452722063,-1.277068576886342,8.91509188156638,0.4088888888888889,-0.3744444444444445,-0.68,-0.6417645654250235,7.2556829035339065,-174.76961795606496
1589543613.1896904,-0.958109738110066,-1.8914267920941361,9.98313415713396,0.4088888888888889,-0.3744444444444445,-0.68,-0.8301075092595629,11.754572421252744,-207.85121603461275
1589543613.1996903,-0.7269384359400999,-1.8675684204486775,8.132081014401285,0.4088888888888889,-0.3744444444444445,-0.68,1.2319876355499455,14.97860247289001,-236.05398330368925
1589543613.2096903,-0.6122483336600666,-2.1759439325622427,8.360416584983337,0.4088888888888889,-0.3744444444444445,-0.68,-3.4786883086649674,8.765170125955695,-260.8776036561459
1589543613.2196903,-0.9836665625075114,-2.899656515155157,10.016101723433406,0.4195308564820379,-0.3536442350578351,-0.6862884353959517,-5.8768328005191925,6.3347174482609425,-285.9732260894647
1589543613.2296903,-1.131088148460565,-3.054853085899058,8.515175968883266,0.43333333333333335,-0.32666666666666666,-0.6944444444444444,-1.2586373541403064,15.253309667744505,-304.88034818876235
1589543613.2396903,-0.9127827695560253,-3.3807928118393233,8.300264270613107,0.43333333333333335,-0.32666666666666666,-0.6944444444444444,-2.0070196881606766,13.283545850951374,-324.8865122885835
1589543613.2496903,-1.1156999071181288,-3.7520881533395256,8.855380224605252,0.43333333333333335,-0.32666666666666666,-0.6944444444444444,-3.727732626868192,13.813112175968927,-336.36731402516256
1589543613.2596903,-1.3931950485112077,-3.9741795675050944,9.34221052951732,0.43333333333333335,-0.32666666666666666,-0.6944444444444444,-1.4693497369141397,17.152089859788923,-344.64539485689954
1589543613.2696903,-1.5664388300456709,-4.024258089592848,8.590670100087454,0.46082583487189455,-0.2835411740571589,-0.7014523369934894,1.0148382081430376,19.674516567874843,-349.33234015158877
1589543613.2796903,-1.9634652141424471,-4.366004247453494,8.733090808982578,0.49,-0.23777777777777775,-0.7088888888888889,-2.310614700908483,15.453302591733198,-349.5211364887718
1589543613.2896903,-2.0476719796386216,-4.356491452914312,8.62098232820087,0.49,-0.23777777777777775,-0.7088888888888889,-3.439752973880395,14.457175445405152,-342.98912999332117
1589543613.2996902,-1.7383905265168398,-4.070355892277329,8.456611065130197,0.49,-0.23777777777777775,-0.7088888888888889,-3.821437098109123,12.549074457248361,-333.47204669892403
1589543613.3096902,-1.6309221926199418,-4.144489920073843,9.495435188487278,0.49,-0.23777777777777775,-0.7088888888888889,-2.6479105917892127,12.319776741697959,-323.0485588118064
1589543613.3196902,-1.6013838657990256,-4.097519701775612,8.439948987933684,0.560310359736801,-0.19033946277463493,-0.6927937462985368,-1.4046998136097577,16.451205405317026,-310.1729832248782
1589543613.3296902,-1.58,-4.05,7.96,0.5822222222222222,-0.17555555555555555,-0.6877777777777778,-1.375,17.3125,-307.5
1589543613.3396902,-1.5660559634487305,-4.036055963448731,8.768754119973632,0.5822222222222222,-0.17555555555555555,-0.6877777777777778,-1.9850515991180415,14.000791319073489,-293.29451276339415
1589543613.3496902,-1.2739263632560085,-3.8969424945376785,8.28839059086049,0.5822222222222222,-0.17555555555555555,-0.6877777777777778,-0.58678118172098,14.475201641020874,-278.5178426154061
1589543613.3596902,-1.170389014580191,-4.020405354449472,8.902804801407743,0.5822222222222222,-0.17555555555555555,-0.6877777777777778,-2.3464366515837107,11.398598541980896,-268.1291478129713
1589543613.3696902,-1.0660871349829952,-4.064347953559282,9.373043860677848,0.7345569628500319,-0.23790651916135672,-0.6289694825586698,-3.2934795355928226,9.832425677260467,-255.8759162073414
1589543613.3796902,-0.9762724172331392,-3.9825448344662786,8.5098932788901,0.8211111111111111,-0.2733333333333333,-0.5955555555555555,-0.39057171194580453,12.340947845857597,-243.8015320859337
1589543613.3896902,-0.8514983115854421,-3.804097636219619,8.81213386417643,0.8211111111111111,-0.2733333333333333,-0.5955555555555555,-2.0158197669571014,9.79214001334056,-236.01681379497228
1589543613.3996902,-0.7280782499398283,-3.69,9.120223571256652,0.8211111111111111,-0.2733333333333333,-0.5955555555555555,-3.0889671863717805,8.884914957344957,-228.49602365415987
1589543613.4096901,-0.7056069087503901,-3.69560690875039,8.630695661221518,0.8211111111111111,-0.2733333333333333,-0.5955555555555555,-1.2308591717823327,10.758665851628342,-220.25110940588908
1589543613.4196901,-0.9061824985750044,-3.932321379891453,8.79529354910659,1.1916780528638973,-0.07026723831710077,-0.5227041598858901,-1.5749749076850637,8.950918192857674,-211.08933638571534
1589543613.4296901,-1.1247344778623982,-3.906858654963212,8.786873628501356,1.5388888888888892,0.12,-0.4544444444444444,-2.9111817477733317,7.286134955466633,-197.01379082225378
1589543613.43969,-1.1803672695679646,-3.9324484637864305,8.71318300292236,1.5388888888888892,0.12,-0.4544444444444444,-2.178318260800885,7.243113695600663,-179.49492536134588
1589543613.44969,-1.3012476421449743,-4.02354441749753,9.020693134524986,1.5388888888888892,0.12,-0.4544444444444444,-0.9939350729063745,6.560767163687536,-156.07325069612864
1589543613.45969,-1.4989872876176507,-4.0289872876176505,9.089462015646008,1.5388888888888892,0.12,-0.4544444444444444,-0.6111550391150227,5.999604647964796,-130.92267238876664
1589543613.46969,-1.6682755602240895,-4.222417717086835,9.133795518207283,1.4691448801742921,0.13369971599751013,-0.4786824035169623,-0.6174446341036415,5.102333902310924,-107.85178680847339
1589543613.47969,-1.4563675281016915,-4.4765970690198555,8.793152642084252,0.73,0.2788888888888889,-0.7355555555555555,1.6118207663620128,3.843162359491543,-49.12579446370417
1589543613.48969,-0.9122364989352284,-4.28120426865743,9.050249563324002,0.73,0.2788888888888889,-0.7355555555555555,1.432956775058024,0.15080575694494325,-9.631421529921276
1589543613.49969,-0.6073741455493032,-4.073693115298916,9.234244873295818,0.73,0.2788888888888889,-0.7355555555555555,-0.15122833188564522,-3.171012878129839,16.419426715510404
1589543613.50969,-0.5491301772099733,-4.0,8.62752859056254,0.73,0.2788888888888889,-0.7355555555555555,0.41579145631568104,-2.163917615392541,36.91773934937152
1589543613.51969,-0.5141408797293141,-4.084581974776992,8.652073823438942,0.6119376602071158,0.3170682525035032,-0.7355555555555555,1.6963049830821286,-2.3896070439864654,57.73765764380191
1589543613.52969,-0.23502886721083022,-3.8891406198155156,8.773710929723272,0.5066666666666667,0.3511111111111111,-0.7355555555555555,0.9965077311035901,-3.9146675293649214,74.41358500895879
1589543613.53969,0.054297807894685746,-3.6410490651030036,8.508138749199075,0.5066666666666667,0.3511111111111111,-0.7355555555555555,1.5501269343533386,-3.034898452517329,84.97874395666273
1589543613.54969,0.22210071210579857,-3.5980671414038654,8.801315700237367,0.5066666666666667,0.3511111111111111,-0.7355555555555555,1.2146384367582232,-3.999120464564259,89.94152678874195
1589543613.55969,0.28365116238753185,-3.5890465128374043,9.023542638212298,0.5066666666666667,0.3511111111111111,-0.7355555555555555,0.7334786678917532,-4.282703526168889,88.08328493663645
1589543613.56969,0.3271244192049561,-3.440543796248494,8.901917053863363,0.5043225810563619,0.34039529117828893,-0.7419180736406688,1.0487903688407045,-3.258582860092927,83.77131374404864
1589543613.57969,0.3536247672895263,-3.2544586177572454,9.066126318692683,0.4988888888888889,0.31555555555555553,-0.7566666666666667,-0.19401445677905726,-5.624747178744627,74.96091325932565
1589543613.58969,0.30581124956920785,-3.2241143821080698,9.16370064029312,0.4988888888888889,0.31555555555555553,-0.7566666666666667,-0.4712344234641128,-6.012988382216902,66.75993769385646
1589543613.59969,0.3290450495225248,-2.9729149064574534,8.698190209095104,0.4988888888888889,0.31555555555555553,-0.7566666666666667,1.156406421953211,-2.7063438531719264,59.47049504774753
1589543613.60969,0.36638226264549917,-2.8363566515079377,9.01819113132275,0.4988888888888889,0.31555555555555553,-0.7566666666666667,0.6537437819113132,-3.6757943967427886,48.6488914153437
1589543613.61969,0.2562070890315378,-2.8776723416131733,8.96310354451577,0.4988888888888889,0.31555555555555553,-0.7566666666666667,-1.325966368964555,-5.69854172481161,41.762943064471116
1589543613.62969,-0.06442863916548128,-3.5125378629403397,9.027411653139207,0.5366666666666666,0.2644444444444444,-0.7511111111111111,0.7975849301313698,-1.9639168967729341,30.19742420439015
1589543613.63969,-0.20171856674405803,-3.6321482084300727,8.885644462529022,0.5366666666666666,0.2644444444444444,-0.7511111111111111,1.6062031762368654,-0.7362041934943393,25.305183226022642
1589543613.64969,-0.27888298437666065,-3.796648953129982,9.036090445318312,0.5366666666666666,0.2644444444444444,-0.7511111111111111,1.0659906738229354,-1.5624335742374322,23.361170156233392
1589543613.65969,-0.34917527362417144,-3.9937629104362573,9.128427624479729,0.5366666666666666,0.2644444444444444,-0.7511111111111111,1.333763681208571,-1.404154462771697,23.323454601510715
1589543613.66969,-0.469139183792734,-4.419666893932016,8.795933378786403,0.5241945174940207,0.2556405744402238,-0.7511111111111111,3.0813407032239213,1.2311592967760787,26.715018992889842
1589543613.67969,-7.220184861163942,-12.08495777862305,7.329009509319132,0.4988888888888889,0.23777777777777775,-0.7511111111111111,1.0390547736782048,4.63864111829593,29.79527862305059
1589543613.6896899,-11.472687470430532,-13.400185893392209,3.4381051884560794,0.4988888888888889,0.23777777777777775,-0.7511111111111111,-59.2212560124586,4.6600854064816275,-144.22346509817064
1589543613.6996899,1.0291198926084402,0.43302038761641093,5.792506921721621,0.4988888888888889,0.23777777777777775,-0.7511111111111111,-147.43917799312024,-34.194683908045974,-489.5401564728585
1589543613.7096899,-4.996504795536703,-10.703294397893725,10.001754184340848,0.4988888888888889,0.23777777777777775,-0.7511111111111111,-147.94653734040998,-3.169529797103877,-626.7694485655181
1589543613.7196898,-5.1045543720286455,-8.624690979117773,8.995947523620389,0.49594090389360296,0.24465640943344497,-0.7471804644507298,-91.2129408136246,107.10318499127399,-449.4520709213456
1589543613.7296898,0.6466078819859937,-0.45630911979912503,6.30987759185515,0.4922222222222222,0.2533333333333333,-0.7422222222222222,-29.963667438256472,70.5283718637817,-303.4698135924044
1589543613.7396898,0.356734401781139,-1.6858659198134045,5.974195041789621,0.4922222222222222,0.2533333333333333,-0.7422222222222222,42.9880009453466,13.890711969678229,-257.56104001378264
1589543613.7496898,-1.1996471295036488,-1.848915413567049,4.410402169879667,0.4922222222222222,0.2533333333333333,-0.7422222222222222,90.7448270987578,40.38625470464545,-245.51761149788842
1589543613.7596898,2.4961002966258805,-5.795020084043999,14.731621245828698,0.4922222222222222,0.2533333333333333,-0.7422222222222222,178.3446093653442,40.51737462921765,-213.51111381473243
1589543613.7696898,0.35773822766036334,3.548974168829563,5.750500556173527,0.4922222222222222,0.2533333333333333,-0.7422222222222222,181.82754758373503,43.190327215424546,-184.91862099864045
1589543613.7796898,2.5431234158705402,-2.3631615742417065,5.0741960281870595,0.3566666666666667,0.4511111111111111,-0.7211111111111111,-34.96108263933376,-2.610142258307107,-109.71407681809319
1589543613.7896898,4.455306690525897,-4.576432050899692,8.569706730291282,0.3566666666666667,0.4511111111111111,-0.7211111111111111,-12.476482503230937,-11.204319514862313,-100.62912565861417
1589543613.7996898,2.0163728902953584,-0.49748892405063294,8.094743143459915,0.3566666666666667,0.4511111111111111,-0.7211111111111111,20.154524876933895,13.861049578059072,-97.64513229606189
1589543613.8096898,2.46337887973939,-1.0183024160709437,7.920732060447018,0.3566666666666667,0.4511111111111111,-0.7211111111111111,8.645867266914005,13.524688565137394,-87.89204596869061
1589543613.8196898,3.5862612500239868,-3.4821912839899447,9.237992554355126,0.34749948294132826,0.45661142134631416,-0.7245160650662368,-5.54592480474372,2.254028659975821,-64.19348242213736
1589543613.8296897,2.1651900037053813,-2.2401482152414673,8.833521758820865,0.31777777777777777,0.4744444444444445,-0.7355555555555555,-1.710959693688501,2.717099304211783,-46.87957768948907
1589543613.8396897,1.9126296810961987,-3.3442908655960317,8.996539726653884,0.31777777777777777,0.4744444444444445,-0.7355555555555555,1.8944620587148862,1.1277033385516526,-19.583039436421522
1589543613.8496897,1.7355712157671594,-3.8548565753790918,8.832571712310454,0.31777777777777777,0.4744444444444445,-0.7355555555555555,-1.589299014552538,1.0526861082464383,-4.958982659180322
1589543613.8596897,1.7730286327958433,-3.8939427344083133,8.783714209005197,0.31777777777777777,0.4744444444444445,-0.7355555555555555,-0.2253579099480409,0.22821447748701024,1.087142090051959
1589543613.8696897,1.7995249451191586,-3.8409501097616827,8.750593818601052,0.31777777777777777,0.4744444444444445,-0.7355555555555555,-0.5565618139894819,0.3110154534973705,0.7559381860105181
1589543613.8796897,1.7565921896250243,-3.833798814843598,8.727485914124733,0.2788888888888889,0.4711111111111111,-0.7233333333333334,0.35300296289100447,0.02164792597629686,0.33275148144550226
1589543613.8896897,1.7339919443226655,-3.9640725010960107,8.920201391933363,0.2788888888888889,0.4711111111111111,-0.7233333333333334,0.4863923443665059,0.21270139193336257,0.050151043950021915
1589543613.8996897,1.7729596772533602,-3.8440806454932797,8.74940020171665,0.2788888888888889,0.4711111111111111,-0.7233333333333334,0.6430065557911203,0.11399949570837536,-0.011000504291624642
1589543613.9096897,1.812028486717621,-3.751992878320595,8.696085460152863,0.2788888888888889,0.4711111111111111,-0.7233333333333334,-0.28758902099256545,0.12522255248141362,0.03758902099256545
1589543613.9196897,1.787032285939898,-3.7582419285150253,8.621096857819694,0.2788888888888889,0.4711111111111111,-0.7233333333333334,-0.2094758935621806,-0.07006026609454852,-0.040524106437819396
1589543613.9296896,1.775163390509578,-3.7517647427068987,8.661764742706898,0.2788888888888889,0.5044444444444445,-0.7355555555555555,-0.2218135720545887,0.05494279767121572,-0.11744279767121572
1589543613.9396896,1.7530119011290815,-3.8514464449191332,8.793976197741838,0.2788888888888889,0.5044444444444445,-0.7355555555555555,0.5188243820567593,0.02033109551418981,-0.0625
1589543613.9496896,1.7750575680988487,-3.737413647851727,8.720230272395394,0.2788888888888889,0.5044444444444445,-0.7355555555555555,0.5948294018534119,-0.014725498455490038,-0.0625
1589543613.9596896,1.7618063504508037,-3.7609031752254016,8.658193649549197,0.2788888888888889,0.5044444444444445,-0.7355555555555555,0.2758085064680518,-0.2415327322618581,-0.0625
1589543613.9696896,1.7978577797150839,-3.7907111014245802,8.638208872421785,0.2782938276986344,0.5028972853497828,-0.7340083964608939,-0.4598333696578233,-0.0625,-0.06919443839036278
1589543613.9796896,1.7812371460838898,-3.873814269580551,8.779484258286937,0.2736769850233027,0.4908934943939204,-0.7220046055050315,-0.14819648907293298,-0.0625,-0.12113391848784451
1589543613.9896896,1.7764988876529477,-3.7854004449388206,8.773501112347052,0.2733333333333333,0.49,-0.7211111111111111,0.34625278086763067,0.1587527808676307,0.0
1589543613.9996896,1.7429933558689823,-3.7970066441310175,8.800271593425808,0.2733333333333333,0.49,-0.7211111111111111,0.442177118545285,0.245322881454715,-0.009354237090569996
1589543614.0096896,1.7739543388021348,-3.786197865190749,8.696121763194308,0.2733333333333333,0.49,-0.7211111111111111,0.3236682150622653,0.12452436252223759,-0.11240487250444751
1589543614.0196896,1.752457532941737,-3.8850849341165263,8.757542467058263,0.27387945176483036,0.48967232894110174,-0.7215480058563088,-0.3657842514684871,-0.12192808382282902,-0.0625
1589543614.0296896,1.7884553940910404,-3.79865845443172,8.7388615147724,0.28444444444444444,0.4833333333333333,-0.73,-0.061230872870753544,-0.0805384467327495,-0.008384659801751515
