time,acc_x,acc_y,acc_z,mag_x,mag_y,mag_z,gyr_x,gyr_y,gyr_z
1589543656.5192144,-0.17,-4.13,8.78,0.4777777777777778,0.27555555555555555,-0.6766666666666666,-0.0625,-0.0625,-3.6875
1589543656.5292144,-0.23490338304415948,-4.14622584576104,8.853016305924678,0.4777777777777778,0.27555555555555555,-0.6766666666666666,-0.11320576800324958,-0.01179423199675042,-4.245263448035745
1589543656.5392144,-0.2825048979014764,-4.143499020419704,8.876500979580296,0.5030593650344817,0.2704992381042148,-0.6766666666666666,-0.0031066328694633605,0.0,-4.375
1589543656.5492144,-0.29435977914728856,-4.111798895736443,8.846158674883732,0.5166666666666667,0.2677777777777778,-0.6766666666666666,0.02724861967055374,0.03525138032944626,-4.022486196705537
1589543656.5592144,-0.27356194848984866,-4.155752206040606,8.828219025755075,0.5166666666666667,0.2677777777777778,-0.6766666666666666,-0.25684455484611524,-0.09160673290766913,-3.1335730683693237
1589543656.5692143,-0.28834532773389077,-4.150827336133055,8.852482008399164,0.5166666666666667,0.2677777777777778,-0.6766666666666666,-0.42715829833681757,-0.28923117125783954,-2.0211331933472705
1589543656.5792143,-0.2573069024845984,-4.1663465487577005,8.899039646273103,0.5166666666666667,0.2677777777777778,-0.6766666666666666,-0.23316814052874033,0.14724668381033434,-1.2451725621149614
1589543656.5892143,-0.1995806313033161,-4.17,8.929580631303315,0.4777777777777778,0.2677777777777778,-0.6844444444444444,-0.44274210870854896,0.005242108708548984,-0.031047347748706093
1589543656.5992143,-0.1910003477691631,-4.17,8.921000347769162,0.4777777777777778,0.2677777777777778,-0.6844444444444444,-0.5499956528854612,0.11249565288546119,0.6124739173127672
1589543656.6092143,-0.11633731542896388,-4.116427138493791,8.826247492364136,0.4777777777777778,0.2677777777777778,-0.6844444444444444,-0.6880613941551752,-0.0005613941551752266,1.1897455766207008
1589543656.6192143,-0.012891425330544826,-4.014502853496863,8.838720002835773,0.4777777777777778,0.2677777777777778,-0.6844444444444444,-1.0121428698025592,-0.21978572188153556,1.7520714437630711
1589543656.6292143,0.06312582289591843,-3.9936874177104085,8.843687417710408,0.4777777777777778,0.2677777777777778,-0.6844444444444444,-1.299221835859694,-0.28945363930994905,1.4968708855204078
1589543656.6392143,0.12460276655649406,-3.8833880115885258,8.848200922185498,0.49417962214877387,0.2677777777777778,-0.6780659494112793,-1.6937788182968132,-0.4662672909780879,0.6974308360876484
1589543656.6492143,-0.4317201241593379,-3.6034117951370925,8.593411795137094,0.4977777777777778,0.2677777777777778,-0.6766666666666666,-1.9667130108639421,-1.1501390325918261,0.2591017847904811
1589543656.6592143,-0.28405622204869735,-3.759961666784979,9.028922055796125,0.4977777777777778,0.2677777777777778,-0.6766666666666666,-3.1310982643572087,-2.89979236175197,0.06875798608646269
1589543656.6692142,-0.31913185946317685,-3.4972121199862456,8.638948401059892,0.4977777777777778,0.2677777777777778,-0.6766666666666666,-3.6951167094803696,-4.101105655454196,2.2880835474018486
1589543656.6792142,-0.3235568149322796,-3.6830909610835265,9.111954662437935,0.4977777777777778,0.2677777777777778,-0.6766666666666666,-2.3737213065744664,-3.9125354199703644,3.388849533366262
1589543656.6892142,-0.27345591160220994,-3.654669171270718,8.81334585635359,0.4917442848373235,0.2634681399631676,-0.6697712461632904,-2.983685082872928,-3.6185662983425413,5.342370165745856
1589543656.6992142,-0.1384663699006037,-3.5861345203975854,8.843336331483627,0.49,0.26222222222222225,-0.6677777777777778,-3.4242712970303066,-1.9742152722726996,9.802914811878773
1589543656.7092142,-0.24077260808585887,-3.1769095676565646,9.246167144338068,0.49,0.26222222222222225,-0.6677777777777778,-3.2644177998658455,-3.1731165010061586,10.442328800536618
1589543656.7192142,-0.3701536967586392,-2.812405906777391,8.878924122689526,0.49,0.26222222222222225,-0.6677777777777778,0.2281404868738277,-0.6076107520760781,12.435049306857755
1589543656.7292142,-0.21071472964574273,-2.7780422622747047,8.859285270354256,0.49,0.26222222222222225,-0.6677777777777778,1.4123679303915475,0.29960379117464264,16.699230888750776
1589543656.7392142,-0.3034742010011552,-2.8865623796688484,9.042665575664229,0.4633333333333333,0.26222222222222225,-0.6888888888888889,-1.2980241624951867,-2.4879368020793224,22.14935502502888
1589543656.7492142,-0.3640387947631883,-3.0009621678860223,8.914806988833268,0.4633333333333333,0.26222222222222225,-0.6888888888888889,-1.0456716884867154,-2.2776430737389295,23.66346986907971
1589543656.7592142,-0.38502150202555313,-3.0649354939233406,8.755451542536616,0.4633333333333333,0.26222222222222225,-0.6888888888888889,-0.19072530383296982,-1.44072530383297,26.521708476160796
1589543656.7692142,-0.3454442932140774,-3.169844837643399,8.774400544429321,0.4633333333333333,0.26222222222222225,-0.6888888888888889,0.6488892669648065,-0.9034731674120163,32.33515457903947
1589543656.7792141,-0.32282594475977466,-3.2386962209609016,8.944784883843607,0.4633333333333333,0.26222222222222225,-0.6888888888888889,-0.2540947502795772,-2.0761082860338025,36.94163563184436
1589543656.7892141,-0.3722383508172725,-3.2587063918028787,8.894229690168334,0.4633333333333333,0.25641796102030306,-0.6656718440812123,-0.13526546108807025,-1.955850512320078,41.11782218223957
1589543656.7992141,-0.39257202881152464,-3.316574129651861,8.88,0.4633333333333333,0.25555555555555554,-0.6622222222222223,0.48752626050420167,-1.5999868697478992,43.95904299219688
1589543656.809214,-0.407538231574106,-3.334923536851788,8.84230884212947,0.4633333333333333,0.25555555555555554,-0.6622222222222223,0.2000186846038864,-2.1913231574106016,48.24895078762792
1589543656.819214,-0.4729070208728653,-3.3569601518026566,8.78506641366224,0.4633333333333333,0.25555555555555554,-0.6622222222222223,0.05616698292220114,-2.5498339658444023,52.33285104364327
1589543656.829214,-0.48708697601434653,-3.409608832100426,8.872130688186505,0.4633333333333333,0.25555555555555554,-0.6622222222222223,0.6383168011656579,-2.296738399462004,55.56658400582829
1589543656.839214,-0.5017372711479353,-3.447605906721903,8.980423626887612,0.4874599462485337,0.2438182844076202,-0.665482575318871,0.5082102766270212,-2.70100561272217,59.134133201924364
1589543656.849214,-0.5190209385724752,-3.414895307137624,8.97587436856515,0.5044444444444445,0.23555555555555555,-0.6677777777777778,0.02447653568811936,-3.2316425982339103,63.57516243782054
1589543656.859214,-0.5331171770972037,-3.4034414114513982,8.83226964047936,0.5044444444444445,0.23555555555555555,-0.6677777777777778,0.45090296271637814,-2.8810793941411452,65.88356774300932
1589543656.869214,-0.5472566281093254,-3.4072566281093253,8.83982290920258,0.5044444444444445,0.23555555555555555,-0.6677777777777778,0.370022520217013,-3.0503314054662707,69.29590413553076
1589543656.879214,-0.5854515225029279,-3.41,8.898361218002343,0.5044444444444445,0.23555555555555555,-0.6677777777777778,0.16137119374268027,-3.542015225029279,72.18164814078969
1589543656.889214,-0.6526714688380834,-3.480228625117445,8.874885687441276,0.4985920590179908,0.23165396527125307,-0.6755809583463827,0.34446445349201377,-3.413169433134983,75.30437676166615
1589543656.899214,-0.715130216959258,-3.513627235839682,8.87,0.4977777777777778,0.2311111111111111,-0.6766666666666666,0.375,-3.670340447996025,77.74160654397151
1589543656.909214,-0.7551278255122273,-3.5618797091870453,8.87837594183741,0.4977777777777778,0.2311111111111111,-0.6766666666666666,0.375,-3.75,80.66823364177131
1589543656.919214,-0.7183643468552289,-3.461747301823595,8.796728693710458,0.4977777777777778,0.2311111111111111,-0.6766666666666666,0.4270445664309639,-3.9061336992928917,83.31087179010048
1589543656.929214,-0.7395635775862068,-3.4498545258620688,8.927817887931035,0.4977777777777778,0.2311111111111111,-0.6766666666666666,0.4067046066810345,-3.9067046066810347,84.85863415948276
1589543656.939214,-0.7755649819494586,-3.4544350180505417,8.996525270758122,0.5051977537103891,0.21967198154833534,-0.6800674889691135,0.5141245487364621,-3.805437725631769,86.36520194043321
1589543656.949214,-0.8200474756831866,-3.4550237378415933,8.930237378415933,0.5244444444444445,0.19,-0.6888888888888889,0.875,-3.625,87.3125
1589543656.959214,-0.8578549949883061,-3.46,8.931253758770465,0.5244444444444445,0.19,-0.6888888888888889,0.6138594219846308,-3.7555702890076845,88.35706231206147
1589543656.969214,-0.9291021920708992,-3.4277624406886003,8.893881220344301,0.5244444444444445,0.19,-0.6888888888888889,0.6343231637974982,-3.8460807909493746,89.081146327595
1589543656.979214,-0.98,-3.416094051587998,8.88,0.5244444444444445,0.19,-0.6888888888888889,0.6494121775750131,-4.009117096566649,89.71485128969995
1589543656.989214,-1.0290449438202247,-3.435449438202247,8.912696629213483,0.537765293383271,0.17546816479400748,-0.6967602996254681,0.4262640449438202,-4.26123595505618,90.26685393258427
1589543656.999214,-1.1093617436818874,-3.37702121010898,8.78255302527245,0.5488888888888889,0.16333333333333333,-0.7033333333333334,0.656915257216515,-3.9813825631811257,91.32313923284246
1589543657.009214,-1.1142538652895426,-3.3082847876058823,8.826192020656864,0.5488888888888889,0.16333333333333333,-0.7033333333333334,0.570433290298202,-4.3418734452246746,92.2807668388072
1589543657.019214,-1.1284822091967308,-3.3192858911912824,8.970089573185833,0.5488888888888889,0.16333333333333333,-0.7033333333333334,0.5145092049863783,-4.417967782547676,93.65960125485016
1589543657.029214,-1.126858569185555,-3.2908635613349975,8.895156407262773,0.5488888888888889,0.16333333333333333,-0.7033333333333334,0.6857009138854221,-4.003598172229156,94.55710274165627
1589543657.039214,-1.2245161394448032,-3.3645161394448033,8.990794060684312,0.5533553905745642,0.13921422423068647,-0.6988668316476581,0.44851113621691413,-4.9302110232408,95.40322587153003
1589543657.049214,-1.3084664462348066,-3.364942951613654,9.021647650537885,0.5544444444444444,0.13333333333333333,-0.6977777777777778,0.4794043682764402,-4.769882526894239,96.18892620965865
1589543657.0592139,-1.3113462063488124,-3.3080772380928742,8.829616539673873,0.5544444444444444,0.13333333333333333,-0.6977777777777778,0.6622586309597677,-4.2548103174406195,96.63701726191954
1589543657.0692139,-1.4355970676079284,-3.3793244637523756,8.9123763236492,0.5544444444444444,0.13333333333333333,-0.6977777777777778,0.35698140103176756,-4.60064824871029,97.38985202280749
1589543657.0792139,-1.4565817103470384,-3.3021503566562473,9.00101306403783,0.5544444444444444,0.13333333333333333,-0.6977777777777778,0.381331650236435,-4.4248366995271295,99.10682155165505
1589543657.0892138,-1.4366637027780447,-3.1766903777756417,8.88006224166106,0.5544444444444444,0.1059381108013714,-0.7014798348766916,1.0414258507161396,-3.9792592881861,101.43683312506008
1589543657.0992138,-1.44,-3.069184355289306,8.882734080239624,0.5544444444444444,0.09222222222222222,-0.7033333333333334,0.5548533308372454,-4.935705336827857,104.0058520059906
1589543657.1092138,-1.535445870837637,-3.0586768973488763,8.847938615906743,0.5544444444444444,0.09222222222222222,-0.7033333333333334,0.1580775662780975,-5.133269391569525,106.71518555407998
1589543657.1192138,-1.533235910292956,-3.026471820585912,8.80228079815915,0.5544444444444444,0.09222222222222222,-0.7033333333333334,0.28216334100353746,-5.386938901672562,108.29361283786105
1589543657.1292138,-1.4991642314436002,-2.9691642314436004,8.950461718293395,0.5544444444444444,0.09222222222222222,-0.7033333333333334,0.05979690239625951,-6.528820864991233,110.64337375803623
1589543657.1392138,-1.545186047937228,-2.934529516336664,9.094529516336664,0.5572744981848151,0.07335519728641779,-0.7155968995416062,-0.339031753815975,-6.7629919389444,111.95692086066327
1589543657.1492138,-1.6957726289547972,-2.8696909484180813,9.080206034387945,0.5611111111111111,0.04777777777777778,-0.7322222222222222,-0.05928071268834545,-6.1875,114.42073679290245
1589543657.1592138,-1.7142423864426108,-2.7943801343621364,9.034104638523086,0.5611111111111111,0.04777777777777778,-0.7322222222222222,0.6618460092307143,-6.0290976887574175,117.84004958390506
1589543657.1692138,-1.653906750352248,-2.707347252465736,8.866414755988217,0.5611111111111111,0.04777777777777778,-0.7322222222222222,0.7959203279108493,-5.91308281029845,121.7166405149225
1589543657.1792138,-1.5896733840622126,-2.5812837193745297,8.97001137218831,0.5611111111111111,0.04777777777777778,-0.7322222222222222,0.38506459570198176,-6.383094322267748,124.06862404883351
1589543657.1892138,-1.5291496005809733,-2.4837244008714596,9.034047204066812,0.5611111111111111,0.025474178972000324,-0.7273998224804326,0.6282974763979666,-6.309202523602034,125.37298248002905
1589543657.1992137,-1.6055863694917725,-2.4771321974576477,8.991396592372944,0.5611111111111111,0.006666666666666667,-0.7233333333333334,1.2674574046617895,-5.625466361227913,124.97428025423523
1589543657.2092137,-1.6791694170846436,-2.5583388341692874,8.93732893266457,0.5611111111111111,0.006666666666666667,-0.7233333333333334,1.0322676005093687,-5.548961771355804,123.12072331661426
1589543657.2192137,-1.7260724712347586,-2.4573535978018204,8.855069551777435,0.5611111111111111,0.006666666666666667,-0.7233333333333334,1.388405890434484,-4.705778808174481,121.4700540958269
1589543657.2292137,-1.7459557538499497,-2.3861769846002017,8.889557538499496,0.5611111111111111,0.006666666666666667,-0.7233333333333334,1.4136061537512594,-4.486670384686556,119.92051961469663
1589543657.2392137,-1.8613575761615893,-2.355152323178455,9.033933737750816,0.5495629180276871,-0.04117584753609018,-0.7390058810894089,0.3381212085860943,-5.258484851009933,118.49151514899006
1589543657.2492137,-1.8435583870717116,-2.2734006681687515,9.037747649755264,0.5455555555555556,-0.057777777777777775,-0.7444444444444445,0.17638004040090127,-5.575591445886101,119.005914458861
1589543657.2592137,-1.7226437104708363,-2.127980323260717,9.038029515108924,0.5455555555555556,-0.057777777777777775,-0.7444444444444445,0.9711612789880535,-5.58743851018974,121.09226106816584
1589543657.2692137,-1.69,-2.1198077465782417,9.03378192465077,0.5455555555555556,-0.057777777777777775,-0.7444444444444445,1.1486370290673062,-4.633411087201919,121.97876613870467
1589543657.2792137,-1.7417323086775536,-2.136466538584694,8.673739993595902,0.5455555555555556,-0.057777777777777775,-0.7444444444444445,0.07043507845020813,-5.319144252321486,121.19168267691323
1589543657.2892137,-1.740391937745088,-2.06597984436272,8.894643517483797,0.5428140683097304,-0.08683754258352466,-0.7619899628177256,-0.314133073937867,-6.862751945465997,119.7322228599874
1589543657.2992136,-1.7642737133134836,-1.9296958740961292,8.972296894938324,0.54,-0.11666666666666667,-0.78,-0.1875,-6.531037324542748,118.12214881965122
1589543657.3092136,-1.9296160448098294,-2.0103577558948413,9.092556689854549,0.54,-0.11666666666666667,-0.78,0.5068716686240853,-5.571771388562652,117.86572861143735
1589543657.3192136,-2.072853182439617,-2.1214127297584686,9.239861385386602,0.54,-0.11666666666666667,-0.78,1.833622113777913,-4.439923382196567,117.83621876424122
1589543657.3292136,-2.1200568227290915,-2.061525570228091,8.643164785914365,0.54,-0.11666666666666667,-0.78,2.383469387755102,-2.41031612645058,116.08650560224089
1589543657.3392136,-2.2576916512587113,-2.122884369222017,9.032498933295406,0.5394124433066263,-0.11853616523649237,-0.78,0.25841807708718534,-4.643622884369222,113.66527698762623
1589543657.3492136,-2.3762691766100943,-2.126030682576151,9.253015341288075,0.5277777777777778,-0.15555555555555556,-0.78,-0.5876278440672942,-6.137563922033647,109.65374823982806
1589543657.3592136,-2.2830141554880305,-1.9768226487808493,9.178411324390424,0.5277777777777778,-0.15555555555555556,-0.78,0.03407229674646117,-5.82671385162677,106.622960053361
1589543657.3692136,-2.3064284781188764,-1.8987302416721097,8.953651208360549,0.5277777777777778,-0.15555555555555556,-0.78,0.6388879817112998,-4.3958360548661,104.29514206401045
1589543657.3792136,-2.373905857814544,-1.8513069607947115,8.768693039205289,0.5277777777777778,-0.15555555555555556,-0.78,0.7365110298016757,-3.573234834022696,101.9160303319546
1589543657.3892136,-2.45545798423304,-1.8216516420970765,8.798348357902924,0.5277777777777778,-0.15555555555555556,-0.78,-0.37556342135963505,-5.102337204369499,98.857825591261
1589543657.3992136,-2.232970133396293,-1.7091417778302442,9.179141777830244,0.4777777777777778,-0.18777777777777774,-0.8155555555555556,-0.2339083343170818,-4.521999075276433,92.26223537166017
1589543657.4092135,-2.0780433230183286,-1.5536519876219947,8.829368959771482,0.4777777777777778,-0.18777777777777774,-0.8155555555555556,2.006931385384432,-1.9480956915020236,87.86412461318734
1589543657.4192135,-2.0960096101737777,-1.5455608945409878,8.776233967990173,0.4777777777777778,-0.18777777777777774,-0.8155555555555556,1.7839043137396582,-1.9618889772029338,85.51847971386249
1589543657.4292135,-2.250833577411985,-1.5699994142112355,8.960833577411986,0.4777777777777778,-0.18777777777777774,-0.8155555555555556,0.0625,-2.942706197645129,79.61455831527151
1589543657.4392135,-2.1596661880832735,-1.4470531227566403,8.970746590093324,0.4681510728244397,-0.20756600462630612,-0.8257170774507459,-0.2684179827709979,-2.747666905958363,74.36874102656138
1589543657.4492135,-2.2119603859827324,-1.4179939055358048,9.061975622143219,0.4577777777777778,-0.2288888888888889,-0.8366666666666667,-0.49377856780091417,-3.1186833417978668,69.44429278821737
1589543657.4592135,-2.316042701595734,-1.43781281047872,9.111302135079786,0.4577777777777778,-0.2288888888888889,-0.8366666666666667,-0.3561165575133316,-3.0790947707779965,68.033189541556
1589543657.4692135,-2.48613130842069,-1.488839392526207,9.119806565421033,0.4577777777777778,-0.2288888888888889,-0.8366666666666667,0.17541033881465562,-1.9628882884892231,65.80077657697845
1589543657.4792135,-2.5602753834668115,-1.4285886385231437,8.983373489887336,0.4577777777777778,-0.2288888888888889,-0.8366666666666667,0.3500788991448351,-0.20686316512827474,65.0149526605131
1589543657.4892135,-2.282723971765983,-1.3004879869689154,8.684471969594137,0.4577777777777778,-0.2288888888888889,-0.8366666666666667,1.2396667571603095,-0.07342498642595358,64.48119994570382
1589543657.4992135,-2.3026048292472057,-1.2630426727598345,8.9621743963441,0.3977777777777778,-0.27555555555555555,-0.8366666666666667,-0.6086966590502069,-2.7663496572593096,59.52179954301241
1589543657.5092134,-2.509889155525083,-1.2977008341903782,8.983684150382814,0.3977777777777778,-0.27555555555555555,-0.8366666666666667,-0.619979145240544,-0.8024582904810879,56.00277111187293
1589543657.5192134,-2.650532825880114,-1.2737868696479544,9.101627021883921,0.3977777777777778,-0.27555555555555555,-0.8366666666666667,-0.5085038058991437,-0.8581707897240723,52.84134157944815
1589543657.5292134,-2.6888797986154813,-1.2318969702418412,8.996639395846444,0.3977777777777778,-0.27555555555555555,-0.8366666666666667,0.08835858131798974,0.05871842128922056,51.233851029398544
1589543657.5392134,-2.612414332522989,-1.19,9.019454814501637,0.3881446875477105,-0.2970110747043418,-0.8309743860761724,0.1419392770320262,0.249708011838072,48.321456505654794
1589543657.5492134,-2.515950345950346,-1.1650540058232366,9.126166369243291,0.37333333333333335,-0.33,-0.8222222222222222,-0.10461671519363827,-0.40233555618171,44.53988995335149
1589543657.5592134,-2.5736062359523695,-1.1188661470039691,8.926700779494047,0.37333333333333335,-0.33,-0.8222222222222222,0.08312012816221127,0.2635335469370188,39.70300320405528
1589543657.5692134,-2.6142073327866933,-1.1154827222677757,9.011275389481082,0.37333333333333335,-0.33,-0.8222222222222222,-0.3426701417359728,-0.18340312756237553,35.568979149584166
1589543657.5792134,-2.5470862776384773,-1.0683451105539092,8.988213091710357,0.37333333333333335,-0.33,-0.8222222222222222,-0.11383182318972718,0.18128252982296178,31.857230881012082
1589543657.5892134,-2.5342143838754008,-0.9915712322491983,8.778854786990381,0.3522614139563292,-0.342174886751158,-0.825500076347534,0.3781207054512139,1.0263398992212551,27.317367155290885
1589543657.5992134,-2.610968238691049,-1.0236727622714148,9.005759384023099,0.3233333333333333,-0.3588888888888889,-0.83,-0.7962223291626565,-0.6093479307025986,22.225168431183832
1589543657.6092134,-2.707608606836443,-1.0694021517091108,9.23948386218167,0.3233333333333333,-0.3588888888888889,-0.83,-1.063010690453493,-1.5298924145444641,18.36209655454174
1589543657.6192133,-2.7344960400166736,-1.0489920800333472,9.070852230095873,0.3233333333333333,-0.3588888888888889,-0.83,-0.4273251875781576,-0.394376563151313,14.606579564401834
1589543657.6292133,-2.5495571641473282,-0.9568038518858191,8.845664663205646,0.3233333333333333,-0.3588888888888889,-0.83,-0.36392398585021535,0.42108403891190777,10.899724251158677
1589543657.6392133,-2.013772620821801,-0.812554167144331,8.564034326329407,0.3233333333333333,-0.3588888888888889,-0.83,-0.5356498010186534,-0.051161952801297095,7.8515910319189
1589543657.6492133,-2.5429787624701636,-1.0080329273517352,9.389317583695453,0.24,-0.3922222222222223,-0.7733333333333333,-2.162058571516005,-2.0811172654385213,0.9957348980965787
1589543657.6592133,-2.1263821221706443,-0.9123403031672349,8.93531939366553,0.24,-0.3922222222222223,-0.7733333333333333,-0.2628604732366594,0.7517664215585589,-2.153794211888428
1589543657.6692133,-2.502595902676239,-0.9784412426686819,8.947272174670195,0.24,-0.3922222222222223,-0.7733333333333333,0.6820918694245018,1.9096348305377122,-7.649068080632177
1589543657.6792133,-2.8729307974335474,-1.0562797891842346,9.075337992667277,0.24,-0.3922222222222223,-0.7733333333333333,-0.12226455087076077,1.2175899404216315,-10.815650779101741
1589543657.6892133,-2.226336294742674,-0.9384734561427809,8.681756663171017,0.2489765659523668,-0.3911450343079383,-0.7553802014285996,0.020197273392825343,1.673819970715685,-15.042625497140822
1589543657.6992133,-2.4827939668574075,-1.055352760228889,9.276058280686668,0.2677777777777778,-0.3888888888888889,-0.7177777777777777,-0.5612058842986141,-0.4593717957199087,-18.869472100023152
1589543657.7092133,-2.510463439752832,-1.0618537590113286,9.066683831101956,0.2677777777777778,-0.3888888888888889,-0.7177777777777777,-1.510749227600412,-0.20693872296601445,-23.525682286302782
1589543657.7192132,-2.327791175206533,-1.0298405042739125,8.8474480683826,0.2677777777777778,-0.3888888888888889,-0.7177777777777777,-0.8700157585597632,0.07645587603266313,-26.63083036865479
1589543657.7292132,-2.106078204087941,-1.0479857810749198,9.03395734322476,0.2677777777777778,-0.3888888888888889,-0.7177777777777777,-1.5867890537459912,-0.4631220779722577,-29.87211178084309
1589543657.7392132,-2.164451837042378,-1.0742230670905575,9.198007603815018,0.2910878043984137,-0.38059209975273034,-0.7102711590355391,-1.031875798892203,0.8403239815148634,-33.62368899741077
1589543657.7492132,-2.365155549608617,-1.1149066702348298,9.131866595303405,0.3333333333333333,-0.3655555555555556,-0.6966666666666667,1.1867222519569145,3.1816668896768583,-37.3043336455476
1589543657.7592132,-2.4691934987694832,-1.1796898072190318,8.944286556603775,0.3333333333333333,-0.3655555555555556,-0.6966666666666667,0.2255354670836751,3.348596762202625,-40.4883677707137
1589543657.7692132,-2.5785316114758436,-1.192430320082726,8.839949017627395,0.3333333333333333,-0.3655555555555556,-0.6966666666666667,-0.7072782146550273,1.9922459298270927,-43.64968556862179
1589543657.7792132,-2.679285880041461,-1.2406933894398118,9.032416497779979,0.3333333333333333,-0.3655555555555556,-0.6966666666666667,-0.7159928603474682,1.1053040733922246,-45.40782654434629
1589543657.7892132,-2.899905320317455,-1.389935951979455,9.739696468076549,0.3333333333333333,-0.3655555555555556,-0.6966666666666667,-0.9998781695261374,0.37531327836136086,-46.62447786939773
1589543657.7992132,-2.1975011232766573,-1.2409376404095822,9.48687303426585,0.36,-0.34444444444444444,-0.6966666666666667,-1.5126738122827346,-0.1308321706434601,-49.635711034123965
1589543657.8092132,-2.228116087016222,-1.2373822554385139,9.233975950881735,0.36,-0.34444444444444444,-0.6966666666666667,-1.6187707193157965,-0.10453201318189853,-52.985281929814235
1589543657.8192132,-2.4685107619619022,-1.277507687115644,8.668369206539673,0.36,-0.34444444444444444,-0.6966666666666667,0.936423100719964,3.321807737738113,-55.043884524523776
1589543657.8292131,-2.633653067346633,-1.3954664766761662,9.218843557822108,0.36,-0.34444444444444444,-0.6966666666666667,0.3957786485675716,2.289668329083546,-57.108163341832906
1589543657.8392131,-2.68144725975976,-1.3165362237237237,8.954317942942943,0.3734124124124124,-0.33773823823823823,-0.6944312645979313,0.7181939752252252,3.4202995964714713,-56.92215301238739
1589543657.8492131,-2.0814119120294277,-0.847752211004148,8.615648430774046,0.4133333333333333,-0.31777777777777777,-0.6877777777777778,0.23577032949831728,2.33249197777256,-57.561780934491665
1589543657.859213,-1.246044853338132,-1.1745118769120029,8.825263856397337,0.4133333333333333,-0.31777777777777777,-0.6877777777777778,-2.34783971792334,-1.207519794853338,-70.30567302501349
1589543657.869213,-1.1872386566437725,-1.3370710075171706,8.715394516251148,0.4133333333333333,-0.31777777777777777,-0.6877777777777778,-0.2450077064517875,2.7557933589313723,-88.4114265047861
1589543657.879213,-1.2381869328143966,-1.40456079844319,8.626163079709446,0.4133333333333333,-0.31777777777777777,-0.6877777777777778,1.5021519334887574,6.713984316294484,-108.09658412169323
1589543657.889213,-1.1802351255414074,-1.6368909369199205,9.184823655843944,0.42045939579466135,-0.3074845764447484,-0.6929243784442924,-2.0372919855407563,3.5819316442504965,-130.35369174780993
1589543657.899213,-0.7971160080891087,-1.9794934677238147,9.337796841395692,0.43333333333333335,-0.2888888888888889,-0.7022222222222222,-3.5381263441723108,3.8877315186338395,-155.78613516354764
1589543657.909213,-0.46793391886240066,-2.2697256378084485,9.38138017565872,0.43333333333333335,-0.2888888888888889,-0.7022222222222222,-2.088780844834797,6.8099278544542035,-173.90012547051444
1589543657.919213,-0.7572509350960973,-2.3419198287421485,8.679599143710742,0.43333333333333335,-0.2888888888888889,-0.7022222222222222,1.830099214284034,13.264504281446282,-202.34564739231692
1589543657.929213,-1.0724978448275864,-2.444339978448276,8.575317349137931,0.43333333333333335,-0.2888888888888889,-0.7022222222222222,1.7683795797413793,14.989244342672414,-220.16413321659482
1589543657.939213,-2.0235398905713193,-2.9811884463672222,9.94544980277389,0.43882003647622686,-0.28366345732422843,-0.7040511232698533,-2.6506791576536455,9.238937841964626,-236.84125683929253
1589543657.949213,-1.9015099933726323,-2.8422069133907706,8.117085353517737,0.48,-0.24444444444444444,-0.7177777777777777,-3.282735707558687,9.638793208692316,-244.5494327496599
1589543657.959213,-1.959343998813115,-3.0333645714850896,8.958884575441374,0.48,-0.24444444444444444,-0.7177777777777777,-2.1799428811631474,8.730671393600712,-243.8370428638544
1589543657.969213,-1.8160601872375937,-3.154254570109787,9.205430672542832,0.48,-0.24444444444444444,-0.7177777777777777,-3.8426800010431066,6.865768508618666,-243.6400468093984
1589543657.979213,-1.7688955927598193,-3.2888955927598196,8.583479442202421,0.48,-0.24444444444444444,-0.7177777777777777,-0.707922943221321,11.947334378870819,-239.78952231589884
1589543657.989213,-1.7449541673739604,-3.3248930572059074,8.620489730096757,0.4959837039551859,-0.22912672815405796,-0.7131158641241818,0.5323003310134102,12.814409692751655,-235.42545832626038
1589543657.999213,-1.7085614065477222,-3.469504157283908,9.484790403602979,0.5333333333333333,-0.19333333333333333,-0.7022222222222222,-1.851737073445349,9.484331694959293,-233.86321561579769
1589543658.009213,-1.5094154117270104,-3.3373409163729573,8.98867045818648,0.5333333333333333,-0.19333333333333333,-0.7022222222222222,-1.5531880807433516,11.211103212111503,-232.53323854533804
1589543658.019213,-1.6370855495033643,-3.4582915732137134,9.049145786606857,0.5333333333333333,-0.19333333333333333,-0.7022222222222222,-0.713252963793656,11.085112944569047,-231.02135533482857
1589543658.029213,-1.7096040282122957,-3.589472037616394,9.05791536311298,0.5333333333333333,-0.19333333333333333,-0.7022222222222222,-2.9147418038097705,8.36049121605361,-225.90649239156593
1589543658.039213,-1.5698432033173513,-3.4031242710898018,8.910390047946093,0.5333333333333333,-0.19333333333333333,-0.7022222222222222,-2.2353489050149022,10.59278216923675,-222.31541564079305
1589543658.049213,-1.9073191322440903,-3.8385530579527236,8.855064297165466,0.5822222222222222,-0.16666666666666666,-0.6822222222222222,-0.3835157502472968,10.140951708906096,-213.48030579527236
1589543658.059213,-1.9001657741242282,-3.7813261929938258,9.05535832452161,0.5822222222222222,-0.16666666666666666,-0.6822222222222222,-2.574231674455094,7.681984855203465,-207.7576192993826
1589543658.069213,-1.99,-3.852973093063441,9.113520118489262,0.5822222222222222,-0.16666666666666666,-0.6822222222222222,-2.072659528511479,8.388481239200198,-190.89367902986916
1589543658.079213,-2.015029057575939,-3.9964316098496195,8.640904679168415,0.5822222222222222,-0.16666666666666666,-0.6822222222222222,0.46473024384398776,10.623547121203043,-175.3457963872746
1589543658.089213,-2.034066516996801,-4.293585917787535,9.1789833707508,0.6251427713649318,-0.22489221782925714,-0.6293201500230685,-0.5079719070987225,6.976662924920032,-162.29459176881966
1589543658.099213,-1.8340720799475494,-4.035259769932251,9.228981980013113,0.864025015618205,-0.5489572778627673,-0.3348838954783365,-4.726604563606382,1.9768019986887335,-150.36784018437208
1589543658.1092129,-1.6185989967008632,-4.053939078953315,8.917558412798844,0.8688888888888889,-0.5555555555555556,-0.3288888888888889,-1.3011422696253447,5.431694027658517,-132.89206907850138
1589543658.1192129,-1.390107547220796,-4.183297484259734,8.367232955927257,0.8688888888888889,-0.5555555555555556,-0.3288888888888889,0.8251344340259951,7.5625,-121.34516273948172
1589543658.1292129,-1.2244480056980058,-4.187838319088319,8.812083333333334,0.8688888888888889,-0.5555555555555556,-0.3288888888888889,-0.1713630698005698,5.863047542735043,-110.35692663817665
1589543658.1392128,-1.1003581849280613,-4.132788006841735,9.513630143877654,0.9506034588769271,-0.39557914388883303,-0.36824999161552135,-1.719143022436865,2.500968407284435,-100.7689971325083
1589543658.1492128,-1.14,-4.22,9.03,1.2633333333333334,0.21666666666666667,-0.5188888888888888,0.3125,5.375,-93.1875
1589543658.1592128,-1.1050244138477103,-4.2060097655390845,9.372760744292437,1.2633333333333334,0.21666666666666667,-0.5188888888888888,1.4929260326397746,6.336828619187965,-86.8481750098975
1589543658.1692128,-1.047915529114543,-3.943506377083249,8.830298276353856,1.2633333333333334,0.21666666666666667,-0.5188888888888888,-2.6237406279287723,1.8718764007171673,-77.26927514159978
1589543658.1792128,-0.885551118536327,-3.6016865653396355,7.58265596348967,1.2633333333333334,0.21666666666666667,-0.5188888888888888,1.0615042174320521,5.984396010757508,-70.05901348763294
1589543658.1892128,-0.7815153725314183,-3.6657574057450626,9.017269412028725,1.2633333333333334,0.21666666666666667,-0.5188888888888888,-0.0909062219479353,-0.21968273114901216,-65.36175241247756
1589543658.1992128,-0.8213354301572617,-3.735818316373728,8.72667715078631,0.6755555555555556,0.17555555555555555,-0.7177777777777777,-2.9233926919518964,-1.435814061054579,-57.889810360777055
1589543658.2092128,-0.8446155411655873,-4.18590046253469,8.843077705827936,0.6755555555555556,0.17555555555555555,-0.7177777777777777,-0.49838112858464356,1.8622016651248843,-52.70028561517114
1589543658.2192128,-0.7115678763552787,-3.9605286211548387,9.122178605332845,0.6755555555555556,0.17555555555555555,-0.7177777777777777,-0.154341471945106,1.460859300834402,-46.897846126942355
1589543658.2292128,-0.4740610895524873,-3.345805172959379,8.703048981563214,0.6755555555555556,0.17555555555555555,-0.7177777777777777,-0.7219128374664824,2.3777053528304712,-45.10781335875956
1589543658.2392128,-0.5263277577347765,-3.4909043402208373,8.950564556685253,0.6658445148986311,0.1768612416943017,-0.7198995177532402,0.15925576691811522,0.19597818957035093,-41.40360364053788
1589543658.2492127,-0.4804733792500273,-3.252461572100142,9.207349076199847,0.5445851584611834,0.1931650207111014,-0.7463931586555398,-2.5346889690608942,-2.0394227615611675,-40.19992620531322
1589543658.2592127,-0.39026236579527407,-3.212740501979001,9.101311828976371,0.5433333333333333,0.19333333333333333,-0.7466666666666667,-0.3179659540682104,0.961370962007916,-37.20790770980968
1589543658.2692127,-0.29792028365325834,-3.152876879814158,8.6749565961609,0.5433333333333333,0.19333333333333333,-0.7466666666666667,1.2115478664873456,2.9930691404817216,-35.484510636997186
1589543658.2792127,-0.29,-3.2488518320516513,8.80983324423243,0.5433333333333333,0.19333333333333333,-0.7466666666666667,-0.19217908253485216,0.9479003886170169,-35.203306842949374
1589543658.2892127,-0.29,-3.369590821236172,9.353158695562776,0.5433333333333333,0.19333333333333333,-0.7466666666666667,-1.1085017683102356,-0.6152383106468726,-35.41891218077888
1589543658.2992127,-0.281699173553719,-3.337799449035813,8.721657300275483,0.5222222222222223,0.2255555555555556,-0.7588888888888888,0.3390495867768595,2.2109159779614327,-34.3040564738292
1589543658.3092127,-0.22587692516452948,-3.3076461541940883,9.099415383223647,0.5222222222222223,0.2255555555555556,-0.7588888888888888,-0.6214422620259177,0.5512500848090102,-33.86759617341746
1589543658.3192127,-0.18153581813375627,-3.290785091197462,9.022492730637062,0.5222222222222223,0.2255555555555556,-0.7588888888888888,-1.2794409199048373,-0.7173704731694422,-33.312714776632305
1589543658.3292127,-0.18945526981609456,-3.243268381103433,8.468131112873381,0.5222222222222223,0.2255555555555556,-0.7588888888888888,0.5024357086212756,2.3514170537366414,-32.66925932744232
1589543658.3392127,-0.25678436317780584,-3.365220680958386,9.089495586380833,0.5222222222222223,0.2255555555555556,-0.7588888888888888,0.0510718789407314,0.4233133669609077,-32.46847414880202
1589543658.3492126,-0.24893130483479559,-3.225518013813702,8.762966212432332,0.5255555555555556,0.2311111111111111,-0.7677777777777778,-0.8165892757140191,-0.1676661377636737,-31.660986792981145
1589543658.3592126,-0.2946037894343849,-3.3560108269553854,8.880409744259847,0.5255555555555556,0.2311111111111111,-0.7677777777777778,0.12132781874183296,0.8925879690125069,-30.886185714952397
1589543658.3692126,-0.47465624224373293,-3.619236606034819,8.747176364216573,0.5255555555555556,0.2311111111111111,-0.7677777777777778,-0.7166015140233308,0.04771212282381307,-28.659821206963798
1589543658.3792126,-0.3705534872176719,-3.604364783888239,9.081792362514626,0.5255555555555556,0.2311111111111111,-0.7677777777777778,-0.06595929511044918,0.9772010069850725,-25.68545677764777
1589543658.3892126,-0.7081502037550939,-3.934957873946849,8.71134253356334,0.5240439344316942,0.2309278843082188,-0.7674113241719932,0.9400766269156728,1.1404597614940373,-19.26876453161329
1589543658.3992126,-2.2672001515479545,-5.640311755791297,7.827415566139857,0.4888888888888889,0.22666666666666666,-0.7588888888888888,0.896688609547521,1.1839886880277117,-11.811554516670276
1589543658.4092126,-17.706085769104455,-23.75484486543481,1.7808170708519868,0.4888888888888889,0.22666666666666666,-0.7588888888888888,-7.156730204138074,3.5358970148479765,-24.14824641764472
1589543658.4192126,0.6362283719081105,2.069393462741779,3.2018026722901145,0.4888888888888889,0.22666666666666666,-0.7588888888888888,-41.82044146370975,29.363760306293536,-112.82391038494114
1589543658.4292126,-14.85532337233959,-17.77319033220765,11.139264313201917,0.4888888888888889,0.22666666666666666,-0.7588888888888888,-204.27508123576533,-82.61161941412078,-670.0486224279431
1589543658.4392126,-3.350891777271654,-1.4265212440116244,16.302670619649728,0.4888888888888889,0.22666666666666666,-0.7588888888888888,-149.97490526584465,73.23760602371789,-553.3675807939999
1589543658.4492126,0.7034860647605303,-1.8418575809506628,10.152276089113377,0.4755555555555556,0.2766666666666667,-0.7111111111111111,-124.01030768016597,101.06826407053306,-321.5140395282764
1589543658.4592125,0.19654837013669824,-1.7218243953732912,7.538551524710831,0.4755555555555556,0.2766666666666667,-0.7111111111111111,-22.76767875920084,11.186432045215563,-283.3764951366982
1589543658.4692125,-0.7857738120291259,-2.886110105644177,10.065761606128204,0.4755555555555556,0.2766666666666667,-0.7111111111111111,47.6309793131024,52.81334967801675,-257.0698524769561
1589543658.4792125,1.7524947945818874,-6.7788091346692045,8.43636896899138,0.4755555555555556,0.2766666666666667,-0.7111111111111111,113.91522864659129,42.884287193552,-234.76105031904174
1589543658.4892125,0.07158199932833309,-1.0693399753722153,13.028359789544385,0.4755555555555556,0.2766666666666667,-0.7111111111111111,166.32637131982537,25.80518023060562,-195.0858740064928
1589543658.4992125,-1.171701884267553,5.685921952904104,7.629723079579547,0.3476903153396214,0.4624708438554459,-0.6851384841922494,212.5953667630744,36.13898496686883,-161.09803236493923
1589543658.5092125,0.3421977621250216,2.055596414793774,4.480908201063278,0.3333333333333333,0.4833333333333333,-0.6822222222222222,100.49581358079189,39.72642530180604,-113.86184456749132
1589543658.5192125,4.795661424606845,-6.913283996299723,8.253829787234043,0.3333333333333333,0.4833333333333333,-0.6822222222222222,-69.73103607770582,-41.201838575393154,-61.46212997224792
1589543658.5292125,5.310645698427382,-6.37713598519889,7.92931914893617,0.3333333333333333,0.4833333333333333,-0.6822222222222222,-6.636644310823314,-6.369854301572616,-66.97351988899167
1589543658.5392125,1.3216282563294621,0.583131938592313,8.023777158978492,0.3333333333333333,0.4833333333333333,-0.6822222222222222,20.388625288535522,19.73784028871872,-58.79699923057194
1589543658.5492125,3.444107104062568,-4.452719693678036,8.80932598305453,0.27555555555555555,0.4744444444444445,-0.7111111111111111,-4.875049220616989,0.05422245003258745,-36.738641918314144
1589543658.5592124,1.5488322335532894,-3.533973205358928,8.926120775844831,0.27555555555555555,0.4744444444444445,-0.7111111111111111,-3.2902669466106778,-0.6536067786442712,-14.426589682063588
1589543658.5692124,1.597755948810238,-3.666766146770646,8.849240651869627,0.27555555555555555,0.4744444444444445,-0.7111111111111111,0.6411030293941211,0.9189412117576483,-3.2877080833833237
1589543658.5792124,1.8042250401038882,-3.8572186998701397,8.785350240623329,0.27555555555555555,0.4744444444444445,-0.7111111111111111,0.7209390038958062,0.18683637613627685,3.0347662516232528
1589543658.5892124,1.7721854709342297,-3.897268161332213,8.593112825605377,0.27555555555555555,0.4744444444444445,-0.7111111111111111,-0.4805448399663892,-0.16359641165686345,2.5341479833473377
1589543658.5992124,1.719123619522622,-3.9851015318845744,8.824741717135732,0.2766666666666667,0.48,-0.7377777777777778,-0.6678393302458141,-0.0054773779836123975,1.3959298183113644
1589543658.6092124,1.71,-3.83,8.77,0.2766666666666667,0.48,-0.7377777777777778,0.1875,-0.0625,0.3125
1589543658.6192124,1.71,-3.7499199970908035,8.787795556202044,0.2766666666666667,0.48,-0.7377777777777778,0.6880000181824794,0.215555565656933,0.03444443434306699
1589543658.6292124,1.7184215993940049,-3.8410591927280597,8.70578400605995,0.2766666666666667,0.48,-0.7377777777777778,0.8552699924250622,0.03946001514987557,0.0
1589543658.6392124,1.7274667068913503,-3.9048002413481013,8.787067189587553,0.2766666666666667,0.48,-0.7377777777777778,-0.6183413782700513,-0.046666918070939103,0.0
1589543658.6492124,1.7363103873570667,-3.9073792252858666,8.750585739072267,0.2724597417619556,0.4821034624523555,-0.7251570030636443,-0.691160869201664,-0.1413798419633338,0.0
1589543658.6592124,1.7303132165001893,-3.856409474250852,8.729373566999621,0.27,0.4833333333333333,-0.7177777777777777,0.22846636561197842,-0.1269576031261838,-0.03027119843690811
1589543658.6692123,1.7136381261375326,-3.8227237477249347,8.743638126137533,0.27,0.4833333333333333,-0.7177777777777777,0.6591680185170531,-0.022738288359579015,-0.10226171164042099
1589543658.6792123,1.6926656785941139,-3.8242218928647045,8.803559178488248,0.27,0.4833333333333333,-0.7177777777777777,0.10275513444844381,-0.14445267838238407,-0.125
1589543658.6892123,1.7025780172954004,-3.9103120691816016,8.83306648702845,0.27,0.4833333333333333,-0.7177777777777777,-0.7519504323850106,-0.25,-0.019165543927810502
1589543658.6992123,1.7264167868012172,-3.9543328527951305,8.79754124619574,0.27463434602310144,0.480837916243971,-0.7195602185558937,-0.7262934486625021,-0.08958032996956591,0.0625
1589543658.7092123,1.7360145076771698,-3.9159419692913207,8.763949223129906,0.28156603332240043,0.4771054692366562,-0.7222262521325472,-0.03645726070341637,0.15036269192924645,0.0625
1589543658.7192123,1.7138445131705236,-3.865126017560698,8.811029469268778,0.28444444444444444,0.4755555555555556,-0.7233333333333334,0.7404153780526821,0.25,-0.046481195122818245
1589543658.7292123,1.7007261731978713,-3.8507261731978715,8.857095307208514,0.28444444444444444,0.4755555555555556,-0.7233333333333334,-0.17284409772617326,0.07611574746008709,-0.1204614175133043
1589543658.7392123,1.7240168989761935,-3.8259831010238066,8.763932404095227,0.28444444444444444,0.4755555555555556,-0.7233333333333334,-0.7003168558036266,-0.33778164960322354,-0.17503520620040294
1589543658.7492123,1.7210709241463347,-3.9182198343903183,8.731070924146335,0.2774996076693715,0.4755555555555556,-0.7233333333333334,-0.7566932759145919,-0.4375,0.035726896341632286
1589543658.7592123,1.7287639828752934,-3.9124720342494133,8.800111863002348,0.2766666666666667,0.4755555555555556,-0.7233333333333334,0.2907229664410993,-0.2184004281176633,-0.04704978594116835
1589543658.7692122,1.691003358746068,-3.880752519059551,8.771003358746068,0.2766666666666667,0.4755555555555556,-0.7233333333333334,0.6202967558778056,0.17809351175561122,-0.0015677480407314606
1589543658.7792122,1.7285483946787006,-3.812540309312274,8.78927419733935,0.2766666666666667,0.4755555555555556,-0.7233333333333334,0.2636087998871809,0.12726813331453016,0.06023186668546985
1589543658.7892122,1.7083870104857692,-3.831612989514231,8.818817319352307,0.2766666666666667,0.4755555555555556,-0.7233333333333334,-0.4704329838076895,-0.1451623689278836,-0.11760824595192237
1589543658.7992122,1.7108840774888636,-3.8944203874443177,8.775579612555683,0.2766666666666667,0.4834162781864015,-0.7348220817938005,-0.7159872578473013,-0.3180254843053973,-0.15348725784730136
1589543658.8092122,1.7250847716900797,-3.9298304566198405,8.73508477169008,0.2766666666666667,0.49,-0.7444444444444445,-0.3379219463070137,-0.247880707748005,-0.029660530811003755
1589543658.8192122,1.7458163229700967,-3.848826546634565,8.708367354059806,0.2766666666666667,0.49,-0.7444444444444445,0.4942600928155204,0.07270403712620815,0.013073990718447961
1589543658.8292122,1.6956869460112811,-3.875260878323932,8.79957393231265,0.2766666666666667,0.49,-0.7444444444444445,0.39869560838033846,0.011847804190169217,0.0
1589543658.8392122,1.7120939025095967,-3.88,8.802635365830135,0.2766666666666667,0.49,-0.7444444444444445,-0.3154344534248953,-0.23014481780829846,0.0
1589543658.8492122,1.7285086346952283,-3.9140345387809132,8.774474095914314,0.28895691678199653,0.4777097498846702,-0.7264817711989624,-0.7752158673807088,-0.2593210331548228,-0.1595369005355316
1589543658.8592122,1.7222705899563227,-3.912270589956323,8.731352949781614,0.2911111111111111,0.4755555555555556,-0.7233333333333334,-0.329411872270172,-0.2016911872270172,0.005735251091931209
1589543658.8692122,1.7085354876789138,-3.869874206876199,8.72,0.2911111111111111,0.4755555555555556,-0.7233333333333334,0.17076601003393832,-0.0800201969898185,-0.009153202006787667
1589543658.8792121,1.7073293837938963,-3.8326706162061037,8.800623221732861,0.2911111111111111,0.4755555555555556,-0.7233333333333334,0.34588270257629494,0.0,-0.15411729742370503
1589543658.8892121,1.71,-3.8503245424357093,8.857099389914278,0.2911111111111111,0.4755555555555556,-0.7233333333333334,-0.11092796741061084,-0.16937118696424433,-0.01812881303575567
1589543658.8992121,1.718535001690903,-3.86,8.801719986472776,0.27878277533536244,0.4926255589373615,-0.7309200015030248,-0.7392500845451471,-0.3033437605681434,0.00915623943185661
1589543658.909212,1.7317954588220537,-3.8835909176441072,8.754613623533839,0.2766666666666667,0.4955555555555556,-0.7322222222222222,-0.5176135294486609,-0.12819595590541305,0.0
1589543658.919212,1.7231550859216564,-3.8887700572811044,8.701925143202761,0.2766666666666667,0.4955555555555556,-0.7322222222222222,0.03843570996548901,0.1754678549827445,-0.0701871419930978
1589543658.929212,1.71,-3.8606304362043034,8.744565212652322,0.2766666666666667,0.4955555555555556,-0.7322222222222222,0.5142662895385085,0.19144022627689491,-0.044293484184596596
1589543658.939212,1.71,-3.8434876410191405,8.812561794904298,0.2766666666666667,0.4955555555555556,-0.7322222222222222,0.09587083280517184,0.002893269108885793,0.0814044872607428
1589543658.949212,1.7220540563657358,-3.8701351409143396,8.817945943634264,0.28135435525334174,0.4922072065650734,-0.7355705712127044,-0.4511824830004704,-0.17550677842877305,0.125
1589543658.959212,1.747048929105703,-3.907048929105703,8.758853212682892,0.28444444444444444,0.49,-0.7377777777777778,-0.6782779034553217,-0.35655580691064326,0.018444193089356728
1589543658.969212,1.7412020335677971,-3.8924040671355944,8.68841423497458,0.28444444444444444,0.49,-0.7377777777777778,0.027334772616477543,-0.04507625879239502,0.0549872902012675
1589543658.979212,1.7152596397568471,-3.8570128530091297,8.78720822772033,0.28444444444444444,0.49,-0.7377777777777778,0.22808483434647048,0.05154241717323524,-0.04058483434647048
