time,acc_x,acc_y,acc_z,mag_x,mag_y,mag_z,gyr_x,gyr_y,gyr_z
1589988396.4259017,-3.83,-0.77,8.83,0.31222222222222223,-0.4033333333333333,-0.6355555555555555,-0.25,0.0,-0.125
1589988396.4359016,-3.8404214166201895,-0.7531928611266034,8.905964305633017,0.3076103117060172,-0.40084999690153067,-0.6266864968705459,-0.06513385387618516,-0.125,0.017321528165086447
1589988396.4459016,-3.8291476590636253,-0.7554261704681873,8.972016806722689,0.2977777777777777,-0.3955555555555556,-0.6077777777777778,0.09108643457382953,-0.125,0.07315426170468188
1589988396.4559016,-3.84,-0.7550338748581158,8.98483062570942,0.2977777777777777,-0.3955555555555556,-0.6077777777777778,0.2193851535896708,-0.06207656427355278,-0.1254234357264472
1589988396.4659016,-3.8295487256371814,-0.7704512743628186,8.980902548725638,0.2977777777777777,-0.3955555555555556,-0.6077777777777778,0.2471795352323838,-0.06532046476761619,-0.08951930284857572
1589988396.4759016,-3.82,-0.78534332290466,9.01068664580932,0.2977777777777777,-0.3955555555555556,-0.6077777777777778,0.12070846369175037,-0.024812695537625565,0.06679153630824963
1589988396.4859016,-3.8252335766423355,-0.7795328467153285,9.02,0.30533738848337383,-0.3996261151662612,-0.6037072181670722,0.1606295620437956,-0.06833941605839416,0.125
1589988396.4959016,-3.83,-0.7561722561758513,8.950861280879256,0.31222222222222223,-0.4033333333333333,-0.6,-0.00927019670278878,0.07177019670278878,0.0817883005495352
1589988396.5059016,-3.8234127979924715,-0.7368255959849436,8.867302383939775,0.31222222222222223,-0.4033333333333333,-0.6,-0.16617001254705144,0.06398996235884567,-0.01984002509410289
1589988396.5159016,-3.8263511013956615,-0.749053304186985,8.852702202791322,0.31222222222222223,-0.4033333333333333,-0.6,-0.22719438372288547,0.07938876744577097,0.05658315116865646
1589988396.5259016,-3.834973046323147,-0.7550269536768534,8.88983827793888,0.31222222222222223,-0.4033333333333333,-0.6,-0.21891846048033312,0.03175538144099932,0.09391846048033312
1589988396.5359015,-3.8365839790912006,-0.7602480627263973,8.926832041817597,0.31222222222222223,-0.3991581966670233,-0.6026569051512882,-0.144799738640011,0.0015503920399835003,0.019799738640011
1589988396.5459015,-3.8351803830937365,-0.7592784676250539,8.960721532374945,0.31222222222222223,-0.3911111111111111,-0.6077777777777778,0.03463218300756003,0.060245211328293316,-0.030122605664146658
1589988396.5559015,-3.833891510892191,-0.758325467323427,8.92502359802972,0.31222222222222223,-0.3911111111111111,-0.6077777777777778,0.23953417077141856,0.0,-0.038178056923806186
1589988396.5659015,-3.8233065335384437,-0.7633065335384437,8.963628131077119,0.31222222222222223,-0.3911111111111111,-0.6077777777777778,0.22883166923054596,-0.04183416538472702,-0.0625
1589988396.5759015,-3.82,-0.7546369764420883,9.0,0.31222222222222223,-0.3911111111111111,-0.6077777777777778,0.1875,-0.028981102763051644,-0.1295377944738967
1589988396.5859015,-3.82,-0.7534925775978407,9.00698515519568,0.3098938371569951,-0.39266336782126254,-0.6101061628430049,0.14384278002699055,0.0,-0.12201417004048583
1589988396.5959015,-3.8252708122341503,-0.76,9.01472918776585,0.3055555555555556,-0.3955555555555556,-0.6144444444444445,-0.036327729390318,0.03294257646343934,-0.03294257646343934
1589988396.6059015,-3.8351633317980998,-0.7651633317980997,8.932550023028504,0.3055555555555556,-0.3955555555555556,-0.6144444444444445,-0.22181247121436978,-0.03431247121436978,0.002041647476246536
1589988396.6159015,-3.851062807831644,-0.7644685960841779,8.882125615663288,0.3055555555555556,-0.3955555555555556,-0.6144444444444445,-0.3125,-0.09042872552611227,-0.006642548947775467
1589988396.6259015,-3.8426909639732805,-0.7556727409933202,8.9,0.3055555555555556,-0.3955555555555556,-0.6144444444444445,-0.2043185248330026,-0.0084092624165013,-0.03545463120825065
1589988396.6359015,-3.821484712955495,-0.7509898086369968,8.901979617273994,0.3058854917678879,-0.39594048113660996,-0.6133996464387256,-0.06559315199061515,0.07177945597184544,-0.006186303981230296
1589988396.6459014,-3.8428079038958125,-0.7520197597395307,8.929211855843718,0.31222222222222223,-0.4033333333333333,-0.5933333333333334,-0.08004939934882677,0.20504939934882677,-0.125
1589988396.6559014,-3.8351918465227817,-0.7459592326139088,8.868465227817746,0.31222222222222223,-0.4033333333333333,-0.5933333333333334,-0.06489808153477218,0.02765287769784172,-0.02765287769784172
1589988396.6659014,-3.8202149768709917,-0.77,8.882760061677356,0.31222222222222223,-0.4033333333333333,-0.5933333333333334,-0.001343605443697063,-0.3098127891126059,0.021281201814565685
1589988396.6759014,-3.8195759901034476,-0.77,8.962667945568962,0.31222222222222223,-0.4033333333333333,-0.5933333333333334,0.09242496907327394,-0.28787515463363034,-0.05984993814654786
1589988396.6859014,-3.823422081406342,-0.7732889592968291,9.026577918593658,0.31002958269100284,-0.39858261434902464,-0.6050274108331701,0.1866679868155454,-0.0838880087896364,-0.1044440043948182
1589988396.6959014,-3.820017251293847,-0.7649741230592294,9.029982748706152,0.3055555555555556,-0.3888888888888889,-0.6288888888888889,0.12467653824036803,0.031303910293271994,-0.0625
1589988396.7059014,-3.8352641158469507,-0.75,8.935774146448786,0.3055555555555556,-0.3888888888888889,-0.6288888888888889,-0.0954007240434426,0.029599275956557397,-0.0954007240434426
1589988396.7159014,-3.8233551032806803,-0.7333551032806804,8.87664489671932,0.3055555555555556,-0.3888888888888889,-0.6288888888888889,-0.1596768681652491,0.10403060449574728,-0.09032313183475091
1589988396.7259014,-3.804990545774971,-0.7250094542250289,8.874971637324913,0.3055555555555556,-0.3888888888888889,-0.6288888888888889,-0.1875,0.1561909110935693,0.031427266719292135
1589988396.7359014,-3.812901101462789,-0.7429011014627892,8.881501835771315,0.2993439141105089,-0.39510053033393555,-0.6226772474438422,-0.26813188414243255,0.17875458942828837,0.017490821143423277
1589988396.7459013,-3.8456185890726395,-0.7756185890726398,8.91,0.2911111111111111,-0.4033333333333333,-0.6144444444444445,-0.47261618170399833,0.47777109064266277,-0.09246127276533389
1589988396.7559013,-3.8562020651593376,-0.7862020651593378,8.887212390956027,0.2911111111111111,-0.4033333333333333,-0.6144444444444445,-0.4200774434751647,0.6875,-0.015025814491721558
1589988396.7659013,-3.8442905351116825,-0.768581070223365,8.861418929776635,0.2911111111111111,-0.4033333333333333,-0.6144444444444445,-0.06260545556805398,0.5269213000160694,0.04465792222400772
1589988396.7759013,-3.825644091023838,-0.7443559089761621,8.946626816690108,0.2911111111111111,-0.4033333333333333,-0.6144444444444445,0.22277556889898661,0.04332670669695986,0.0
1589988396.7859013,-3.82,-0.7573733804475854,9.023686690223792,0.2890629498756707,-0.4004659076037168,-0.611986650961916,0.11837455830388693,-0.016416372202591283,-0.02304181389870436
1589988396.7959013,-3.82,-0.7641229961099135,9.01236898832974,0.2855555555555556,-0.3955555555555556,-0.6077777777777778,0.0,0.1726938229391214,-0.0625
1589988396.8059013,-3.82,-0.7537328478723931,8.943595630851538,0.2855555555555556,-0.3955555555555556,-0.6077777777777778,-0.11750910239262892,0.21083029920245702,-0.21917880319017188
1589988396.8159013,-3.824649376265204,-0.7639481287956122,8.91,0.2855555555555556,-0.3955555555555556,-0.6077777777777778,-0.15844139834247453,0.21655860165752547,-0.22532419502742357
1589988396.8259013,-3.83,-0.7827668817960373,8.91,0.2855555555555556,-0.3955555555555556,-0.6077777777777778,-0.125,0.1462419326486025,-0.10770698877476709
1589988396.8359013,-3.83,-0.7811977491961415,8.915868167202573,0.29924794569489105,-0.3955555555555556,-0.6120158985351911,-0.10666197749196142,-0.06998593247588425,-0.08083802250803858
1589988396.8459013,-3.8340804278922347,-0.7681608557844691,8.942241283676704,0.3322222222222222,-0.3955555555555556,-0.6222222222222222,-0.011494651347068147,0.011494651347068147,-0.04849197702060222
1589988396.8559012,-3.8514833716084036,-0.7627749425873948,8.891099770349578,0.3322222222222222,-0.3955555555555556,-0.6222222222222222,0.2778132176575657,-0.026614463723739046,0.026614463723739046
1589988396.8659012,-3.8485494109349285,-0.7557252945325357,8.86862647266268,0.3322222222222222,-0.3955555555555556,-0.6222222222222222,0.4017169091716517,0.0,0.0
1589988396.8759012,-3.830273034946952,-0.7551365174734761,8.91431741263262,0.3322222222222222,-0.3955555555555556,-0.6222222222222222,0.3446032342092254,-0.06079353158154922,-0.06079353158154922
1589988396.8859012,-3.823686927313591,-0.7536869273135913,8.965808491195139,0.3223904160526453,-0.3955555555555556,-0.6246801737646165,0.2894567042900541,-0.125,-0.125
1589988396.8959012,-3.8335817044907956,-0.7528365910184092,9.01,0.3055555555555556,-0.3955555555555556,-0.6288888888888889,0.18284304079758623,-0.013071734662643747,-0.14738565306747126
1589988396.9059012,-3.84,-0.7441889643237487,8.963921392438765,0.3055555555555556,-0.3955555555555556,-0.6288888888888889,-0.042224108093716725,0.10895691892971246,-0.10895691892971246
1589988396.9159012,-3.84,-0.7548190067515698,8.90481900675157,0.3055555555555556,-0.3955555555555556,-0.6288888888888889,-0.1875,0.030118792197311187,-0.06023758439462237
1589988396.9259012,-3.8374786145453372,-0.7574786145453372,8.925128312727978,0.3055555555555556,-0.3955555555555556,-0.6288888888888889,-0.1875,0.09401731818328546,-0.125
1589988396.9359012,-3.8307090286968593,-0.7507090286968592,8.965745827818846,0.3055555555555556,-0.3955555555555556,-0.6288888888888889,-0.1875,0.17863714128926048,-0.125
1589988396.9459012,-3.85,-0.7665370405159998,8.981731479742,0.31777777777777777,-0.4033333333333333,-0.6144444444444445,-0.03003475483749765,0.10335650322499844,-0.05167825161249922
1589988396.9559011,-3.8484935048148388,-0.7484935048148388,8.980961028889032,0.31777777777777777,-0.4033333333333333,-0.6144444444444445,0.125,-0.009415594907257803,0.0
1589988396.9659011,-3.8328306254645854,-0.73,8.872830625464585,0.31777777777777777,-0.4033333333333333,-0.6144444444444445,0.16038281830731654,-0.125,0.03538281830731656
1589988396.9759011,-3.84,-0.7321343832294736,8.890671916147369,0.31777777777777777,-0.4033333333333333,-0.6144444444444445,0.2233202096315803,-0.125,0.044960628894740964
1589988396.985901,-3.8350818576678916,-0.7449181423321083,8.937377213498163,0.31477224635260054,-0.3997813416490329,-0.610892452760144,0.06352322084864684,-0.10963080521216172,-0.20389241563648514
1589988396.995901,-3.82,-0.7622411407487124,8.962241140748713,0.3055555555555556,-0.3888888888888889,-0.6,-0.11099287032054732,-0.04849287032054731,-0.04849287032054731
1589988397.005901,-3.8283852691218128,-0.7658073654390934,8.936458923512749,0.3055555555555556,-0.3888888888888889,-0.6,-0.0625,0.0,-0.026203966005665724
1589988397.015901,-3.8363847896638297,-0.76,8.908076051680853,0.3055555555555556,-0.3888888888888889,-0.6,-0.03990493539893454,0.04519012920213092,-0.01730987079786908
1589988397.025901,-3.83,-0.76,8.959237575713347,0.3055555555555556,-0.3888888888888889,-0.6,-0.0480939392833686,0.1009530303583157,0.038453030358315696
1589988397.035901,-3.8272392947103273,-0.7655214105793451,8.987239294710328,0.3055555555555556,-0.38950237895326056,-0.6039876854184159,-0.0732367758186398,0.0797544080604534,-0.0172544080604534
1589988397.045901,-3.824902847248942,-0.7750971527510582,8.98,0.3055555555555556,-0.3911111111111111,-0.6144444444444445,0.09314279530588689,0.15564279530588687,-0.0625
1589988397.055901,-3.824890027339228,-0.7648900273392281,8.913570355409965,0.3055555555555556,-0.3911111111111111,-0.6144444444444445,0.029188012610526837,0.1875,-0.030562670870175612
1589988397.065901,-3.8064484662576685,-0.7554828220858896,8.877103067484663,0.3055555555555556,-0.3911111111111111,-0.6144444444444445,-0.31659125766871166,0.6674501533742332,0.0
1589988397.075901,-3.8043692332040835,-0.7523948722006806,8.91,0.3055555555555556,-0.3911111111111111,-0.6144444444444445,-0.6699038537627602,1.4745192688138007,0.02993590250850677
1589988397.085901,-3.8441979900292793,-0.7590329983382131,8.91,0.3055555555555556,-0.3911111111111111,-0.6144444444444445,-0.7943687188414972,2.096843594207486,0.1129124792276648
1589988397.095901,-3.87,-0.7731437647587991,8.995718823793995,0.31777777777777777,-0.3955555555555556,-0.6144444444444445,-0.7571088215450354,1.514217643090071,-0.03929705948498819
1589988397.105901,-3.851936612471702,-0.7754841531179255,8.962262296768882,0.31777777777777777,-0.3955555555555556,-0.6144444444444445,-0.38710382794813747,0.7459836128833093,-0.09677595698703437
1589988397.115901,-3.8229600300372053,-0.7594400450558078,8.89407993992559,0.31777777777777777,-0.3955555555555556,-0.6144444444444445,-0.25,0.305500563197597,-0.04050009386626617
1589988397.125901,-3.81,-0.7422033099548139,8.921101654977408,0.31777777777777777,-0.3955555555555556,-0.6144444444444445,-0.2775413744351731,0.11069740526155297,-0.00688534360879328
1589988397.135901,-3.803986193414381,-0.7579953978047936,8.936013806585619,0.31376857338736497,-0.3942191540920847,-0.6160035794851605,-0.5751725823202395,0.7631040381208382,-0.12514381860019957
1589988397.145901,-3.783577626485115,-0.7508944066212788,8.959105593378721,0.2977777777777777,-0.3888888888888889,-0.6222222222222222,-0.9253103724469364,1.9522510345748232,-0.3526398344680283
1589988397.155901,-3.8293446803085356,-0.7568851065638215,8.912621278765856,0.2977777777777777,-0.3888888888888889,-0.6222222222222222,-1.5932446718089288,3.6670212596417415,-0.2028723359044644
1589988397.165901,-3.8870728232360845,-0.7685364116180423,8.876341029045106,0.2977777777777777,-0.3888888888888889,-0.6222222222222222,-2.053352572612764,3.9842510442638344,-0.4136175242042548
1589988397.175901,-3.938990159369297,-0.8022475398423242,8.968371309763485,0.2977777777777777,-0.3888888888888889,-0.6222222222222222,-1.8037448021525204,2.329395356275989,-0.37886781003631437
1589988397.185901,-3.8813928495099685,-0.7842618996733124,8.95,0.29427116091146865,-0.3908015889977848,-0.6158465551925693,-0.766889674228315,0.6777528012701126,-0.1875
1589988397.195901,-3.8394268700329843,-0.77,8.941770748013193,0.2855555555555556,-0.3955555555555556,-0.6,-0.26464923737630885,0.23893282491753923,-0.16178358754123037
1589988397.205901,-3.7589291652810113,-0.7503573712619273,8.882857691028626,0.2855555555555556,-0.3955555555555556,-0.6,-0.5223197155355452,0.533479573303318,-0.3459795733033179
1589988397.215901,-3.650971760419039,-0.7158531086312913,8.843175130949671,0.2855555555555556,-0.3955555555555556,-0.6,-1.0610168526531543,1.2896891368708723,-0.8948445684354361
1589988397.225901,-3.600884882497369,-0.7145575587513153,8.908230235005261,0.2855555555555556,-0.3955555555555556,-0.6,-1.6566660820764645,2.1028779375657662,-1.6005287618379516
1589988397.2359009,-3.577346194317783,-0.7263269028411083,8.955307611364434,0.2855555555555556,-0.3955555555555556,-0.6,-2.0612372851631005,2.691345142055419,-2.6671255699754473
1589988397.2459009,-3.5823704560237046,-0.7550863626508636,9.048728409337285,0.3055555555555556,-0.3955555555555556,-0.6077777777777778,-2.7182102334321026,3.296605116716051,-5.512265574185156
1589988397.2559009,-3.5113159110961725,-0.7862631822192345,9.00636863997311,0.3055555555555556,-0.3955555555555556,-0.6077777777777778,-2.28980399983194,3.0006591109617244,-8.083218667282887
1589988397.2659009,-3.4603561274068744,-0.745077559834443,8.934721432427569,0.3055555555555556,-0.3955555555555556,-0.6077777777777778,-1.8283673744826345,2.332818967068562,-9.702397876552096
1589988397.2759008,-3.3924261292064064,-0.6243131185891668,8.88188698938276,0.3055555555555556,-0.3955555555555556,-0.6077777777777778,-1.4509784955911464,1.1063051106712254,-10.83456451322656
1589988397.2859008,-2.326151475996422,-0.47060928337143426,8.882065401053573,0.30469745662569436,-0.39482004218710315,-0.6077777777777778,-1.6814866812444091,1.1461273730245503,-11.403463870390617
1589988397.2959008,-1.692483252161813,-1.0042246297584734,9.048820196799523,0.2982125479022407,-0.38926154899557147,-0.6077777777777778,-0.6913800815028326,0.8334621310008945,-10.673911639002087
1589988397.3059008,-1.658663333415433,-1.249517499568976,8.591120415753306,0.2977777777777777,-0.3888888888888889,-0.6077777777777778,6.415106770769193,4.960898438462107,-4.144377601536908
1589988397.3159008,-1.8094112316886366,-0.9662881059739811,8.366225324156975,0.2977777777777777,-0.3888888888888889,-0.6077777777777778,3.6111963603805743,3.248617883109318,-2.414300662337382
1589988397.3259008,-2.0360438624030137,-0.9528728080010763,9.120109656007534,0.2977777777777777,-0.3888888888888889,-0.6077777777777778,-2.0736842400322915,-1.5575932300309459,-2.0729988899852
1589988397.3359008,-2.16346376137647,-0.9724021789676477,9.338938417591178,0.3020142902485292,-0.3888888888888889,-0.6077777777777778,-1.7943391682721053,-1.6534536305055472,-1.0858923470404571
1589988397.3459008,-2.2584131593926795,-0.9179958876897878,9.213590952917533,0.31222222222222223,-0.3888888888888889,-0.6077777777777778,1.0373200864282146,0.34238177108139817,0.09251028077553058
1589988397.3559008,-2.336371408988999,-0.8936339346909379,9.159994656320064,0.31222222222222223,-0.3888888888888889,-0.6077777777777778,-0.028515357271470476,-0.35802437763553785,0.15341516327265547
1589988397.3659008,-2.363096142406077,-0.8842259643984808,9.12577403560152,0.31222222222222223,-0.3888888888888889,-0.6077777777777778,-0.5457631675284857,-0.4858772250949526,0.02902633505697158
1589988397.3759007,-2.34,-0.8835727475571286,9.030018465799799,0.31222222222222223,-0.3888888888888889,-0.6077777777777778,-0.07596705008848198,0.25661811379549126,-0.2879258194198661
1589988397.3859007,-2.3371210025929128,-0.8671210025929127,8.815528522039758,0.31398160952655335,-0.38808916738692023,-0.6087374435801401,0.6155250648228177,1.017515665514261,-0.6169592696629214
1589988397.3959007,-2.323300681431005,-0.8533006814310051,8.675776192504259,0.3244444444444444,-0.38333333333333336,-0.6144444444444445,0.14108416737649063,0.7138987968483816,-1.4001743505110733
1589988397.4059007,-2.382473290971301,-0.89,8.70629006354305,0.3244444444444444,-0.38333333333333336,-0.6144444444444445,-0.32818064380978984,0.24227096571468473,-2.7963742057118917
1589988397.4159007,-2.4286324672101416,-0.8842450218599057,8.678774890700472,0.3244444444444444,-0.38333333333333336,-0.6144444444444445,-0.10612554649764216,0.125,-3.769764600316921
1589988397.4259007,-2.4510491773598573,-0.873147532079571,8.779376966075995,0.3244444444444444,-0.38333333333333336,-0.6144444444444445,0.2762294339964243,0.14467207549731823,-4.607991320976758
1589988397.4359007,-2.465069944891903,-0.8983100183693655,9.039294898968489,0.32388111723423296,-0.38399054841191343,-0.615664986733236,0.5105623851914654,0.3125,-6.199811007489049
1589988397.4459007,-2.5269186272393696,-0.88,9.13308137276063,0.31777777777777777,-0.3911111111111111,-0.6288888888888889,0.8195863911072739,0.463844970861213,-8.292879883444852
1589988397.4559007,-2.5031441462835433,-0.8830713211430381,9.083144146283542,0.31777777777777777,-0.3911111111111111,-0.6288888888888889,1.1107169714240481,0.8075872714319638,-10.128547257183566
1589988397.4659007,-2.436947247855121,-0.8967788991420483,9.0,0.31777777777777777,-0.3911111111111111,-0.6288888888888889,0.8315797009054956,1.0010521794567027,-12.365389914204828
1589988397.4759007,-2.47,-0.9083007064176245,8.988104944923371,0.31777777777777777,-0.3911111111111111,-0.6288888888888889,0.6143794151101533,1.1993440942289273,-14.154805735153257
1589988397.4859006,-2.47,-0.9020233177681992,8.944163224377395,0.31777777777777777,-0.3911111111111111,-0.6288888888888889,0.5751457360512452,1.4739798476412835,-15.88108761374521
1589988397.4959006,-2.422653021942769,-0.9144217032379486,8.792040934171693,0.3244444444444444,-0.3955555555555556,-0.6,0.5293372257153857,1.9375,-19.526356452371786
1589988397.5059006,-2.449563711022713,-0.9592728517045211,8.711308866931862,0.3244444444444444,-0.3955555555555556,-0.6,0.19295361221609142,1.9375,-22.32955323153257
1589988397.5159006,-2.4653361717225475,-0.94,8.676290580095795,0.3244444444444444,-0.3955555555555556,-0.6,0.40835107326592157,1.7988069895334398,-26.239422565194253
1589988397.5259006,-2.5174207912009936,-0.94,8.765578499201702,0.3244444444444444,-0.3955555555555556,-0.6,0.733879945006209,1.752302864999113,-28.7506452900479
1589988397.5359006,-2.5304613110513454,-0.9304613110513458,8.99107639245314,0.3249740978737673,-0.3955555555555556,-0.6003417118898857,1.2548053234515182,2.189422129380607,-32.17978068734731
1589988397.5459006,-2.5562941140241024,-0.9562941140241022,9.051352932722907,0.3546339827684138,-0.3955555555555556,-0.6194771214993351,1.5238970210843992,2.2970588084337598,-35.24742604036215
1589988397.5559006,-2.636816436093331,-0.9931835639066694,9.047265744373323,0.3588888888888889,-0.3955555555555556,-0.6222222222222222,2.019897274416684,2.769897274416684,-39.69207232087549
1589988397.5659006,-2.6182240953349805,-1.0102959841108365,8.980591968221674,0.3588888888888889,-0.3955555555555556,-0.6222222222222222,2.1102007944581698,2.8842495034636437,-42.79479424017827
1589988397.5759006,-2.561172542901716,-1.021172542901716,8.997654914196568,0.3588888888888889,-0.3955555555555556,-0.6222222222222222,1.6176716068642745,3.1997139885595423,-46.46151066042642
1589988397.5859005,-2.5873460218408737,-1.0473460218408737,8.945307956318253,0.3588888888888889,-0.3955555555555556,-0.6222222222222222,1.4540873634945397,3.472354394175767,-49.78772360894436
1589988397.5959005,-2.543088440950957,-1.0438231180980855,8.88078458793461,0.3644444444444445,-0.38333333333333336,-0.6288888888888889,1.028798162704345,3.74509632540869,-54.738944881130344
1589988397.6059005,-2.541384786782658,-1.0971282622608862,8.809606513854979,0.3644444444444445,-0.38333333333333336,-0.6288888888888889,1.139850546376846,4.026603278261076,-58.44178005072653
1589988397.6159005,-2.61,-1.1311503819404858,8.694867175920647,0.3644444444444445,-0.38333333333333336,-0.6288888888888889,1.3268797742560712,4.324114981188006,-61.724553927716336
1589988397.6259005,-2.61,-1.1789704708699122,8.758627294493216,0.3644444444444445,-0.38333333333333336,-0.6288888888888889,1.9246308858739027,4.373927573822825,-64.56387170790104
1589988397.6359005,-2.646073412558892,-1.1944293650235567,8.80328809507067,0.3644444444444445,-0.38333333333333336,-0.6288888888888889,2.3433258912875328,4.555367062794459,-67.10504711342381
1589988397.6459005,-2.640363427036362,-1.2510902811090856,8.998909718890914,0.3955555555555556,-0.3644444444444445,-0.6444444444444445,2.821585675909047,4.696585675909048,-71.49765662477213
1589988397.6559005,-2.64841158975343,-1.2752347692602897,8.974765230739711,0.3955555555555556,-0.3644444444444445,-0.6444444444444445,3.022789743835748,4.897789743835748,-74.2139115417826
1589988397.6659005,-2.6675359034770474,-1.3086243378303346,8.88369614478443,0.3955555555555556,-0.3644444444444445,-0.6444444444444445,3.2268990950973184,5.538501508171136,-78.22921387517445
1589988397.6759005,-2.654947401593709,-1.352684094422018,8.902578897609436,0.3955555555555556,-0.3644444444444445,-0.6444444444444445,3.1088818899410238,5.735196850098294,-80.0388110209043
1589988397.6859004,-2.668913156526261,-1.4172828913156525,8.938369734789392,0.3955555555555556,-0.3644444444444445,-0.6444444444444445,2.4714638585543423,5.8125,-83.46876625065002
1589988397.6959004,-2.687462953775803,-1.4723888613274088,8.896342615560494,0.41301850933135853,-0.34698149066864153,-0.6619073982202474,2.3829282694506158,5.976215191648152,-86.0261561441729
1589988397.7059004,-2.68,-1.49905169081027,8.81094830918973,0.4155555555555556,-0.34444444444444444,-0.6644444444444444,2.353350351351966,6.176675175675983,-88.82719367566462
1589988397.7159004,-2.6813148788927337,-1.59,8.729204152249135,0.4155555555555556,-0.34444444444444444,-0.6644444444444444,2.3075259515570936,6.149653979238754,-90.90938581314879
1589988397.7259004,-2.6838879756363445,-1.5952388780259903,8.789126853662333,0.4155555555555556,-0.34444444444444444,-0.6644444444444444,2.7420716461040646,6.334328658441626,-92.5387149383122
1589988397.7359004,-2.6330840442283403,-1.6387851049471371,8.781869149175476,0.4155555555555556,-0.34444444444444444,-0.6644444444444444,3.1956781765326783,6.5157712706130715,-93.89953452959803
1589988397.7459004,-2.66,-1.684375337908089,8.85125015595758,0.4622222222222222,-0.31777777777777777,-0.6733333333333333,3.546875649823248,6.484375649823248,-96.07812954876273
1589988397.7559004,-2.6577060798209624,-1.7938232002983963,8.893118239462888,0.4622222222222222,-0.31777777777777777,-0.6733333333333333,3.7643370011189856,6.720953002610966,-97.61469600895188
1589988397.7659004,-2.6254529932326913,-1.84,8.81454700676731,0.4622222222222222,-0.31777777777777777,-0.6733333333333333,3.899608276939094,7.153418792295679,-99.30313378448724
1589988397.7759004,-2.5996501994476833,-1.84104940165695,8.841224301933108,0.4622222222222222,-0.31777777777777777,-0.6733333333333333,3.676568732740104,7.31140687327401,-101.0317006750537
1589988397.7859004,-2.587393153026783,-1.8778205409196511,8.88412396440626,0.4622222222222222,-0.31777777777777777,-0.6733333333333333,3.2935360320869678,7.273103603208697,-102.1424955069478
1589988397.7959003,-2.5238437855847495,-1.9561562144152502,8.874902365990469,0.4895203820074133,-0.2943793551047568,-0.6881523343595799,3.1502440850238287,7.425488170047657,-103.95317310530977
1589988397.8059003,-2.507414273262612,-1.9355143604243288,8.837757180212165,0.5011111111111111,-0.28444444444444444,-0.6944444444444444,2.8631255447607304,7.546339207891324,-106.05937227619634
1589988397.8159003,-2.451470273996209,-2.0344108219886263,8.748529726003792,0.5011111111111111,-0.28444444444444444,-0.6944444444444444,2.465067637428916,7.402567637428916,-108.58452739962088
1589988397.8259003,-2.4659259003963467,-2.07777770118904,8.734074099603653,0.5011111111111111,-0.28444444444444444,-0.6944444444444444,2.736110632431501,7.673610632431501,-110.03009003963467
1589988397.8359003,-2.4421565244184253,-2.1178434755815747,8.757843475581574,0.5011111111111111,-0.28444444444444444,-0.6944444444444444,3.334565167154522,7.982028963179787,-111.82967377907872
1589988397.8459003,-2.4,-2.152307801485547,8.823356673132421,0.5155555555555555,-0.21333333333333332,-0.7244444444444444,3.5904722761035153,8.215472276103515,-113.72334058759522
1589988397.8559003,-2.3960987938985454,-2.257022170982618,8.846098793898545,0.5155555555555555,-0.21333333333333332,-0.7244444444444444,3.822253015253636,8.452129522880455,-115.09753015253636
1589988397.8659003,-2.358902092940759,-2.3239762327066336,8.808902092940759,0.5155555555555555,-0.21333333333333332,-0.7244444444444444,3.9152447676481024,8.591617151472153,-116.02744767648102
1589988397.8759003,-2.3407631573564602,-2.3530526294258425,8.850763157356461,0.5155555555555555,-0.21333333333333332,-0.7244444444444444,3.802960533044243,9.0625,-117.65312493607969
1589988397.8859003,-2.3493423878582096,-2.3873695514328377,8.85934238785821,0.5155555555555555,-0.21333333333333332,-0.7244444444444444,3.6957201517723823,9.0625,-118.67190855816237
1589988397.8959002,-2.3098162366268093,-2.5083027061044683,8.82,0.52,-0.18666666666666668,-0.7444444444444445,3.3325676526117056,9.123851478917558,-119.99168895531781
1589988397.9059002,-2.2569242779078844,-2.5030757220921154,8.810772833723654,0.52,-0.18666666666666668,-0.7444444444444445,3.113466042154567,8.820189305230288,-120.60479117876659
1589988397.9159002,-2.211194415088204,-2.551194415088204,8.673583245264613,0.52,-0.18666666666666668,-0.7444444444444445,2.9375,8.944965094301276,-121.29479056580766
1589988397.9259002,-2.2197187220551178,-2.5597187220551176,8.699156166165352,0.52,-0.18666666666666668,-0.7444444444444445,2.9375,8.998242012844484,-121.6144520770669
1589988397.9359002,-2.1680434689781802,-2.66391306204364,8.7,0.52,-0.18666666666666668,-0.7444444444444445,3.2622283188863745,9.108242772962125,-121.89560693240531
1589988397.9459002,-2.1667051458008233,-2.7269360206057645,8.767051458008234,0.53490032400183,-0.16506119686401324,-0.7645598818469149,3.0610570324691198,9.460257290041174,-122.10512864502059
1589988397.9559002,-2.144217595134519,-2.7654694429192888,8.779374076107615,0.5422222222222223,-0.15444444444444444,-0.7744444444444445,3.098640030409258,9.81836803649111,-122.3164120243274
1589988397.9659002,-2.105665912518854,-2.815835218702866,8.709830693815988,0.5422222222222223,-0.15444444444444444,-0.7744444444444445,3.3395880467571644,10.223970116892911,-122.39270597662141
1589988397.9759002,-2.0296583239005574,-2.8006833521988845,8.703416760994424,0.5422222222222223,-0.15444444444444444,-0.7744444444444445,3.1576033412987883,10.25854190248606,-122.18536452437849
1589988397.9859002,-2.0208663480484637,-2.818267303903073,8.791336519515365,0.5422222222222223,-0.15444444444444444,-0.7744444444444445,2.3883054542405566,10.478341298788413,-122.1304146753029
1589988397.9959002,-2.0096396576948514,-2.8903603423051485,8.834839168687497,0.5544444444444444,-0.14888888888888888,-0.7388888888888889,1.990749694370403,10.534749083111208,-121.89824663807444
1589988398.0059001,-1.9507982443834297,-2.94920175561657,8.691938593502615,0.5544444444444444,-0.14888888888888888,-0.7388888888888889,1.938212718199491,10.377138154598473,-121.3203399001944
1589988398.0159001,-1.9350012688055103,-2.96499873119449,8.607506978430306,0.5544444444444444,-0.14888888888888888,-0.7388888888888889,1.5156606851549754,10.281257930034439,-120.32820826536161
1589988398.0259001,-1.9,-3.010701264164033,8.679766245278655,0.5544444444444444,-0.14888888888888888,-0.7388888888888889,1.0741877360672165,9.3125,-118.95909292376474
1589988398.0359,-1.9,-3.034949510521853,8.671683496492715,0.5544444444444444,-0.14888888888888888,-0.7388888888888889,1.478325175364218,9.3125,-117.54461188622524
1589988398.0459,-1.812883728900694,-3.072883728900694,8.776395338874131,0.5788888888888889,-0.14666666666666667,-0.7822222222222223,1.9555233056293377,9.026453388741325,-115.05232520777997
1589988398.0559,-1.8416339645274613,-3.101633964527461,8.740457544340673,0.5788888888888889,-0.14666666666666667,-0.7822222222222223,2.1352122782966325,8.667075443406734,-113.70465791277526
1589988398.0659,-1.85,-3.215484505498049,8.634104995001774,0.5788888888888889,-0.14666666666666667,-0.7822222222222223,2.3673031343716744,8.322762487504434,-110.61545298442488
1589988398.0759,-1.7703953807007242,-3.2399011548248193,8.729505774124096,0.5788888888888889,-0.14666666666666667,-0.7822222222222223,2.5615733264826774,7.877162238207085,-108.0745467557252
1589988398.0859,-1.7945819673740209,-3.2727759564986942,8.779163934748041,0.5788888888888889,-0.14666666666666667,-0.7822222222222223,2.357650271883159,7.618937839853949,-105.75794055868553
1589988398.0959,-1.7728138492195284,-3.3071861507804714,8.749220773829293,0.5320682958780767,-0.1504425209417322,-0.7369119709214362,2.4399350817834606,7.5625,-103.12608197027565
1589988398.1059,-1.7506526568174605,-3.3293473431825396,8.795431402277776,0.51,-0.15222222222222226,-0.7155555555555555,2.03263284087303,6.62776568174606,-99.32079704523818
1589988398.1159,-1.726829897900212,-3.353170102099788,8.660979387401271,0.51,-0.15222222222222226,-0.7155555555555555,1.9034579079175495,6.321144769793874,-96.51836351377383
1589988398.1259,-1.667378380738886,-3.307378380738886,8.663851349384261,0.51,-0.15222222222222226,-0.7155555555555555,2.1490709336516347,5.975929066348366,-92.51596298291071
1589988398.1359,-1.6358737367276448,-3.332168351029807,8.694126263272354,0.51,-0.15222222222222226,-0.7155555555555555,2.0869739030318537,5.6861847575796345,-88.99645404247154
1589988398.1459,-1.6,-3.4073887852302858,8.692055386428361,0.4977777777777778,-0.027777777777777776,-0.6266666666666667,2.134722085829323,5.502430521457331,-84.66666871256015
1589988398.1559,-1.6,-3.5639078856918394,8.947428655602474,0.4977777777777778,-0.027777777777777776,-0.6266666666666667,2.340668270647157,5.553917067661789,-81.57747594029264
1589988398.1659,-1.4870878987750706,-3.3924038228563735,8.36898344326289,0.4977777777777778,-0.027777777777777776,-0.6266666666666667,3.4335509489837124,5.209649683672096,-77.1223381343384
1589988398.1759,-1.6391568321672427,-3.4302600522633395,8.849353873387845,0.4977777777777778,-0.027777777777777776,-0.6266666666666667,2.1911444723088596,5.6586879899688105,-73.47197562800304
1589988398.1859,-1.6047493156855273,-3.58829700980562,9.282185301964589,0.4977777777777778,-0.027777777777777776,-0.6266666666666667,-0.06450963237587048,7.60371262257025,-70.47682209556149
1589988398.1959,-1.3801631692170313,-3.315339935868815,7.741604497300807,0.5227551153865234,0.03300041040350331,-0.6166757316231684,7.648006555181231,-0.023176523115639114,-66.53337459918009
1589988398.2059,-1.4286715398913354,-3.3625959751215326,9.246721475550473,0.5311111111111111,0.05333333333333334,-0.6133333333333333,1.538315207678009,2.313718678510152,-63.193022590792104
1589988398.2159,-1.557880615640599,-3.633472684414864,9.75119384359401,0.5311111111111111,0.05333333333333334,-0.6133333333333333,-0.13669058513588483,2.719837597060455,-58.87450169855796
1589988398.2259,-1.2331139382924403,-3.086719892682505,7.961471720974512,0.5311111111111111,0.05333333333333334,-0.6133333333333333,2.6967253018304556,4.467219211129863,-54.26126184603401
1589988398.2359,-1.31969306122449,-3.2727450340136057,8.856171972789117,0.5311111111111111,0.05333333333333334,-0.6133333333333333,0.7018333333333335,2.1922959183673467,-50.61834013605442
1589988398.2459,-1.4493102802571625,-3.528620560514325,9.266522897030981,0.5459961578206382,0.09798847346191457,-0.6025830218208971,0.9317523354763539,2.3532681064436263,-47.05495911616004
1589988398.2559,-1.4316425032115985,-3.6309634795375296,8.992640851532391,0.5511111111111111,0.11333333333333333,-0.5988888888888889,1.9345980913929162,2.345980913929161,-41.61226830611121
1589988398.2659,-1.2930897412369242,-3.315371077261883,8.207508533675902,0.5511111111111111,0.11333333333333333,-0.5988888888888889,1.8864894934850431,1.8648949348504313,-38.292775050467974
1589988398.2759,-1.5054218762937817,-3.7208437525875633,9.243374182330049,0.5511111111111111,0.11333333333333333,-0.5988888888888889,2.1829821147636004,2.0384046120725348,-32.625005175126276
1589988398.2858999,-1.3734492009605035,-3.456898401921007,8.764104992961828,0.5511111111111111,0.11333333333333333,-0.5988888888888889,2.0527459220004967,1.3438115840026497,-29.021803842013746
1589988398.2958999,-1.3508208955223882,-3.4157462686567164,8.57134328358209,0.5455555555555556,0.15777777777777774,-0.6133333333333333,1.672108208955224,1.3031716417910448,-21.725746268656717
1589988398.3058999,-1.36,-3.48,8.81,0.5455555555555556,0.15777777777777774,-0.6133333333333333,1.5,0.5,-16.5625
1589988398.3158998,-1.36,-3.5516218221580034,8.873663841918226,0.5455555555555556,0.15777777777777774,-0.6133333333333333,0.753939352520795,0.2513131175069317,-12.235348244620612
1589988398.3258998,-1.416692402717727,-3.6644873378628784,9.192359481161212,0.5455555555555556,0.15777777777777774,-0.6133333333333333,0.6215545861642989,0.12844541383570104,-6.04630558987029
1589988398.3358998,-1.2925674767073287,-3.4597363365670923,8.611067140524446,0.5455555555555556,0.15777777777777774,-0.6133333333333333,0.3860640188262415,-0.27322663528959756,-2.9225908894438573
1589988398.3458998,-1.3285342019543975,-3.5183061889250813,8.820423452768729,0.5601990589938473,0.18275787187839304,-0.6202243937748824,0.5407166123778502,-0.7907166123778502,2.079193811074919
1589988398.3558998,-1.2991890535612727,-3.4544592017664177,8.767161687464455,0.5644444444444444,0.19,-0.6222222222222222,0.3209452678063631,-0.9130068415242046,5.114869442307048
1589988398.3658998,-1.3141442118895434,-3.5114930860174622,8.807902410494213,0.5644444444444444,0.19,-0.6222222222222222,0.6084304632994946,-1.034186092659899,9.14471059447717
1589988398.3758998,-1.2853291163570917,-3.4542766779080534,8.636645581785459,0.5644444444444444,0.19,-0.6222222222222222,0.19161395446364604,-1.222038870153244,11.652542854147374
1589988398.3858998,-1.2921605985339553,-3.4643211970679104,8.683667232083359,0.5644444444444444,0.19,-0.6222222222222222,0.19660598533955292,-1.3929014963348882,14.514435163869873
1589988398.3958998,-1.3463757687824096,-3.542438396912811,8.840626281304017,0.5698334472270237,0.18528462256524325,-0.630305726396091,0.03397716766491138,-1.5511742774450294,17.343397013305463
1589988398.4058998,-1.3239018354299856,-3.5146822025159823,8.714046607547948,0.5733333333333334,0.18222222222222226,-0.6355555555555555,-0.01463188286244585,-1.9707362342751082,21.093021757063312
1589988398.4158998,-1.283546089607937,-3.4917730448039688,8.654432612009922,0.5733333333333334,0.18222222222222226,-0.6355555555555555,-0.7404700548387831,-2.0569592349875987,23.647828634491546
1589988398.4258997,-1.28,-3.507721418756841,8.587975034351055,0.5733333333333334,0.18222222222222226,-0.6355555555555555,-0.8125,-2.2840177344605137,26.36707451268078
1589988398.4358997,-1.3086246257846452,-3.4956876871076776,8.644405408015452,0.5733333333333334,0.18222222222222226,-0.6355555555555555,-0.9019519555770159,-2.4466779333655237,28.387087155963304
1589988398.4458997,-1.2870012729587197,-3.4075031823967996,8.63700127295872,0.660413307470045,0.18680537875573333,-0.6474717625426846,-0.8859394889979997,-2.4484394889979995,31.124920440080015
1589988398.4558997,-1.3475406162464987,-3.4744257703081236,8.832621848739496,0.6788888888888889,0.18777777777777774,-0.65,-1.297128851540616,-2.806862745098039,33.40931372549019
1589988398.4658997,-1.2964744022693504,-3.4264744022693505,8.671482507091719,0.6788888888888889,0.18777777777777774,-0.65,-1.2261118803187896,-3.02388811968121,35.78480430230987
1589988398.4758997,-1.3372770140465557,-3.385452708265762,8.636364861156158,0.6788888888888889,0.18777777777777774,-0.65,-1.2386401911129963,-3.2670607644519847,38.20468707118086
1589988398.4858997,-1.35,-3.3607991579064,8.664001052617,0.6788888888888889,0.18777777777777774,-0.65,-1.1899973684575005,-3.102490789601252,40.00506052547749
1589988398.4958997,-1.362283640424344,-3.3487740288745313,8.733870144372656,0.7578551487596713,0.1899225403915521,-0.6780768923985004,-1.2127402887453138,-2.9408052165589855,41.949668979819734
1589988398.5058997,-1.3559795986622074,-3.2975260869565215,8.7408254180602,1.1288888888888888,0.2,-0.81,-1.3582483277591972,-3.3389172240802676,45.79638586956522
1589988398.5158997,-1.3710971748159724,-3.3079467039519677,8.749043878767939,1.1288888888888888,0.2,-0.81,-1.8065242422996257,-3.589047785499856,47.99833449849899
1589988398.5258996,-1.3951147018137102,-3.3453441054411313,8.718394174608054,1.1288888888888888,0.2,-0.81,-2.0625,-3.6875,49.87027479442054
1589988398.5358996,-1.426438290379382,-3.386438290379382,8.718739554986394,1.1288888888888888,0.2,-0.81,-2.0294521370257725,-3.6875,52.02448375220106
1589988398.5458996,-1.4686028289638522,-3.4162009429879507,8.755196228048197,1.1640275658206096,-0.20512827521277965,-0.9622676000374564,-1.883732318975924,-3.9587912557228435,53.673861979819144
1589988398.5558996,-1.513919604736715,-3.426783920947343,8.780703525684059,1.1855555555555557,-0.4533333333333333,-1.0555555555555556,-1.6429019763164254,-4.252198517762681,54.59139456512983
1589988398.5658996,-1.5083845779308604,-3.3597498782752964,8.762173011379007,1.1855555555555557,-0.4533333333333333,-1.0555555555555556,-1.4274036120678772,-4.346274096983031,54.609855418101816
1589988398.5758996,-1.4964769551698351,-3.306476955169835,8.762384775849176,1.1855555555555557,-0.4533333333333333,-1.0555555555555556,-1.150576120754123,-4.294038060377061,53.70884254339355
1589988398.5858996,-1.5,-3.282969009237828,8.766484504618914,1.1855555555555557,-0.4533333333333333,-1.0555555555555556,-1.0625,-4.081056307736425,52.21436600028676
1589988398.5958996,-1.5167456475039276,-3.2532543524960724,8.751627176248036,0.7594718579556183,-0.08865034324779747,-0.7876251954927129,-1.010169851550226,-3.843009554650678,50.2745859918561
1589988398.6058996,-1.551033016981966,-3.312066033963932,8.80430777971844,0.6766666666666666,-0.017777777777777778,-0.7355555555555555,-1.1939563561372868,-3.8125,48.35137097283307
1589988398.6158996,-1.5525592124036907,-3.307677637211072,8.70838818605536,0.6766666666666666,-0.017777777777777778,-0.7355555555555555,-1.3895147674308,-3.6729852325692,46.29383263578427
1589988398.6258996,-1.5282032342249976,-3.285468822816665,8.735390297325006,0.6766666666666666,-0.017777777777777778,-0.7355555555555555,-1.3920900713020785,-3.3979503565103926,44.387702139062355
1589988398.6358995,-1.5497801583911144,-3.2452564818770333,8.725256481877032,0.6766666666666666,-0.017777777777777778,-0.7355555555555555,-1.4680629949722324,-3.3435209983240775,42.75824406033321
1589988398.6458995,-1.5702302033751623,-3.2783885763738643,8.763273474686283,0.6457289773546805,0.033242271263041495,-0.7214436270974566,-1.4709081566421462,-3.1612856988316747,40.49536726525314
1589988398.6558995,-1.6126227257979984,-3.1846142903491477,8.69716688711972,0.6133333333333333,0.08666666666666667,-0.7066666666666667,-1.4689691532107116,-3.0314691532107116,37.996931855050036
1589988398.6658995,-1.6364012483994876,-3.27722871318822,8.733216229193342,0.6133333333333333,0.08666666666666667,-0.7066666666666667,-1.2199453825224071,-2.862460987516005,35.80215669014085
1589988398.6758995,-1.5269480576940093,-3.3670657463941245,8.624553579329262,0.6133333333333333,0.08666666666666667,-0.7066666666666667,-0.7975345102203345,-2.617517255110167,33.00190248650562
1589988398.6858995,-1.524756299834136,-3.5106626566215704,8.777387742051518,0.6133333333333333,0.08666666666666667,-0.7066666666666667,-0.6875,-2.402656072020943,30.251950900261786
1589988398.6958995,-1.5239854125843675,-3.520627766891647,8.787270121198926,0.6099610720016773,0.08136739885977856,-0.722082718468523,-0.6333029428840989,-2.258302942884099,27.44489122940707
1589988398.7058995,-1.4714251567533863,-3.4039952194547407,8.680864655142551,0.6055555555555555,0.07444444444444444,-0.7422222222222222,-0.23744024318425883,-1.9320959053590605,23.485389891571693
1589988398.7158995,-1.458370576203157,-3.415111728609471,8.754592644050788,0.6055555555555555,0.07444444444444444,-0.7422222222222222,-0.060652329126625715,-1.385183898730269,17.57218941762186
1589988398.7258995,-1.4969713101430429,-3.389486345903771,8.7204002763329,0.6055555555555555,0.07444444444444444,-0.7422222222222222,-0.2525017270806242,-0.9671448309492847,9.776101775845254
1589988398.7358994,-1.5159010327184852,-3.32,8.743109294466365,0.6055555555555555,0.07444444444444444,-0.7422222222222222,0.1219072724526592,-0.1967781826420223,1.015926189891819
1589988398.7458994,-1.5576395296919185,-3.342583717815151,8.802583717815152,0.5511873460005622,0.013384762944221189,-0.6995640885713813,0.5793458848042863,0.5168458848042863,-10.183807114153893
1589988398.7558994,-10.686227449189312,-10.949298926695594,3.0793811372459468,0.5333333333333333,-0.006666666666666667,-0.6855555555555556,1.191310801552866,1.2204127654715689,-19.63255023978077
1589988398.7658994,-1.093936378466557,-5.4834404567699835,-2.361536704730832,0.5333333333333333,-0.006666666666666667,-0.6855555555555556,-25.747547920065255,74.85117251223491,-38.391863784665574
1589988398.7758994,2.653491616272677,-1.4943286146234194,-1.5854885926333149,0.5333333333333333,-0.006666666666666667,-0.6855555555555556,-43.48773793980209,41.23046660252886,-170.3564071948873
1589988398.7858994,1.154681758919047,-0.5388532653786892,-0.22829797321322745,0.5333333333333333,-0.006666666666666667,-0.6855555555555556,-33.502003822448735,-17.537259615384617,-290.3025105191419
1589988398.7958994,-0.4103052570867067,-0.9050210411637793,0.0014842031059748434,0.5600385932682517,0.07841753359109647,-0.6569871379507592,-13.813355798602952,-34.64848706555871,-308.32158000982633
1589988398.8058994,-0.23658730640753114,-0.844191922259338,0.004730640753112664,0.5811111111111111,0.14555555555555555,-0.6344444444444445,-10.3125,-33.1875,-301.375
1589988398.8158994,-0.05709541846105952,-0.644190836922119,-0.12221994500077829,0.5811111111111111,0.14555555555555555,-0.6344444444444445,-9.673625343745135,-26.110734576869195,-276.55717681471486
1589988398.8258994,3.2937532535137946,-2.954792958213052,6.684991718328522,0.5811111111111111,0.14555555555555555,-0.6344444444444445,-9.200919265534049,-21.545620178884104,-256.45356052718756
1589988398.8358994,2.1111659703759966,-2.4985990315229776,5.070310482339536,0.5811111111111111,0.14555555555555555,-0.6344444444444445,56.22432527060387,54.3146986564755,-247.21771446543866
1589988398.8458993,1.7159503798830096,1.1535648490553352,2.516618705035971,0.533958104544402,0.19316195641617548,-0.6444191189104791,101.09668947085322,167.241658542325,-228.17714146439857
1589988398.8558993,-0.08617087292572734,2.838319804969942,7.269091614261573,0.4655555555555556,0.26222222222222225,-0.6588888888888889,-24.996242762556435,87.73278077125522,-161.27117558245837
1589988398.8658993,-0.6357602074516231,0.11827531374611655,4.556793551385866,0.4655555555555556,0.26222222222222225,-0.6588888888888889,-25.231727193776457,2.328468637620178,-126.1194177043325
1589988398.8758993,1.9237662528619741,-1.9236673178314112,16.174585880227696,0.4655555555555556,0.26222222222222225,-0.6588888888888889,32.52379376982376,24.5883063415044,-116.47769760749469
1589988398.8858993,1.614911684892998,-1.093686647925773,14.441732016054338,0.4655555555555556,0.26222222222222225,-0.6588888888888889,59.97925062153686,26.944508539022767,-108.39777749792822
1589988398.8958993,-0.10323322932917317,0.6131240249609984,3.0236427457098287,0.4612328826486393,0.2728848153926157,-0.647938117524701,48.49414976599064,1.2303773400936038,-95.28254192667707
1589988398.9058993,0.8892945146180656,-1.7971878260483494,9.030461295979755,0.4488888888888889,0.3033333333333333,-0.6166666666666667,-30.414782060958554,-8.123802639465447,-69.55447504828291
1589988398.9158993,0.3886889444290167,-3.0938119041007126,13.210781881576105,0.4488888888888889,0.3033333333333333,-0.6166666666666667,-19.30527592644019,24.37898037582153,-53.866005584868404
1589988398.9258993,0.14685020408860347,-2.8243789387392617,10.682029101839358,0.4488888888888889,0.3033333333333333,-0.6166666666666667,9.109716837736753,15.129979463050567,-48.025667984561
1589988398.9358993,0.19136597860479132,-2.397476570739792,8.330438149766461,0.4488888888888889,0.3033333333333333,-0.6166666666666667,7.882160614735572,1.0014351363567875,-41.44186379388278
1589988398.9458992,-0.11839211251678566,-2.933665276698,10.426987066223761,0.4317161008630371,0.33093245694630946,-0.6197332359569974,-9.907020814191815,4.03449890451622,-30.26916213159941
1589988398.9558992,-0.2147503730058533,-2.4219562722368875,8.201512682199013,0.4177777777777778,0.3533333333333333,-0.6222222222222222,4.521239814070929,4.391405084356708,-19.217993228509123
1589988398.9658992,-0.16,-2.0732099903616477,6.63560386372208,0.4177777777777778,0.3533333333333333,-0.6222222222222222,0.7041641348531194,0.749524630180614,-10.318281701797762
1589988398.9758992,-0.19352887462298346,-2.736813968289106,8.580324580093528,0.4177777777777778,0.3533333333333333,-0.6222222222222222,-2.250057071308005,-0.28457829491684894,-0.8170138216331386
1589988398.9858992,-0.2523556191205205,-2.9331871562959533,8.86912293777572,0.4177777777777778,0.3533333333333333,-0.6222222222222222,2.0715911608887456,-0.406032824365973,7.569134872993171
1589988398.9958992,-0.254056502424436,-2.882971748787782,8.61971748787782,0.42354299946123647,0.3727909565150063,-0.6366352764308689,-1.925140094654627,-0.8344632850381812,16.51299323480735
1589988399.0058992,-0.2743162058972354,-3.0272648235889417,8.765495652973918,0.4266666666666667,0.38333333333333336,-0.6444444444444445,-2.8552371314227885,-1.756195662173973,25.16217397304384
1589988399.0158992,-0.2630550465265713,-2.9148578024227136,8.308254599109928,0.4266666666666667,0.38333333333333336,-0.6444444444444445,-0.696158285537495,-2.398007449011162,33.30739665389466
1589988399.0258992,-0.2557317766497462,-2.956099086294416,8.282075736040609,0.4266666666666667,0.38333333333333336,-0.6444444444444445,-0.7698248730964468,-2.8224124365482233,40.83618654822335
1589988399.0358992,-0.2699636479085642,-3.1994547186284623,8.772121596952138,0.4266666666666667,0.38333333333333336,-0.6444444444444445,-0.9593936026668783,-3.332348797523613,47.530382371616795
1589988399.0458992,-0.2899380903246289,-3.499071354869434,9.437936344154297,0.4266666666666667,0.38333333333333336,-0.6444444444444445,-0.37680569886498927,-3.873323279625367,53.7307822049369
1589988399.0558991,-0.34706538824269095,-3.266523105941528,8.797176988368438,0.4088888888888889,0.4,-0.6488888888888888,-2.7035818138950014,-4.552764460861364,65.97218838415593
1589988399.0658991,-0.3213270921338052,-3.299099668911976,8.514361228450737,0.4088888888888889,0.4,-0.6488888888888888,-1.9928930243178447,-5.211195627354721,73.43541785591962
1589988399.0758991,-0.3226259714859231,-3.291676360080292,8.383856606104278,0.4088888888888889,0.4,-0.6488888888888888,-1.1546753564259613,-5.5,78.52761657831077
1589988399.085899,-0.346744970798183,-3.352785204412719,8.605805321219988,0.4088888888888889,0.4,-0.6488888888888888,-1.117658987670344,-5.66275146009085,83.33829493835172
1589988399.095899,-0.3701998572448251,-3.4905995717344753,8.891399000713776,0.41937495043223094,0.3979027876913316,-0.6522444285827583,-2.198279130977873,-6.023593638472519,87.91561830835118
1589988399.105899,-0.40304588037472977,-3.566532148290496,9.04220193770518,0.43666666666666665,0.3944444444444444,-0.6577777777777778,-3.555618944671311,-6.327408119144847,90.40894487148691
1589988399.115899,-0.21333635081366709,-3.8553925180522515,8.064607481947748,0.43666666666666665,0.3944444444444444,-0.6577777777777778,-22.03557161954485,-7.347693995915876,-24.305821193238046
1589988399.125899,-1.324277583991188,-2.845376353956306,8.029392326051036,0.43666666666666665,0.3944444444444444,-0.6577777777777778,-19.42346704608041,9.120949605287315,-229.04710161556818
1589988399.135899,-1.256801189296333,-3.501610703666997,12.075119127849355,0.43666666666666665,0.3944444444444444,-0.6577777777777778,33.54222993062438,30.752636273538158,-283.8844202180377
1589988399.145899,0.2568719395531343,-3.3869581995654574,9.074525407789345,0.4664439183808773,0.36882215808570507,-0.6882475237179002,53.57868793981256,31.019307163472455,-253.87529591075656
1589988399.155899,-0.4766492189821999,-3.922165053994254,7.272688154288167,0.4844444444444445,0.3533333333333333,-0.7066666666666667,15.172933316270932,14.01258730722235,-231.48220005944322
1589988399.165899,-5.867759456838022,-11.82147611542192,9.396754364694472,0.4844444444444445,0.3533333333333333,-0.7066666666666667,-22.54390837172648,6.509699321047527,-176.89416373666344
1589988399.175899,-7.308470005503577,-13.625738855255916,9.46961199779857,0.4844444444444445,0.3533333333333333,-0.7066666666666667,-20.323868326912493,1.2660291689598235,-26.815621560264177
1589988399.185899,1.3828199297084969,0.39007029150299777,7.908850527186273,0.4844444444444445,0.3533333333333333,-0.7066666666666667,7.238538867066364,-13.934876989869753,82.96603008062849
1589988399.195899,-0.5031843084556546,-1.0406915443456688,4.577632313417408,0.4844444444444445,0.3533333333333333,-0.7066666666666667,34.923419087244156,9.775664797395077,93.35350553028736
1589988399.205899,-0.26793522544421244,-2.4611962066486357,9.357089595672567,0.4044444444444445,0.4388888888888889,-0.6844444444444444,-14.73500034236023,-9.906595569858606,95.88828571673115
1589988399.215899,0.2978086343087088,-2.7854935664961,10.543085101097919,0.4044444444444445,0.4388888888888889,-0.6844444444444444,-10.830716876148841,-12.1853699885737,101.86709473893387
1589988399.225899,5.477038414777986,-10.029308824329965,7.463055943675261,0.4044444444444445,0.4388888888888889,-0.6844444444444444,3.2638362155001905,-5.305640866283184,101.66928836487688
1589988399.235899,6.968415709324072,-13.07011995725354,6.7920528987443225,0.4044444444444445,0.4388888888888889,-0.6844444444444444,-2.1522709056906226,-8.360704982634251,51.47691023243387
1589988399.245899,-1.0324684787429512,-2.69394644026273,10.330973621406999,0.4019703337627687,0.42940479794246506,-0.6815579819824893,-4.296917569536843,0.9040687237322871,-47.81700907094131
1589988399.255899,-1.0795209663982228,-2.1947840877534017,10.1364009997223,0.3977777777777778,0.4133333333333333,-0.6766666666666666,16.508725874757012,14.241491078866982,-66.42676513468481
1589988399.265899,-2.6792280558947223,-6.720046974630308,8.567465065798398,0.3977777777777778,0.4133333333333333,-0.6766666666666666,3.795072115384615,3.9370696818613484,-49.67566625118708
1589988399.275899,-3.7731380265267456,-9.0178705728028,10.590953213817228,0.3977777777777778,0.4133333333333333,-0.6766666666666666,-12.781090584462905,0.2522773648156247,-13.52785672642472
1589988399.285899,1.352386134787119,-3.797269269106369,8.800222339754674,0.3977777777777778,0.4133333333333333,-0.6766666666666666,0.17564688053052357,-5.387652820439797,41.415357564230355
1589988399.295899,1.588694783573807,-3.950140795941018,8.02294181068654,0.4142240544016349,0.42046005320367136,-0.6837933865370047,0.7803214682099249,-1.894835103852862,15.611732995084829
1589988399.305899,-1.4396860048847402,-4.197425474254743,8.80438740004684,0.4311111111111111,0.42777777777777776,-0.6911111111111111,-1.982742396868413,2.4213893489243534,-16.753401125832248
1589988399.315899,-1.4852571807518546,-5.521054834832346,8.37615783147511,0.4311111111111111,0.42777777777777776,-0.6911111111111111,-0.19586200107763085,3.197576884817839,-10.566090375927384
1589988399.325899,0.55,-4.52,8.88,0.4311111111111111,0.42777777777777776,-0.6911111111111111,-1.6875,-2.4375,7.375
1589988399.3358989,0.37292078006666585,-4.544424719990804,8.806725840027587,0.4311111111111111,0.42777777777777776,-0.6911111111111111,-1.4966818750718383,-1.8650456252155145,4.87528256344108
1589988399.3458989,0.062235859056717024,-4.587277812543901,8.678166562368297,0.4311111111111111,0.42777777777777776,-0.6911111111111111,-1.1618920895007725,-0.8606762685023179,0.4895363724601216
1589988399.3558989,-0.08306105733432614,-4.464693968726731,8.46612285927029,0.4211111111111111,0.4133333333333333,-0.6766666666666666,0.09183730454207,0.017856478034251666,0.141581347728965
1589988399.3658988,-0.039363060218522136,-4.514920382527315,8.640477704836108,0.4211111111111111,0.4133333333333333,-0.6766666666666666,0.46725717238716125,-0.03572848283851621,0.061504781591440835
1589988399.3758988,-0.0763226787860577,-4.5052907151442305,8.621031963641826,0.4211111111111111,0.4133333333333333,-0.6766666666666666,0.40161719689002406,0.18105022723858172,0.07903348482572115
1589988399.3858988,-0.07,-4.5021251154425705,8.646034122393429,0.4211111111111111,0.4133333333333333,-0.6766666666666666,0.024431293442862004,0.07507108831964225,0.0
1589988399.3958988,-0.07372500718479288,-4.573237467668432,8.684900028739172,0.41966249720591386,0.4133333333333333,-0.6781152805718639,-0.2818748203801782,0.125,0.034921942357433185
1589988399.4058988,-0.08908878597157899,-4.503644856113684,8.739976645687369,0.4133333333333333,0.4133333333333333,-0.6844444444444444,0.15347543838815658,0.10791473696710605,0.17610982464473737
1589988399.4158988,-0.07664284956315659,-4.499714194757879,8.62992854868947,0.4133333333333333,0.4133333333333333,-0.6844444444444444,0.4165178097697287,-0.0834821902302713,0.0415178097697287
1589988399.4258988,-0.07,-4.426651491008422,8.631617345777373,0.4133333333333333,0.4133333333333333,-0.6844444444444444,0.26067749829273845,-0.11460704529933986,0.01039295470066014
1589988399.4358988,-0.07,-4.470068914512388,8.716505866137762,0.4133333333333333,0.4133333333333333,-0.6844444444444444,-0.5222690523414126,-0.12543071570242376,0.1044538104682825
1589988399.4458988,-0.06913576715414596,-4.499506561304394,8.664814602924876,0.41506179902504137,0.412949229846287,-0.6844444444444444,-0.8780839918475346,-0.23919708942682447,0.17669708942682447
1589988399.4558988,-0.0689929780931134,-4.585011703178144,8.624988296821856,0.43333333333333335,0.4088888888888889,-0.6844444444444444,-0.04391091869948435,-0.050058515890721564,0.09997074205463921
1589988399.4658988,-0.08742903430302176,-4.53585968866662,8.653572585757555,0.43333333333333335,0.4088888888888889,-0.6844444444444444,0.445534267803057,0.11696573219694302,0.15536292878777205
1589988399.4758987,-0.07829127196471183,-4.4317087280352885,8.647310723841203,0.43333333333333335,0.4088888888888889,-0.6844444444444444,0.448179550220551,0.0625,-0.03658977511027551
1589988399.4858987,-0.08297509151679135,-4.458636996657647,8.703512454241604,0.43333333333333335,0.4088888888888889,-0.6844444444444444,0.19937728791978354,0.0625,0.0
1589988399.4958987,-0.07,-4.53,8.692801162885923,0.43333333333333335,0.40973821417847295,-0.6869924203131966,-0.14888727376955205,0.08638727376955205,-0.011943636884776022
1589988399.5058987,-0.07175439861551774,-4.53,8.620877199307758,0.43333333333333335,0.4133333333333333,-0.6977777777777778,-0.22807001730602827,0.17653500865301414,-0.051535008653014136
1589988399.5158987,-0.08596459318540076,-4.5219291863708015,8.621929186370801,0.43333333333333335,0.4133333333333333,-0.6977777777777778,0.1261064629562265,0.012057414817509403,0.0625
1589988399.5258987,-0.08,-4.495477254842868,8.627427294188557,0.43333333333333335,0.4133333333333333,-0.6977777777777778,0.25803970566075646,-0.04434656855358548,0.026193137107170958
1589988399.5358987,-0.08,-4.460364994056289,8.669562007132452,0.43333333333333335,0.4133333333333333,-0.6977777777777778,0.12636872771108545,-0.00045624257036180893,-0.06158751485927638
1589988399.5458987,-0.07382767965610691,-4.52,8.687655359312213,0.43081868430433984,0.4133333333333333,-0.6950345242916031,-0.31429500358221973,-0.11214099928355606,0.04964099928355605
1589988399.5558987,-0.05,-4.53379932450859,8.636550168872853,0.4211111111111111,0.4133333333333333,-0.6844444444444444,-0.41156988818729157,-0.01937711091065472,0.02156144454467264
1589988399.5658987,-0.06146999812739092,-4.551397501404456,8.609927503277067,0.4211111111111111,0.4133333333333333,-0.6844444444444444,0.054218720740483145,0.09834374414809663,0.09834374414809663
1589988399.5758986,-0.07988727609635578,-4.526629092032119,8.60382180358246,0.4211111111111111,0.4133333333333333,-0.6844444444444444,0.5421363495985176,0.1875,0.12429547560222359
1589988399.5858986,-0.06251219975917359,-4.504926801444958,8.692512199759173,0.4211111111111111,0.4133333333333333,-0.6844444444444444,0.4993900120413207,0.21890249698966982,-0.015701248494834907
1589988399.5958986,-0.07,-4.468126309207441,8.70406315460372,0.42359415003560696,0.4133333333333333,-0.6857988293123513,0.07421056745349383,0.2617105674534938,-0.037105283726746915
1589988399.6058986,-0.07276329930145084,-4.513816496507254,8.708946802794197,0.43333333333333335,0.4133333333333333,-0.6911111111111111,-0.1595412412681354,0.010688138097796882,0.010688138097796882
1589988399.6158986,-0.07980638769478775,-4.549031938473939,8.680774449220849,0.43333333333333335,0.4133333333333333,-0.6911111111111111,-0.24757984618484685,-0.12136976927727028,-0.12136976927727028
1589988399.6258986,-0.09,-4.517104229300773,8.611583082796908,0.43333333333333335,0.4133333333333333,-0.6911111111111111,0.125,-0.13320429938949038,0.07070429938949038
1589988399.6358986,-0.08834728285776308,-4.505868207144408,8.643305434284475,0.43333333333333335,0.4133333333333333,-0.6911111111111111,0.0991762946525483,-0.01549422320847102,-0.052170517861019325
1589988399.6458986,-0.07081007727847184,-4.464860463670831,8.682430231835415,0.4327932818143521,0.4133333333333333,-0.6886808792756957,-0.21787789794269377,-0.17737403401910207,0.06756298299044897
1589988399.6558986,-0.07949986533242173,-4.51699919199453,8.708499595997266,0.42700008977838555,0.4133333333333333,-0.6626115151138459,-0.5437449499658151,-0.06875168334472828,0.12187415832763586
1589988399.6658986,-0.06176494278742509,-4.52647011442515,8.598824713937125,0.4266666666666667,0.4133333333333333,-0.6611111111111111,-0.19853089242140676,0.01715636919286442,0.09068726161427115
1589988399.6758986,-0.050280420517245294,-4.5545793692241325,8.518271156422424,0.4266666666666667,0.4133333333333333,-0.6611111111111111,0.049942099407370405,0.07856315705819578,-0.032126314116391545
1589988399.6858985,-0.08,-4.5059246000176785,8.622414699902766,0.4266666666666667,0.4133333333333333,-0.6611111111111111,0.38773562494475383,0.11226437505524618,-0.08679312516573853
1589988399.6958985,-0.07792353757266038,-4.48896176878633,8.71207646242734,0.4266666666666667,0.41229510211966347,-0.663533650609674,0.4115442196582548,0.0689889450854363,0.056011054914563686
1589988399.7058985,-0.06319196389371828,-4.481595981946859,8.726808036106283,0.4266666666666667,0.40492931528019244,-0.6807204865684398,0.22739954867147852,0.11502511283213038,0.00997488716786963
1589988399.7158985,-0.07683868047303796,-4.533161319526962,8.677870763311265,0.4266666666666667,0.4033333333333333,-0.6844444444444444,-0.2302417529564873,-0.0427417529564873,0.0
1589988399.7258985,-0.06,-4.544430171428571,8.58506422857143,0.4266666666666667,0.4033333333333333,-0.6844444444444444,-0.05537714285714286,-0.007122857142857139,-0.017405714285714285
1589988399.7358985,-0.06,-4.521939568121796,8.658060431878205,0.4266666666666667,0.4033333333333333,-0.6844444444444444,0.13507553984775517,-0.17742446015224483,-0.052424460152244834
1589988399.7458985,-0.06,-4.489359950287401,8.690640049712599,0.4266666666666667,0.4033333333333333,-0.6844444444444444,0.17580006214074878,-0.13669993785925122,-0.011699937859251205
1589988399.7558985,-0.07903982177666388,-4.47480089111668,8.673278752436646,0.43333333333333335,0.42777777777777776,-0.6844444444444444,-0.048008911166805904,-0.012002227791701476,0.056498886104149264
1589988399.7658985,-0.07125313283208021,-4.513734335839598,8.618771929824561,0.43333333333333335,0.42777777777777776,-0.6844444444444444,-0.43734335839599,-0.1093358395989975,0.007832080200501253
1589988399.7758985,-0.07129509500662838,-4.546114714980114,8.536475475033141,0.43333333333333335,0.42777777777777776,-0.6844444444444444,-0.26393393725143616,-0.05440565620857269,0.10881131241714538
1589988399.7858984,-0.07870879363676536,-4.523873619089704,8.573543968183827,0.43333333333333335,0.42777777777777776,-0.6844444444444444,0.014079761378700817,-0.00807003977021653,0.01614007954043306
1589988399.7958984,-0.07988377745370984,-4.49,8.650581112731452,0.4332558516358066,0.427700296080251,-0.6843540491306632,0.4992736090856865,0.0632263909143135,0.06177360908568651
1589988399.8058984,-0.07061624464183129,-4.49,8.696918776790843,0.42707749642788756,0.42152194087233197,-0.6771459680547577,0.4413515290114455,0.12114847098855451,0.0038515290114454898
1589988399.8158984,-0.06535365577915271,-4.506969516331271,8.672121934674916,0.4266666666666667,0.4211111111111111,-0.6766666666666666,-0.029039651380295583,-0.04798017430985221,-0.2064405229295566
1589988399.8258984,-0.052849172400967086,-4.52572624139855,8.587122931002417,0.4266666666666667,0.4211111111111111,-0.6766666666666666,-0.11609633624697786,0.0,-0.0625
1589988399.8358984,-0.06756448311156603,-4.502435516888434,8.64217758444217,0.4266666666666667,0.4211111111111111,-0.6766666666666666,-0.047278019447287614,0.03044396110542477,-0.047278019447287614
1589988399.8458984,-0.06040941658137154,-4.509590583418628,8.677952917093142,0.4266666666666667,0.4211111111111111,-0.6766666666666666,-0.00255885363357216,0.11988229273285568,-0.00255885363357216
1589988399.8558984,-0.08659022978886205,-4.496819540422276,8.700458621266828,0.43333333333333335,0.3955555555555556,-0.6844444444444444,0.08094468090193922,0.021311063819612158,-0.08237787236077568
1589988399.8658984,-0.08,-4.519232448162969,8.68768279374318,0.43333333333333335,0.3955555555555556,-0.6844444444444444,-0.20193706802473627,0.024031465987631867,0.019234267006184066
1589988399.8758984,-0.07794344032074785,-4.535886880641495,8.572056559679252,0.43333333333333335,0.3955555555555556,-0.6844444444444444,-0.31073251002337,0.0017674899766299962,0.0625
1589988399.8858984,-0.07,-4.521482536124322,8.582965072248644,0.43333333333333335,0.3955555555555556,-0.6844444444444444,-0.04396829844597255,0.24073414922298628,0.05323414922298628
1589988399.8958983,-0.07,-4.534188300869407,8.608376601738813,0.43333333333333335,0.3955555555555556,-0.6844444444444444,0.11485376086758958,0.1613231195662052,-0.02617688043379479
1589988399.9058983,-0.051567992224831945,-4.49391998056208,8.693728031100672,0.4149013255581652,0.4191075654904925,-0.6967324496278898,0.36030007289220056,-0.047800072892200535,0.11030007289220053
1589988399.9158983,-0.0653621964097149,-4.482318901795143,8.684637803590284,0.4133333333333333,0.4211111111111111,-0.6977777777777778,0.326993136219641,-0.0625,0.07699313621964098
1589988399.9258983,-0.07,-4.5114464639193805,8.589276768040309,0.4133333333333333,0.4211111111111111,-0.6977777777777778,-0.071540399496131,-0.178459600503869,0.115959600503869
1589988399.9358983,-0.07,-4.52654201907504,8.58172899046248,0.4133333333333333,0.4211111111111111,-0.6977777777777778,-0.16588761921900305,-0.08411238078099695,0.021612380780996948
1589988399.9458983,-0.07905590096902482,-4.51188819806195,8.679614910659273,0.4133333333333333,0.4211111111111111,-0.6977777777777778,-0.35729814316921527,0.05069876211281017,-0.11319876211281017
1589988399.9558983,-0.08816407738221224,-4.51,8.706328154764424,0.42966148809775784,0.406597195764956,-0.6805425033042186,-0.06884709816704054,0.011474516361173435,-0.125
1589988399.9658983,-0.06843653306469022,-4.49156346693531,8.684365330646902,0.43333333333333335,0.4033333333333333,-0.6766666666666666,0.0136416582715694,-0.15818499496294164,0.00977166834568612
1589988399.9758983,-0.06089119953946895,-4.499108800460531,8.608911995394688,0.43333333333333335,0.4033333333333333,-0.6766666666666666,-0.22215001439159532,-0.016709991365042837,0.056930002878319064
1589988399.9858983,-0.08519642542560177,-4.526404766099197,8.628005957623996,0.43333333333333335,0.4033333333333333,-0.6766666666666666,-0.1374627648500184,0.1350074470299963,-0.052492552970003686
1589988399.9958982,-0.06504476225556925,-4.553273650325908,8.661592062907385,0.43333333333333335,0.4033333333333333,-0.6766666666666666,0.0724503931711536,0.17699007863423072,-0.010509921365769281
1589988400.0058982,-0.07,-4.527860952500471,8.67786095250047,0.4266666666666667,0.4211111111111111,-0.6766666666666666,0.14728174478676456,-0.04913095312794127,-0.0625
1589988400.0158982,-0.07,-4.50154295036707,8.651542950367071,0.4266666666666667,0.4211111111111111,-0.6766666666666666,0.4214276003430173,0.11535656020581037,-0.0625
1589988400.0258982,-0.05212035302238438,-4.494240706044769,8.598481412089537,0.4266666666666667,0.4211111111111111,-0.6766666666666666,0.11174779361009762,0.04924779361009762,-0.0625
1589988400.0358982,-0.06,-4.513634906759907,8.633634906759907,0.4266666666666667,0.4211111111111111,-0.6766666666666666,0.028422749125874128,0.022718167249417248,-0.0625
1589988400.0458982,-0.06,-4.5289113490676,8.6489113490676,0.4266666666666667,0.4211111111111111,-0.6766666666666666,-0.11479389750874125,0.11819593167249418,-0.0625
1589988400.0558982,-0.06867707660437039,-4.521322923395629,8.68470830641748,0.4093125134579259,0.4105057952613251,-0.6708819489304197,-0.07076827122268506,0.016536542445370103,-0.008268271222685052
1589988400.0658982,-0.06,-4.511485527327338,8.67514472672662,0.4066666666666667,0.4088888888888889,-0.67,-0.009284545795862909,-0.034646362612411274,0.018569091591725817
1589988400.0758982,-0.06,-4.518984320526344,8.60015679473656,0.4066666666666667,0.4088888888888889,-0.67,-0.05615200328965012,0.10595600986895035,0.11230400657930024
1589988400.0858982,-0.06,-4.522524700356333,8.642524700356333,0.4066666666666667,0.4088888888888889,-0.67,-0.10922062277291869,-0.01577937722708131,0.11711031138645935
1589988400.0958982,-0.06,-4.539508422416586,8.659508422416586,0.4066666666666667,0.4088888888888889,-0.67,-0.0030723598963394855,-0.12192764010366051,0.06403617994816974
1589988400.1058981,-0.07363803214109853,-4.511819016070549,8.6636380321411,0.4211111111111111,0.4211111111111111,-0.6766666666666666,-0.005655747795335508,0.0852377008818658,0.1136311495590671
1589988400.1158981,-0.08773706851327248,-4.517737068513272,8.670948274053089,0.4211111111111111,0.4211111111111111,-0.6766666666666666,0.25,0.1662850173119295,0.0554283391039765
1589988400.1258981,-0.07013429860455357,-4.500134298604554,8.600537194418214,0.4211111111111111,0.4211111111111111,-0.6766666666666666,0.25,0.0012590494176896172,0.00041968313922988165
1589988400.135898,-0.07872552123377505,-4.501274478766225,8.6450979150649,0.4211111111111111,0.4211111111111111,-0.6766666666666666,0.03860352313328208,0.16360352313328208,-0.07046549228890597
1589988400.145898,-0.0724024241327846,-4.507597575867215,8.670390303468862,0.4211111111111111,0.4211111111111111,-0.6766666666666666,-0.07995454751028899,0.04504545248971101,-0.10998484917009634
1589988400.155898,-0.07,-4.51,8.68,0.4211111111111111,0.4211111111111111,-0.6766666666666666,-0.12728935814342462,-0.12042128371315074,0.057921283713150744
1589988400.165898,-0.07,-4.51,8.68,0.4211111111111111,0.4211111111111111,-0.6766666666666666,-0.18209674890236252,-0.010806502195274945,-0.051693497804725055
1589988400.175898,-0.07124226916640393,-4.501242269166404,8.592484538332808,0.4211111111111111,0.4211111111111111,-0.6766666666666666,0.04697163541995101,-0.09394327083990202,0.04697163541995101
1589988400.185898,-0.08111306139581029,-4.51,8.61445224558324,0.4211111111111111,0.4211111111111111,-0.6766666666666666,-0.0485867325523715,0.11804336627618575,-0.034673465104743006
1589988400.195898,-0.08911531270271301,-4.51,8.646461250810852,0.4211111111111111,0.4211111111111111,-0.6766666666666666,0.05144140878391269,0.06802929560804366,0.16538281756782539
1589988400.205898,-0.08246297755419521,-4.52507404489161,8.672611067337414,0.43032302743376144,0.4118991947884608,-0.6716419850361302,0.015393609713720023,0.15671278057255994,0.04618082914116006
1589988400.215898,-0.07,-4.5287130529850455,8.684852211940182,0.43333333333333335,0.4088888888888889,-0.67,0.3044565811565343,0.18347829057826714,0.0
1589988400.225898,-0.07,-4.512336105579633,8.619344422318534,0.43333333333333335,0.4088888888888889,-0.67,0.20210065987271095,0.1323003299363555,0.0
1589988400.235898,-0.07090700212533747,-4.509092997874663,8.650907002125338,0.43333333333333335,0.4088888888888889,-0.67,0.11366247343328163,0.1591561835832041,-0.0625
1589988400.245898,-0.07893790568096962,-4.50106209431903,8.65893790568097,0.43333333333333335,0.4088888888888889,-0.67,0.01327617898787982,-0.09180955253030043,-0.0625
1589988400.255898,-0.07087789198136814,-4.53,8.683854756130422,0.4266666666666667,0.4033333333333333,-0.6766666666666666,-0.18201317511644916,0.05701317511644917,-0.05701317511644917
1589988400.265898,-0.07895099511105978,-4.53,8.62734303422258,0.4266666666666667,0.4033333333333333,-0.6766666666666666,-0.13155628055587634,0.0065562805558763496,-0.0065562805558763496
1589988400.275898,-0.08,-4.522364842246213,8.589459368984851,0.4266666666666667,0.4033333333333333,-0.6766666666666666,-0.0772802640388317,0.0,0.0
1589988400.285898,-0.07,-4.481657871677539,8.640828935838769,0.4266666666666667,0.4033333333333333,-0.6766666666666666,-0.005180848992308441,-0.24481915100769155,0.0
1589988400.295898,-0.07,-4.497992405802746,8.648996202901372,0.4266666666666667,0.4033333333333333,-0.6766666666666666,-0.05622626813357998,-0.19377373186642002,0.0
1589988400.305898,-0.05139612159144852,-4.52,8.698603878408552,0.4266666666666667,0.4211111111111111,-0.6844444444444444,0.0029085866488510696,0.18459141335114893,0.05959141335114893
1589988400.315898,-0.07351834596248176,-4.52,8.676481654037518,0.4266666666666667,0.4211111111111111,-0.6844444444444444,0.04899655408850366,0.13850344591149633,0.01350344591149634
1589988400.325898,-0.07,-4.526725946603035,8.588730809058575,0.4266666666666667,0.4211111111111111,-0.6844444444444444,0.17385811084597722,0.18067905542298862,0.0625
1589988400.335898,-0.07,-4.5,8.660885259991405,0.4266666666666667,0.4211111111111111,-0.6844444444444444,0.059733562526858616,0.12223356252685862,0.06526643747314138
1589988400.345898,-0.07,-4.5,8.676558733954897,0.4266666666666667,0.4211111111111111,-0.6844444444444444,0.010753956390949344,0.07325395639094934,0.11424604360905066
1589988400.355898,-0.07,-4.5,8.699156693489392,0.4266666666666667,0.41366128586523604,-0.6908300089409087,0.0,-0.11709400146305779,0.005270665691294807
1589988400.365898,-0.041873425932992446,-4.501248950621995,8.68250629626803,0.4266666666666667,0.4133333333333333,-0.6911111111111111,-0.1796940586125315,-0.0039029706937342592,-0.07030594138746851
1589988400.375898,-0.06588109593222927,-4.5172540639548195,8.586475616271084,0.4266666666666667,0.4133333333333333,-0.6911111111111111,-0.07966210028237809,-0.053918949858810954,-0.17033789971762192
1589988400.3858979,-0.06965691702623239,-4.510343082973767,8.611715414868838,0.4266666666666667,0.4133333333333333,-0.6911111111111111,0.0,-0.06464426858604758,0.0625
1589988400.3958979,-0.061649165680247434,-4.518350834319752,8.651754171598762,0.4266666666666667,0.4133333333333333,-0.6911111111111111,0.0,-0.11469271449845356,0.0625
