time,acc_x,acc_y,acc_z,mag_x,mag_y,mag_z,gyr_x,gyr_y,gyr_z
1589988417.1535394,-3.78,-0.76,8.79,0.3088888888888889,-0.3977777777777778,-0.6044444444444445,-0.125,0.125,0.0
1589988417.1635394,-3.77608666857988,-0.75,8.8204333428994,0.3088888888888889,-0.3977777777777778,-0.6044444444444445,-0.0869583213757478,0.0625,-0.038041678624252194
1589988417.1735394,-3.7937635766607727,-0.7537635766607729,8.912581459964638,0.3088888888888889,-0.39568690185512617,-0.6015172181527322,0.09408941651932307,-0.05511177064915382,-0.14852235412983078
1589988417.1835394,-3.7945010592039248,-0.7490021184078492,9.015987289552903,0.3088888888888889,-0.3922222222222223,-0.5966666666666667,0.14689486007358682,-0.21563162002452893,-0.11876324004905786
1589988417.1935394,-3.7956911930109074,-0.74,9.030161648923649,0.3088888888888889,-0.3922222222222223,-0.5966666666666667,0.0625,-0.15193004368182889,-0.0625
1589988417.2035394,-3.7959033664130732,-0.7359033664130732,9.01228990076078,0.3088888888888889,-0.3922222222222223,-0.5966666666666667,0.0625,-0.07379208016341499,-0.03689604008170749
1589988417.2135394,-3.788673081792859,-0.728673081792859,9.028673081792858,0.3088888888888889,-0.3922222222222223,-0.5966666666666667,0.07079323879463155,-0.008293238794631553,0.0
1589988417.2235394,-3.78,-0.7253664604938845,9.016422359670743,0.3053112485596325,-0.39321601120257127,-0.5980579712391553,0.1138198739710738,-0.0736801260289262,0.0
1589988417.2335393,-3.7826368119630924,-0.75,8.98945275214763,0.2888888888888889,-0.3977777777777778,-0.6044444444444445,0.013059775692013997,-0.09203985046134266,-0.016480074769328668
1589988417.2435393,-3.8003354875708584,-0.7551677437854292,8.882483843218564,0.2888888888888889,-0.3977777777777778,-0.6044444444444445,-0.157298398658932,-0.096895195976796,-0.094798398658932
1589988417.2535393,-3.799696315153385,-0.7548481575766927,8.835759212116537,0.2888888888888889,-0.3977777777777778,-0.6044444444444445,-0.21969901514567103,-0.09090295456298697,-0.06060196970865797
1589988417.2635393,-3.781740950064387,-0.7623885749034197,8.888906674774645,0.2888888888888889,-0.3977777777777778,-0.6044444444444445,-0.1983809379024181,-0.07742859314637288,0.051619062097581915
1589988417.2735393,-3.77,-0.7772510248372317,8.954740776464915,0.29255418910591324,-0.40174851967955416,-0.6062770945529566,-0.03909452616349168,-0.17031890523269833,0.09063781046539668
1589988417.2835393,-3.7736288571950256,-0.7554845712198982,9.02,0.3022222222222222,-0.4122222222222222,-0.6111111111111112,0.30090178734454565,-0.011598212655454354,-0.0680410724067274
1589988417.2935393,-3.783198773788205,-0.73,9.010403678635384,0.3022222222222222,-0.4122222222222222,-0.6111111111111112,0.5,0.24747700852884935,-0.20749233617628313
1589988417.3035393,-3.7976696570542394,-0.7261651714728804,8.997669657054239,0.3022222222222222,-0.4122222222222222,-0.6111111111111112,0.5239676782944975,0.3270646434110049,-0.15412928682200977
1589988417.3135393,-3.806721377786767,-0.72,9.011639311106617,0.3022222222222222,-0.4122222222222222,-0.6111111111111112,0.5010258335018747,0.22950861116729157,0.0
1589988417.3235393,-3.7936706753582152,-0.72,9.018164662320892,0.3022222222222222,-0.4122222222222222,-0.6111111111111112,0.25632516296653546,0.14794172098884517,0.0
1589988417.3335392,-3.791157586080507,-0.74,8.990739311355943,0.2966666666666667,-0.4122222222222222,-0.6044444444444445,-0.04340947801901641,0.014469826006338803,0.055265086996830595
1589988417.3435392,-3.8003646833013436,-0.74,8.916717850287908,0.2966666666666667,-0.4122222222222222,-0.6044444444444445,-0.37727927063339733,0.13183781190019195,0.0
1589988417.3535392,-3.8007765527509925,-0.7492234472490074,8.854595859330686,0.2966666666666667,-0.4122222222222222,-0.6044444444444445,-0.4182844848979013,0.23563793959160523,-0.03843103020419739
1589988417.3635392,-3.780760069867146,-0.7684798602657069,8.913040279468586,0.2966666666666667,-0.4122222222222222,-0.6044444444444445,-0.35599825332133594,0.0625,-0.11074868999100196
1589988417.3735392,-3.788503321693212,-0.7485033216932118,8.957483391533941,0.2974981546148823,-0.41305371017043785,-0.6032803613169425,-0.10629152116514777,0.053145760582573885,0.04379152116514777
1589988417.3835392,-3.7808048741382074,-0.7383902517235851,9.00321949655283,0.3022222222222222,-0.4177777777777778,-0.5966666666666667,0.015091390091390091,0.0,-0.04740860990860991
1589988417.3935392,-3.79,-0.7327739810437159,8.997420063187613,0.3022222222222222,-0.4177777777777778,-0.5966666666666667,0.1875,0.0,0.0717750789845168
1589988417.4035392,-3.7941890018484288,-0.7458109981515711,8.952567005545287,0.3022222222222222,-0.4177777777777778,-0.5966666666666667,0.21368126155268022,0.0,0.026181261552680222
1589988417.4135392,-3.7966270700859477,-0.74,8.986864649570261,0.3022222222222222,-0.4177777777777778,-0.5966666666666667,0.16567675214869682,0.0,0.020338376074348408
1589988417.4235392,-3.791569956509815,-0.74,9.015290130470555,0.3022222222222222,-0.4137656666971403,-0.5957944686056585,-0.009812228186341731,0.0,-0.07231222818634173
1589988417.4335392,-3.79100191617294,-0.7444990419135299,8.95400766469176,0.3022222222222222,-0.3922222222222223,-0.5911111111111111,-0.20309505979781073,-0.11247604783824858,-0.012523952161751423
1589988417.4435391,-3.788142531493701,-0.7459287342531493,8.881501139772046,0.3022222222222222,-0.3922222222222223,-0.5911111111111111,-0.42589082183563287,-0.1736637672465507,0.04866376724655069
1589988417.4535391,-3.7965728091630377,-0.7468543816739247,8.857135954184812,0.3022222222222222,-0.3922222222222223,-0.5911111111111111,-0.4785800572689853,-0.04108005726898527,-0.04108005726898527
1589988417.4635391,-3.7927917275168417,-0.7572082724831583,8.902562773825789,0.3022222222222222,-0.3922222222222223,-0.5911111111111111,-0.385155109059217,0.008724148490130494,-0.026172445470391485
1589988417.473539,-3.8059645734206438,-0.7440354265793565,8.961840580392897,0.3022222222222222,-0.3922222222222223,-0.5911111111111111,-0.138164248362934,0.049889291939511,-0.149667875818533
1589988417.483539,-3.8084920368818107,-0.7492460184409053,9.030753981559094,0.31555555555555553,-0.4122222222222222,-0.6111111111111112,0.01884953897736798,-0.12028761525565801,-0.057787615255658
1589988417.493539,-3.7909132439228834,-0.7404566219614417,9.039543378038557,0.31555555555555553,-0.4122222222222222,-0.6111111111111112,0.23858445096395642,-0.0653538872590109,-0.0028538872590108955
1589988417.503539,-3.7843369706274785,-0.7478315146862605,8.95216848531374,0.31555555555555553,-0.4122222222222222,-0.6111111111111112,0.459340900367385,0.0,-0.04894696678912833
1589988417.513539,-3.7996695362906907,-0.7401652318546544,8.959834768145347,0.31555555555555553,-0.4122222222222222,-0.6111111111111112,0.31559809727477106,0.0,-0.0010326990915903583
1589988417.523539,-3.7821843622069693,-0.7507281207356565,8.95218436220697,0.3136139002604715,-0.4116559060944894,-0.6100593811596072,-0.013652263793559952,-0.11589849080429336,0.0625
1589988417.533539,-3.8078119717305854,-0.7592706572435284,8.977811971730585,0.2908338029061466,-0.4050117110328113,-0.597720161759348,-0.17382482331615717,-0.009116784455895227,0.0625
1589988417.543539,-3.797904687593782,-0.76,8.933237500750254,0.2888888888888889,-0.4044444444444445,-0.5966666666666667,-0.3880957025388632,-0.026191405077726427,-0.11190429746113678
1589988417.553539,-3.7890993892282068,-0.76,8.87540366463076,0.2888888888888889,-0.4044444444444445,-0.5966666666666667,-0.4262423653525819,-0.125,-0.07938645197112715
1589988417.563539,-3.78,-0.7630109261186264,8.939032778355879,0.2888888888888889,-0.4044444444444445,-0.5966666666666667,-0.27486342351716964,-0.1061817117585848,-0.25
1589988417.573539,-3.7811551839229876,-0.7705775919614939,8.962310367845976,0.2893381270811619,-0.4044444444444445,-0.5978860274742649,-0.1658403014439799,-0.06610994975933668,-0.24639005024066332
1589988417.583539,-3.8035729641616856,-0.7728540716766283,8.989281107514943,0.2966666666666667,-0.4044444444444445,-0.6177777777777778,0.25449307803160953,-0.03567589595785395,-0.09817589595785395
1589988417.593539,-3.8028231598938422,-0.7492347398407636,8.94129263957537,0.2966666666666667,-0.4044444444444445,-0.6177777777777778,0.41985525066348517,0.10257237466825742,0.04007237466825741
1589988417.603539,-3.7937131303520455,-0.73,8.901139391056137,0.2966666666666667,-0.4044444444444445,-0.6177777777777778,0.4303788058991437,-0.0071211941008563345,0.023207064700285444
1589988417.613539,-3.7940825460602436,-0.7319724846465854,8.933807392526097,0.2966666666666667,-0.4044444444444445,-0.6177777777777778,0.2878439419176828,-0.1126719709588414,0.0625
1589988417.623539,-3.77808333439292,-0.7373055552023599,8.971138886416519,0.2966666666666667,-0.4044444444444445,-0.6177777777777778,0.2211805599705011,-0.07934027998525055,0.0625
1589988417.633539,-3.7885335357685093,-0.7678003036527642,9.017800303652765,0.28945918053446856,-0.41165193057664257,-0.6260149047860042,-0.10208649638295969,-0.004582700723408051,-0.11125189782977582
1589988417.643539,-3.798241007709138,-0.753517984581723,9.028241007709138,0.2888888888888889,-0.4122222222222222,-0.6266666666666667,-0.1765062981821156,0.05150629818211561,0.029518894546346847
1589988417.653539,-3.7813626132209675,-0.7413626132209677,8.905450452883871,0.2888888888888889,-0.4122222222222222,-0.6266666666666667,-0.16195100210685537,0.0539836673689518,0.008516332631048205
1589988417.663539,-3.7889154196603823,-0.7489154196603821,8.935661678641528,0.2888888888888889,-0.4122222222222222,-0.6266666666666667,-0.020335881367835346,0.006778627122611784,0.055721372877388216
1589988417.673539,-3.7803603234122334,-0.7196396765877665,8.930720646824467,0.28960953571335574,-0.41170175507121837,-0.6266666666666667,-0.17173585071478792,0.06475202132645887,0.05799595734708226
1589988417.683539,-3.7885516756503397,-0.7114483243496601,8.94710335130068,0.3059922401895685,-0.39986980183839804,-0.6266666666666667,0.18663580970236698,0.11594797281462385,-0.0443959456292477
1589988417.693539,-3.804212110940522,-0.7338585927063187,8.910353518234203,0.3088888888888889,-0.3977777777777778,-0.6266666666666667,0.22367430662173748,-0.050441897792754174,0.16338379558550833
1589988417.703539,-3.7794323330106483,-0.7505676669893514,8.871703000968054,0.3088888888888889,-0.3977777777777778,-0.6266666666666667,0.3643562439496612,0.003547918683446273,0.058952081316553724
1589988417.713539,-3.77,-0.7579250448409327,8.93112432738601,0.3075055854495107,-0.399161081217156,-0.6204418011894648,0.13562612102331728,0.010626121023317281,0.03890540923251203
1589988417.7235389,-3.77,-0.7529756678938921,9.005364981591617,0.30420600081815036,-0.40246066584851636,-0.6055936703483432,0.011891697347304803,-0.1131083026526952,0.13170622698952136
1589988417.7335389,-3.775605040045575,-0.7443949599544251,9.052802520022787,0.3022222222222222,-0.4044444444444445,-0.5966666666666667,-0.0625,-0.11743699943031399,0.1349527495727355
1589988417.7435389,-3.7896605341644047,-0.7303394658355953,9.059830267082203,0.3022222222222222,-0.4044444444444445,-0.5966666666666667,-0.0625,0.05825667705505849,0.0031824922087061447
1589988417.7535388,-3.7836551473263005,-0.7173102946526009,8.948275736631503,0.3022222222222222,-0.4044444444444445,-0.5966666666666667,-0.1875,0.09137868315751181,0.022844670789377953
1589988417.7635388,-3.7871218560198443,-0.7357562879603116,8.971365568059532,0.3022222222222222,-0.4044444444444445,-0.5966666666666667,-0.11554640049610593,0.16005800062013242,0.008534800372079453
1589988417.7735388,-3.7819448859439007,-0.751944885943901,8.949351704685366,0.30186205815853684,-0.404948674133604,-0.5976030932322486,0.0625,-0.05844815428353966,-0.11284446285061897
1589988417.7835388,-3.809942168674699,-0.7801156626506024,8.93953734939759,0.2966666666666667,-0.4122222222222222,-0.6111111111111112,0.06286144578313253,-0.0007228915662650603,0.06213855421686747
1589988417.7935388,-3.8182513915737006,-0.7726229126394485,8.86912569578685,0.2966666666666667,-0.4122222222222222,-0.6111111111111112,0.16302373244521043,-0.22005933111302606,-0.11407119733563129
1589988417.8035388,-3.832021794574542,-0.6851304840662596,8.87756524203313,0.2966666666666667,-0.4122222222222222,-0.6111111111111112,0.21114138135353067,-0.35978276270706133,-0.316712072030296
1589988417.8135388,-3.7728392293173365,-0.63,8.86703537590402,0.2966666666666667,-0.4122222222222222,-0.6111111111111112,0.05401926706658444,-0.24073554970006167,-0.08102890059987666
1589988417.8235388,-3.7810325870221613,-0.6382606961772916,8.921358457243777,0.2986171088196383,-0.4122222222222222,-0.6111111111111112,-0.14436100666552726,-0.3620926622229818,0.16813899333447274
1589988417.8335388,-3.783490812559625,-0.7208486457339582,9.028678916587166,0.31555555555555553,-0.4122222222222222,-0.6111111111111112,-0.2718175784976565,-0.19575677133020863,0.013560807167447841
1589988417.8435388,-3.7591780526109146,-0.7657536317235963,9.05671221044366,0.31555555555555553,-0.4122222222222222,-0.6111111111111112,-0.13527434236356498,0.0,0.06763717118178249
1589988417.8535388,-3.750944248135061,-0.823390263054574,9.023776992540244,0.31555555555555553,-0.4122222222222222,-0.6111111111111112,-0.2381968983117393,0.0,0.11909844915586965
1589988417.8635387,-3.7588395711867593,-0.9034812864397217,9.037071656949408,0.31555555555555553,-0.4122222222222222,-0.6111111111111112,-0.4043516080496521,-0.08839571186759451,-0.13984624788414518
1589988417.8735387,-3.7917082001128453,-0.8048753996614633,9.063366560090277,0.31555555555555553,-0.4122222222222222,-0.6111111111111112,-0.28109424957682905,-0.4170820011284559,-0.4274467509873989
1589988417.8835387,-3.7783299356437623,-0.6529979613862573,9.036498980693128,0.2966666666666667,-0.4044444444444445,-0.59,-0.2833248391094056,-0.6177062097773514,-0.0552062097773514
1589988417.8935387,-3.6945009393612342,-0.6027005636167406,9.01135028180837,0.2966666666666667,-0.4044444444444445,-0.59,-0.0737523484030859,-0.5653130871007714,-0.0028130871007714733
1589988417.9035387,-3.168396084185981,-0.37258146219872557,8.323550565863268,0.2966666666666667,-0.4044444444444445,-0.59,0.48992275916135647,2.43340050656321,-1.5422927513216877
1589988417.9135387,-2.702865591745991,-0.3285672041270047,8.188508061905072,0.2966666666666667,-0.4044444444444445,-0.59,-0.502402652766086,6.8777722916531765,-4.456888503960802
1589988417.9235387,-2.73813520219388,-0.3249014059983459,8.098721107386933,0.2966666666666667,-0.4044444444444445,-0.5907079808664277,-5.773239237365603,13.232147521002917,-7.819823814913159
1589988417.9335387,-3.075899316589039,-0.41618900448352414,8.819893135419841,0.2966666666666667,-0.4044444444444445,-0.6038939673142868,-13.190356614286337,26.868232544726418,-12.612422735385017
1589988417.9435387,-2.712026697053557,-1.1065733355038256,9.481746703565033,0.2966666666666667,-0.4044444444444445,-0.6044444444444445,-13.68309797058983,16.873209343968746,-20.623694313310544
1589988417.9535387,-2.074768028650497,-1.0610548591893212,8.70793260621846,0.2966666666666667,-0.4044444444444445,-0.6044444444444445,2.0112933420153034,-4.321331189972327,-23.373768923978513
1589988417.9635386,-1.5760083099816407,-1.2382974200405836,8.94587593004155,0.2966666666666667,-0.4044444444444445,-0.6044444444444445,7.251135375398589,8.713843124939608,-24.719731375012078
1589988417.9735386,-1.740916061070738,-0.9209093939595974,8.653647576505099,0.2983844108125727,-0.403838181804713,-0.605050707084176,3.9999583305553705,8.437249983332222,-24.48290719381292
1589988417.9835386,-1.95,-0.93,8.99,0.31555555555555553,-0.3977777777777778,-0.6111111111111112,2.75,0.9375,-23.0625
1589988417.9935386,-2.0022306643288523,-0.9508922657315411,9.110130527956361,0.31555555555555553,-0.3977777777777778,-0.6111111111111112,0.1058226183518407,0.5784141827391389,-22.57283752191701
1589988418.0035386,-2.0733352331911714,-0.9524985751066213,9.027484326172836,0.31555555555555553,-0.3977777777777778,-0.6111111111111112,-1.2915835478862443,0.21353869813879445,-21.21346745346986
1589988418.0135386,-2.2175536084851277,-0.908111597878718,8.706641687802628,0.31555555555555553,-0.3977777777777778,-0.6111111111111112,1.181396991007609,2.1805251325801245,-19.366684920451924
1589988418.0235386,-2.278369741830655,-0.9094565806102185,8.688369741830655,0.31555555555555553,-0.3977777777777778,-0.6111111111111112,1.7432072576277307,2.2146709694890774,-18.648774598302943
1589988418.0335386,-2.252522281337897,-0.9337834220068454,8.81639482869633,0.3088888888888889,-0.3911111111111111,-0.5966666666666667,0.13288212918092784,1.335032320647938,-18.695382129180928
1589988418.0435386,-2.2667359110779763,-0.9551038666169643,8.908783422006845,0.3088888888888889,-0.3911111111111111,-0.5966666666666667,0.17729972211867567,0.7576036124572164,-18.739799722118676
1589988418.0535386,-2.4117855504587156,-0.9508927752293578,8.96089277522936,0.3088888888888889,-0.3911111111111111,-0.5966666666666667,0.7321387614678899,1.090399225917431,-18.71539922591743
1589988418.0635386,-2.4278188073394498,-0.9589094036697248,8.968909403669725,0.3088888888888889,-0.3911111111111111,-0.5966666666666667,1.1329701834862385,1.340918864678899,-18.965918864678898
1589988418.0735385,-2.5103797998718393,-0.9778621777492975,9.05037979987184,0.3088888888888889,-0.3911111111111111,-0.5966666666666667,1.131680694533445,1.430819305466555,-19.558193054665548
1589988418.0835385,-2.4050722549661643,-0.971790875354726,8.986117878192536,0.33625263770646874,-0.39202323607169715,-0.6030515413907687,1.125,1.3348859419340755,-20.138070290329622
1589988418.0935385,-2.3470885931991354,-0.98,8.88015193904242,0.3422222222222222,-0.3922222222222223,-0.6044444444444445,1.348892585010804,1.768196292505402,-21.31107557147731
1589988418.1035385,-2.3889733274819585,-0.9820533450360834,8.76,0.3422222222222222,-0.3922222222222223,-0.6044444444444445,0.7996665935244782,1.5641670323776087,-22.5850841744685
1589988418.1135385,-2.375030851660574,-0.9980123406642295,8.760993829667886,0.3422222222222222,-0.3922222222222223,-0.6044444444444445,0.6875,2.118788564575717,-24.017863014758507
1589988418.1235385,-2.334466237257974,-0.9817864949031896,8.769106752548405,0.3422222222222222,-0.3922222222222223,-0.6044444444444445,0.6875,2.0680827965724675,-25.184095678833245
1589988418.1335385,-2.39738175783494,-1.028523648433012,8.881810812535903,0.35,-0.3977777777777778,-0.6177777777777778,0.5255912108253016,1.5532728027063254,-27.78604311610391
1589988418.1435385,-2.4439224272755706,-1.02,8.946077572724429,0.35,-0.3977777777777778,-0.6177777777777778,0.3492727557084767,1.5306439630903972,-29.54168947450735
1589988418.1535385,-2.5222949854987182,-1.023442478248077,8.884917405741666,0.35,-0.3977777777777778,-0.6177777777777778,1.1127028077844563,2.160859148417469,-31.820685868605775
1589988418.1635385,-2.539924761464419,-1.049887142196629,8.999510949518726,0.35,-0.3977777777777778,-0.6177777777777778,1.4983541570341727,2.4363243978815516,-33.804035664747175
1589988418.1735384,-2.54,-1.090852978577717,9.016341191431087,0.35,-0.3977777777777778,-0.6177777777777778,1.5510662232221462,2.488566223222146,-36.008347598552284
1589988418.1835384,-2.577043730287273,-1.1,8.992217202284545,0.3551449625398991,-0.37513994260222205,-0.6260097178416163,1.6203808285738641,2.7315233142954565,-38.641590657232975
1589988418.1935384,-2.587192058791269,-1.078423823626193,8.903695294504772,0.3555555555555556,-0.37333333333333335,-0.6266666666666667,1.6699503674454317,2.974751837227158,-40.565564330371835
1589988418.2035384,-2.6592718968715414,-1.1302427010428193,8.78951459791436,0.3555555555555556,-0.37333333333333335,-0.6266666666666667,1.3049155924118903,3.193567526070488,-43.68112461615201
1589988418.2135384,-2.6396580050816016,-1.1367806649727994,8.7764386700544,0.3555555555555556,-0.37333333333333335,-0.6266666666666667,1.1006042196000188,3.357016624319985,-45.19302877495986
1589988418.2235384,-2.617415770185601,-1.1462921149071994,8.832921149071995,0.3555555555555556,-0.37333333333333335,-0.6266666666666667,1.0786514363399928,3.3195228454900105,-47.15659726326989
1589988418.2335384,-2.6190213588657705,-1.1725533971644264,8.87902135886577,0.3610686081957487,-0.36431197446756275,-0.6226571738374354,1.096808253544467,3.278191746455533,-49.17182033695452
1589988418.2435384,-2.629001764068038,-1.199001764068038,8.88001764068038,0.36777777777777776,-0.3533333333333333,-0.6177777777777778,1.1186507711728624,3.3436948728738125,-50.843584618621435
1589988418.2535384,-2.622213662626034,-1.1922136626260338,8.812136626260337,0.36777777777777776,-0.3533333333333333,-0.6177777777777778,1.500481477285601,3.555823042936445,-51.47996912880934
1589988418.2635384,-2.592562129638071,-1.2519215972285531,8.953202662047588,0.36777777777777776,-0.3533333333333333,-0.6177777777777778,1.9294933448810283,3.5584966724405143,-52.75155324095177
1589988418.2735384,-2.623152338408241,-1.2748642538061812,8.991440423010301,0.36777777777777776,-0.3533333333333333,-0.6177777777777778,1.8338989424742456,3.510699471237123,-53.516308460206034
1589988418.2835383,-2.6357883328262854,-1.2742116671737147,8.973261332522057,0.3944444444444444,-0.3466666666666667,-0.6266666666666667,2.625,4.1875,-55.1875
1589988418.2935383,-2.59591249619714,-1.3140875038028599,8.909459993915425,0.3944444444444444,-0.3466666666666667,-0.6266666666666667,2.625,4.1875,-55.1875
1589988418.3035383,-2.570715988729138,-1.3407159887291382,8.79095465163885,0.3944444444444444,-0.3466666666666667,-0.6266666666666667,2.0490752113286614,3.9375,-56.50313230017099
1589988418.3135383,-2.6,-1.3702283910650697,8.829314826804792,0.3944444444444444,-0.3466666666666667,-0.6266666666666667,1.501427444156685,3.941782332470055,-59.22033121560376
1589988418.3235383,-2.6,-1.3770174813855616,8.808947555843316,0.3944444444444444,-0.3466666666666667,-0.6266666666666667,1.5438592586597604,4.069077775979281,-60.19626294917449
1589988418.3335383,-2.6,-1.4176850842894686,8.86029613486315,0.4086810318426881,-0.3315926329508792,-0.6434155930175416,1.7038190660855073,4.172106355361835,-61.84976523940773
1589988418.3435383,-2.5345596943648516,-1.4673944603629416,8.842605539637058,0.4133333333333333,-0.32666666666666666,-0.6488888888888888,2.0421442215854824,4.4212153772683855,-63.65229226361031
1589988418.3535383,-2.554662385435501,-1.486441590290334,8.782454433983832,0.4133333333333333,-0.32666666666666666,-0.6488888888888888,2.524919726915643,4.694399848286468,-65.49691896834798
1589988418.3635383,-2.541269217820671,-1.5368269554483223,8.788730782179329,0.4133333333333333,-0.32666666666666666,-0.6488888888888888,2.6835336943104027,4.632932611379195,-67.27980866344967
1589988418.3735383,-2.556774534463444,-1.590323603390332,8.890647206780663,0.4133333333333333,-0.32666666666666666,-0.6488888888888888,2.8447612605947876,4.729840840396525,-68.79035134535309
1589988418.3835382,-2.575863615349052,-1.6158636153490524,8.933795423023579,0.44594187599527396,-0.31520961113679563,-0.6427197051420352,3.0237213938973646,4.997868989828941,-70.54971393897365
1589988418.3935382,-2.561124109722262,-1.657751780555476,8.93056205486113,0.4544444444444444,-0.31222222222222223,-0.6411111111111111,2.64958990017448,4.9445256857641375,-72.76610187065587
1589988418.4035382,-2.545874995583507,-1.6953125110412324,8.838187471292796,0.4544444444444444,-0.31222222222222223,-0.6411111111111111,2.3160155283892165,4.98164063880154,-74.24335980284775
1589988418.4135382,-2.5496331671677,-1.7003668328322996,8.857799003006201,0.4544444444444444,-0.31222222222222223,-0.6411111111111111,2.0068781156056166,5.120414589596256,-76.31768236995319
1589988418.4235382,-2.533954344336113,-1.780228278319433,8.827908688672228,0.4544444444444444,-0.31222222222222223,-0.6411111111111111,2.0501426739496456,5.1751426739496456,-77.62856684874114
1589988418.4335382,-2.53,-1.7922252174978557,8.857774782502144,0.4744444444444445,-0.28,-0.6977777777777778,2.269470653106237,5.383344565616959,-79.35700434995711
1589988418.4435382,-2.5273640886073125,-1.845271822785375,8.80275124367011,0.4744444444444445,-0.28,-0.6977777777777778,2.6998558346532224,5.574855834653222,-80.38251639636826
1589988418.4535382,-2.490084298754787,-1.9200505792528721,8.700134878007658,0.4744444444444445,-0.28,-0.6977777777777778,2.875421493773935,5.750421493773935,-81.37647522820878
1589988418.4635382,-2.5402853841709994,-1.9505707683419988,8.780856152512998,0.4744444444444445,-0.28,-0.6977777777777778,3.125594550356249,6.002378201424995,-82.26070190641248
1589988418.4735382,-2.5645158867706526,-1.9990317735413055,8.853547660311957,0.4744444444444445,-0.28,-0.6977777777777778,3.1760747641055267,6.204299056422107,-83.16934575389948
1589988418.4835382,-2.5680441999210712,-2.051173480047357,8.888435359936858,0.4666666666666667,-0.2411111111111111,-0.7111111111111111,3.240220999605358,6.547831499408037,-84.68367400236785
1589988418.4935381,-2.51989087164049,-2.0806547701570577,8.849345229842942,0.4666666666666667,-0.2411111111111111,-0.7111111111111111,2.9897692162959735,6.186817947753065,-86.14136925392644
1589988418.5035381,-2.5115838466261313,-2.130496920243212,8.799503079756787,0.4666666666666667,-0.2411111111111111,-0.7111111111111111,2.210985621199818,6.1348990414133215,-87.3874230060803
1589988418.5135381,-2.491954655396965,-2.167068016904553,8.808045344603036,0.4666666666666667,-0.2411111111111111,-0.7111111111111111,2.3444585094224277,6.4633502113069135,-88.86561744145868
1589988418.523538,-2.49,-2.18581566439347,8.82581566439347,0.4666666666666667,-0.2411111111111111,-0.7111111111111111,2.424423951229593,6.796543707377557,-89.98847902459185
1589988418.533538,-2.4608291314472215,-2.2191708685527787,8.806663305157777,0.4900033615088897,-0.20999551798814708,-0.702683971306975,2.5468907570729202,7.020854342763894,-90.97927171381947
1589988418.543538,-2.4466612377850163,-2.259983713355049,8.803322475570033,0.5066666666666667,-0.18777777777777774,-0.6966666666666667,2.6666327361563518,7.249898208469055,-92.41592019543974
1589988418.553538,-2.4256968500235074,-2.3246820874471084,8.743166337564645,0.5066666666666667,-0.18777777777777774,-0.6966666666666667,2.61155265632346,7.23655265632346,-93.55852609308886
1589988418.563538,-2.4325556506849315,-2.36,8.752629851598172,0.5066666666666667,-0.18777777777777774,-0.6966666666666667,3.0324093892694064,7.516436572488584,-94.75185502283105
1589988418.573538,-2.4121445518383466,-2.371142179264661,8.76442891036767,0.5066666666666667,-0.18777777777777774,-0.6966666666666667,3.2571386204041337,7.8687351714144675,-95.55710896323306
1589988418.583538,-2.37802474890876,-2.451851506547442,8.789938127728101,0.5193072094851983,-0.1611661086861324,-0.7359188785768436,3.050541382379116,8.025077340339873,-96.52391723524177
1589988418.593538,-2.37,-2.486338682876554,8.823661317123447,0.5277777777777778,-0.14333333333333334,-0.7622222222222222,2.704233535956923,8.0,-97.60075747218308
1589988418.603538,-2.311129991237952,-2.5220500062586053,8.745899987482789,0.5277777777777778,-0.14333333333333334,-0.7622222222222222,2.414749968706972,8.315375046939542,-98.56825009387909
1589988418.613538,-2.291846854817305,-2.578918871096169,8.713693709634612,0.5277777777777778,-0.14333333333333334,-0.7622222222222222,2.2730856852163144,8.324042842608158,-99.0442001017429
1589988418.623538,-2.268001135098557,-2.6046659099342953,8.731998864901444,0.5277777777777778,-0.14333333333333334,-0.7622222222222222,2.066676125821309,8.3125,-99.6291406539914
1589988418.633538,-2.2541000754237626,-2.645399547457425,8.769499622881188,0.5389220797551153,-0.15185544661012088,-0.7792664487757973,1.778752828391092,8.423123585804454,-99.95999811440593
1589988418.643538,-2.226745083758194,-2.6932549162418065,8.766745083758194,0.5466666666666666,-0.15777777777777774,-0.7911111111111111,1.6734477421704297,8.645343226511288,-100.15939548434086
1589988418.653538,-1.71,-2.44,8.71,0.5466666666666666,-0.15777777777777774,-0.7911111111111111,7.0625,0.75,-100.25
1589988418.663538,-1.7620388968595568,-2.4660194484297784,8.408174398214571,0.5466666666666666,-0.15777777777777774,-0.7911111111111111,9.85959070620118,0.782524310537223,-99.43689223656942
1589988418.673538,-1.3217071180909647,-2.0620579237201713,7.235710789312666,0.5466666666666666,-0.15777777777777774,-0.7911111111111111,5.922356210483378,11.099569141342036,-97.72737354680808
1589988418.683538,-1.479343625937362,-2.2169051610057346,7.904185560946919,0.5622039896093711,-0.16943076998480613,-0.8124749301573297,-8.286490957212175,19.1619283928834,-98.2484616232907
1589988418.693538,-2.0151400048697345,-2.8502800097394694,9.5488436593842,0.5733333333333334,-0.17777777777777778,-0.8277777777777777,-4.719851915797861,4.746726763618657,-99.1875
1589988418.703538,-1.9012686763352757,-2.762186390921439,8.773725408579065,0.5733333333333334,-0.17777777777777778,-0.8277777777777777,3.6484467423213425,3.2938551570783865,-96.8712058559348
1589988418.713538,-2.107366016389876,-2.9249133367176734,9.027949815069983,0.5733333333333334,-0.17777777777777778,-0.8277777777777777,0.2640465225904709,10.395061280731017,-94.875
1589988418.723538,-2.109961224679716,-2.989980612339858,8.992582746533486,0.5733333333333334,-0.17777777777777778,-0.8277777777777777,0.5404116388001365,7.385317143344604,-94.6703884511586
1589988418.733538,-2.051695176000879,-3.03265594666862,8.777515109336655,0.525975849480483,-0.2045450512598236,-0.810790854221864,1.724220266656899,6.019429233361415,-93.80508039998534
1589988418.743538,-1.9548932359443651,-3.063628018918087,8.730884056754261,0.4711111111111111,-0.23555555555555555,-0.7911111111111111,1.2829649763523914,5.891862913833151,-92.37947765370946
1589988418.753538,-2.056981396981397,-3.147786357786358,8.983359073359074,0.4711111111111111,-0.23555555555555555,-0.7911111111111111,2.047406984906985,6.538602726102726,-90.47271703521703
1589988418.763538,-2.0197943670207583,-3.1969065718091154,8.701859630315434,0.4711111111111111,-0.23555555555555555,-0.7911111111111111,2.271904338433551,6.688142603060131,-89.43235917551895
1589988418.7735379,-1.9535566188197766,-3.180191387559809,8.619712918660287,0.4711111111111111,-0.23555555555555555,-0.7911111111111111,2.001794258373206,6.045055821371611,-88.2325558213716
1589988418.7835379,-1.9918739386674655,-3.3069506043352312,8.704139696334034,0.4607987879998668,-0.13930720651727543,-0.6793942774059645,2.3442291604235344,5.977534087503746,-86.56984660623314
1589988418.7935379,-1.9358515677870516,-3.3005677118580343,8.596419279645087,0.4577777777777778,-0.1111111111111111,-0.6466666666666666,2.29403213274181,5.65056426548362,-84.90020082963632
1589988418.8035378,-1.9135031538991123,-3.3874526915133134,8.634968461008876,0.4577777777777778,-0.1111111111111111,-0.6466666666666666,2.25,5.603105288130547,-83.56926250860577
1589988418.8135378,-2.016533527920731,-3.5554113219141255,9.291445579537598,0.4577777777777778,-0.1111111111111111,-0.6466666666666666,2.7493759121284276,5.7914586373761425,-81.33541362623858
1589988418.8235378,-1.820759652049571,-3.3840085795996186,9.55599142040038,0.4577777777777778,-0.1111111111111111,-0.6466666666666666,7.462285510009533,10.413850244280267,-78.12201352478552
1589988418.8335378,-1.5601548682703323,-3.1800580756013748,7.862961855670103,0.5044444444444445,-0.013333333333333334,-0.6177777777777778,6.797376145475372,9.92286010882016,-76.12451603665521
1589988418.8435378,-1.5985906071019473,-3.1944714776632304,8.598045360824743,0.5044444444444445,-0.013333333333333334,-0.6177777777777778,3.0438860252004583,6.289481672394043,-76.00440435280642
1589988418.8535378,-1.6370263459335623,-3.208884879725086,9.333128865979383,0.5044444444444445,-0.013333333333333334,-0.6177777777777778,-0.7096040950744555,2.656103235967927,-75.88429266895761
1589988418.8635378,-1.6235597000658497,-3.2593208998024514,8.436462603819276,0.5044444444444445,-0.013333333333333334,-0.6177777777777778,5.987127472013935,7.872225290481551,-71.55942126728552
1589988418.8735378,-1.671336800244723,-3.4753472009788924,9.044054975309182,0.5044444444444445,-0.013333333333333334,-0.6177777777777778,2.22881068915789,4.020492833107547,-70.57916357121007
1589988418.8835378,-1.533262187088274,-3.2974779680866635,8.800125311081834,0.5276648611721075,0.03213998275834024,-0.5868172221408936,1.128842775581906,2.731728517054604,-68.60327733860342
1589988418.8935378,-1.5192206579690917,-3.379868553598192,8.535586840618166,0.5311111111111111,0.03888888888888889,-0.5822222222222222,3.0941315938183336,4.714260706125157,-65.71918994619297
1589988418.9035378,-1.52,-3.421892569971415,8.655543422378514,0.5311111111111111,0.03888888888888889,-0.5822222222222222,2.303189328973615,3.180707220268575,-64.00503578258991
1589988418.9135377,-1.52,-3.4842010135135135,8.756245683183183,0.5311111111111111,0.03888888888888889,-0.5822222222222222,2.5518147053303304,3.3145938907657655,-61.893578734984985
1589988418.9235377,-1.4892638127684787,-3.440085913198045,8.658613538735002,0.5311111111111111,0.03888888888888889,-0.5822222222222222,2.8365797659605985,3.4953988298029923,-59.25161087246334
1589988418.9335377,-1.4407484230955847,-3.4251018922852987,8.844964822901504,0.5402116017035958,0.08114116663971103,-0.5822222222222222,2.593113173216885,3.1190487020863658,-56.776792212518195
1589988418.9435377,-1.4136139189551837,-3.443613918955184,8.90589229805886,0.5466666666666666,0.1111111111111111,-0.5822222222222222,2.5971520261204044,3.017326013060202,-54.25063176491636
1589988418.9535377,-1.4024253276440108,-3.424850655288022,8.580035812252362,0.5466666666666666,0.1111111111111111,-0.5822222222222222,2.1667412755257542,3.2518668088997256,-51.21243999542822
1589988418.9635377,-1.4077178185976698,-3.4817425487813596,8.662074190551069,0.5466666666666666,0.1111111111111111,-0.5822222222222222,1.951763633764563,2.7818999714101924,-48.329363519405334
1589988418.9735377,-1.3910810600155883,-3.5,8.69108106001559,0.5466666666666666,0.1111111111111111,-0.5822222222222222,1.5827698752922839,2.5855855416991425,-45.953263834762275
1589988418.9835377,-1.4193410919048433,-3.570813965428718,8.892441896286154,0.5641515964021526,0.13559001274079147,-0.604952630878354,1.571705459524217,2.4641472702378917,-42.52785812082834
1589988418.9935377,-1.3905280608297783,-3.5505280608297785,8.665802037974403,0.5688888888888889,0.14222222222222222,-0.6111111111111112,1.7236798479255542,2.2401403041488916,-39.21064410601004
1589988419.0035377,-1.4088831469684144,-3.655532587873658,8.806623602263109,0.5688888888888889,0.14222222222222222,-0.6111111111111112,1.6597401657237048,1.9618504143092619,-36.33376397736891
1589988419.0135376,-1.3999709980740909,-3.679970998074091,8.836589328197576,0.5688888888888889,0.14222222222222222,-0.6111111111111112,1.541545825308712,1.875,-33.20501019598958
1589988419.0235376,-1.3456008405848576,-3.738616882732493,8.789818563902209,0.5688888888888889,0.14222222222222222,-0.6111111111111112,1.5,1.6479588438998403,-30.498438702421122
1589988419.0335376,-1.284641834965937,-3.823422017978796,8.753368807191519,0.5679310499276637,0.14384318046429548,-0.6115531906316766,1.495855504494699,1.316644495505301,-27.905674305639536
1589988419.0435376,-1.3377624291392456,-3.6695442105949048,8.800732064898678,0.5544444444444444,0.16666666666666666,-0.6177777777777778,1.0168335016615626,1.1073031374209943,-21.48998582784909
1589988419.0535376,-1.2574023933276925,-3.6958007977758975,8.726655384987307,0.5544444444444444,0.16666666666666666,-0.6177777777777778,1.1281125347516017,0.7862549860993594,-17.252901003263627
1589988419.0635376,-1.21,-3.68,8.64094508421171,0.5544444444444444,0.16666666666666666,-0.6177777777777778,0.8513728947072283,0.6089559342060843,-13.876755973592408
1589988419.0735376,-1.2064199385901875,-3.6907401842294374,8.709380675507937,0.5544444444444444,0.16666666666666666,-0.6177777777777778,0.3040030704906252,0.4328738485660155,-10.371978506565624
1589988419.0835376,-1.2,-3.7055438933205385,8.78445610667946,0.5995006342034471,0.181520355598206,-0.6252046222435474,0.5135973330134549,0.2010973330134549,-6.760317329414822
1589988419.0935376,-1.264394332550764,-3.6765838790724494,8.749021788376787,0.6555555555555556,0.2,-0.6344444444444445,0.3018246221014045,-0.12043844474648874,-3.781930886774579
1589988419.1035376,-1.2957537205595364,-3.674246279440464,8.672512401865122,0.6555555555555556,0.2,-0.6344444444444445,0.13128100466280335,-0.36871899533719665,-2.0736467814739226
1589988419.1135375,-1.2725318009372908,-3.6476802053113144,8.649872796250836,0.6555555555555556,0.2,-0.6344444444444445,0.07779374023655433,-0.5933524882838652,-0.8452075429591609
1589988419.1235375,-1.27532721598584,-3.5402617727886723,8.745065443197168,0.6555555555555556,0.2,-0.6344444444444445,0.21752294005309983,-0.7167049000884997,0.9473164795752014
1589988419.1335375,-1.2739078509020052,-3.5273848136275063,8.808707335470489,0.8316775619670208,0.2695790642613196,-0.7083722002220965,-0.24192084669055253,-0.7255759318624677,2.4621106763467218
1589988419.1435375,-1.2447941697853062,-3.4745197294990477,8.763970848926531,0.9255555555555556,0.30666666666666664,-0.7477777777777778,-0.3424635611581643,-0.7174635611581642,3.857043201365636
1589988419.1535375,-1.2342166625323363,-3.477949962791027,8.643616712144299,0.9255555555555556,0.30666666666666664,-0.7477777777777778,-0.25,-0.7567707041355115,5.8930197739111945
1589988419.1635375,-1.2845665833242743,-3.5578541145776716,8.635708229155343,0.9255555555555556,0.30666666666666664,-0.7477777777777778,-0.5285411457767148,-0.9375,8.698070442439395
1589988419.1735375,-1.325092544501629,-3.641110534019548,8.710555267009774,0.9255555555555556,0.30666666666666664,-0.7477777777777778,-0.8454852094055433,-0.9056715968648189,11.150449737947968
1589988419.1835375,-1.3255172267661144,-3.6641378141289147,8.722068907064457,1.1486980454200864,0.054635193739317134,-1.1019168632547451,-0.7413786710175022,-1.1271559944060685,13.8448319701657
1589988419.1935375,-1.3315786408473775,-3.66631456338951,8.705789320423689,1.4233333333333331,-0.25555555555555554,-1.5377777777777777,-0.5723665052961089,-1.5460497579441634,16.98351335857023
1589988419.2035375,-1.311727090799088,-3.643454181598176,8.611044817796808,1.4233333333333331,-0.25555555555555554,-1.5377777777777777,-0.3599414762414483,-1.8900585237585517,19.873733245683436
1589988419.2135375,-1.3359582662278553,-3.681642742104895,8.667601008332749,1.4233333333333331,-0.25555555555555554,-1.5377777777777777,-0.31421118969259854,-1.9357888103074015,21.684484629927876
1589988419.2235374,-1.3433133243607,-3.6751895020188425,8.763812382234185,1.4233333333333331,-0.25555555555555554,-1.5377777777777777,-0.3511726110363392,-1.8511726110363391,23.330839502018843
1589988419.2335374,-1.2833251231527094,-3.5366502463054186,8.78111658456486,1.0015207079000181,-0.15982941069147963,-1.0968199233716476,-0.3125,-2.0904146141215105,25.139265188834155
1589988419.2435374,-1.2976556436297582,-3.554249029807613,8.751282098918338,0.6644444444444444,-0.08333333333333333,-0.7444444444444445,-0.2433608909256048,-2.243360890925605,26.16483465444637
1589988419.2535374,-1.3233806993286579,-3.569715804028053,8.730142097985974,0.6644444444444444,-0.08333333333333333,-0.7444444444444445,-0.20862937080411134,-2.2297587416082227,26.647905595628778
1589988419.2635374,-1.323789902967234,-3.5237899029672337,8.74456616509633,0.6644444444444444,-0.08333333333333333,-0.7444444444444445,-0.24514836169315146,-2.331906553227394,26.918093446772605
1589988419.2735374,-1.25367432394498,-3.483068915504819,8.716743239449798,0.6644444444444444,-0.08333333333333333,-0.7444444444444445,-0.6008614438102367,-2.2869257041265088,26.595641901375505
1589988419.2835374,-1.31585666629184,-3.478557667078976,8.763243000112448,0.6265860372910862,0.036448184381390275,-0.6997591114109724,-1.0681270849731999,-2.0917833314592,25.9487541699464
1589988419.2935374,-1.364772421648816,-3.4968139030834218,8.788179373190527,0.5966666666666667,0.13111111111111112,-0.6644444444444444,-0.8153447293898021,-2.1931894587796044,25.085257835118416
1589988419.3035374,-1.3827979293237949,-3.5412046590214614,8.823601035338102,0.5966666666666667,0.13111111111111112,-0.6644444444444444,-0.6900097062947119,-2.0625,23.96259706294712
1589988419.3135374,-1.3281108522858616,-3.5414168607856036,8.740394224442984,0.5966666666666667,0.13111111111111112,-0.6644444444444444,-0.460138565357327,-2.036909641339332,22.1245121094653
1589988419.3235373,-1.2220881554903371,-3.61065895121546,8.613406057921258,0.5966666666666667,0.13111111111111112,-0.6644444444444444,-0.2218388338224708,-1.8791184450966276,20.828973780386512
1589988419.3335373,-1.2278472752098308,-3.582152724790169,8.541691899923697,0.5895216167132957,0.13468363608779657,-0.6758115693702618,-0.17499171720011247,-1.5730743745231115,18.69136781655355
1589988419.3435373,-1.1436683892109907,-3.6768842954373584,8.622763423241745,0.5722222222222222,0.14333333333333334,-0.7033333333333334,-0.47299202798084194,-1.5653280186538947,16.81815603730779
1589988419.3535373,-1.1060623299530052,-3.774844175117487,8.732889562206283,0.5722222222222222,0.14333333333333334,-0.7033333333333334,0.4318343433094237,-0.9621104377937175,14.370397137026961
1589988419.3635373,-1.08,-3.84,8.593842552910925,0.5722222222222222,0.14333333333333334,-0.7033333333333334,0.2087879936704688,-1.1037120063295311,10.884840443067185
1589988419.3735373,-1.1037889235840055,-3.7353287362303758,8.701851201318414,0.5722222222222222,0.14333333333333334,-0.7033333333333334,0.07158307311995837,-0.8246107641599445,5.3237460967993755
1589988419.3835373,-1.1408064712322101,-3.62,8.764596764383894,0.5626164700158132,0.11871859330441012,-0.7063351308978362,0.28024267120788227,-0.08971688359080399,-1.2046435956696264
1589988419.3935373,-1.1664116315585553,-3.6309410877057036,8.749058912294297,0.5544444444444444,0.09777777777777777,-0.7088888888888889,0.6591908990803238,0.5176453944819429,-8.352907889638859
1589988419.4035373,-1.1142758077703419,-3.4906268358416863,8.69220058746934,0.5544444444444444,0.09777777777777777,-0.7088888888888889,0.8368731641583139,1.0235896193562062,-16.641971126184778
1589988419.4135373,-2.0049554021715483,-6.840835393469533,5.934463342760516,0.5544444444444444,0.09777777777777777,-0.7088888888888889,1.3270647509048117,1.4270748867749146,-24.222712259952928
1589988419.4235373,-1.2952893506045648,-7.148655300989288,-0.9163047179774559,0.5544444444444444,0.09777777777777777,-0.7088888888888889,-31.26746745479234,47.08308457443369,-114.0619652132681
1589988419.4335372,-0.0774407897031637,-4.88957584847745,-2.522713732603161,0.5333145751702381,0.12373733145751702,-0.6382547544579705,-78.943174683456,-15.862643447626354,-507.95567511946706
1589988419.4435372,-0.28203528886241813,-5.368094550327576,0.9317511911852293,0.5155555555555555,0.14555555555555555,-0.5788888888888889,-84.96087421828469,-87.36248045711733,-747.2773693418702
1589988419.4535372,-0.029764090061666415,-5.303249677326832,1.421358812562742,0.5155555555555555,0.14555555555555555,-0.5788888888888889,-87.68792126774703,-42.59802093790334,-749.7423723648358
1589988419.4635372,-1.0385506688480415,-5.642231739004908,5.5211904532768745,0.5155555555555555,0.14555555555555555,-0.5788888888888889,-64.8066054758926,7.960693147916466,-713.8208545856992
1589988419.4735372,-0.4366267980735496,-3.9514387777884092,0.44090613338436524,0.5155555555555555,0.14555555555555555,-0.5788888888888889,-17.603524782317482,82.54788218033362,-673.4851130673301
1589988419.4835372,-0.9705598620043443,-4.559422249669918,4.3066408279739345,0.469749184850765,0.23587189024707658,-0.6017920742412842,23.37299155628434,133.92532954981047,-634.019578666042
1589988419.4935372,-2.660737436906765,-4.730370146979461,7.122969746992159,0.3977777777777778,0.37777777777777777,-0.6377777777777778,68.80070077140408,183.91927637217867,-594.8412232944986
1589988419.5035372,-0.2094486498700716,-2.764248484163748,12.726152600459459,0.3977777777777778,0.37777777777777777,-0.6377777777777778,142.1420625729673,174.38582269423418,-550.6128356494559
1589988419.5135372,3.229892844576656,-0.011185426862425296,8.035533378114703,0.3977777777777778,0.37777777777777777,-0.6377777777777778,164.94856539679495,73.39932588043374,-494.2247065220868
1589988419.5235372,-0.30871313521935834,-0.855737295612833,-0.8641555125870581,0.3977777777777778,0.37777777777777777,-0.6377777777777778,74.22168850550977,-2.887066117253937,-431.9400167076536
1589988419.5335371,0.3611316493520031,-0.5763350821722665,3.0082881067370835,0.30329082844005884,0.43969883680977806,-0.6111746561195851,4.267596244049894,22.78501224766339,-392.5179480386366
1589988419.5435371,-0.15757205086461035,-1.3815241782901397,16.708970167642015,0.1688888888888889,0.5277777777777778,-0.5733333333333334,-65.4687651251815,49.941432547190566,-354.55183812205746
1589988419.5535371,-0.5084468246029229,-2.3416551589528387,16.879229755776223,0.1688888888888889,0.5277777777777778,-0.5733333333333334,-60.954743272257055,34.4084908019616,-323.055866799229
1589988419.5635371,0.838304837117473,-2.160410661401777,10.781202369200395,0.1688888888888889,0.5277777777777778,-0.5733333333333334,3.049111549851922,19.701831194471865,-293.6111105626851
1589988419.573537,1.3732706660853062,-1.2711954653876734,8.503298366205852,0.1688888888888889,0.5277777777777778,-0.5733333333333334,50.118153517658826,27.95636750109005,-270.41360864602837
1589988419.583537,8.715481795673176,-8.762099484515161,7.134784267565044,0.11869890814628405,0.5390988260655833,-0.5812580671347973,43.10451632706904,21.260423854365385,-252.37836764825263
1589988419.593537,19.248010777982124,-20.63966596809375,11.202637184038322,0.021111111111111112,0.5611111111111111,-0.5966666666666667,1.1745167015953122,5.742758543261623,-234.62255143064883
1589988419.603537,1.3849665299071474,-3.613592096739365,7.99324551932628,0.021111111111111112,0.5611111111111111,-0.5966666666666667,-33.41549251421579,3.882728712301159,-209.40776380191463
1589988419.613537,0.1757506792564496,0.6947908428160224,12.16635837839292,0.021111111111111112,0.5611111111111111,-0.5966666666666667,13.336880935087294,21.47267169719958,-168.82507801361203
1589988419.623537,1.3461108656356697,0.6133331994376381,10.001659771038362,0.021111111111111112,0.5611111111111111,-0.5966666666666667,46.256936633862225,16.41838973689496,-147.295119501908
1589988419.633537,2.2645502021905672,-0.35085448375363226,8.634022677856576,-0.01779505033879057,0.5611111111111111,-0.5927760505216765,23.085102924142976,6.867816646684684,-131.44021407815325
1589988419.643537,6.346,-3.793223880597015,11.965880597014925,-0.10111111111111112,0.5611111111111111,-0.5844444444444444,-24.04042288557214,2.816231343283582,-112.05771144278607
1589988419.653537,6.584795805268991,-4.119261659135477,8.822652400034103,-0.10111111111111112,0.5611111111111111,-0.5844444444444444,-18.39332530480007,8.898824494841845,-101.61556292096513
1589988419.663537,0.9375609078919969,0.348164433955716,6.763083570486569,-0.10111111111111112,0.5611111111111111,-0.5844444444444444,13.568022489067815,7.411238894287499,-101.31536102241965
1589988419.673537,3.8395726814704236,-1.4456447098339242,8.094829881196741,-0.10111111111111112,0.5611111111111111,-0.5844444444444444,17.821425794613425,4.31559059526031,-89.03382160850904
1589988419.683537,5.771209897906212,-2.8413863990309745,9.274971102266829,-0.12214912230105171,0.5554667666455173,-0.591115033358328,-6.753750648901194,2.3431281363557708,-75.98846686277902
1589988419.693537,5.12,-2.54,9.98,-0.14666666666666667,0.5488888888888889,-0.5988888888888889,-14.1875,5.875,-72.1875
1589988419.703537,2.7826869917070627,-1.5313781499138657,8.092343656103521,-0.14666666666666667,0.5488888888888889,-0.5988888888888889,2.6762875085132807,10.789238712391331,-71.35690677456833
1589988419.713537,4.572805324459234,-2.2985024958402662,8.529707154742097,-0.14666666666666667,0.5488888888888889,-0.5988888888888889,4.451913477537437,1.1437188019966724,-60.227121464226286
1589988419.723537,3.5989409984871408,-1.8899476502653507,8.307477367144537,-0.14666666666666667,0.5488888888888889,-0.5988888888888889,-0.28431399034651683,4.877982193886127,-55.66744260740101
1589988419.733537,3.297919483250714,-1.8302718942466578,9.052397476340694,-0.1692911388179527,0.5488888888888889,-0.6088436566354547,0.2700822442541684,4.720303815532522,-52.21860447649091
1589988419.743537,3.833254969936623,-2.003524908365383,8.827068956177888,-0.20222222222222225,0.5488888888888889,-0.6233333333333333,2.4612177924633913,3.1620950923568603,-46.69480368524638
1589988419.753537,3.3273433115060804,-1.721468662301216,9.131440598690364,-0.20222222222222225,0.5488888888888889,-0.6233333333333333,1.4852666043030869,3.185687558465856,-42.85284144059869
1589988419.763537,3.2238410562904796,-1.7051636700092525,8.475050138788166,-0.20222222222222225,0.5488888888888889,-0.6233333333333333,0.5851702968316287,2.528890757458301,-38.09965709320063
1589988419.773537,3.465141302292354,-1.762311264261551,8.573821150169142,-0.20222222222222225,0.5488888888888889,-0.6233333333333333,0.7853754753850356,1.274172409808165,-34.180725106633325
1589988419.783537,3.719060530233442,-1.8679351303411358,8.72259890405752,-0.20222222222222225,0.5449806608737273,-0.6194251053181717,1.1002027176839504,1.855060815305185,-31.05597304488296
1589988419.793537,3.660925263306851,-1.813302605777589,8.854273960418057,-0.20222222222222225,0.54,-0.6144444444444445,1.0870719368467867,2.209643550245618,-28.33314128610993
1589988419.803537,3.3870077869215116,-1.695511680382267,8.607795327847093,-0.20222222222222225,0.54,-0.6144444444444445,1.2987207990443324,2.4562013317405538,-26.162896259180602
1589988419.813537,3.5605776412320895,-1.7935670206849061,8.637773393013216,-0.20222222222222225,0.54,-0.6144444444444445,0.951030603596684,1.7503856900707153,-23.487626466615463
1589988419.8235369,3.71834028160151,-1.7687552112011327,8.84331943679698,-0.20222222222222225,0.54,-0.6144444444444445,0.8150933099976402,1.079011150003933,-21.11039143003225
1589988419.8335369,3.7080038543462828,-1.7573070291104576,9.017740135916421,-0.21010672707396516,0.5383573948225536,-0.6144444444444445,0.7157483010447308,1.0043551577239072,-18.97551729384319
1589988419.8435369,3.695297242162391,-1.7684286291641809,8.982805758164778,-0.2288888888888889,0.5344444444444445,-0.6144444444444445,0.16210715729104522,1.439464213544774,-17.18939324685822
1589988419.8535368,3.463293436525078,-1.6599316054715623,8.87,-0.2288888888888889,0.5344444444444445,-0.6144444444444445,0.3329771118310535,1.7081908447324214,-15.95872517698584
1589988419.8635368,3.61172193161664,-1.7532680780369532,8.945185775542733,-0.2288888888888889,0.5344444444444445,-0.6144444444444445,0.75,1.5156562198325214,-15.085372561345217
1589988419.8735368,3.7797543444989055,-1.7898771722494526,8.996932793459518,-0.2288888888888889,0.5344444444444445,-0.6144444444444445,0.5843568979212275,0.6276868570432221,-14.231213795842455
1589988419.8835368,3.815458635019922,-1.8077293175099611,8.902046184824986,-0.2288888888888889,0.5321466756161072,-0.6100256582361034,0.20028865515616298,-0.16051957928109334,-13.45313504134356
1589988419.8935368,3.5832360237974807,-1.69,8.852233542886045,-0.2288888888888889,0.52,-0.5866666666666667,-0.013959643037791743,0.3489052677216562,-12.87904502974685
1589988419.9035368,3.619877410333951,-1.6940490358664195,8.750122589666049,-0.2288888888888889,0.52,-0.5866666666666667,0.7064798556238415,0.9256129483302442,-12.874233814587194
1589988419.9135368,3.5632241579558652,-1.716710336817654,8.853289663182347,-0.2288888888888889,0.52,-0.5866666666666667,0.7919396051103368,1.3473132017034457,-12.326343399148277
1589988419.9235368,3.6606527293844366,-1.6777389082462253,8.892261091753776,-0.2288888888888889,0.52,-0.5866666666666667,0.5483681765389082,1.2661227255129694,-12.366938637243516
1589988419.9335368,3.617544809033751,-1.6156204448059057,8.805341737308018,-0.23018285074777303,0.5205175847435537,-0.5931364759610873,0.556486361787982,0.5522146454377679,-12.135285354562232
1589988419.9435368,3.768092935487675,-1.67945512442505,8.817393167433266,-0.2344444444444445,0.5222222222222223,-0.6144444444444445,0.21060364822895783,0.6549145929158313,-12.653211856744113
1589988419.9535367,3.626068542317934,-1.6282056269538034,8.8641028134769,-0.2344444444444445,0.5222222222222223,-0.6144444444444445,0.4364290262822739,1.3002141947435453,-13.347215468333912
1589988419.9635367,3.61,-1.5862864330326163,8.869336687485543,-0.2344444444444445,0.5222222222222223,-0.6144444444444445,0.6220163225769142,1.2630967354846172,-14.18335429678464
1589988419.9735367,3.6185801562591786,-1.6300203646047504,8.95997963539525,-0.2344444444444445,0.5222222222222223,-0.6144444444444445,0.35712467446004426,1.1516220701403983,-15.053753255399558
1589988419.9835367,3.6453613357683277,-1.660341768849465,8.89212888077224,-0.2372243963243181,0.5248036061106763,-0.6132530364959272,0.39068614662144535,0.6606444038612054,-15.611694495173493
1589988419.9935367,3.675482441074963,-1.5919297642998511,8.815482441074963,-0.25,0.5366666666666666,-0.6077777777777778,0.6986021149222239,0.28426525671851743,-16.347724168670364
1589988420.0035367,3.6892034283658015,-1.6468137134632055,8.829203428365801,-0.25,0.5366666666666666,-0.6077777777777778,0.5699678590706119,0.37002142728625875,-16.905139277360682
1589988420.0135367,3.7772862016679305,-1.6318280894617134,8.804541887793782,-0.25,0.5366666666666666,-0.6077777777777778,0.35223061978771797,1.5397578658074298,-17.624972753980288
1589988420.0235367,3.5406969990319457,-1.4606969990319458,8.874937076476282,-0.25,0.5366666666666666,-0.6077777777777778,1.0941432720232334,1.791928848015489,-18.125
1589988420.0335367,3.660484631684477,-1.5795153683155234,8.92854610494657,-0.24994615203505813,0.5356974032977131,-0.6074008420231847,0.7075947276082846,1.5231236756362643,-18.112884207888083
1589988420.0435367,3.6712114721729527,-1.57,8.899273116696229,-0.2488888888888889,0.5166666666666667,-0.6,-0.12083556440547505,0.752650095378334,-17.876135755162142
1589988420.0535367,3.7852702702702703,-1.5588513513513513,8.804527027027026,-0.2488888888888889,0.5166666666666667,-0.6,0.5764358108108109,1.2293074324324325,-18.25760135135135
1589988420.0635366,3.4949967217891746,-1.5206574633933125,8.888553580534714,-0.2488888888888889,0.5166666666666667,-0.6,0.6241781707583595,1.3725345122750783,-18.92599439061703
1589988420.0735366,3.774780872632823,-1.5539043631641178,8.87,-0.2488888888888889,0.5166666666666667,-0.6,0.4919075032466903,1.7716631776860305,-19.165712042798162
1589988420.0835366,3.734302347959969,-1.4910132794457274,8.86388151141904,-0.24997662019217062,0.5159868346021156,-0.6017675633678328,0.9541113356428021,1.1097037785476007,-18.841777328714397
1589988420.0935366,3.66305378344852,-1.547389243310296,8.836150540492646,-0.2577777777777778,0.5111111111111111,-0.6144444444444445,0.46349459507354246,1.0,-19.5
1589988420.1035366,3.8831386347642503,-1.4831386347642506,8.829954257565094,-0.2577777777777778,0.5111111111111111,-0.6144444444444445,0.30942118226600984,0.9868270584095707,-19.420962350457426
1589988420.1135366,3.8209985555020554,-1.4209985555020554,8.682371569317382,-0.2577777777777778,0.5111111111111111,-0.6144444444444445,0.9890782991962664,0.938280121485981,-19.129680728915886
1589988420.1235366,3.695667515192537,-1.3613518047115258,8.792980680095937,-0.2577777777777778,0.5111111111111111,-0.6144444444444445,1.2111146466355704,1.7466414561292507,-20.398719486175896
1589988420.1335366,3.5845782139756626,-1.3675234325569077,8.89789835346743,-0.2577777777777778,0.5111111111111111,-0.6144444444444445,0.7482425582319272,2.016650174364709,-21.36303633701682
1589988420.1435366,3.8110470737672286,-1.5489529262327715,8.939401672133013,-0.27,0.5244444444444445,-0.6144444444444445,0.3787395491686731,1.4375,-22.824653534798188
1589988420.1535366,3.8667091967315677,-1.4932908032684322,8.907594744724818,-0.27,0.5244444444444445,-0.6144444444444445,0.5775328454698845,1.4375,-23.470731747777126
1589988420.1635365,3.5561978197287956,-1.3640494549321989,8.761611273597447,-0.27,0.5244444444444445,-0.6144444444444445,0.8640238633342197,1.5692136399893646,-25.091165913320925
1589988420.1735365,3.7757097682310747,-1.4089094134433688,8.907890941344338,-0.27,0.5244444444444445,-0.6144444444444445,0.878408082989472,2.095228683814739,-26.102495565153678
1589988420.1835365,3.6112894925549415,-1.3291403382967057,8.901934238832412,-0.2703104333928563,0.5243250469856536,-0.6141340110515882,1.1263432214113975,1.758059328468385,-27.210334763993757
1589988420.1935365,3.6643662209473993,-1.2937558527017337,8.9815493314211,-0.2830881643021517,0.5194105350974629,-0.6013562801422927,1.1816314801535412,2.089788880921247,-28.1502351626102
1589988420.2035365,3.7803881237703454,-1.3222089071722412,8.786626721516724,-0.28444444444444444,0.5188888888888888,-0.6,0.9098886603469862,1.5,-29.338434537649793
1589988420.2135365,3.7842892495814833,-1.282859499720989,8.737140500279011,-0.28444444444444444,0.5188888888888888,-0.6,1.2008910158429773,1.566955079214887,-30.513339459446346
1589988420.2235365,3.6862021895924815,-1.2275956208150371,8.820887957241352,-0.28444444444444444,0.5188888888888888,-0.6,1.1669228973355321,1.9905223628524311,-32.23420393808738
1589988420.2335365,3.6686091397689817,-1.2554797042491908,8.91,-0.2843671744316101,0.5186184438439686,-0.6002704450449202,0.8277125337767616,2.75,-33.604314517326365
1589988420.2435365,3.639106436360127,-1.1345532181800635,8.916829827270096,-0.2822222222222222,0.5111111111111111,-0.6077777777777778,1.25,2.75,-36.5
1589988420.2535365,3.685506961799357,-1.1632916815423062,8.922277757943592,-0.2822222222222222,0.5111111111111111,-0.6077777777777778,1.1253904855408783,2.694617993573724,-36.80460103534452
1589988420.2635365,3.7227023978816263,-1.1875131172461137,8.858270239788162,-0.2822222222222222,0.5111111111111111,-0.6077777777777778,0.882098023831707,2.5972990119158537,-38.45879407149512
1589988420.2735364,3.6513840974353897,-1.0816262996336272,8.871141895237152,-0.2822222222222222,0.5111111111111111,-0.6077777777777778,1.7311850183186455,3.1031574908406774,-41.44312308149322
1589988420.2835364,3.7095286662045748,-1.0899326666006537,8.979124665808497,-0.2822222222222222,0.5111111111111111,-0.6077777777777778,1.3158666699673236,3.3108166650163384,-42.429504158827605
1589988420.2935364,3.7602657091561937,-1.0676811490125673,8.971787432675045,-0.29444444444444445,0.4977777777777778,-0.6144444444444445,1.6121678635547576,2.8236714542190304,-44.136624775583485
1589988420.3035364,3.778843827662803,-1.014230134817128,8.91115067408564,-0.29444444444444445,0.4977777777777778,-0.6144444444444445,1.5023972376784183,2.697123314785898,-46.13945215421496
1589988420.3135364,3.7092759154384605,-0.9909179007351648,8.795507404410987,-0.29444444444444445,0.4977777777777778,-0.6144444444444445,1.2786843979739,3.02294751837912,-47.41636950824862
1589988420.3235364,3.8641886805726546,-0.9982946990748883,8.839768194449329,-0.29444444444444445,0.4977777777777778,-0.6144444444444445,1.5092093460902598,3.207367476872208,-48.75341420732351
1589988420.3335364,3.680761457399796,-0.9302422818999352,8.820103835099973,-0.29444444444444445,0.4977777777777778,-0.6144444444444445,1.687067353750116,3.9351204456256372,-51.4292797212522
1589988420.3435364,3.7799565901352077,-0.9383297158446006,9.011583464425815,-0.3166570200300462,0.475565202192176,-0.6144444444444445,1.4271963798562297,4.249864344172524,-52.89520027280511
1589988420.3535364,3.764770398481973,-0.8918178368121442,8.885453510436433,-0.3211111111111111,0.4711111111111111,-0.6144444444444445,1.9360768500948766,3.676138519924099,-55.81110056925996
1589988420.3635364,3.5692788534837625,-0.8632131422472937,8.79963942674188,-0.3211111111111111,0.4711111111111111,-0.6144444444444445,1.6875,3.8683059536514715,-57.9374332977588
1589988420.3735363,3.7258657565876088,-0.8789753509002897,8.882756162274928,-0.3211111111111111,0.4711111111111111,-0.6144444444444445,1.747791049764041,3.915856085309785,-59.878972312802546
1589988420.3835363,3.7003803698377657,-0.8110143195673749,8.899746420108157,-0.3211111111111111,0.4711111111111111,-0.6144444444444445,2.1194529398659188,4.552990754055861,-62.21513276487149
1589988420.3935363,3.631454010095345,-0.7657270050476724,8.995727005047673,-0.3233333333333333,0.4777777777777778,-0.6222222222222222,1.8215875630959057,4.625,-64.9443003365115
1589988420.4035363,3.6983241545673846,-0.7850025032998044,8.993346684265623,-0.3233333333333333,0.4777777777777778,-0.6222222222222222,2.156234354376223,4.562531291247554,-66.9685466068909
1589988420.4135363,3.787742852294901,-0.7509714091796047,8.85661427844235,-0.3233333333333333,0.4777777777777778,-0.6222222222222222,2.305446413421566,4.3346430389412065,-69.38089367523543
1589988420.4235363,3.7746093094427167,-0.6795705612320451,8.830744360531122,-0.3233333333333333,0.4777777777777778,-0.6222222222222222,2.241948023100844,4.978528061602251,-72.32078335554569
1589988420.4335363,5.3687689333924835,-0.5016781798593067,9.083163698586729,-0.3249067677855941,0.47615008696509425,-0.621516889536726,-0.3671771024779771,-2.5732460865707587,-50.11090690157805
1589988420.4435363,5.15,0.05,8.95,-0.3555555555555556,0.4444444444444444,-0.6077777777777778,3.4375,-4.0,14.6875
1589988420.4535363,3.7295836151504904,-0.10279379438620224,8.548208911058506,-0.3555555555555556,0.4444444444444444,-0.6077777777777778,3.402131066114305,5.05444707473791,4.854936379776801
1589988420.4635363,3.3741384297520662,-0.8391528925619836,9.504840909090909,-0.3555555555555556,0.4444444444444444,-0.6077777777777778,-5.30419679752066,1.0542613636363622,-9.818814566115702
1589988420.4735363,4.4635124814085305,-0.6220394340153556,8.827297503718293,-0.3555555555555556,0.4444444444444444,-0.6077777777777778,-0.17260295654620733,-0.7976029565462073,-0.3633288278329381
1589988420.4835362,3.552989639270956,-0.7281314754556525,9.009128021879304,-0.35581853308401934,0.4443752398316908,-0.6078608233130821,1.1148788253847843,0.4937715848521749,0.0007785518934781307
1589988420.4935362,3.7539422673826683,-0.6025360828858323,8.950516838680054,-0.37349492166791987,0.4397235586254012,-0.6134428407606297,0.43457044896492525,0.07512027628610785,0.05310996546423652
1589988420.5035362,3.750682530804563,-0.593895696683107,9.056587345977187,-0.37666666666666665,0.4388888888888889,-0.6144444444444445,0.0625,-0.16315189573058084,0.08157594786529042
1589988420.5135362,3.8004445687361232,-0.5654602464365012,8.807777156319384,-0.37666666666666665,0.4388888888888889,-0.6144444444444445,0.0625,-0.3408734597718683,0.17043672988593414
1589988420.5235362,3.8915080834462925,-0.571422455119516,8.736941018944027,-0.37666666666666665,0.4388888888888889,-0.6144444444444445,0.125,-0.37526758852117564,0.05360965550302509
1589988420.5335362,3.8013736899527224,-0.5783558700036366,8.965743710120012,-0.37666666666666665,0.4388888888888889,-0.6144444444444445,0.125,-0.0719306873408933,0.010275812477270475
1589988420.5435362,3.8404995277995457,-0.5809990555990917,8.967002833202725,-0.3688888888888889,0.43333333333333335,-0.6144444444444445,-0.06562204874716178,0.25624409749432353,-0.05937795125283823
1589988420.5535362,3.8489274016918844,-0.5978548033837683,8.916435589848696,-0.3688888888888889,0.43333333333333335,-0.6144444444444445,-0.11829626057427613,0.3615925211485522,-0.006703739425723873
1589988420.5635362,3.849613388509111,-0.59,8.813889206429044,-0.3688888888888889,0.43333333333333335,-0.6144444444444445,0.125,-0.07548326436361143,-0.056008367818194287
1589988420.5735362,3.7638235385091243,-0.589575162387875,9.0149019486545,-0.3688888888888889,0.43333333333333335,-0.6144444444444445,0.125,-0.1875,0.0
1589988420.5835361,3.8222038354469534,-0.5830884627281163,8.937061552737395,-0.3688888888888889,0.43333333333333335,-0.6144444444444445,0.125,-0.1875,0.0
1589988420.5935361,3.8162602687140117,-0.5884349328214971,8.992784261036467,-0.35295623800383874,0.43333333333333335,-0.6144444444444445,0.125,-0.134781669865643,0.0
1589988420.6035361,3.828374428362642,-0.5808127858186789,8.900406392909339,-0.35,0.43333333333333335,-0.6144444444444445,0.125,-0.125,0.11992008863325633
1589988420.6135361,3.7905852213970106,-0.5997073893014948,8.90882955720598,-0.35,0.43333333333333335,-0.6144444444444445,0.12134236626868478,-0.12865763373131522,0.0
1589988420.623536,3.810366000114375,-0.59,8.870732000228749,-0.35,0.43333333333333335,-0.6144444444444445,0.0,-0.24847499952343735,0.0
1589988420.633536,3.83435216073505,-0.59,8.9187043214701,-0.35,0.43333333333333335,-0.6144444444444445,0.0,-0.1485326636039574,0.0
1589988420.643536,3.822293697026587,-0.5634405455398802,8.93,-0.3549184174926148,0.4431701683185629,-0.6213302289341052,0.05533219679191629,-0.06966780320808372,0.05533219679191629
1589988420.653536,3.817589890568004,-0.59,8.946384835852006,-0.3555555555555556,0.4444444444444444,-0.6222222222222222,0.058734204012506515,0.25,0.11370261203751954
1589988420.663536,3.790269020323085,-0.59,8.905403530484628,-0.3555555555555556,0.4444444444444444,-0.6222222222222222,0.016045344254820224,0.25,-0.014363967235539343
1589988420.673536,3.8002242361954592,-0.5898878819022704,8.93011211809773,-0.3555555555555556,0.4444444444444444,-0.6222222222222222,0.18539778566756984,0.06039778566756984,0.0
1589988420.683536,3.8158994674390354,-0.5820502662804821,8.937949733719517,-0.3555555555555556,0.4444444444444444,-0.6222222222222222,0.03844249275903952,-0.08655750724096048,0.0
1589988420.693536,3.8199320431378343,-0.5800226522873886,8.949954695425221,-0.35,0.4388888888888889,-0.6088888888888889,0.06264157679617866,-0.18707526961146403,-0.00014157679617865762
1589988420.703536,3.7906509688945897,-0.59,8.927070639974346,-0.35,0.4388888888888889,-0.6088888888888889,0.11686288881762792,0.004068555591186037,-0.05436288881762792
1589988420.713536,3.8098653167804297,-0.59,8.840606074488067,-0.35,0.4388888888888889,-0.6088888888888889,-0.12331645975537131,0.12415822987768566,0.1858164597553713
1589988420.723536,3.780692421363732,-0.5997691928787559,8.918153543030048,-0.35,0.4388888888888889,-0.6088888888888889,0.11922982196889734,-0.18028727746112166,0.00432763352332699
1589988420.733536,3.8037049540859633,-0.5841966972760243,8.95950825680994,-0.35,0.4388888888888889,-0.6088888888888889,0.026229357975152398,-0.1381146789875762,-0.0493853210124238
1589988420.743536,3.819035541853295,-0.5890355418532953,8.960964458146705,-0.3610434400429165,0.4388888888888889,-0.6219402271214266,-0.05647213658309581,-0.2379442731661916,-0.006027863416904193
1589988420.753536,3.81,-0.58,8.918211640885268,-0.3622222222222222,0.4388888888888889,-0.6233333333333333,0.11941137776646084,0.0625,-0.05970568888323042
1589988420.763536,3.81,-0.58,8.882611666348378,-0.3622222222222222,0.4388888888888889,-0.6233333333333333,0.00816145733868058,0.0625,-0.00408072866934029
1589988420.773536,3.7807639628671432,-0.59,8.940190990716786,-0.3622222222222222,0.4388888888888889,-0.6233333333333333,0.004774767919646933,0.1178378481205296,0.0011936919799117333
1589988420.783536,3.8126791964693347,-0.59,8.948169799117332,-0.3622222222222222,0.4388888888888889,-0.6233333333333333,0.20424497793334345,-0.1813674669000152,0.05106124448333586
1589988420.793536,3.805582764619296,-0.582791382309648,8.98604308845176,-0.3766394576029261,0.4388888888888889,-0.6289400359813848,0.11483841830590125,-0.11483841830590125,-0.027607721129399174
1589988420.803536,3.809676114691569,-0.5606477706168618,8.951619426542154,-0.38222222222222224,0.4388888888888889,-0.6311111111111111,0.12297571682230699,-0.12297571682230699,-0.002024283177693015
1589988420.813536,3.81,-0.572795576313282,8.905215482903513,-0.38222222222222224,0.4388888888888889,-0.6311111111111111,0.04502764804198753,-0.08501382402099376,0.15994470391602494
1589988420.823536,3.7960515623845756,-0.5869742188077122,8.907896875230849,-0.38222222222222224,0.4388888888888889,-0.6311111111111111,0.0,-0.018911132451798776,-0.011533205289207371
1589988420.833536,3.79,-0.5793984797085061,8.951804560874482,-0.38222222222222224,0.4388888888888889,-0.6311111111111111,0.06625950182183692,0.03312975091091846,-0.025610747267244632
1589988420.843536,3.804215442828426,-0.5794769618856174,8.970523038114383,-0.38222222222222224,0.43625639947621736,-0.6268991280508367,0.09538449410744551,0.003268988214891022,0.003268988214891022
1589988420.853536,3.811459888895526,-0.6070802222089481,8.942919777791051,-0.38222222222222224,0.43333333333333335,-0.6222222222222222,0.11587569440296279,-0.11587569440296279,0.04425138880592558
1589988420.863536,3.8297747952077277,-0.5704504095845452,8.80157643354591,-0.38222222222222224,0.43333333333333335,-0.6222222222222222,0.125,-0.0014075299517037065,0.0625
1589988420.8735359,3.8122275013376137,-0.5788862493311931,8.888862493311931,-0.38222222222222224,0.43333333333333335,-0.6222222222222222,0.1805390583199572,0.0,0.0625
1589988420.8835359,3.7946930400183323,-0.58,8.953574359935837,-0.38222222222222224,0.43333333333333335,-0.6222222222222222,0.09183150011457616,-0.09566849988542384,0.20600274982813574
1589988420.8935359,3.79,-0.5993962192577607,8.989396219257761,-0.36929140938371513,0.44051711824361506,-0.6229406007132504,-0.01831758024066933,-0.125,0.12877362963899602
1589988420.9035358,3.781408921806205,-0.59281784361241,8.974226765418615,-0.3622222222222222,0.4444444444444444,-0.6233333333333333,0.09858271613365643,-0.017611522577562377,0.008805761288781189
1589988420.9135358,3.8185582094878785,-0.5803604476280303,8.863964923908332,-0.3622222222222222,0.4444444444444444,-0.6233333333333333,0.06475279767518927,-0.12049440464962145,-0.06024720232481073
1589988420.9235358,3.792652496626181,-0.58,8.923810841205578,-0.3622222222222222,0.4444444444444444,-0.6233333333333333,0.17644793072424653,-0.06802603463787674,0.05144793072424651
1589988420.9335358,3.804851628279513,-0.58,8.944851628279512,-0.3622222222222222,0.4444444444444444,-0.6233333333333333,0.14108866162652134,0.1231453534939147,-0.03032267674695735
1589988420.9435358,3.81,-0.5883949104068172,8.966789820813634,-0.3519617761694456,0.4351167662146475,-0.6158711907494958,0.17746819004260783,0.08256361991478434,-0.0625
1589988420.9535358,3.8186068206508903,-0.5813931793491096,8.892538614141987,-0.35,0.43333333333333335,-0.6144444444444445,0.1875,-0.09887788720419441,-0.0625
1589988420.9635358,3.8018202910246384,-0.5890898544876806,8.861820291024639,-0.35,0.43333333333333335,-0.6144444444444445,0.24431159054800394,-0.011376818903992142,-0.11931159054800393
1589988420.9735358,3.8081603371934607,-0.5818396628065394,8.884481011580382,-0.35,0.43333333333333335,-0.6144444444444445,0.04599157016348773,0.0,0.07900842983651227
1589988420.9835358,3.8053134807267406,-0.5940595578197785,8.913432596366297,-0.35,0.43333333333333335,-0.6144444444444445,0.058581490915743696,0.08787223637361555,0.03712776362638445
1589988420.9935358,3.8051019496344436,-0.61,8.94680259951259,-0.3486772723169961,0.4308768390648976,-0.6144444444444445,0.125,0.16624187652315192,-0.0625
1589988421.0035357,3.8202029104324655,-0.6026521828243492,8.977550727608117,-0.3422222222222222,0.4188888888888889,-0.6144444444444445,0.125,0.03188409510145522,-0.0778079524492724
1589988421.0135357,3.801099268975883,-0.5883244517319123,8.972774817243971,-0.3422222222222222,0.4188888888888889,-0.6144444444444445,0.125,-0.027814784450365504,-0.10765739222518275
1589988421.0235357,3.801877935858876,-0.5918779358588759,8.934366192423372,-0.3422222222222222,0.4188888888888889,-0.6144444444444445,0.125,-0.24809274779493765,-0.08788145044101248
1589988421.0335357,3.7914020259772543,-0.6,8.947195948045492,-0.3422222222222222,0.4188888888888889,-0.6144444444444445,0.0862542207859466,-0.18127110392973297,0.014991558428106802
1589988421.0435357,3.784374246890236,-0.595625753109764,8.97,-0.3497556474220731,0.4232631357791249,-0.6132293758638233,0.0625,-0.04883047846801253,0.04883047846801253
1589988421.0535357,3.7921496765103906,-0.5878503234896094,8.97,-0.3631466651012282,0.4310385653992795,-0.6110695343026693,0.0625,-0.024532260905029385,0.024532260905029385
1589988421.0635357,3.7999251061305452,-0.5800748938694548,8.97,-0.3765376827803834,0.4388139950194341,-0.6089096927415153,0.0625,-0.00023404334204623484,0.00023404334204623484
1589988421.0735357,3.805655885397365,-0.584344114602635,8.835204401109223,-0.37666666666666665,0.4388888888888889,-0.6088888888888889,0.13857535813323452,0.04892464186676549,0.0760753581332345
1589988421.0835357,3.7949360407907684,-0.5950639592092316,8.87272385723231,-0.37666666666666665,0.4388888888888889,-0.6088888888888889,0.17207487252884873,0.015425127471151268,0.10957487252884873
1589988421.0935357,3.799607913898147,-0.5951960430509265,8.942843526439807,-0.36972761774022733,0.4415577538605963,-0.6115577538605963,0.15747526906829135,0.1501236546585433,0.09497526906829135
1589988421.1035357,3.8058751638386057,-0.5879375819193028,8.989687909596514,-0.3622222222222222,0.4444444444444444,-0.6144444444444445,0.09921977399128556,0.2480494349782139,0.023829660986928333
1589988421.1135356,3.795969747422863,-0.5829848737114315,8.964924368557156,-0.3622222222222222,0.4444444444444444,-0.6144444444444445,0.037310921392893825,0.09327730348223459,-0.06903361791065926
1589988421.1235356,3.7928044224555735,-0.5814022112277867,8.955608844911147,-0.3612874147370311,0.44537925192963557,-0.6156908544246994,0.0,0.017527640347334412,-0.11623617982633279
1589988421.1335356,3.7998626817447496,-0.5849313408723747,8.969725363489498,-0.35893466164063903,0.4477320050260276,-0.618827858553222,0.0,0.06164176090468498,-0.09417911954765751
1589988421.1435356,3.8069209410339258,-0.5884604705169628,8.983841882067852,-0.35658190854424704,0.45008475812241966,-0.6219648626817447,0.0,0.10575588146203554,-0.07212205926898223
1589988421.1535356,3.808393472249587,-0.5867869444991745,8.988393472249587,-0.3555555555555556,0.4511111111111111,-0.6233333333333333,0.010040798440079627,0.125,-0.04241840311984074
1589988421.1635356,3.805543831996032,-0.5810876639920645,8.985543831996033,-0.3555555555555556,0.4511111111111111,-0.6233333333333333,0.027851050024798384,0.125,-0.006797899950403231
1589988421.1735356,3.8026941917424772,-0.5753883834849545,8.982694191742478,-0.3555555555555556,0.4511111111111111,-0.6233333333333333,0.045661301609517146,0.125,0.028822603219034293
1589988421.1835356,3.8,-0.5705872388481084,8.977651044607567,-0.3555555555555556,0.4511111111111111,-0.6233333333333333,0.05515951439864483,0.11765951439864483,0.0625
1589988421.1935356,3.8,-0.58,8.941574010455563,-0.3576542361629741,0.4511111111111111,-0.6249947888142062,-0.052662434652725916,0.01475634802091113,0.0625
1589988421.2035356,3.8,-0.58,8.95410365944735,-0.3743604348186873,0.4511111111111111,-0.638220529416646,0.02564787154592979,0.1322218073188947,0.0625
1589988421.2135355,3.8,-0.5725205470223659,8.892684923201292,-0.38222222222222224,0.4511111111111111,-0.6444444444444445,0.015753418889787124,-0.09297948666127726,0.0625
1589988421.2235355,3.816549803092882,-0.5948247046393238,8.903099606185766,-0.38222222222222224,0.4511111111111111,-0.6444444444444445,0.051718134665257896,-0.1875,-0.04093626933051579
1589988421.2335355,3.8144325917383433,-0.5888651834766869,8.921134816523313,-0.38222222222222224,0.4511111111111111,-0.6444444444444445,0.0625,-0.1875,-0.027703698364646902
1589988421.2435355,3.81,-0.5747885317750182,8.950845872899928,-0.38222222222222224,0.44184627871114357,-0.632863403944485,0.09507167640613587,-0.22007167640613587,-0.03257167640613586
1589988421.2535355,3.798913967124868,-0.575543016437566,8.964456983562435,-0.38222222222222224,0.43333333333333335,-0.6222222222222222,0.02106844179563587,-0.18071229453042392,-0.02785614726521196
1589988421.2635355,3.796913835040908,-0.5869138350409081,8.897775484631827,-0.38222222222222224,0.43333333333333335,-0.6222222222222222,0.06713440701702661,0.09105734502837767,0.0
1589988421.2735355,3.813726845225925,-0.59,8.89745369045185,-0.38222222222222224,0.43333333333333335,-0.6222222222222222,0.08210360866898385,0.1017072173379677,0.04289639133101615
1589988421.2835355,3.8139550526052672,-0.5839550526052673,8.916044947394733,-0.38222222222222224,0.43333333333333335,-0.6222222222222222,0.0247190787829209,0.0247190787829209,0.0625
1589988421.2935355,3.81,-0.58,8.945136757565203,-0.3755190868715014,0.43891927945893405,-0.6300425467980632,-0.03142094695650392,0.06284189391300785,0.09392094695650392
1589988421.3035355,3.8071993217008195,-0.5771993217008193,8.981202713196723,-0.3688888888888889,0.4444444444444444,-0.6377777777777778,0.00751695747951632,0.08999152126024185,0.08999152126024185
1589988421.3135355,3.8005521482115405,-0.5705521482115405,9.007791407153837,-0.3688888888888889,0.4444444444444444,-0.6377777777777778,0.17369629471148512,0.006901852644257439,0.006901852644257439
1589988421.3235354,3.806419888545607,-0.5920994427280339,8.887900557271966,-0.3688888888888889,0.4444444444444444,-0.6377777777777778,-0.0625,-0.10262430341004244,0.10725139317991511
1589988421.3335354,3.8,-0.56,8.929663643049766,-0.3688888888888889,0.4444444444444444,-0.6377777777777778,-0.002102230938955625,-0.15309665359156657,0.1573011154694778
1589988421.3435354,3.8256061861364263,-0.5664015465341066,8.952803093068214,-0.35679707876890976,0.4487121421338488,-0.6335100800883734,0.14251933167633252,-0.08996133664733497,0.04498066832366748
1589988421.3535354,3.828131738643728,-0.5818682613562717,8.954065869321864,-0.35,0.4511111111111111,-0.6311111111111111,0.15041168326165086,0.07417663347669828,0.07417663347669828
1589988421.3635354,3.82,-0.583493643743299,8.87843008117629,-0.35,0.4511111111111111,-0.6311111111111111,0.08433527339561955,0.04367054679123909,0.003005820186858632
1589988421.3735354,3.8060496562435757,-0.586975171878212,8.888826203147485,-0.35,0.4511111111111111,-0.6311111111111111,0.0625,-0.13078447271647517,0.11187929695530024
1589988421.3835354,3.8117028217256563,-0.5841485891371717,8.933405643451312,-0.35,0.4511111111111111,-0.6311111111111111,-0.010642635785353127,-0.11435736421464687,0.041214728429293745
1589988421.3935354,3.8266967469842155,-0.5866967469842156,8.95,-0.3581849129807079,0.4392057831391723,-0.6259025301233878,0.06306400595404224,-0.1462093373026948,0.021209337302694822
1589988421.4035354,3.8183360047713126,-0.5783360047713124,8.961663995228687,-0.3622222222222222,0.43333333333333335,-0.6233333333333333,0.05210002982070301,-0.07815004473105454,0.0625
1589988421.4135354,3.81,-0.5829181236392426,8.905409381803787,-0.3622222222222222,0.43333333333333335,-0.6233333333333333,0.040369136372633105,-0.040369136372633105,0.022130863627366895
1589988421.4235353,3.8214696802646086,-0.5842651598676957,8.898674200661521,-0.3622222222222222,0.43333333333333335,-0.6233333333333333,0.13418550165380375,-0.0625,0.03584275082690187
1589988421.4335353,3.822080831994589,-0.5839595840027056,8.931878752008117,-0.3622222222222222,0.43333333333333335,-0.6233333333333333,0.16275259998308955,-0.16148960006764185,-0.03648960006764185
1589988421.4435353,3.8066747101845864,-0.59,8.95,-0.3644390820991647,0.43333333333333335,-0.6233333333333333,0.125,-0.2709338773073287,-0.10436775461465744
1589988421.4535353,3.8055910318546746,-0.5955910318546745,8.933226904435976,-0.3688888888888889,0.43333333333333335,-0.6233333333333333,0.125,-0.1525560509082837,-0.00738789818343262
1589988421.4635353,3.8030772600465728,-0.6,8.885386300232863,-0.3688888888888889,0.43333333333333335,-0.6233333333333333,-0.004801374126760877,0.004801374126760877,-0.0625
1589988421.4735353,3.819466745331185,-0.5935110848896049,8.902444575551975,-0.3688888888888889,0.43333333333333335,-0.6233333333333333,0.05916715831990742,0.0625,-0.10305571943996913
1589988421.4835353,3.814823117940485,-0.584941039313495,8.92,-0.3688888888888889,0.43333333333333335,-0.6233333333333333,0.06176299141868777,0.0625,-0.030144487128031652
1589988421.4935353,3.8046292833098367,-0.58,8.94777569985902,-0.36271651114243975,0.43333333333333335,-0.626933887018762,-0.02893302068648042,0.03356697931351958,0.0625
1589988421.5035353,3.81,-0.5938010909953356,8.966198909004664,-0.3555555555555556,0.43333333333333335,-0.6311111111111111,-0.033747727093050836,0.0,0.033747727093050836
1589988421.5135353,3.8153595513854275,-0.5778426916874358,8.896404486145727,-0.3555555555555556,0.43333333333333335,-0.6311111111111111,0.0,-0.03349719615892098,0.03349719615892098
1589988421.5235353,3.8031760988221777,-0.5724318682370966,8.900471703533468,-0.3555555555555556,0.43333333333333335,-0.6311111111111111,0.03504979412046347,-0.027450205879536532,0.0625
1589988421.5335352,3.798618969894813,-0.5813810301051867,8.944309484947405,-0.3555555555555556,0.43333333333333335,-0.6311111111111111,0.0625,-0.05386856184258251,0.11636856184258251
1589988421.5435352,3.81,-0.57,8.966762217577386,-0.35928049279497476,0.42960839609391416,-0.6267653509984553,0.027578713380445243,-0.125,0.11765742676089049
1589988421.5535352,3.81,-0.5794734579130146,8.970526542086986,-0.3622222222222222,0.4266666666666667,-0.6233333333333333,0.029604555978170993,-0.154604555978171,0.0032908880436580135
1589988421.5635352,3.81,-0.5940312425280944,8.927750059775246,-0.3622222222222222,0.4266666666666667,-0.6233333333333333,0.0625,-0.13710946839882043,-0.012109468398820433
1589988421.5735352,3.814181138745891,-0.595818861254109,8.888362277491783,-0.3622222222222222,0.4266666666666667,-0.6233333333333333,0.03636788283818148,-0.0625,0.08863211716181851
1589988421.5835352,3.8169676577628233,-0.5869676577628236,8.907580855592942,-0.3622222222222222,0.4266666666666667,-0.6233333333333333,-0.009476069491176268,-0.03407179152647119,0.10604786101764746
1589988421.5935352,3.8,-0.57,8.960189806054872,-0.3622222222222222,0.4300632686849574,-0.6272960356880058,-0.09434314392147587,0.02947056823557237,-0.06368628784295174
1589988421.6035352,3.8,-0.5637002708545585,8.951100812563675,-0.3622222222222222,0.43333333333333335,-0.6311111111111111,-0.0068800785229729405,-0.18061992147702705,-0.0068800785229729405
1589988421.6135352,3.8,-0.5863896205248269,8.874025948687933,-0.3622222222222222,0.43333333333333335,-0.6311111111111111,0.10373378207004194,-0.12629865378987415,0.021266217929958052
1589988421.6235352,3.794299069227479,-0.5885981384549583,8.874205584635124,-0.3622222222222222,0.43333333333333335,-0.6311111111111111,0.05373836534348968,-0.0625,0.10689245198476548
1589988421.6335351,3.7988884622768286,-0.5844442311384143,8.926665386830486,-0.3622222222222222,0.43333333333333335,-0.6311111111111111,0.0,-0.11805288923017854,0.1875
1589988421.6435351,3.8050326531887633,-0.5850326531887635,8.97490204043371,-0.35891065768139796,0.4300217687925091,-0.6200725626416967,0.0,-0.06331632971908885,0.12540816485954442
1589988421.6535351,3.8,-0.58,8.99,-0.3555555555555556,0.4266666666666667,-0.6088888888888889,0.032274948533967576,-0.03432484560190274,-0.03432484560190274
1589988421.663535,3.8,-0.58,8.925512354651163,-0.3555555555555556,0.4266666666666667,-0.6088888888888889,0.028912684714147284,-0.05782536942829457,-0.02423805414244186
1589988421.673535,3.8100706220023413,-0.5850353110011707,8.890141244004683,-0.3555555555555556,0.4266666666666667,-0.6088888888888889,-0.03147069375731712,0.03147069375731712,0.0625
1589988421.683535,3.823467366741991,-0.5865326332580088,8.923869466967965,-0.3555555555555556,0.4266666666666667,-0.6088888888888889,-0.04082895786255483,0.04082895786255483,0.08417104213744517
1589988421.693535,3.8224884667571235,-0.58,8.957511533242876,-0.36348439620081413,0.43334358510477916,-0.6172350369365295,-0.04694708276797829,0.04694708276797829,0.0780529172320217
1589988421.703535,3.802789323553382,-0.58,8.941157294213529,-0.37666666666666665,0.4444444444444444,-0.6311111111111111,-0.03486654441727792,0.07993327220863897,0.04506672779136104
1589988421.713535,3.7933066852044957,-0.5816533426022477,8.885039972193256,-0.37666666666666665,0.4444444444444444,-0.6311111111111111,0.1146666087359518,0.020666782528096398,0.09399982620785541
