time,acc_x,acc_y,acc_z,mag_x,mag_y,mag_z,gyr_x,gyr_y,gyr_z
1589988477.243842,-3.8,-0.81,8.78,0.33,-0.3566666666666667,-0.6088888888888889,0.1875,0.0625,0.0
1589988477.2538419,-3.82,-0.796626875544998,8.817529843341251,0.33,-0.3566666666666667,-0.6088888888888889,0.2970615208828217,0.10956152088282166,-0.03652050696094056
1589988477.2638419,-3.8163537701465944,-0.8163537701465943,8.82552360897384,0.33,-0.3566666666666667,-0.6088888888888889,0.027977443913501265,0.0683668097513566,-0.04557787316757107
1589988477.2738419,-3.81,-0.8092897088799457,8.873551455600271,0.33,-0.3566666666666667,-0.6088888888888889,-0.2677572780013589,0.17862136099932055,-0.11168204149898082
1589988477.2838418,-3.81,-0.8014786469051308,8.930350528335916,0.3290142353965795,-0.3584739017729376,-0.6110247121963001,-0.5,0.07174154315706721,0.0625
1589988477.2938418,-3.811775893355667,-0.8153276800670017,8.981120533221665,0.3233333333333333,-0.3688888888888889,-0.6233333333333333,-0.5110993334729201,0.13609933347292016,0.05140066652707984
1589988477.3038418,-3.8154064593540644,-0.84,8.884877512248774,0.3233333333333333,-0.3688888888888889,-0.6233333333333333,-0.5912096290370963,0.30233851614838514,0.05741925807419258
1589988477.3138418,-3.8136877359860586,-0.84,8.82368773598606,0.3233333333333333,-0.3688888888888889,-0.6233333333333333,-0.5558549502614,0.4835966998257334,0.1480483499128667
1589988477.3238418,-3.8218398296168945,-0.8326406815324215,8.82632034076621,0.3233333333333333,-0.3688888888888889,-0.6233333333333333,-0.35700745426086067,0.49350638936645197,0.17600106489440867
1589988477.3338418,-3.824316615298403,-0.8,8.81,0.3233333333333333,-0.36004806824196006,-0.615439743470004,0.05328173157747268,0.1875,0.14276057719249088
1589988477.3438418,-3.8132805746758445,-0.8065611493516889,8.823122298703378,0.3233333333333333,-0.3377777777777778,-0.5955555555555555,0.1875,0.20800359172402755,0.1875
1589988477.3538418,-3.82,-0.8172899922219341,8.828319937775472,0.3233333333333333,-0.3377777777777778,-0.5955555555555555,0.1875,0.19918735416126523,0.20443754861291158
1589988477.3638418,-3.82,-0.813699146014417,8.806991460144168,0.3233333333333333,-0.3377777777777778,-0.5955555555555555,0.11814101222968218,0.039380337409894065,0.22688033740989405
1589988477.3738418,-3.82,-0.82,8.878195997303642,0.3233333333333333,-0.3377777777777778,-0.5955555555555555,0.012806245786941261,0.012806245786941261,0.1618875084261175
1589988477.3838418,-3.8224113320451285,-0.8224113320451286,8.919645328180515,0.3249408880300858,-0.3393853324745303,-0.5987706649490605,-0.012854126410272393,0.0625,0.07757082528205447
1589988477.3938417,-3.8269455391399454,-0.8330544608600545,8.94389107827989,0.33,-0.34444444444444444,-0.6088888888888889,-0.23090961962465928,0.15795190187670352,0.10590961962465929
1589988477.4038417,-3.82,-0.8384042860086544,8.919627859056254,0.33,-0.34444444444444444,-0.6088888888888889,-0.17752678755409027,0.35006696888522565,0.0625
1589988477.4138417,-3.82,-0.8233271700225611,8.8,0.33,-0.34444444444444444,-0.6088888888888889,-0.020910374717986124,-0.08306368848704856,0.0625
1589988477.4238417,-3.8192785360316712,-0.827835608095014,8.801442927936659,0.33,-0.34444444444444444,-0.6088888888888889,0.08053659920821682,-0.36147255059383737,0.057990850197945795
1589988477.4338417,-3.811772077375946,-0.8,8.816455845248107,0.32881861508270255,-0.343263059527147,-0.6088888888888889,0.3235754835996636,-0.20965096719932716,0.022150967199327163
1589988477.4438417,-3.818915383724968,-0.8,8.80542308137516,0.3233333333333333,-0.3377777777777778,-0.6088888888888889,0.35466344484315315,-0.2989422965621021,0.125
1589988477.4538417,-3.81,-0.7959317970757834,8.821522579530484,0.3233333333333333,-0.3377777777777778,-0.6088888888888889,0.23835253655270716,-0.16207373172364642,0.04872119517093926
1589988477.4638417,-3.8137492554321084,-0.7974985108642167,8.809994043456866,0.3233333333333333,-0.3377777777777778,-0.6088888888888889,0.21876861419729107,-0.125,-0.015634307098645536
1589988477.4738417,-3.8133735231184294,-0.8033735231184297,8.883192669085496,0.3233333333333333,-0.3377777777777778,-0.6088888888888889,0.02108451949018513,-0.1871232207647223,0.0625
1589988477.4838417,-3.8,-0.7936075816286684,8.93,0.32112870011581374,-0.33857946258414856,-0.6088888888888889,-0.08504738517917755,-0.28995261482082246,0.07377369258958878
1589988477.4938416,-3.803017520021411,-0.8160350400428221,8.923964959957178,0.3111111111111111,-0.3422222222222222,-0.6088888888888889,-0.14978099973236159,-0.14978099973236159,0.0684214995985424
1589988477.5038416,-3.81229539605376,-0.8277046039462396,8.887046039462396,0.3111111111111111,-0.3422222222222222,-0.6088888888888889,-0.019461323991993136,-0.0625,-0.048153774663997714
1589988477.5138416,-3.82,-0.8169881332449852,8.816023733510029,0.3111111111111111,-0.3422222222222222,-0.6088888888888889,0.16264833443768448,-0.006027498343473284,0.03764833443768448
1589988477.5238416,-3.8183817229890527,-0.8116182770109472,8.83485483103284,0.3111111111111111,-0.3422222222222222,-0.6088888888888889,0.2601142313184198,0.0946573060447406,0.0845430747263208
1589988477.5338416,-3.808703219736567,-0.814812878946268,8.858703219736567,0.3135605849420401,-0.3440953492694032,-0.6080243687132669,0.3125,-0.0868146299393686,-0.1168951233535438
1589988477.5438416,-3.803328197819974,-0.7833281978199746,8.845007703270038,0.33,-0.3566666666666667,-0.6022222222222222,0.32290061818742055,-0.25,-0.03129814543773832
1589988477.5538416,-3.819483110580441,-0.7994831105804414,8.820775334129339,0.33,-0.3566666666666667,-0.6022222222222222,0.3733847205638794,-0.25,0.12015416169163809
1589988477.5638416,-3.8052100360829066,-0.8,8.758655198455987,0.33,-0.3566666666666667,-0.6022222222222222,-0.06512545103633464,0.23634408827725098,0.046218637240916335
1589988477.5738416,-3.8192884115129644,-0.8,8.836086263321306,0.33,-0.3566666666666667,-0.6022222222222222,-0.2411051439120584,0.3683288579340438,0.0022237140219854012
1589988477.5838416,-3.829131473757386,-0.8308685262426138,8.900868526242615,0.3271049125246206,-0.35560513459236087,-0.6034767601282199,-0.3125,0.3587151329509906,0.17664342196732707
1589988477.5938416,-3.8200197688564477,-0.8399802311435522,8.909980231143553,0.29673256285482563,-0.34446860638010274,-0.6166381116517978,-0.3125,0.18787066605839414,0.0627471107055961
1589988477.6038415,-3.816998705751459,-0.8130012942485412,8.893984469017507,0.2966666666666667,-0.34444444444444444,-0.6166666666666667,-0.006225732839853768,-0.10001617810676415,0.08748382189323585
1589988477.6138415,-3.8070786044556537,-0.8170786044556536,8.827528373266079,0.2966666666666667,-0.34444444444444444,-0.6166666666666667,0.16151744430432954,-0.13272383354350567,-0.018258722152164775
1589988477.6238415,-3.8,-0.807437294969929,8.867437294969928,0.2966666666666667,-0.34444444444444444,-0.6166666666666667,0.26601690643794423,0.01601690643794423,-0.0625
1589988477.6338415,-3.8,-0.8002709814106069,8.860270981410606,0.2966666666666667,-0.34444444444444444,-0.6166666666666667,0.31080636618370694,0.06080636618370694,-0.0625
1589988477.6438415,-3.82,-0.8,8.855254228805926,0.33,-0.35,-0.6177777777777778,0.2940677860074067,0.14343221399259334,-0.007203358022219997
1589988477.6538415,-3.8136224430699377,-0.8,8.794489772279752,0.33,-0.35,-0.6177777777777778,0.19021040378066578,0.14764026918711054,0.14492986540644473
1589988477.6638415,-3.802524254257075,-0.80504850851415,8.7500970170283,0.33,-0.35,-0.6177777777777778,-0.0006063564268749266,0.07827658910671872,0.1401702326798438
1589988477.6738415,-3.811429273011385,-0.8192853634943076,8.788575638068307,0.33,-0.35,-0.6177777777777778,-0.20089943448173228,0.125,0.008932956321154848
1589988477.6838415,-3.823913237592083,-0.8130433812039587,8.863479425552496,0.33,-0.35,-0.6177777777777778,-0.3179366024257757,0.125,0.08695773495051716
1589988477.6938415,-3.8211416560194533,-0.8188583439805465,8.92657503194164,0.3240944373463023,-0.3667324275188101,-0.6099036942395143,-0.09817675060792153,0.125,0.06963535012158431
1589988477.7038414,-3.8115776912988326,-0.8115776912988326,8.93,0.3233333333333333,-0.3688888888888889,-0.6088888888888889,-0.0625,-0.03291828814688999,-0.09541828814688999
1589988477.7138414,-3.8229821241509816,-0.81,8.852982124150982,0.3233333333333333,-0.3688888888888889,-0.6088888888888889,0.00931913797181766,-0.11568086202818234,0.0625
1589988477.7238414,-3.8371554083736017,-0.81,8.867155408373602,0.3233333333333333,-0.3688888888888889,-0.6088888888888889,0.053610651167505824,-0.07138934883249418,0.0625
1589988477.7338414,-3.8205070209611303,-0.8002535104805653,8.87,0.3233333333333333,-0.3688888888888889,-0.6088888888888889,0.0015844405035322848,-0.18433111899293542,0.0625
1589988477.7438414,-3.811679294975689,-0.8,8.853358589951377,0.3233333333333333,-0.3531720016207455,-0.6033417522060147,-0.05200440640194489,0.02051762560777956,0.0625
1589988477.7538414,-3.8385197152142467,-0.7970394304284937,8.794078860856988,0.3233333333333333,-0.35,-0.6022222222222222,-0.1782482200890425,0.1967517799109575,-0.018503559821914976
1589988477.7638414,-3.8306405800912966,-0.7812811601825935,8.762562320365188,0.3233333333333333,-0.35,-0.6022222222222222,-0.12900362557060469,0.24599637442939531,-0.1169927488587906
1589988477.7738414,-3.827783600265702,-0.8133508007971068,8.846649199202893,0.3233333333333333,-0.35,-0.6022222222222222,0.048647501660639164,-0.26385249833936086,-0.020942504981917485
1589988477.7838414,-3.8200444682264374,-0.7901334046793121,8.869866595320687,0.3233333333333333,-0.35,-0.6022222222222222,0.0002779264152335953,-0.3122220735847664,0.12416622075429923
1589988477.7938414,-3.79,-0.8024799659757353,8.912479965975736,0.3233333333333333,-0.3566666666666667,-0.5955555555555555,0.125,-0.375,-0.03150042530330841
1589988477.8038414,-3.79,-0.8079017217544301,8.894820661053162,0.3233333333333333,-0.3566666666666667,-0.5955555555555555,0.125,-0.34877152193037575,0.08872847806962422
1589988477.8138413,-3.7951791964505794,-0.8,8.815537589351738,0.3233333333333333,-0.3566666666666667,-0.5955555555555555,0.09263002218387971,-0.136705077643579,0.15513002218387972
1589988477.8238413,-3.812187298606124,-0.8,8.857812701393875,0.3233333333333333,-0.3566666666666667,-0.5955555555555555,-0.054682465153105375,0.13281753484689462,0.02148815113517097
1589988477.8338413,-3.819910327938279,-0.8,8.85008967206172,0.3233333333333333,-0.3566666666666667,-0.5955555555555555,-0.24775819845697766,-0.06025819845697766,-0.12331864884273325
1589988477.8438413,-3.803232147551924,-0.7832321475519243,8.866767852448074,0.3130863123928426,-0.3566666666666667,-0.6132549553618577,-0.25,-0.010100461099763383,0.03219861670070984
1589988477.8538413,-3.780496883706235,-0.7897515581468824,8.850496883706235,0.3111111111111111,-0.3566666666666667,-0.6166666666666667,-0.4937889536720568,0.0,0.1234472384180142
1589988477.8638413,-3.820354392445203,-0.8103543924452034,8.781771962226015,0.3111111111111111,-0.3566666666666667,-0.6166666666666667,-0.7544299055650416,0.3838598111300833,0.3102850472174792
1589988477.8738413,-3.8276622991950378,-0.8176622991950377,8.81831149597519,0.3111111111111111,-0.3566666666666667,-0.6166666666666667,-0.8457787399379726,0.5665574798759452,0.2646106300310137
1589988477.8838413,-3.8119979805629183,-0.8019979805629182,8.848002019437082,0.3111111111111111,-0.3566666666666667,-0.6166666666666667,-0.4812058248138331,0.45623106777735706,0.306256310740881
1589988477.8938413,-3.8060678167757285,-0.7878643664485425,8.867864366448543,0.31777777777777777,-0.3644444444444445,-0.5955555555555555,-0.5284428911362284,0.5474048185603807,0.27844289113622844
1589988477.9038413,-3.844126868867415,-0.7278785678377925,8.80825373773483,0.31777777777777777,-0.3644444444444445,-0.5955555555555555,-0.7367410489862034,0.8758099201251187,0.46563774227783056
1589988477.9138412,-3.930029231599918,-0.8918739875998436,8.980058463199835,0.31777777777777777,-0.3644444444444445,-0.5955555555555555,-1.7617124224990226,2.193630257498743,1.0513356699994416
1589988477.9238412,-3.8032333226939032,-0.8535333546121928,8.89,0.31777777777777777,-0.3644444444444445,-0.5955555555555555,-0.5378131982125758,0.4854173316310246,1.5763545323970636
1589988477.9338412,-3.8199676827322055,-0.8200646345355889,8.89,0.31777777777777777,-0.3644444444444445,-0.5955555555555555,0.5603791793009893,-0.5604801707628471,1.001110906080434
1589988477.9438412,-3.86009250597651,-0.8133950039843397,8.911743754980424,0.31777777777777777,-0.35,-0.6166666666666667,-0.5,0.38589846862765476,-0.0625
1589988477.9538412,-3.8164972456085646,-0.7843314970723764,8.87541437134047,0.31777777777777777,-0.35,-0.6166666666666667,-0.5,0.15883982087794063,-0.0625
1589988477.9638412,-3.8220539912596116,-0.8,8.788215965038447,0.31777777777777777,-0.35,-0.6166666666666667,-0.4263497814902915,0.3158744537257288,0.2003374453725729
1589988477.9738412,-3.8297881285611552,-0.8,8.819152514244621,0.31777777777777777,-0.35,-0.6166666666666667,-0.6197032140288765,0.7992580350721912,0.24867580350721913
1589988477.9838412,-3.809114364999705,-0.8002952116667651,8.871180846667059,0.3183682011113079,-0.35,-0.6164370575925161,-0.619464781248155,0.556964781248155,0.648985947924662
1589988477.9938412,-3.78,-0.8001232820021346,8.902098625601708,0.3377777777777778,-0.35,-0.6088888888888889,-0.4251541025026682,0.3379623075080046,1.6350343599573087
1589988478.0038412,-3.78,-0.7630846603507357,8.866915339649264,0.3377777777777778,-0.35,-0.6088888888888889,-0.3621472485386011,0.1875,2.5853066418060875
1589988478.0138412,-3.78,-0.7884482967143721,8.841551703285628,0.3377777777777778,-0.35,-0.6088888888888889,-0.25646543035678293,0.1875,3.8006475508969966
1589988478.0238411,-3.787655903927824,-0.7706236157112958,8.871172048036087,0.3377777777777778,-0.35,-0.6088888888888889,-0.23145180135330096,-0.0625,5.433132505638754
1589988478.0338411,-3.7706104078190723,-0.7024416312762888,8.879694796090465,0.3377777777777778,-0.35,-0.6088888888888889,-0.5510548533923963,-0.0625,6.764811889134984
1589988478.0438411,-3.5826650436775025,-0.7661477874838895,8.948812831161392,0.3233333333333333,-0.35,-0.6088888888888889,-0.6393473435486181,-0.033805312902763854,9.66902656451382
1589988478.053841,-3.5027293185264905,-0.7463646592632455,8.856970549386038,0.3233333333333333,-0.35,-0.6088888888888889,-0.4526472530698107,-0.42992637346509466,11.774596705151412
1589988478.063841,-3.3689117099217682,-0.6759411399478454,8.812636036259779,0.3233333333333333,-0.35,-0.6088888888888889,-0.7094669688314914,-0.3125,13.130491742207873
1589988478.073841,-3.1387655384615383,-0.5251852307692307,8.84561723076923,0.3233333333333333,-0.35,-0.6088888888888889,-0.9425153846153846,-0.3425923076923077,13.072146153846154
1589988478.083841,-3.048426769230769,-0.4864686153846154,8.890786615384615,0.3233333333333333,-0.35,-0.6088888888888889,-0.9828451923076923,-0.5845711538461538,12.144560576923077
1589988478.093841,-2.5851930780323666,-0.7210222720717834,9.006547027719916,0.3297698018479945,-0.35,-0.6045979098791148,-0.9396581076750521,-0.5668162153501042,8.8535891684025
1589988478.103841,-2.2331638186459943,-0.8907627229189572,8.933446322419544,0.33,-0.35,-0.6044444444444445,0.25865121219462206,0.44226701824348247,5.592160799806198
1589988478.113841,-1.664064595834804,-1.035935404165196,8.44,0.33,-0.35,-0.6044444444444445,3.636880074126368,3.9696655488881043,-2.703042269678786
1589988478.123841,-1.8029965214169565,-0.92,8.485993042833913,0.33,-0.35,-0.6044444444444445,3.8019060165078318,4.284996809583599,-6.860230173105819
1589988478.133841,-1.9497620566864953,-0.92,8.77952411337299,0.33,-0.35,-0.6044444444444445,0.9421363954469668,1.3173113537657204,-9.558126042031162
1589988478.143841,-2.0376616579828806,-0.92,9.042984973948641,0.32350654385311994,-0.35,-0.6087734152090312,-1.1322891468180125,-0.6355368440640121,-12.362802963342018
1589988478.153841,-2.163394146158807,-0.85,8.873211707682387,0.3233333333333333,-0.35,-0.6088888888888889,0.4651570073433047,1.1579603607164404,-15.144330781552288
1589988478.163841,-2.198295021946704,-0.85,8.803409956106593,0.3233333333333333,-0.35,-0.6088888888888889,1.3922115204593206,2.1395474922510456,-17.271102899877263
1589988478.173841,-2.2621867975866556,-0.8829157301155408,8.93,0.3233333333333333,-0.35,-0.6088888888888889,0.5488325150834024,1.6738325150834024,-20.723235586971096
1589988478.183841,-2.28699633266296,-0.9159951102172799,8.93,0.3233333333333333,-0.35,-0.6088888888888889,0.3937729208565006,1.5187729208565006,-23.25587562601049
1589988478.193841,-2.271402426578977,-0.91,8.829298786710511,0.31777777777777777,-0.3644444444444445,-0.6088888888888889,0.9506477491779113,2.205030332237215,-26.53601173602449
1589988478.203841,-2.291007956421969,-0.9102015912843938,8.817379313302881,0.31777777777777777,-0.3644444444444445,-0.6088888888888889,1.1212201634176155,2.440019891054923,-29.564257221900533
1589988478.213841,-2.335983186429046,-0.9191966372858092,8.700443715284479,0.31777777777777777,-0.3644444444444445,-0.6088888888888889,0.9525630508910763,2.5524579660726157,-32.4314281348517
1589988478.223841,-2.412038806081106,-0.92,8.73326208972977,0.31777777777777777,-0.3644444444444445,-0.6088888888888889,1.1326455228041483,2.570145522804148,-35.87997388767052
1589988478.233841,-2.4510149425714602,-0.92,8.795623908114337,0.31777777777777777,-0.3644444444444445,-0.6088888888888889,1.2788060346429766,2.716306034642977,-38.364702588930605
1589988478.243841,-2.4595454830713233,-0.9322725846433839,8.899090966142646,0.31777777777777777,-0.35,-0.6088888888888889,1.2613629232169192,2.767044384825379,-42.39771800181995
1589988478.253841,-2.452964950265148,-0.9651752486742603,8.885929900530297,0.31777777777777777,-0.35,-0.6088888888888889,1.4258762433713013,3.0138143650569518,-44.53639116382692
1589988478.263841,-2.45,-0.98,8.835301031887656,0.31777777777777777,-0.35,-0.6088888888888889,1.6117474202808597,3.404368550702149,-48.29368550702149
1589988478.273841,-2.4305607198631667,-1.0285982003420837,8.868878560273666,0.31777777777777777,-0.35,-0.6088888888888889,1.7464955008552094,3.7412387521380235,-51.905378523090654
1589988478.283841,-2.438550238833487,-1.03,8.89565071650046,0.31777777777777777,-0.35,-0.6088888888888889,1.643122014581413,3.75,-54.5116326573368
1589988478.293841,-2.4108740367023342,-1.0688346177302213,8.890291345567444,0.355533656126604,-0.3446063030930248,-0.6229125008470243,1.3822836391861175,3.932037270610412,-57.910775419970065
1589988478.3038409,-2.401662360180872,-1.110474960051678,8.787862679767448,0.3566666666666667,-0.34444444444444444,-0.6233333333333333,1.75,4.382421250807466,-61.257259757590184
1589988478.3138409,-2.451572433957774,-1.1247349811307925,8.723692584911433,0.3566666666666667,-0.34444444444444444,-0.6233333333333333,1.75,4.605234080168633,-63.35170035358515
1589988478.3238409,-2.440662067343499,-1.1713241346869976,8.740882756458,0.3566666666666667,-0.34444444444444444,-0.6233333333333333,1.8125,4.690258613931245,-66.99818950648739
1589988478.3338408,-2.4653237818980047,-1.2206475637960095,8.773765042530673,0.3566666666666667,-0.34444444444444444,-0.6233333333333333,1.8125,4.793015757908353,-69.25884667398377
1589988478.3438408,-2.45,-1.220024331480642,8.85012165740321,0.3644444444444445,-0.3244444444444444,-0.6311111111111111,2.0004562152620404,4.8125,-72.56888701366857
1589988478.3538408,-2.450356881932299,-1.2302745245633067,8.899807832805685,0.3644444444444445,-0.3244444444444444,-0.6311111111111111,2.1880147335562,4.8140442006686,-75.1936768026744
1589988478.3638408,-2.5710721955323343,-1.3231324581017956,8.834807279328743,0.3644444444444445,-0.3244444444444444,-0.6311111111111111,2.3621233589408663,5.3363700768225995,-77.2829803072904
1589988478.3738408,-2.5708982049960163,-1.3755089750199183,8.866407180015933,0.3644444444444445,-0.3244444444444444,-0.6311111111111111,2.545658656324694,5.716317312649388,-79.65606253222103
1589988478.3838408,-2.5620767583525645,-1.411692966589742,8.87,0.3644444444444445,-0.3244444444444444,-0.6311111111111111,2.8101013014823595,5.898560780889415,-81.60820911037652
1589988478.3938408,-2.5490387348154937,-1.4432042172816868,8.876154939261976,0.4033333333333333,-0.3055555555555556,-0.6166666666666667,2.7459947283978914,5.9354973641989455,-84.44909752463901
1589988478.4038408,-2.5201987164794866,-1.5393376117350448,8.760794865917946,0.4033333333333333,-0.3055555555555556,-0.6166666666666667,2.625827985331194,5.875413992665597,-86.6721822713729
1589988478.4138408,-2.5626180196034296,-1.548523603920686,8.691811168634512,0.4033333333333333,-0.3055555555555556,-0.6166666666666667,2.625,6.0880900980171475,-88.17913068612003
1589988478.4238408,-2.57,-1.5694543723040726,8.686484790768024,0.4033333333333333,-0.3055555555555556,-0.6166666666666667,2.5034101730995464,6.246589826900454,-89.65339826900454
1589988478.4338408,-2.57,-1.6112811214548604,8.733793570036804,0.4033333333333333,-0.3055555555555556,-0.6166666666666667,2.4766014018185754,6.273398598181425,-91.48554205455726
1589988478.4438407,-2.57656568251892,-1.6628284125945996,8.81909114267028,0.4208418200504531,-0.2880470688384358,-0.6407408359027064,2.6641420629729984,6.332071031486499,-93.25442340932449
1589988478.4538407,-2.5985476457971606,-1.7263691144929016,8.85927382289858,0.43,-0.2788888888888889,-0.6533333333333333,2.807961393116127,6.6068455724645085,-95.14561204167092
1589988478.4638407,-2.6065675729180415,-1.7234324270819585,8.781189124983502,0.43,-0.2788888888888889,-0.6533333333333333,3.058783984426554,6.707094661475518,-96.1530412762307
1589988478.4738407,-2.6016527130558407,-1.7784310086091146,8.815125582497433,0.43,-0.2788888888888889,-0.6533333333333333,3.135329456599005,6.697829456599004,-97.87709304162388
1589988478.4838407,-2.584672092881645,-1.874303489150953,8.845327907118355,0.43,-0.2788888888888889,-0.6533333333333333,3.1728997097448595,6.6875,-99.03509448515233
1589988478.4938407,-2.58,-1.89046374631823,8.84046374631823,0.4808600196361053,-0.24604179287390415,-0.6607504195302654,3.4855079275553047,6.747101585511061,-100.20652378266591
1589988478.5038407,-2.58,-1.9449072733852,8.7576390899222,0.4833333333333333,-0.24444444444444444,-0.6611111111111111,3.214024617785417,6.978780305771666,-101.22231629952958
1589988478.5138407,-2.5365172837819374,-1.9934827162180626,8.671731110807487,0.4833333333333333,-0.24444444444444444,-0.6611111111111111,3.0787932094548434,7.0,-101.85603395272578
1589988478.5238407,-2.4955917349483436,-2.008602066262914,8.694408265051656,0.4833333333333333,-0.24444444444444444,-0.6611111111111111,3.0087370858567866,7.16128874242964,-102.69018079800499
1589988478.5338407,-2.5085768259801817,-2.040961376633636,8.724769101306908,0.4833333333333333,-0.24444444444444444,-0.6611111111111111,2.9225965584159095,7.071394837623864,-103.1608154871284
1589988478.5438406,-2.5020682044925477,-2.113795386522357,8.775863591014906,0.49063887965118425,-0.2225278054908916,-0.6737297820237627,3.1365053511503462,7.112073721921577,-103.375
1589988478.5538406,-2.4798248294485505,-2.1601751705514496,8.78982482944855,0.4955555555555556,-0.20777777777777776,-0.6822222222222222,3.407892223919841,7.282892223919841,-103.34320259202671
1589988478.5638406,-2.458956884561892,-2.2031293463143253,8.741349095966621,0.4955555555555556,-0.20777777777777776,-0.6822222222222222,3.361961057023644,7.271470792767733,-103.24348052851182
1589988478.5738406,-2.4587202988076426,-2.2736014940382128,8.771042091653497,0.4955555555555556,-0.20777777777777776,-0.6822222222222222,3.4135056026432986,7.023994397356701,-103.13299813245223
1589988478.5838406,-2.423205676821608,-2.3094354585427133,8.794717729271357,0.4955555555555556,-0.20777777777777776,-0.6822222222222222,3.2535283841080402,7.09198580794598,-103.17099290397299
1589988478.5938406,-2.372359283335976,-2.357640716664024,8.81505628666561,0.5248316685164632,-0.16762768000281872,-0.6872409844440921,3.1875,7.07794910416997,-103.23455089583003
1589988478.6038406,-2.3371876239587466,-2.3776041253470845,8.812395874652916,0.5344444444444445,-0.15444444444444444,-0.6888888888888889,3.1875,7.157551566838556,-103.34505156683855
1589988478.6138406,-2.304958989663419,-2.4488627784255983,8.697315453485386,0.5344444444444445,-0.15444444444444444,-0.6888888888888889,3.148373421349092,7.422259471905449,-103.49237973595272
1589988478.6238406,-2.2972920494140006,-2.5264602470700033,8.666460247070003,0.5344444444444445,-0.15444444444444444,-0.6888888888888889,3.125,7.471349382324992,-103.74480123535001
1589988478.6338406,-2.294895678889687,-2.54,8.720834568882502,0.5344444444444445,-0.15444444444444444,-0.6888888888888889,3.2845100346972775,7.565108027757822,-103.87630401387891
1589988478.6438406,-2.264593601845129,-2.5357656003075215,8.713421603382736,0.5405607995558024,-0.13562489025565094,-0.6950052440002468,3.3581050057660273,7.475780015376073,-104.14921998462393
1589988478.6538405,-2.190750655443632,-2.61634855802401,8.744198426935283,0.5488888888888889,-0.11,-0.7033333333333334,2.9065682351317785,7.1875,-104.82999344556369
1589988478.6638405,-2.1716104942517442,-2.656779011496512,8.677715436769185,0.5488888888888889,-0.11,-0.7033333333333334,3.4941473420457894,7.606975287412793,-105.199672054633
1589988478.6738405,-2.1235308922982643,-2.66,8.644510297432756,0.5488888888888889,-0.11,-0.7033333333333334,3.5281893589547177,7.8811212820905645,-105.54043192313584
1589988478.6838405,-2.0767468942467366,-2.706554348054569,8.759711180711749,0.5488888888888889,-0.11,-0.7033333333333334,2.876504267126311,7.771234471233683,-105.95753105753263
1589988478.6938405,-2.044685273508803,-2.7529720897367955,8.797027910263203,0.5437839800584899,-0.06490663866480861,-0.7092890603021322,2.897509641994936,7.878934081139963,-106.50786816227993
1589988478.7038405,-2.0022058627285264,-2.7902353098171786,8.737088207819937,0.5422222222222223,-0.05111111111111112,-0.7111111111111111,2.952757328410658,8.126470686357369,-106.43602931364263
1589988478.7138405,-1.996180174426727,-2.8061801744267267,8.66437843015946,0.5422222222222223,-0.05111111111111112,-0.7111111111111111,2.8216217294988724,8.071621729498872,-106.56813045083521
1589988478.7238405,-1.9591478307605028,-2.837234779492998,8.664043474366247,0.5422222222222223,-0.05111111111111112,-0.7111111111111111,2.7925543429578097,8.0,-106.43217394225314
1589988478.7338405,-1.9201235850256497,-2.883127358290584,8.68,0.5422222222222223,-0.05111111111111112,-0.7111111111111111,2.8125,8.207045989316148,-105.85699882350447
1589988478.7438405,-1.8726574831396183,-2.8875524943798725,8.68,0.5588188963823919,-0.03036526841089907,-0.7470705717914786,2.7347030898742046,8.234703089874206,-105.08042162911943
1589988478.7538404,-1.8809510284267084,-2.9480922625387582,8.661429382943975,0.5688888888888889,-0.017777777777777778,-0.7688888888888888,2.6488112144666145,8.148811214466615,-104.05360186039906
1589988478.7638404,-1.8726612135528682,-2.9945564644078555,8.627217677960724,0.5688888888888889,-0.017777777777777778,-0.7688888888888888,2.3971767796072347,8.295867415294573,-102.99848614391989
1589988478.7738404,-1.8321593083410106,-3.027442420806463,8.631362766635958,0.5688888888888889,-0.017777777777777778,-0.7688888888888888,2.125,8.647012968606052,-101.63744596414145
1589988478.7838404,-1.8038815094216918,-3.074029622644577,8.675970377355423,0.5688888888888889,-0.017777777777777778,-0.7688888888888888,2.2005554245858194,8.572778301656722,-99.95713089567042
1589988478.7938404,-1.7669278918377567,-3.0756426306125855,8.674357369387414,0.5761511712012463,-0.01608324523822771,-0.7720358778909104,2.1763322066432984,8.19308389667835,-98.49373017860124
1589988478.8038404,-1.706905601806124,-3.1123775927755046,8.676905601806123,0.6022222222222222,-0.01,-0.7833333333333333,1.4829000282206857,8.069220050797234,-96.06108014674757
1589988478.8138404,-1.6614941932807963,-3.1014941932807965,8.631494193280796,0.6022222222222222,-0.01,-0.7833333333333333,1.1824709664039816,7.923132258399004,-93.76723869763583
1589988478.8238404,-1.65,-3.1515859232175503,8.592006398537476,0.6022222222222222,-0.01,-0.7833333333333333,1.0200239945155394,8.147452010968921,-92.13025594149909
1589988478.8338404,-1.6405763433232843,-3.2188473133534314,8.63596559673701,0.6022222222222222,-0.01,-0.7833333333333333,0.5841128746231601,7.635174676361057,-90.21928755098422
1589988478.8438404,-1.6252891979238075,-3.2588432083047696,8.719421604152386,0.6132140937333377,-0.005289197923807659,-0.7869972905037051,0.3641550778572128,7.0516550778572125,-87.7964719420233
1589988478.8538404,-1.507632224861441,-3.055264449722882,8.41063895486936,0.6255555555555555,0.0,-0.7911111111111111,-0.43550326603325407,5.845402810768013,-85.1552182304038
1589988478.8638403,-1.5037319619679266,-3.1621580869970725,8.68154641311951,0.6255555555555555,0.0,-0.7911111111111111,-0.8689862431669214,6.052663281432162,-81.34274042073629
1589988478.8738403,-1.4400722335245846,-3.1560577868196678,8.110613984958968,0.6255555555555555,0.0,-0.7911111111111111,3.733391718289254,7.211687372848424,-77.49038934098338
1589988478.8838403,-1.4941160694330626,-3.251174104149594,8.403225433956642,0.6255555555555555,0.0,-0.7911111111111111,1.0147880503613198,5.816210981151754,-75.7996512515831
1589988478.8938403,-1.4703868660598178,-3.31226520733998,8.914308987140586,0.5886004350687922,-0.06187834128016183,-0.801424167991138,0.4136708026296776,4.28073300462361,-72.88121974786881
1589988478.9038403,-1.431355772748654,-3.334858969668461,8.631974424641545,0.5777777777777777,-0.08,-0.8044444444444444,1.5978163818184985,5.173737782888203,-69.8181294534748
1589988478.9138403,-1.4325273431448489,-3.3437363284275756,8.64549217660728,0.5777777777777777,-0.08,-0.8044444444444444,0.6689697908597985,4.520617738187452,-66.96567389620449
1589988478.9238403,-1.44,-3.380856233276694,8.715797347708053,0.5777777777777777,-0.08,-0.8044444444444444,0.6045755942266753,4.151266576824671,-64.00923077674264
1589988478.9338403,-1.429806098746314,-3.4337857695919345,8.663204065830875,0.5777777777777777,-0.08,-0.8044444444444444,1.273661059949589,4.331313528607437,-61.37442340323883
1589988478.9438403,-1.4093089671500443,-3.4820730985498667,8.657601361349512,0.5723262964059057,-0.07516277005031075,-0.7939253888395646,1.5106725362533293,4.099086268126665,-58.971552234388874
1589988478.9538403,-1.3795745457865425,-3.469149091573085,8.73446818223318,0.4988888888888889,-0.01,-0.6522222222222223,1.2273920387108554,3.6861704555829453,-54.339102300739526
1589988478.9638402,-1.3307590900868307,-3.389062726121563,8.610580906295224,0.4988888888888889,-0.01,-0.6522222222222223,1.1132840765195369,3.1498352139109986,-50.85994313042692
1589988478.9738402,-1.3275785020778592,-3.4303140083114365,8.60591938279197,0.4988888888888889,-0.01,-0.6522222222222223,0.9147984569799296,2.9498320474832744,-48.024381068187324
1589988478.9838402,-1.3463320451383523,-3.516332045138352,8.664324315968464,0.4988888888888889,-0.01,-0.6522222222222223,1.1479247178852992,3.0333011284588034,-44.89333938784974
1589988478.9938402,-1.3560104438642298,-3.558031331592689,8.88417232375979,0.5060046417174354,0.03002610966057441,-0.64021438932405,1.587761096605744,3.150179503916449,-41.474086161879896
1589988479.0038402,-1.3258148747657181,-3.5424701823138522,8.834014738456295,0.5166666666666667,0.09,-0.6222222222222222,2.942965688362583,3.9532581146703016,-37.96827078718692
1589988479.0138402,-1.2728428201811126,-3.4771070504527812,8.929548835705045,0.5166666666666667,0.09,-0.6222222222222222,-0.7470235688874514,0.431122655239327,-35.92861618693402
1589988479.0238402,-1.2831562087186261,-3.4584058784676355,8.826683619550858,0.5166666666666667,0.09,-0.6222222222222222,0.13596433289299892,0.5402534676354032,-32.7097465323646
1589988479.0338402,-1.2335017946877243,-3.4167147984822073,8.456931391652137,0.5166666666666667,0.09,-0.6222222222222222,1.5647561788534508,1.7924187262844837,-29.298736027074145
1589988479.0438402,-1.2983440630593852,-3.562594290738938,8.725188581477877,0.5282674022199193,0.1390800350329917,-0.6106214866689696,-0.055082749740916315,0.3824172502590837,-26.304680385013974
1589988479.0538402,-1.32,-3.6,8.8,0.5311111111111111,0.1511111111111111,-0.6077777777777778,-0.375,0.0625,-25.8125
1589988479.0638402,-1.2849404182879378,-3.6070119163424126,8.617690175097277,0.5311111111111111,0.1511111111111111,-0.6077777777777778,0.06324477140077822,0.6322182028210117,-21.079456468871594
1589988479.0738401,-1.27,-3.61,8.5891787239335,0.5311111111111111,0.1511111111111111,-0.6077777777777778,0.6726296588035322,0.6060538534886614,-17.295139608639776
1589988479.0838401,-1.2664692455368616,-3.6241230178525536,8.644715281241968,0.5311111111111111,0.1511111111111111,-0.6077777777777778,0.9595672153946155,0.393365569210769,-15.10620644566384
1589988479.0938401,-1.2601289435097425,-3.6494842259610296,8.689097395431801,0.5311111111111111,0.1511111111111111,-0.6077777777777778,0.9991941030641089,0.3141117938717821,-13.164488949858661
1589988479.10384,-1.289839392430279,-3.6599196962151392,8.704397721613546,0.5311111111111111,0.19,-0.5955555555555555,1.3755018986553784,-0.031500949327689244,-8.988958229581673
1589988479.11384,-1.2645940552899606,-3.639188110579921,8.602970276449803,0.5311111111111111,0.19,-0.5955555555555555,1.2685642278112659,-0.13007430887549365,-6.273513822490127
1589988479.12384,-1.2637519382776747,-3.626248061722325,8.598759691388375,0.5311111111111111,0.19,-0.5955555555555555,0.9843023145871941,-0.21094961423546765,-4.210465044816762
1589988479.13384,-1.27,-3.63066395136414,8.64599592704621,0.5311111111111111,0.19,-0.5955555555555555,0.7000127279805936,-0.34997454403881284,-2.1376400077865294
1589988479.14384,-1.2663191193217767,-3.667361761356447,8.682638238643552,0.5343830050473097,0.19204493371012415,-0.6004633964598535,0.5164889915222067,-0.625,0.2031981526002784
1589988479.15384,-1.26,-3.664311439984284,8.650389299980354,0.54,0.1955555555555556,-0.6088888888888889,0.41298662497544364,-0.6740267500491127,2.3849146257612466
1589988479.16384,-1.2644279464404082,-3.66656767864245,8.602288214238365,0.54,0.1955555555555556,-0.6088888888888889,0.26430133898979186,-0.805349330505104,4.309715961818905
1589988479.17384,-1.2568820057966965,-3.6562733526556555,8.593117994203304,0.54,0.1955555555555556,-0.6088888888888889,0.15232915459021545,-1.0663040821315082,6.097203792296679
1589988479.18384,-1.2601836439651468,-3.63027546594772,8.62513773297386,0.54,0.1955555555555556,-0.6088888888888889,0.1875,-1.1548152815222912,8.25975608564842
1589988479.19384,-1.274242119150118,-3.665757880849882,8.680305165949175,0.5585531716273974,0.21346896264407722,-0.6172058278942739,0.22348675531176226,-1.2878940424940981,10.42808941466463
1589988479.20384,-1.279776666776305,-3.699330000328915,8.719776666776305,0.5722222222222222,0.22666666666666666,-0.6233333333333333,0.18889583264809395,-1.4388958326480938,12.349875012334309
1589988479.21384,-1.2743816508484325,-3.648003666954271,8.663622016105839,0.5722222222222222,0.22666666666666666,-0.6233333333333333,0.07619265890135174,-1.399403670549324,14.62256884526891
1589988479.22384,-1.2612629586225548,-3.5932092310466057,8.627577751735329,0.5722222222222222,0.22666666666666666,-0.6233333333333333,-0.24637721986838546,-1.7190739655638692,17.81806657351483
1589988479.23384,-1.2561618206355047,-3.6730636322741588,8.643098188361346,0.5722222222222222,0.22666666666666666,-0.6233333333333333,-0.3221818386292071,-1.822181838629207,20.26365885576412
1589988479.24384,-1.252925843814102,-3.712925843814102,8.62908314858173,0.5855071172533824,0.22666666666666666,-0.6287191015892091,-0.3894663095953422,-1.7884831547976712,22.5799719764623
1589988479.25384,-1.2701948486663612,-3.7203896973327226,8.640974243331806,0.6133333333333333,0.22666666666666666,-0.64,-0.7512178041647581,-2.081709594446989,24.86160415418766
1589988479.26384,-1.2781832317298911,-3.651816768270109,8.596366463459782,0.6133333333333333,0.22666666666666666,-0.64,-0.8363742379741836,-2.25,27.41255830885801
1589988479.27384,-1.2804757153432682,-3.6104757153432683,8.608761144549229,0.6133333333333333,0.22666666666666666,-0.64,-0.9755946441790853,-2.2255946441790853,28.94703925134378
1589988479.28384,-1.2486527382292563,-3.5894308323952058,8.578861664790411,0.6133333333333333,0.22666666666666666,-0.64,-0.9964427024700351,-2.246442702470035,30.148009651678695
1589988479.29384,-1.257976463453922,-3.614047073092156,8.7,0.6612705692104581,0.22833115402351128,-0.6506527190838055,-1.206470655119483,-2.606274517235498,31.91196062081904
1589988479.30384,-1.3039532024588538,-3.5418596073765616,8.703953202458854,0.7733333333333333,0.23222222222222225,-0.6755555555555556,-0.8619150307356732,-2.6242687884195917,33.12207515367837
1589988479.31384,-1.3303690025152026,-3.593456334171734,8.643960648221848,0.7733333333333333,0.23222222222222225,-0.6755555555555556,-1.0192958228533222,-2.8317958228533224,34.600245948613455
1589988479.32384,-1.3493167068043594,-3.598633413608719,8.506832931956406,0.7733333333333333,0.23222222222222225,-0.6755555555555556,-0.952447038654639,-2.760676456181885,35.54484111596392
1589988479.33384,-1.3339711952035453,-3.5520576095929095,8.71588478081418,0.7733333333333333,0.23222222222222225,-0.6755555555555556,-1.47427988008863,-3.0128600599556847,37.383359310509626
1589988479.34384,-1.325799112653034,-3.5021309670747574,8.711598225306068,1.1015316186854365,0.24747502715044498,-0.9117110525476939,-1.8912666377556127,-2.9966703639456918,38.72336291156553
1589988479.3538399,-1.361175895128155,-3.522548316267745,8.674313789430204,1.4666666666666666,0.2644444444444444,-1.1744444444444444,-1.8321118393878129,-2.9203447357551253,40.03185395334681
1589988479.3638399,-1.4098788610254347,-3.5502422779491303,8.630484555898262,1.4666666666666666,0.2644444444444444,-1.1744444444444444,-1.7168572035224174,-2.874242881408967,40.87197152563587
1589988479.3738399,-1.427794289867948,-3.5338971449339738,8.586102855066025,1.4666666666666666,0.2644444444444444,-1.1744444444444444,-1.7532142208133101,-2.9375,41.24678577918669
1589988479.3838398,-1.431063829787234,-3.519148936170213,8.61872340425532,1.4666666666666666,0.2644444444444444,-1.1744444444444444,-1.5438829787234043,-2.9933510638297873,41.4375
1589988479.3938398,-1.4129551222531722,-3.4670448777468277,8.69817951098731,1.299538085903917,0.09764421059871384,-1.0884175521854258,-1.3891829155060353,-3.1434695140823274,41.28974388734138
1589988479.4038398,-1.4305001009625091,-3.4626250252406274,8.672625025240627,0.9011111111111112,-0.3,-0.8833333333333333,-1.1085935922460792,-3.1382807767382377,40.72421669919903
1589988479.4138398,-1.4650032474020782,-3.4800064948041567,8.644977268185452,0.9011111111111112,-0.3,-0.8833333333333333,-1.1250405925259792,-3.0312702962629894,39.78102674110711
1589988479.4238398,-1.4752197083244118,-3.4847802916755883,8.620439416648823,0.9011111111111112,-0.3,-0.8833333333333333,-1.1222536459448529,-3.0951231770275736,38.850282813503675
1589988479.4338398,-1.488425395723678,-3.4547238128289663,8.63421269786184,0.9011111111111112,-0.3,-0.8833333333333333,-0.9571825534540266,-3.0723412767270135,37.78591276727013
1589988479.4438398,-1.5109316565226956,-3.417813668695461,8.66404964434993,0.844266497193094,-0.21886281603154817,-0.8471374039581856,-0.9491457065336951,-2.9590062880398915,36.76187944562587
1589988479.4538398,-1.5493776123780891,-3.4101244775243824,8.748630747231795,0.6443475267450481,0.0664916118729274,-0.7198385723481052,-1.429720154726113,-2.8148339535821663,35.70461565960255
1589988479.4638398,-1.5493332751549,-3.3906667248451,8.66486674229863,0.6411111111111111,0.07111111111111111,-0.7177777777777777,-1.3891668121127498,-2.82666681211275,33.885417575704686
1589988479.4738398,-1.6225386159350728,-3.317461384064927,8.569699799284406,0.6411111111111111,0.07111111111111111,-0.7177777777777777,-1.2061534601623178,-2.6436534601623176,32.74158412601449
1589988479.4838398,-1.4497287009884838,-3.560271299011516,8.624050453459693,0.6411111111111111,0.07111111111111111,-0.7177777777777777,-1.0788116831413979,-2.5822029207853494,31.21790219058901
1589988479.4938397,-1.4008564270871768,-3.609143572912823,8.452997494805118,0.6411111111111111,0.07111111111111111,-0.7177777777777777,-0.2642737847862816,-2.3785684461965704,31.06517633464743
1589988479.5038397,-1.5371541488029077,-3.5531620176785053,8.80047424972212,0.6166666666666667,0.14888888888888888,-0.7233333333333334,-1.1894760405088305,-2.4029148802907603,27.395256620617864
1589988479.5138397,-1.5343057915057916,-3.3594617760617758,8.52045250965251,0.6166666666666667,0.14888888888888888,-0.7233333333333334,-0.014869691119691122,-1.7278667953667954,25.710168918918917
1589988479.5238397,-1.5420508006234945,-3.4086833994615278,8.79043060082188,0.6166666666666667,0.14888888888888888,-0.7233333333333334,-1.0468362530111945,-2.2830700014170326,21.78940125938784
1589988479.5338397,-1.3822387707553012,-3.5581095349042973,8.589137641195034,0.6166666666666667,0.14888888888888888,-0.7233333333333334,-0.25321283215855134,-1.8458743769723065,19.16044622054443
1589988479.5438397,-1.2933013476759465,-3.7332533691898666,8.633589218592428,0.6140616352073126,0.14405097332151698,-0.7404521114948033,0.20753369189866455,-0.9377998655380008,13.490104437245973
1589988479.5538397,-1.3058221369161869,-3.6328624440179142,8.68319129878439,0.6088888888888889,0.13444444444444445,-0.7744444444444445,0.03638835572616764,-0.6751679462571978,5.43712412028151
1589988479.5638397,-1.33,-3.540162470062787,8.60513539171899,0.6088888888888889,0.13444444444444445,-0.7744444444444445,0.21858076035126328,-0.1570961982436835,-2.414821887069282
1589988479.5738397,-1.2602000608372137,-3.4096625874534943,8.737049863116269,0.6088888888888889,0.13444444444444445,-0.7744444444444445,0.5499216135900975,0.5725776259447317,-10.551246577906731
1589988479.5838397,-1.1971217712177122,-3.2954981549815496,8.80051660516605,0.6088888888888889,0.13444444444444445,-0.7744444444444445,1.7366236162361623,2.0389760147601477,-19.354243542435423
1589988479.5938396,-1.2621245929126494,-3.4217731273981875,8.752571824718666,0.5715229097475253,0.1024866991261729,-0.7203621062135234,1.7001801663818399,2.3854835069164544,-29.75788580595234
1589988479.6038396,-1.29,-3.55,8.97,0.5244444444444445,0.06222222222222223,-0.6522222222222223,0.0625,1.375,-35.4375
1589988479.6138396,-6.4891443677604235,-9.63796868063123,4.067130403196512,0.5244444444444445,0.06222222222222223,-0.6522222222222223,-10.86860546070953,23.23721092141906,-46.84646799451104
1589988479.6238396,-1.6479702111538694,-4.088696588439375,1.9586716647059998,0.5244444444444445,0.06222222222222223,-0.6522222222222223,-68.89396696109904,94.44350038881025,-254.69778976332424
1589988479.6338396,-1.3822838238649329,-1.4400809947524527,-0.3058156513803331,0.5244444444444445,0.06222222222222223,-0.6522222222222223,-25.535321127081907,-116.13693531827515,-446.1537117841661
1589988479.6438396,0.180730093543235,-2.1179186630161992,0.25240360483686963,0.5244444444444445,0.06222222222222223,-0.6522222222222223,-31.914969769564223,-56.028683264887064,-434.14202957449237
1589988479.6538396,-0.2844250604421408,-1.5316697684935556,-0.04965961073521994,0.5433333333333333,0.21333333333333332,-0.6377777777777778,-26.825465708868904,-21.210700650513974,-407.2652094602821
1589988479.6638396,0.09493173081940415,-1.1741989459586384,-0.07884090237072339,0.5433333333333333,0.21333333333333332,-0.6377777777777778,-27.053444549771278,-17.882209573339363,-393.9056493834032
1589988479.6738396,1.1081867622183017,-4.848354462612997,8.503516433547354,0.5433333333333333,0.21333333333333332,-0.6377777777777778,-5.429280952727407,16.388643845832046,-366.4875577493225
1589988479.6838396,-0.4557403735971912,-0.736370432346896,-1.253863111369796,0.5433333333333333,0.21333333333333332,-0.6377777777777778,68.71421588242784,110.46267552156279,-339.4525978100729
1589988479.6938396,3.3152698446878954,2.072480956098086,13.811237382573818,0.511645985303222,0.27441737772872865,-0.6400684294426051,106.78779676186375,166.93972907862508,-305.9010423676348
1589988479.7038395,-1.6246081173002795,-0.5444231980449954,2.5936772226841005,0.4511111111111111,0.3911111111111111,-0.6444444444444445,41.13118654422694,115.98902199380244,-269.11010757564304
1589988479.7138395,-0.6884126392071189,-0.21578479955951052,6.157264702225538,0.4511111111111111,0.3911111111111111,-0.6444444444444445,3.7660654340064994,29.26126423154118,-240.37593914850535
1589988479.7238395,0.27415726273148144,0.14181893807870372,9.029304108796296,0.4511111111111111,0.3911111111111111,-0.6444444444444445,17.09569408275463,-24.434522840711807,-223.99810112847223
1589988479.7338395,0.07519342927149114,-1.2302429513062085,4.318734858681022,0.4511111111111111,0.3911111111111111,-0.6444444444444445,0.9892544086689443,-49.625396866480315,-206.06559512716981
1589988479.7438395,0.9638066576587643,-1.687981410965074,8.367491299185193,0.4393927854890881,0.4024897751209015,-0.6403685050976539,10.165282213487286,-11.023804405683167,-193.36986651926463
1589988479.7538395,1.4411253071253072,-1.5941675675675675,8.856734152334152,0.3744444444444445,0.4655555555555556,-0.6177777777777778,8.706195741195742,57.55929770679771,-168.0281326781327
1589988479.7638395,0.9681746643410538,-2.9119758244432727,12.213827931691883,0.3744444444444445,0.4655555555555556,-0.6177777777777778,-20.61571867521194,51.23358211982315,-157.61890033667302
1589988479.7738395,0.6667193392848617,-1.9513734663674989,7.386442449992838,0.3744444444444445,0.4655555555555556,-0.6177777777777778,-1.3141678999379387,1.364222800401012,-145.22983601470378
1589988479.7838395,1.31,-3.12,12.79,0.3744444444444445,0.4655555555555556,-0.6177777777777778,8.0,7.5625,-138.5625
1589988479.7938395,0.664635215468065,-2.2520956345949843,8.821377474430054,0.3744444444444445,0.4655555555555556,-0.6177777777777778,7.443651047817298,20.404888312884047,-128.54821886071136
1589988479.8038394,0.5853687267372898,-2.4871749355801875,9.190481001267946,0.31555555555555553,0.5011111111111111,-0.6088888888888889,0.41078111579205695,-8.077730684281565,-118.74456777373308
1589988479.8138394,0.47385925804736395,-2.1783794838234694,7.998187451429506,0.31555555555555553,0.5011111111111111,-0.6088888888888889,-0.23254274203443903,9.613675405947074,-106.5750247965152
1589988479.8238394,0.6562416698793854,-2.880225257476455,9.874521121330616,0.31555555555555553,0.5011111111111111,-0.6088888888888889,3.381144324502946,9.285458087789833,-91.807443410255
1589988479.8338394,0.5235874825034993,-2.290787042591482,7.652287342531493,0.31555555555555553,0.5011111111111111,-0.6088888888888889,2.1678451809638073,5.000461157768446,-81.38635397920416
1589988479.8438394,0.7078323995896788,-2.8549711986112207,9.255925195297088,0.3079768887486081,0.510773911289969,-0.6113519556011469,2.773302493490097,5.3643424998027305,-71.73717746389963
1589988479.8538394,0.6002692732581077,-2.490911386412057,8.023086285804466,0.27120317034465224,0.5576604022550129,-0.6233034140824324,1.0667721238065178,5.312629458297168,-62.2736908683816
1589988479.8638394,0.6463520169055369,-2.8536053784147652,9.436224202866443,0.27111111111111114,0.5577777777777778,-0.6233333333333333,-0.06879910189335192,2.7556334037730705,-49.37136369058777
1589988479.8738394,0.6892392508393121,-2.9679713355714994,9.950871010071747,0.27111111111111114,0.5577777777777778,-0.6233333333333333,2.20958520083846,2.9343302118304675,-41.82142355016275
1589988479.8838394,0.6992281317279324,-2.7676843951837973,8.723925683757276,0.27111111111111114,0.5577777777777778,-0.6233333333333333,1.0903945060202536,2.279781317279324,-28.8668168407623
1589988479.8938394,0.5988940275895064,-2.466682082768519,7.8476745076150225,0.27111111111111114,0.5577777777777778,-0.6233333333333333,1.4666473965393507,1.2764402758950641,-22.38690594848896
1589988479.9038393,5.11446992142213,-10.1996878354588,4.881584868392804,0.21333333333333332,0.5722222222222222,-0.6322222222222222,-9.39123352226373,-6.860988556829405,10.17506923869638
1589988479.9138393,-0.5280150302238197,0.30539454337526545,8.760259761476883,0.21333333333333332,0.5722222222222222,-0.6322222222222222,-38.360970429668356,-27.82070944290149,105.68744894625061
1589988479.9238393,-1.2578168003575545,-1.6522984639269835,11.540665945284749,0.21333333333333332,0.5722222222222222,-0.6322222222222222,8.540438063089553,-1.2541621580296862,176.67182023476278
1589988479.9338393,-2.273206106870229,-2.181915336571825,10.68791811242193,0.21333333333333332,0.5722222222222222,-0.6322222222222222,44.32963219986121,5.407486120749479,175.81401804302567
1589988479.9438393,-1.2840559537894078,-2.7670707773679446,10.905065070638178,0.2134359462113655,0.5738640282707371,-0.6341718669048337,21.689605226529334,4.070633829772427,172.42641276358827
1589988479.9538393,0.7097310656064839,-2.6408648266969577,10.570922850213368,0.21444444444444444,0.59,-0.6533333333333333,-33.501043809289904,-26.211164154360972,162.04256017253553
1589988479.9638393,0.16610374865824457,-2.6449686235653536,9.096674097927504,0.21444444444444444,0.59,-0.6533333333333333,-16.297308490215507,-17.641577130294774,165.33763598175213
1589988479.9738393,-0.39925035437793044,-2.7508995747464833,8.044748119070984,0.21444444444444444,0.59,-0.6533333333333333,11.142507632755425,-4.194996456220696,170.29156103478357
1589988479.9838393,0.15,-3.283881313616286,10.455525254465144,0.21444444444444444,0.59,-0.6533333333333333,-4.64330601967437,-11.906254667861639,173.0733974564155
1589988479.9938393,0.10060125717409127,-2.8638251571467617,8.565355971576935,0.23342636877106676,0.5808520846618688,-0.6592794783031186,-13.958687055889587,-17.386504167805413,175.81773324337252
1589988480.0038393,-0.08352216620757758,-2.9404064237825476,7.9774138558287,0.30666666666666664,0.5455555555555556,-0.6822222222222222,-1.1890396808897667,-10.923337534431683,180.76747245465413
1589988480.0138392,-0.06633576275446093,-3.1445036441316914,8.614350339281227,0.30666666666666664,0.5455555555555556,-0.6822222222222222,-4.444191379743654,-12.12452877607439,182.60687358632822
1589988480.0238392,-0.013630309122895194,-3.065445463684343,8.245412163860268,0.30666666666666664,0.5455555555555556,-0.6822222222222222,-9.934342799698417,-14.814702971852224,184.14411598391555
1589988480.0338392,-0.026546970313135423,-3.434442659617731,8.281795445302969,0.30666666666666664,0.5455555555555556,-0.6822222222222222,-3.8310021858479057,-12.425730734038227,186.91171716144774
1589988480.0438392,-0.18048409848679148,-4.155278917671199,8.943548345729674,0.31409200364765893,0.5408303411131059,-0.6814121854606594,-7.318483104642216,-13.606922448063607,182.3944160361631
1589988480.0538392,-1.63,0.0,8.68,0.36777777777777776,0.5066666666666667,-0.6755555555555556,-19.5625,-16.1875,144.125
1589988480.0638392,-1.1474805974520428,0.7309452335627471,10.557525992092547,0.36777777777777776,0.5066666666666667,-0.6755555555555556,8.803430224044519,0.11544516034558683,47.47182512080832
1589988480.0738392,-0.526458812861826,1.121536816163307,8.743630931622143,0.36777777777777776,0.5066666666666667,-0.6755555555555556,43.885439189974655,18.79496088209993,-55.459215375136594
1589988480.0838392,-1.3148074851374536,-1.5406122571120775,3.763235646171647,0.36777777777777776,0.5066666666666667,-0.6755555555555556,36.66936445158201,12.25379792921837,-47.744603598930695
1589988480.0938392,-4.128317987873344,-6.964565461486638,14.109373456097014,0.3720335853482047,0.5034488609426854,-0.6748289542630437,-15.454005726476533,-11.805033123736807,-41.056099820345835
1589988480.1038392,-1.810211377059372,-7.059962698165993,8.984003730183401,0.4133333333333333,0.4722222222222222,-0.6677777777777778,-37.871910941871306,4.847159620764687,-23.51204538389804
1589988480.1138391,-0.33655436747315925,-1.999136305233128,9.31057884535813,0.4133333333333333,0.4722222222222222,-0.6677777777777778,7.3118493978527415,-1.9315656373178858,44.940352849582965
1589988480.1238391,0.4703687109386147,-3.4519982306441026,8.508222082703119,0.4133333333333333,0.4722222222222222,-0.6677777777777778,13.935653948232071,5.123614123455381,71.21990668074541
1589988480.1338391,5.59886401343684,-10.512984781139263,8.72316810388972,0.4133333333333333,0.4722222222222222,-0.6677777777777778,-11.7360088384097,-9.659437025050696,68.40503190225517
1589988480.1438391,-0.8859005033666733,-8.598532065110806,7.848188206837942,0.4133333333333333,0.4713120219650912,-0.6668675775206467,-14.943745097077858,-14.246339151467609,37.06284116166569
1589988480.153839,-3.2,-3.34,10.24,0.4133333333333333,0.4655555555555556,-0.6611111111111111,-3.125,4.75,-34.875
1589988480.163839,-1.3158593215564767,-3.144317733692809,8.367041165345459,0.4133333333333333,0.4655555555555556,-0.6611111111111111,11.306567140155327,5.344035451289686,-18.975815862540742
1589988480.173839,0.36818151808372357,-5.406535930182178,8.334807196352308,0.4133333333333333,0.4655555555555556,-0.6611111111111111,7.823886143720728,2.895715560461326,5.948844880232727
1589988480.183839,0.24093270036302708,-5.668582798101089,8.919470818207206,0.4133333333333333,0.4655555555555556,-0.6611111111111111,-11.341873778274225,-4.7800457274504335,6.800727799497348
1589988480.193839,0.05061723510326818,-4.860061525678564,8.745555511592942,0.4133333333333333,0.4655555555555556,-0.6611111111111111,-1.2835609222916826,-0.3973747724934711,-0.08526425377858615
1589988480.203839,-0.029293606196370264,-4.6538634292657,8.501898207912522,0.4133333333333333,0.4577777777777778,-0.6966666666666667,1.3852110069101677,0.4514354260004556,-0.5808503872731414
1589988480.213839,-0.021331156503910702,-4.359252790644695,8.748734148378768,0.4133333333333333,0.4577777777777778,-0.6966666666666667,0.09131293188548883,-0.09598299035613944,-0.08319728149441874
1589988480.223839,0.02628988720717247,-4.59,8.622285018798804,0.4133333333333333,0.4577777777777778,-0.6966666666666667,0.14112359008965586,0.19287453002988528,0.14465589752241398
1589988480.233839,-0.022033121123416103,-4.587966878876584,8.58323821416143,0.4133333333333333,0.4577777777777778,-0.6966666666666667,-0.3612579578718962,-0.012707007021350638,0.012707007021350638
1589988480.243839,-0.030620460421026712,-4.568211252000492,8.422957035577989,0.414229553941483,0.45701943726318955,-0.6953568057778324,-0.05862212236858304,-0.05862212236858304,0.05862212236858304
1589988480.253839,-0.03922627108211252,-4.404700849439862,8.741372030038162,0.4266601693408292,0.4465012242329735,-0.6771889832710958,-0.004835805736796754,-0.004835805736796754,0.004835805736796754
1589988480.263839,-0.02,-4.4817210119465924,8.597210119465917,0.42777777777777776,0.4455555555555555,-0.6755555555555556,0.29970572733661277,-0.10348735066760366,0.05174367533380183
1589988480.273839,-0.02,-4.513047911719514,8.640050286352842,0.42777777777777776,0.4455555555555555,-0.6755555555555556,-0.11051648274898729,-0.019206593099594917,0.009603296549797458
1589988480.283839,-0.01779221805253802,-4.6267533083152275,8.44318171044835,0.42777777777777776,0.4455555555555555,-0.6755555555555556,-0.4301945486865495,-0.125,0.0625
1589988480.293839,-0.0012237803673711238,-4.527342682204226,8.617150306142603,0.42777777777777776,0.4455555555555555,-0.6755555555555556,-0.8444054908157219,-0.125,0.0625
1589988480.303839,-0.027764832582729587,-4.562549441942433,8.616705502251811,0.4211111111111111,0.4566666666666666,-0.6755555555555556,-0.029903808498139804,-0.11568680242803994,-0.004656598785980027
1589988480.313839,-0.003126297239083607,-4.4804209907969454,8.690621108282748,0.4211111111111111,0.4566666666666666,-0.6755555555555556,0.32940816526336403,-0.013026238496181716,-0.05598688075190914
1589988480.323839,-0.0013095059318215948,-4.556944486159082,8.506984031636382,0.4211111111111111,0.4566666666666666,-0.6755555555555556,0.304315587926115,0.06522813735796165,0.17931558792611504
1589988480.333839,-0.027863194046937607,-4.494985880557146,8.652877313489792,0.4211111111111111,0.4566666666666666,-0.6755555555555556,0.11164496279336004,0.11164496279336004,-0.004451679068879985
1589988480.343839,-0.003854607899255867,-4.551005914901736,8.57284869299752,0.4211111111111111,0.4566666666666666,-0.6755555555555556,-0.03840870062965082,-0.03840870062965082,-0.05446956687655028
1589988480.353839,-0.020908729698856016,-4.542726189096568,8.664547621806864,0.43333333333333335,0.4455555555555555,-0.6611111111111111,-0.09092263629289936,-0.05114087876429979,0.2329613181464497
1589988480.363839,-0.02785259010314057,-4.563557770309422,8.622884459381156,0.43333333333333335,0.4455555555555555,-0.6611111111111111,0.16947212886777147,0.03565737628925715,0.10276393556611427
1589988480.373839,-0.010650934675431389,-4.520650934675431,8.523905608052589,0.43333333333333335,0.4455555555555555,-0.6611111111111111,0.16308994967132293,0.05436331655710764,0.11279497483566146
1589988480.383839,-0.01795120506460331,-4.534097589870794,8.58614638480619,0.43333333333333335,0.4455555555555555,-0.6611111111111111,-0.20670745251934397,-0.0625,-0.056097515826885345
1589988480.393839,-0.0024230868905260813,-4.565153826218948,8.632730739328423,0.43333333333333335,0.4455555555555555,-0.6611111111111111,-0.352283560401318,-0.0625,-0.0075721465328940085
1589988480.4038389,-0.002019706897414095,-4.587475366378232,8.534039413794828,0.4211111111111111,0.4511111111111111,-0.6611111111111111,-0.3529094558095333,0.0031557920272095234,-0.05618841594558095
1589988480.4138389,-0.03812435135390131,-4.539062175676951,8.600621756769506,0.4211111111111111,0.4511111111111111,-0.6611111111111111,0.0800842060571752,0.0625,0.0566385979809416
1589988480.4238389,-0.018296133291417795,-4.529148066645709,8.51851933354291,0.4211111111111111,0.4511111111111111,-0.6611111111111111,0.25,0.057175416535680604,0.0
1589988480.4338388,-0.0007994013721793552,-4.520799401372179,8.611598802744359,0.4211111111111111,0.4511111111111111,-0.6611111111111111,0.23001496569551613,-0.0049962585761209695,-0.0049962585761209695
1589988480.4438388,-0.008951429515461313,-4.528951429515462,8.627902859030923,0.4211111111111111,0.4511111111111111,-0.6611111111111111,0.026214262113467196,-0.0559464344716332,-0.0559464344716332
1589988480.4538388,-0.028714675960813865,-4.578072013941221,8.581285324039186,0.42777777777777776,0.4633333333333333,-0.6755555555555556,-0.03438353664280332,0.17545008713263,0.0625
1589988480.4638388,-0.01,-4.548609046239133,8.6,0.42777777777777776,0.4633333333333333,-0.6755555555555556,0.3576130779891647,-0.0057956406702784425,0.059602179664860776
1589988480.4738388,-0.01,-4.522186594431145,8.6,0.42777777777777776,0.4633333333333333,-0.6755555555555556,0.027332430389315876,-0.11588918987022805,0.004555405064885977
1589988480.4838388,-7.660759885475509e-05,-4.52,8.6,0.42777777777777776,0.4633333333333333,-0.6755555555555556,-0.24808481002863111,-0.31106360752147333,0.12404240501431556
1589988480.4938388,-0.011953673273152601,-4.549884183182882,8.605976836636575,0.42777777777777776,0.4633333333333333,-0.6755555555555556,-0.39942091591440754,-0.20043431306419437,0.08764477102139812
1589988480.5038388,-0.008993076162215627,-4.564496538081108,8.593489614243323,0.41982833278382237,0.4633333333333333,-0.6755555555555556,-0.36241345202769537,-0.125,0.09689663699307616
1589988480.5138388,-0.02,-4.568459525973882,8.624865086579607,0.4133333333333333,0.4633333333333333,-0.6755555555555556,0.14425592532647497,0.00962796266323748,0.05929067911225418
1589988480.5238388,-0.02,-4.540561381726271,8.531871272420902,0.4133333333333333,0.4633333333333333,-0.6755555555555556,0.4929827284216128,0.1839913642108064,0.0011695452630645364
1589988480.5338387,-0.02,-4.5112420114754865,8.635445957923217,0.4133333333333333,0.4633333333333333,-0.6755555555555556,0.2603500956290526,0.0676750478145263,0.05991247609273685
1589988480.5438387,-0.0032689103632122622,-4.535096634455182,8.614903365544818,0.4133333333333333,0.4633333333333333,-0.6755555555555556,-0.011423275574808434,-0.04206931022992336,0.0625
1589988480.5538387,-0.0070418026353835355,-4.561125407906151,8.617041802635383,0.4188102909386316,0.45472668566786456,-0.6904215833413653,-0.3265675988268826,0.06953379941344129,0.0625
1589988480.5638387,-0.00024574929441729195,-4.539754250705583,8.559631376058375,0.4211111111111111,0.4511111111111111,-0.6966666666666667,-0.0625,0.06173203345494596,-0.18442813381978385
1589988480.5738387,-0.014681971501342329,-4.525318028498657,8.537977042747986,0.4211111111111111,0.4511111111111111,-0.6966666666666667,-0.0625,0.016618839058305225,-0.0039753562332209
1589988480.5838387,-0.010631586392248392,-4.529368413607751,8.558105240823256,0.4211111111111111,0.4511111111111111,-0.6966666666666667,0.05460517009689511,-0.11710517009689511,0.003947414951552444
1589988480.5938387,-0.01,-4.538028028228144,8.608168169368865,0.4211111111111111,0.4511111111111111,-0.6966666666666667,-0.2385510585554067,-0.125,0.0
1589988480.6038387,-0.01953285192119105,-4.559065703842382,8.629532851921192,0.4327623745703446,0.4564071399562172,-0.6765417570552633,-0.37208032450744405,-0.06541967549255595,0.0
1589988480.6138387,-0.00013971221251998442,-4.55006985610626,8.620069856106259,0.43333333333333335,0.4566666666666666,-0.6755555555555556,-0.2508732013282499,-0.0004366006641249587,-0.06206339933587504
1589988480.6238387,0.0,-4.559711401729724,8.552020187891928,0.43333333333333335,0.4566666666666666,-0.6755555555555556,0.23557008648623445,0.06069626081077931,-0.0018037391892206933
1589988480.6338387,0.0,-4.540819884556485,8.578770173165273,0.43333333333333335,0.4566666666666666,-0.6755555555555556,0.3698757215219696,0.0625,0.0
1589988480.6438386,0.0,-4.54,8.635270538327081,0.43333333333333335,0.4566666666666666,-0.6755555555555556,0.07890783039063576,0.0625,0.09869738986978809
1589988480.6538386,-0.029531771154213845,-4.530702343268679,8.657892970193963,0.4211111111111111,0.4566666666666666,-0.6822222222222222,-0.12792643028616346,0.0,-0.24268392428459137
1589988480.6638386,-0.01171060738034034,-4.557434088929489,8.577697733211531,0.4211111111111111,0.4566666666666666,-0.6822222222222222,-0.2393087038728729,0.0,0.035771759682182214
1589988480.6738386,-0.018004264212281774,-4.551995735787718,8.505965886301746,0.4211111111111111,0.4566666666666666,-0.6822222222222222,-0.1999733486732389,-0.050026651326761096,0.1125266513267611
1589988480.6838386,-0.038041426032874276,-4.504896434917814,8.55314499111506,0.4211111111111111,0.4566666666666666,-0.6822222222222222,0.09439728176366058,-0.006120543647267884,-0.044138369058196375
1589988480.6938386,-0.017282081608515673,-4.53786319731914,8.613008476246797,0.4211111111111111,0.4566666666666666,-0.6822222222222222,-0.06431598659570276,0.04732899664892569,0.03215799329785138
1589988480.7038386,-0.004431685773350874,-4.54443168577335,8.6411366284533,0.42482332059554384,0.4566666666666666,-0.6785100127377894,-0.1946039278331141,-0.007103927833114074,-0.04190589174967112
1589988480.7138386,0.0,-4.5618499861171715,8.628150013882829,0.42777777777777776,0.4566666666666666,-0.6755555555555556,-0.2955208044107731,0.02854160882154616,0.011562413232319213
1589988480.7238386,0.0,-4.576372848115058,8.556271518849423,0.42777777777777776,0.4566666666666666,-0.6755555555555556,-0.23283939856177815,-0.01716060143822183,0.10233030071911092
1589988480.7338386,0.0,-4.543921665229708,8.565097918462865,0.42777777777777776,0.4566666666666666,-0.6755555555555556,0.15073438847148662,-0.006127601921418896,0.0686276019214189
1589988480.7438385,0.0,-4.533794028586222,8.61344179989645,0.42777777777777776,0.4566666666666666,-0.6755555555555556,0.2262873213361156,0.0387873213361156,0.1012873213361156
1589988480.7538385,-0.013305614863093231,-4.53,8.653305614863093,0.42777777777777776,0.4662762774011229,-0.6799907605099199,0.20841995355283366,0.10408004644716634,0.08341995355283366
1589988480.7638385,-0.002072130791374721,-4.538963934604313,8.642072130791375,0.42777777777777776,0.4711111111111111,-0.6822222222222222,-0.148647547661724,-0.099098365107816,0.0625
1589988480.7738385,-0.019539793983498182,-4.54,8.512991339107261,0.42777777777777776,0.4711111111111111,-0.6822222222222222,-0.1875,0.058185568595295445,0.0014381438015681827
1589988480.7838385,-0.028871525526304412,-4.54,8.545486102105219,0.42777777777777776,0.4711111111111111,-0.6822222222222222,-0.07660593092119483,-0.10384110361820775,0.11089406907880517
1589988480.7938385,-0.0009787805745445875,-4.554510609712727,8.600787133994547,0.42777777777777776,0.4711111111111111,-0.6822222222222222,0.028191310704548153,-0.07965434464772592,0.07965434464772592
1589988480.8038385,-0.03359807273857631,-4.525121541809138,8.646158843643146,0.40936970262149003,0.4711111111111111,-0.6948172210133665,-0.046495181846440775,-0.11699759092322039,0.11699759092322039
1589988480.8138385,-0.02245721441491582,-4.546314178377626,8.614914428829831,0.4066666666666667,0.4711111111111111,-0.6966666666666667,-0.2817848198135523,0.09428481981355227,-0.09428481981355227
1589988480.8238385,-0.02,-4.565090182836435,8.527003994399605,0.4066666666666667,0.4711111111111111,-0.6966666666666667,-0.21818635727227803,0.030686357272278045,-0.030686357272278045
1589988480.8338385,-0.028394854586129753,-4.57839485458613,8.525184563758389,0.4066666666666667,0.4711111111111111,-0.6966666666666667,-0.03009647651006711,0.0,0.0
1589988480.8438385,-0.008569229858521283,-4.565712819905681,8.587148720377275,0.4066666666666667,0.4711111111111111,-0.6966666666666667,0.26788462676848396,0.044647437794747336,0.044647437794747336
1589988480.8538384,0.0,-4.544214821413178,8.633677767880233,0.411928392862274,0.450941160694616,-0.6800045337139099,0.22701395074854172,0.013171316916180564,-0.03615736616763887
1589988480.8638384,-0.008905614739334055,-4.531094385260666,8.657811229478668,0.4133333333333333,0.4455555555555555,-0.6755555555555556,0.020519723637486498,0.055660092120837834,-0.006839907879162166
1589988480.8738384,-0.0037050089355803112,-4.53629499106442,8.578165116162543,0.4133333333333333,0.4455555555555555,-0.6755555555555556,-0.11803108245786915,-0.016187388305246103,0.0
1589988480.8838384,-0.007087517934002869,-4.547087517934003,8.586700143472022,0.4133333333333333,0.4455555555555555,-0.6755555555555556,-0.2760939741750359,-0.0625,0.0
1589988480.8938384,-0.004171161700587658,-4.555828838299412,8.598342323401175,0.4133333333333333,0.4455555555555555,-0.6755555555555556,-0.20320928188601856,-0.02606976062867286,0.10929071811398143
1589988480.9038384,0.0,-4.553892159900837,8.608323520297489,0.42215576903212476,0.4489488000550907,-0.6796274489549977,-0.08682599938022931,-0.11452200185931206,0.11115199876045863
1589988480.9138384,-0.008541678282687483,-4.532916643434625,8.611458321717311,0.42777777777777776,0.4511111111111111,-0.6822222222222222,-0.22265646780039028,-0.08072902146640647,-0.09765646780039028
1589988480.9238384,-0.01,-4.53874949355323,8.513755570914464,0.42777777777777776,0.4511111111111111,-0.6822222222222222,-0.08594699587692747,0.10155300412307253,-0.01563133058461831
1589988480.9338384,-0.002533420147720105,-4.54,8.52986631940912,0.42777777777777776,0.4511111111111111,-0.6822222222222222,-0.015833875923250654,0.07833387592325065,-0.046666124076749346
1589988480.9438384,-0.006485464221313278,-4.5464854642213135,8.585398249549192,0.42777777777777776,0.4511111111111111,-0.6822222222222222,0.08106830276641597,0.14356830276641597,-0.10303415138320798
1589988480.9538383,-0.01,-4.544569510103334,8.631721959586663,0.43441504320703583,0.4480941722796301,-0.6822222222222222,0.2607622474166423,0.05173775258335772,0.010762247416642279
1589988480.9638383,-0.01,-4.524303342705404,8.65,0.44,0.4455555555555555,-0.6822222222222222,0.17879178381755703,0.035604108091221484,-0.07120821618244297
1589988480.9738383,0.007622617780787462,-4.537622617780787,8.553075602205668,0.44,0.4455555555555555,-0.6822222222222222,-0.15035340282480408,0.11757068056496081,0.09528272225984327
1589988480.9838383,-0.02386578255401852,-4.548466445638504,8.573865782554018,0.44,0.4455555555555555,-0.6822222222222222,-0.1875,0.019169429518692133,0.019169429518692133
1589988480.9938383,-0.010122602482136141,-4.543374200827379,8.613128995863107,0.44,0.4455555555555555,-0.6822222222222222,-0.1875,0.0,0.12423373448664911
1589988481.0038383,-0.0052969739775310665,-4.54,8.635296973977532,0.4364686840149793,0.45144108219725665,-0.67103972160299,-0.12128782528086167,0.0,0.08818173792129251
1589988481.0138383,-0.015122063222171198,-4.537438968388915,8.611828652278058,0.43333333333333335,0.4566666666666666,-0.6611111111111111,-0.0625,-0.016006447569284998,0.0
1589988481.0238383,-0.025533243145967006,-4.532233378427017,8.55456716269718,0.43333333333333335,0.4566666666666666,-0.6611111111111111,-0.0625,-0.04854138483114691,0.0
1589988481.0338383,-0.02182708605881349,-4.532724304647062,8.538172913941187,0.43333333333333335,0.4566666666666666,-0.6611111111111111,-0.09655380808827713,-0.04547309595586144,0.0
1589988481.0438383,-0.007512883226210111,-4.5374957055912635,8.55248711677379,0.43333333333333335,0.4566666666666666,-0.6611111111111111,-0.1561963198907912,-0.015651840054604398,0.0
1589988481.0538383,-0.0031277857994852156,-4.54,8.597533429593822,0.4270777617343629,0.4587518571996568,-0.66979940499857,-0.08975669376608701,0.0390973224935652,0.0
1589988481.0638382,-0.009710590746437315,-4.54,8.676527088957247,0.41391215184045865,0.4631403938309582,-0.6880849742956592,0.1159559608261661,0.12138238433046646,0.0
