time,acc_x,acc_y,acc_z,mag_x,mag_y,mag_z,gyr_x,gyr_y,gyr_z
1589988552.366104,-3.94,-0.78,8.94,0.33555555555555555,-0.3411111111111111,-0.6311111111111111,0.3125,-0.4375,-0.0625
1589988552.3761039,-3.9227657473372366,-0.79,8.990851378994146,0.33555555555555555,-0.3411111111111111,-0.6311111111111111,0.11967888128659096,-0.5625,-0.125
1589988552.3861039,-3.912651185292695,-0.7873488147073053,8.986139332365747,0.33555555555555555,-0.3411111111111111,-0.6311111111111111,0.04970972423802613,-0.4796504596032898,-0.10843009192065796
1589988552.3961039,-3.920714917169543,-0.7803574585847716,8.921787292923858,0.33555555555555555,-0.3411111111111111,-0.6311111111111111,0.18973411615482186,-0.2544682323096437,-0.060265883845178156
1589988552.4061038,-3.94,-0.7924820355754506,8.987374249028154,0.33555555555555555,-0.3411111111111111,-0.6311111111111111,0.2189745553068677,-0.3129491106137354,-0.031025444693132287
1589988552.4161038,-3.94,-0.7986581163859112,9.030606814701377,0.33555555555555555,-0.3411111111111111,-0.6311111111111111,0.14177354517611027,-0.15854709035222053,-0.10822645482388973
1589988552.4261038,-3.93,-0.7973356147641164,9.018667807382057,0.33,-0.3288888888888889,-0.6111111111111112,0.1791737961378636,-0.2333475922757272,-0.016652407724272796
1589988552.4361038,-3.9265625,-0.7811458333333333,8.9996875,0.33,-0.3288888888888889,-0.6111111111111112,0.11067708333333333,-0.13932291666666666,-0.11067708333333333
1589988552.4461038,-3.906344622991347,-0.7868276885043264,8.926344622991348,0.33,-0.3288888888888889,-0.6111111111111112,0.039653893695920886,-0.26982694684796044,-0.019826946847960443
1589988552.4561038,-3.92,-0.7801427030614785,8.940285406122957,0.33,-0.3288888888888889,-0.6111111111111112,0.12321621173151913,-0.3062567410603169,-0.061608105865759565
1589988552.4661038,-3.9213374944271067,-0.79,8.966687472135533,0.33,-0.3288888888888889,-0.6130430475058206,0.00835934016941596,0.11664065983058404,-0.01671868033883192
1589988552.4761038,-3.9304229584832857,-0.79,9.010422958483286,0.33,-0.3288888888888889,-0.6255555555555555,0.07043047156160724,0.057213018958928503,-0.11971301895892851
1589988552.4861038,-3.9323172183853297,-0.79,8.973903310311979,0.33,-0.3288888888888889,-0.6255555555555555,0.25,-0.03849130745415575,0.02400869254584425
1589988552.4961038,-3.92,-0.7862627224984896,8.922423665009063,0.33,-0.3288888888888889,-0.6255555555555555,0.2266420156155598,-0.07007395315332063,-0.007573953153320628
1589988552.5061038,-3.923021118813477,-0.7709366435595679,8.96,0.33,-0.3288888888888889,-0.6255555555555555,0.1875,-0.16861800741576657,-0.04947202966306627
1589988552.5161037,-3.9276491961414792,-0.7594032154340836,8.971754019292606,0.33,-0.3299336906037871,-0.6221599499821364,0.1287299035369775,-0.15438504823151125,0.11030747588424437
1589988552.5261037,-3.92,-0.779406135112529,9.002937423408353,0.33,-0.3333333333333333,-0.6111111111111112,-0.08457055184889806,-0.25,0.018358896302203893
1589988552.5361037,-3.92,-0.7682233790818741,8.973553241836251,0.33,-0.3333333333333333,-0.6111111111111112,-0.10444155229531471,-0.2294415522953147,-0.04194155229531472
1589988552.5461037,-3.92,-0.8079233317557974,8.894153336488406,0.33,-0.3333333333333333,-0.6111111111111112,-0.005191670610506391,-0.1301916706105064,0.05730832938949361
1589988552.5561037,-3.92,-0.79,8.93744397550972,0.33,-0.3333333333333333,-0.6111111111111112,-0.10682919217737621,0.09884161564524757,-0.10682919217737621
1589988552.5661037,-3.92,-0.7879599761051375,8.990200119474313,0.331133346608257,-0.33628003451480154,-0.6122444577193682,-0.0625,0.13649940262843488,-0.04974985065710872
1589988552.5761037,-3.92,-0.78,9.03,0.33555555555555555,-0.3477777777777778,-0.6166666666666667,-0.0625,-0.0625,0.0
1589988552.5861037,-3.9046440202739134,-0.78,8.999288040547826,0.33555555555555555,-0.3477777777777778,-0.6166666666666667,-0.0625,-0.11048743664402028,0.047987436644020276
1589988552.5961037,-3.9205939291021012,-0.79,8.921187858204203,0.33555555555555555,-0.3477777777777778,-0.6166666666666667,-0.051363829335597536,-0.2425758862237317,0.003712056888134154
1589988552.6061037,-3.9294971343663767,-0.79,8.938994268732753,0.33555555555555555,-0.3477777777777778,-0.6166666666666667,0.11557126936956061,-0.13128582042029294,0.05935708978985353
1589988552.6161036,-3.92,-0.79,8.972154699696794,0.3365930035577155,-0.34674032977561786,-0.6161080408193498,0.11153312689503903,0.06698895770165365,0.004488957701653657
1589988552.6261036,-3.92,-0.79,8.999212954002967,0.3496210519273547,-0.3337122814059786,-0.6090929378510825,-0.05758096251854719,0.12336032083951573,0.06086032083951573
1589988552.6361036,-3.9151956330597892,-0.7725978165298946,8.922206550410316,0.35,-0.3333333333333333,-0.6088888888888889,0.04626364668815944,0.18994541324736225,-0.09252729337631888
1589988552.6461036,-3.9294636672147782,-0.78,8.903754329496554,0.35,-0.3333333333333333,-0.6088888888888889,0.0033520799076374066,0.375,-0.0033520799076374066
1589988552.6561036,-3.92,-0.7825976313815778,8.985585788289468,0.35,-0.3333333333333333,-0.6088888888888889,0.0625,0.375,-0.030029607730277498
1589988552.6661036,-3.92,-0.7899133134494969,9.02947988069698,0.35,-0.3333333333333333,-0.6088888888888889,0.0625,0.375,0.06141641811870999
1589988552.6761036,-3.92,-0.79,9.003533654394815,0.33555555555555555,-0.3477777777777778,-0.6255555555555555,0.10291466003241047,0.04041466003241047,0.04041466003241047
1589988552.6861036,-3.9171711209942224,-0.7871711209942226,8.98736896795378,0.33555555555555555,-0.3477777777777778,-0.6255555555555555,0.04481950621389085,0.0707219751444366,0.0
1589988552.6961036,-3.9083300774671605,-0.7783300774671607,8.93,0.33555555555555555,-0.3477777777777778,-0.6255555555555555,0.010437015830245875,0.2082519366790165,0.010437015830245875
1589988552.7061036,-3.9022258123794065,-0.7707419374598021,8.932225812379405,0.33555555555555555,-0.3477777777777778,-0.6255555555555555,0.06713710912376344,-0.004637109123763437,0.06713710912376344
1589988552.7161036,-3.9214945943462682,-0.7771648647820893,8.951494594346268,0.33555555555555555,-0.3477777777777778,-0.6255555555555555,0.10728040488805857,-0.04478040488805856,0.10728040488805857
1589988552.7261035,-3.93,-0.7704837530463038,8.979032493907393,0.32392458705659355,-0.3477777777777778,-0.6255555555555555,0.06552345653939887,-0.12197654346060113,0.06552345653939887
1589988552.7361035,-3.9084301080169546,-0.7828100360056516,8.964709675949136,0.3233333333333333,-0.3477777777777778,-0.6255555555555555,-0.097625450070644,-0.160125450070644,0.0625
1589988552.7461035,-3.927993512511585,-0.79,8.910032437442077,0.3233333333333333,-0.3477777777777778,-0.6255555555555555,-0.174959453197405,-0.17475671918443003,0.049959453197405
1589988552.7561035,-3.9198667288435107,-0.79,8.950666355782445,0.3233333333333333,-0.3477777777777778,-0.6255555555555555,-0.12250116581582564,0.12666588945611623,0.0016658894561162381
1589988552.7661035,-3.9106630759568355,-0.7886738480863293,9.000331537978418,0.32355435865227844,-0.34729888958673005,-0.6255555555555555,0.060427887634889516,0.24378366290466855,0.12707211236511048
1589988552.7761035,-3.9266282854043357,-0.756743429191329,9.008314142702167,0.3288760951347785,-0.33576846054131326,-0.6255555555555555,0.010536608111451573,0.09410982433435472,0.17696339188854843
1589988552.7861035,-3.9152222317083583,-0.7665277896354478,9.00738888414582,0.33,-0.3333333333333333,-0.6255555555555555,-0.4647571074874072,0.47013894817723895,0.22013894817723895
1589988552.7961035,-3.943869375907112,-0.8023367198838898,8.993065312046443,0.33,-0.3333333333333333,-0.6255555555555555,-0.9571298984034834,0.6491835994194485,0.3991835994194485
1589988552.8061035,-3.886193244504795,-0.8187613510990409,8.946193244504794,0.33,-0.3333333333333333,-0.6255555555555555,-0.6880675549520495,-0.18806755495204958,0.01548311126198761
1589988552.8161035,-3.9305924776337413,-0.8103949850891607,8.990789970178321,0.33052664678554766,-0.3333333333333333,-0.6252702885467172,-0.25493731361450916,0.25617164201813647,0.12746865680725458
1589988552.8261034,-3.9531210821511054,-0.8277070273837017,9.032292972616297,0.3566666666666667,-0.3333333333333333,-0.6111111111111112,-0.47133784229627185,0.6054932365555922,0.22133784229627185
1589988552.8361034,-3.9230733474946895,-0.8038378108209421,9.012293389978757,0.3566666666666667,-0.3333333333333333,-0.6111111111111112,-0.3172778957890791,0.6778473697363488,0.16829157815819068
1589988552.8461034,-3.880676169669702,-0.7379226060435639,8.941739309121585,0.3566666666666667,-0.3333333333333333,-0.6111111111111112,-0.1702902273366356,0.4375,0.5087576517920875
1589988552.8561034,-3.82,-0.6862518986329842,9.014124430410105,0.3566666666666667,-0.3333333333333333,-0.6111111111111112,-0.33827769006315456,0.2828338596210728,1.4343322807578542
1589988552.8661034,-3.82,-0.6024262530977695,9.039272124070669,0.3566666666666667,-0.3333333333333333,-0.6111111111111112,-0.495450775441682,-0.660204652650092,3.320409305300184
1589988552.8761034,-3.829178779888671,-0.4531395217812634,9.095072679332025,0.32607073370442985,-0.3353730621974825,-0.6243693487280804,-0.557367374304194,-1.375908491650328,6.989144581164221
1589988552.8861034,-3.24,-0.7402575932333718,8.904667435601691,0.3233333333333333,-0.33555555555555555,-0.6255555555555555,-0.7493632256824299,-1.8198769703960016,13.732999327181853
1589988552.8961034,-3.2176345671729836,-0.4174551442756722,8.758960084549967,0.3233333333333333,-0.33555555555555555,-0.6255555555555555,0.2045267413852431,-0.6429192474069705,17.01075615690901
1589988552.9061034,-3.116309901486058,-0.42785940891634666,9.056309901486058,0.3233333333333333,-0.33555555555555555,-0.6255555555555555,-0.8009684421439306,-1.7202475371514443,14.298422107196528
1589988552.9161034,-3.061114162198267,-0.366222424253669,9.040532682709612,0.32291902455919,-0.33520043374914704,-0.6247861249750037,-0.8065975378963579,-1.3058414661298403,11.656780525817764
1589988552.9261034,-2.4930233593706514,-0.8954028981204891,9.048314748501772,0.31686630672084404,-0.33001238988770765,-0.6135453632752184,-1.6334420283132642,-1.2085656437278514,10.294919012189919
1589988552.9361033,-1.8997420745440894,-1.0579896345450583,8.76090213363687,0.31555555555555553,-0.3288888888888889,-0.6111111111111112,-1.645779346588845,2.1014824659126687,8.544134920442712
1589988552.9461033,-1.469547291835085,-0.9232578819725141,8.9035974130962,0.31555555555555553,-0.3288888888888889,-0.6111111111111112,-0.6264147130153598,2.9403294260307193,3.130658852061439
1589988552.9561033,-1.8739095836697037,-0.9880452081651482,8.675585119528147,0.31555555555555553,-0.3288888888888889,-0.6111111111111112,0.6860872448391189,0.4549534985254625,-1.9273604955763877
1589988552.9661033,-1.9706527505478029,-0.9396736247260985,8.813789643639717,0.31555555555555553,-0.3288888888888889,-0.6111111111111112,2.197699227309422,0.8868426363741206,-3.223027909122362
1589988552.9761033,-2.1132013775806238,-0.91,9.083201377580624,0.33555555555555555,-0.3288888888888889,-0.6022222222222222,0.22999139012109981,1.1749677129541243,-5.585036591985326
1589988552.9861033,-2.176005577704157,-0.91,9.146005577704157,0.33555555555555555,-0.3288888888888889,-0.6022222222222222,-0.16253486065098177,-0.29700572744118126,-7.253273157766673
1589988552.9961033,-2.2552190580503835,-0.8613047645125959,8.911742880613362,0.33555555555555555,-0.3288888888888889,-0.6022222222222222,0.6603573384446878,1.0489286692223438,-9.902262458926616
1589988553.0061033,-2.283931407447974,-0.8684828518619935,8.976345666757942,0.33555555555555555,-0.3288888888888889,-0.6022222222222222,1.198713889649507,1.3181069448247535,-11.427606020673604
1589988553.0161033,-2.2911055172055845,-0.8798157471324025,9.096683448383246,0.3356783908006205,-0.3289707790522655,-0.6027545082841704,0.5578936783100639,1.2453936783100639,-14.617775860279234
1589988553.0261033,-2.35,-0.8720333711803328,8.914916572049169,0.3422222222222222,-0.3333333333333333,-0.6311111111111111,0.37604284938539767,1.0953142740780966,-17.84208853729575
1589988553.0361032,-2.3526039613254484,-0.8886980193372759,8.858282174035482,0.3422222222222222,-0.3333333333333333,-0.6311111111111111,0.9293626208579743,1.961912137426077,-20.727506336243312
1589988553.0461032,-2.3710787565225084,-0.8789212434774918,8.784315026090033,0.3422222222222222,-0.3333333333333333,-0.6311111111111111,0.8615155434686478,2.0980310869372953,-23.857338098080834
1589988553.0561032,-2.3810035045012903,-0.8710035045012906,8.827024531509034,0.3422222222222222,-0.3333333333333333,-0.6311111111111111,0.7604531718884435,1.881271903133066,-26.931666159528255
1589988553.0661032,-2.4074087675487377,-0.8974087675487378,9.011861372841164,0.3422222222222222,-0.3333333333333333,-0.6311111111111111,1.0355079952993516,2.046304797179611,-30.067291146412607
1589988553.0761032,-2.3707284619244544,-0.9,9.036545256345924,0.3422222222222222,-0.3304243305129226,-0.6078390885478249,1.512486373782292,2.5943020781063453,-34.670324477012784
1589988553.0861032,-2.4128042457644416,-0.9,9.004111859563176,0.3422222222222222,-0.3288888888888889,-0.5955555555555555,1.75,2.875,-36.9375
1589988553.0961032,-2.4395160385453107,-0.9195160385453106,8.95446257672761,0.3422222222222222,-0.3288888888888889,-0.5955555555555555,1.7093415863639363,2.9156584136360637,-39.05173750907531
1589988553.1061032,-2.4266600472104614,-0.9455599685263592,9.023359811158155,0.3422222222222222,-0.3288888888888889,-0.5955555555555555,1.4930003934205103,3.2778743115141067,-45.63348898422571
1589988553.1161032,-2.4263492455224935,-0.9690477365674799,9.05,0.3422222222222222,-0.3288888888888889,-0.5955555555555555,1.5565483535467495,3.652779491609082,-49.33037036384149
1589988553.1261032,-2.4493396484197105,-0.9993396484197103,9.01132070316058,0.3497431966076651,-0.33533543836212565,-0.6159696288874721,1.5041271973768102,3.872936401311595,-53.705192868202936
1589988553.1361032,-2.4690947836560735,-1.0572843509682202,8.943168257203743,0.35,-0.33555555555555555,-0.6166666666666667,1.6193423978504586,4.173355994626147,-56.975073543037155
1589988553.1461031,-2.49,-1.0203845339730473,8.790128177991015,0.35,-0.33555555555555555,-0.6166666666666667,1.7508011124438487,4.313301112443849,-60.47755562219243
1589988553.1561031,-2.49,-1.0499781274253863,8.799992709141796,0.35,-0.33555555555555555,-0.6166666666666667,1.8124544321362215,4.374954432136222,-63.56022160681107
1589988553.1661031,-2.4725381218231814,-1.102385634530456,8.930964086326139,0.35,-0.33555555555555555,-0.6166666666666667,1.9762051079076743,4.429568369302558,-66.2909184651279
1589988553.176103,-2.4622223668510683,-1.1411105325957263,9.004443432042521,0.3707403550638175,-0.31481520049173806,-0.6451846548794157,2.4374918646274,4.680551035904111,-69.16662056622194
1589988553.186103,-2.5794789096697177,-1.2005210903302825,9.042704735376045,0.37666666666666665,-0.3088888888888889,-0.6533333333333333,2.7597704436927977,5.2565136291285315,-72.8503407282133
1589988553.196103,-2.571133704735376,-1.2088662952646239,8.925871866295266,0.37666666666666665,-0.3088888888888889,-0.6533333333333333,2.916243036211699,5.360828690807799,-75.458217270195
1589988553.206103,-2.5686326398302586,-1.2516408322036896,8.951640832203688,0.37666666666666665,-0.3088888888888889,-0.6533333333333333,2.5625,5.19262760063653,-79.00928640891142
1589988553.216103,-2.5274320740260507,-1.3010815111687393,9.001081511168739,0.37666666666666665,-0.3088888888888889,-0.6533333333333333,2.5625,5.34712972240231,-81.17231611363235
1589988553.226103,-2.5330493160133347,-1.323049316013335,9.008983561328888,0.4033333333333333,-0.29444444444444445,-0.6111111111111112,2.7245890332222094,5.850616450166686,-84.55390418438901
1589988553.236103,-2.5619045406266596,-1.352539387502213,8.98603336873783,0.4033333333333333,-0.29444444444444445,-0.6111111111111112,2.5119033789166223,6.179564414055585,-86.82240496105506
1589988553.246103,-2.589747742963356,-1.389663657284475,8.781849884935387,0.4033333333333333,-0.29444444444444445,-0.6111111111111112,2.685923393520977,6.063551070986016,-88.79463179323774
1589988553.256103,-2.540501577975824,-1.4312486850201465,8.804749211012089,0.4033333333333333,-0.29444444444444445,-0.6111111111111112,2.739060856275183,6.165621712550366,-90.41088654453068
1589988553.266103,-2.5410293505585426,-1.4455146752792714,8.832058701117086,0.4033333333333333,-0.29444444444444445,-0.6111111111111112,2.784466720495447,6.2219667204954465,-91.68060145337707
1589988553.276103,-2.600374612887579,-1.4891802544681167,8.917166150516772,0.425100141371176,-0.27267763640660175,-0.6428284599662534,3.022394220364912,6.3199647401216374,-93.24209451139883
1589988553.286103,-2.633925966227381,-1.550370168863096,8.921407729819046,0.44222222222222224,-0.25555555555555554,-0.6677777777777778,3.33935084431548,6.41296271107887,-94.67221693265627
1589988553.296103,-2.611971423984588,-1.633100016053941,8.899014288007706,0.44222222222222224,-0.25555555555555554,-0.6677777777777778,3.0994641997110293,6.550178600096324,-96.08892880077059
1589988553.306103,-2.6243968644608513,-1.6328015677695742,8.914396864460851,0.44222222222222224,-0.25555555555555554,-0.6677777777777778,3.287451007200802,6.742460805760642,-96.99732362592289
1589988553.316103,-2.608137768393342,-1.6882992842844216,8.941862231606658,0.44222222222222224,-0.25555555555555554,-0.6677777777777778,3.3294536841527957,6.8125,-97.90460210601366
1589988553.326103,-2.6126929626549447,-1.7036535186725277,8.962692962654945,0.4626719953885215,-0.24638841586031796,-0.6445073462437131,3.233168983406598,6.772834491703299,-98.64065160785711
1589988553.336103,-2.570015248767687,-1.783307918720522,8.92834604063974,0.4744444444444445,-0.2411111111111111,-0.6311111111111111,2.9271627539983687,7.010337246001631,-99.56230939040391
1589988553.346103,-2.578819842814182,-1.8376396856283643,8.863540471557453,0.4744444444444445,-0.2411111111111111,-0.6311111111111111,2.5221279472340856,7.2977480351772765,-100.39324410553183
1589988553.356103,-2.5153640284415433,-1.8492337102226368,8.869233710222636,0.4744444444444445,-0.2411111111111111,-0.6311111111111111,2.788553444457396,7.023946555542604,-100.89918551113183
1589988553.366103,-2.5177234765234764,-1.9040643356643356,8.862276523476522,0.4744444444444445,-0.2411111111111111,-0.6311111111111111,3.2952172827172825,7.193086913086913,-101.22713036963037
1589988553.376103,-2.528663846289441,-1.943340384276397,8.85,0.5077777777777778,-0.19,-0.6755555555555556,3.4312367794817558,7.11456129913626,-101.64587740172747
1589988553.386103,-2.4916966331746875,-2.035758417063282,8.85,0.5077777777777778,-0.19,-0.6755555555555556,3.2579529680063457,6.825754946677243,-102.22349010664551
1589988553.396103,-2.4996696870846926,-2.07867874833877,8.85,0.5077777777777778,-0.19,-0.6755555555555556,3.3708710885586566,7.235548809955298,-102.6730488099553
1589988553.406103,-2.5075618256024153,-2.0951236512048306,8.857561825602415,0.5077777777777778,-0.19,-0.6755555555555556,3.375,7.486307050075476,-103.20737551016605
1589988553.416103,-2.489403858505602,-2.1617884244831935,8.91492304398506,0.5077777777777778,-0.19,-0.6755555555555556,3.2891827437733427,7.5625,-103.8040862811333
1589988553.4261029,-2.48,-2.2209578131726215,8.915233749461903,0.5201609030468264,-0.16592170086573876,-0.6796832639785717,3.404789065863108,7.678591799397331,-104.61915626345244
1589988553.4361029,-2.4751631627239,-2.2641841863805006,8.8903263254478,0.5277777777777778,-0.1511111111111111,-0.6822222222222222,3.4697697670243746,7.689539534048749,-105.241841863805
1589988553.4461029,-2.4465233918128657,-2.3310840643274853,8.833046783625731,0.5277777777777778,-0.1511111111111111,-0.6822222222222222,3.327453399122807,7.588317799707602,-106.01355080409357
1589988553.4561028,-2.390993143833997,-2.376717224071144,8.78885518395257,0.5277777777777778,-0.1511111111111111,-0.6822222222222222,3.319655100296434,7.736637750741084,-106.75810305163039
1589988553.4661028,-2.36,-2.408043886933042,8.798043886933042,0.5277777777777778,-0.1511111111111111,-0.6822222222222222,3.224634275557986,7.799817137778993,-107.25045715555251
1589988553.4761028,-2.3331638368012477,-2.441468930559002,8.820734465279502,0.5420903981504457,-0.12308222954796985,-0.6965348425948901,3.125,7.7164547960015595,-107.77754244798129
1589988553.4861028,-2.2924698661539598,-2.46584337794868,8.847530133846039,0.5544444444444444,-0.09888888888888887,-0.7088888888888889,3.125,7.614457775641499,-108.45369000961325
1589988553.4961028,-2.2146752486834407,-2.5271591574019894,8.79467524868344,0.5544444444444444,-0.09888888888888887,-0.7088888888888889,3.227069923932124,8.123884581626683,-109.14681465769456
1589988553.5061028,-2.1734406103167787,-2.5311468701055926,8.824265649472036,0.5544444444444444,-0.09888888888888887,-0.7088888888888889,3.471328247360178,8.471328247360178,-109.47132824736018
1589988553.5161028,-2.1468960405213418,-2.5839092387835363,8.853103959478657,0.5544444444444444,-0.09888888888888887,-0.7088888888888889,3.403733502172257,8.5,-109.74066624456935
1589988553.5261028,-2.099779955425054,-2.65,8.9,0.5666666666666667,-0.03555555555555556,-0.7322222222222222,3.310780901758234,8.376031458945059,-109.75137527859341
1589988553.5361028,-2.0701036544380376,-2.65,8.9,0.5666666666666667,-0.03555555555555556,-0.7322222222222222,3.078934800297166,8.5151391198217,-109.93685215976227
1589988553.5461028,-2.025977308366387,-2.6244829812747903,8.763909233465547,0.5666666666666667,-0.03555555555555556,-0.7322222222222222,3.1594813670325617,8.775141822710083,-109.84051863296745
1589988553.5561028,-2.0292462474442723,-2.6754774846656364,8.712261257667183,0.5666666666666667,-0.03555555555555556,-0.7322222222222222,2.725187627786366,8.465765720839775,-109.87028904652671
1589988553.5661027,-1.9858905196350654,-2.768218960729869,8.805570540790692,0.5666666666666667,-0.03555555555555556,-0.7322222222222222,2.4118157477191593,8.39155262461986,-109.69121049847944
1589988553.5761027,-1.9822066056088659,-2.8183099084132985,8.833896697195566,0.582942140811821,-0.021992660434593594,-0.75799172295205,2.617665140221644,8.947184637915583,-109.05281536208442
1589988553.5861027,-1.997257079233246,-2.83,8.779200445367277,0.5933333333333334,-0.013333333333333334,-0.7744444444444445,2.857856745207788,9.176429764376635,-107.91643533146761
1589988553.5961027,-1.939933606921609,-2.91580913296913,8.777161826593826,0.5933333333333334,-0.013333333333333334,-0.7744444444444445,2.3386929189429386,8.642323627048645,-106.82053937841441
1589988553.6061027,-1.9356477757841983,-2.952591103136794,8.740465569510611,0.5933333333333334,-0.013333333333333334,-0.7744444444444445,2.3558957959537214,8.880187387861165,-105.805035033719
1589988553.6161027,-1.9304602308064405,-2.9652301154032203,8.71953976919356,0.5933333333333334,-0.013333333333333334,-0.7744444444444445,2.1393822127012645,9.184623557459748,-104.34989375302328
1589988553.6261027,-1.8960455390334572,-2.979163568773234,8.787490706319703,0.6029151177199504,-0.027173688558446922,-0.7914787277984304,1.5130692379182156,9.010455390334572,-102.9310815520446
1589988553.6361027,-1.8789712222650636,-3.0538273335903816,8.805143888674682,0.6133333333333333,-0.042222222222222223,-0.81,1.2716052087349714,8.693929860843353,-101.44341284307197
1589988553.6461027,-1.8620366287339973,-3.1479633712660027,8.68475213371266,0.6133333333333333,-0.042222222222222223,-0.81,1.2002289295874822,8.333714882645804,-98.68554631934566
1589988553.6561027,-1.498629216785272,-2.6877815563532548,8.066510065705229,0.6133333333333333,-0.042222222222222223,-0.81,-0.7559184562419967,6.7892801288914075,-97.61705318344984
1589988553.6661026,-1.7188733868154866,-3.0650156958493198,9.457778165329612,0.6133333333333333,-0.042222222222222223,-0.81,-2.534138472270666,5.795430763864667,-95.94029037321242
1589988553.6761026,-1.6499520762188997,-3.0105271615921025,8.031916951244009,0.6355555555555555,-0.042222222222222223,-0.84,8.466453353229833,9.990415243779953,-89.93330666915372
1589988553.6861026,-1.6439339110970814,-3.076726977932103,8.272643556116739,0.6355555555555555,-0.042222222222222223,-0.84,4.25373776795707,8.786782219416306,-89.40671722099464
1589988553.6961026,-1.6512135247799906,-3.198494673459935,8.772012505789716,0.6355555555555555,-0.042222222222222223,-0.84,0.09830940250115794,5.547041454377027,-88.67703508568782
1589988553.7061026,-1.6049493051981472,-3.2128136901698405,8.505221821924858,0.6355555555555555,-0.042222222222222223,-0.84,2.09660158260422,6.6232967704580545,-85.52416044776119
1589988553.7161026,-1.5973306460398737,-3.2439838762392417,8.616572611395577,0.6355555555555555,-0.042222222222222223,-0.84,2.6626007735047392,6.750251933761848,-83.32968732977449
1589988553.7261026,-1.5932893368892105,-3.280131989332369,9.018690503096325,0.5572644859296759,-0.06011732385099469,-0.7564895257323951,0.4234761334357908,5.073984088957194,-81.80590053338155
1589988553.7361026,-1.615824061851782,-3.3502561443208245,8.799855113457792,0.5188888888888888,-0.06888888888888889,-0.7155555555555555,2.6568078603306304,6.204204381167893,-78.51489329939028
1589988553.7461026,-1.573263289036545,-3.430105066445183,8.80231561461794,0.5188888888888888,-0.06888888888888889,-0.7155555555555555,1.9217140780730897,5.088161856312293,-76.26118926495016
1589988553.7561026,-1.5979081879844963,-3.487908187984496,8.8275816375969,0.5188888888888888,-0.06888888888888889,-0.7155555555555555,1.846811409883721,4.78227046996124,-73.75982013081395
1589988553.7661026,-1.56442006397327,-3.5,8.71930586964937,0.5188888888888888,-0.06888888888888889,-0.7155555555555555,2.0188927429048755,4.8125,-71.21227054173542
1589988553.7761025,-1.5319302922911857,-3.5484182462528855,8.7729759079234,0.5215787914584936,0.029740871996618665,-0.6581709674039875,1.9111929804597327,4.358578941379198,-67.71615201417563
1589988553.7861025,-1.5083769392453208,-3.5311692523270946,8.735130817735962,0.5222222222222223,0.05333333333333334,-0.6444444444444445,1.875,4.25,-64.96269392453208
1589988553.7961025,-1.3466082191780822,-3.431194232155732,9.34778687815429,0.5222222222222223,0.05333333333333334,-0.6444444444444445,2.833698630136986,5.05732516222062,-61.349819754866616
1589988553.8061025,-1.2553998348358681,-3.270466244580552,8.474730231917968,0.5222222222222223,0.05333333333333334,-0.6444444444444445,5.489174007294749,6.842504817287179,-58.26082599270525
1589988553.8161025,-1.2989853413850199,-3.3658478620824,8.7624702931723,0.5222222222222223,0.05333333333333334,-0.6444444444444445,1.8645676073828765,3.5482294608941265,-56.919809827603
1589988553.8261025,-1.33295025728988,-3.4607141743333854,9.139098705753938,0.525103522359097,0.10116291560545419,-0.6409868842801948,-0.7538788398565415,0.8963531108685481,-54.82123226259161
1589988553.8361025,-1.2937409551374819,-3.3820622286541244,8.54328509406657,0.5277777777777778,0.14555555555555555,-0.6377777777777778,2.432253979739508,3.291515918958032,-51.16502351664255
1589988553.8461025,-1.286637662124446,-3.4492029223444427,8.47230421934001,0.5277777777777778,0.14555555555555555,-0.6377777777777778,1.3683867591528485,2.1023538827778694,-48.37889406501395
1589988553.8561025,-1.2867090402899617,-3.508987760676577,8.688611125702579,0.5277777777777778,0.14555555555555555,-0.6377777777777778,1.363141513893996,2.489730524767558,-45.60599096496297
1589988553.8661025,-1.321029950714015,-3.5662874383925187,8.876395172500947,0.5277777777777778,0.14555555555555555,-0.6377777777777778,1.3428140401870339,2.606361762289903,-42.65276878238342
1589988553.8761024,-1.2477170840352931,-3.497717084035293,8.763858542017646,0.5388859065513073,0.18657018487320307,-0.6155615202307188,1.855472430827218,2.3123322435110363,-38.986235044687476
1589988553.8861024,-1.3099634608144917,-3.6049451912217374,8.757496955067873,0.5422222222222223,0.1988888888888889,-0.6088888888888889,1.718940308257856,1.937728369909427,-36.375761233031426
1589988553.8961024,-1.1541737235786969,-3.3884667220737215,8.732470181270918,0.5422222222222223,0.1988888888888889,-0.6088888888888889,2.2937608099912397,1.75,-33.64224825355466
1589988553.9061024,-1.1706671927684913,-3.45791209316785,8.666310830523472,0.5422222222222223,0.1988888888888889,-0.6088888888888889,2.2474980271181577,1.4983320180787718,-31.135547444819093
1589988553.9161024,-1.2257855310415597,-3.5673565931246793,8.801994869163673,0.5422222222222223,0.1988888888888889,-0.6088888888888889,1.8817021549512571,1.4473191380194972,-28.747819394561315
1589988553.9261024,-1.2421247132783961,-3.6345612097527824,8.913937643360802,0.5550205306827515,0.2137079828958174,-0.6088888888888889,1.7121102710050122,1.4242205420100247,-25.93324165321553
1589988553.9361024,-1.261220585881223,-3.6419485352969425,8.820235312950215,0.5633333333333334,0.22333333333333333,-0.6088888888888889,1.5472426764847127,1.164614014727069,-23.226976448695375
1589988553.9461024,-1.27,-3.668514611373833,8.707549715047897,0.5633333333333334,0.22333333333333333,-0.6088888888888889,1.1342836789135444,1.0,-20.004495953073846
1589988553.9561024,-1.2132031575592654,-3.6574023681694494,8.68,0.5633333333333334,0.22333333333333333,-0.6088888888888889,0.9818725331568238,0.7337648010590572,-16.620118408472457
1589988553.9661024,-1.2201960456604215,-3.700392091320843,8.805816856918423,0.5633333333333334,0.22333333333333333,-0.6088888888888889,0.9056373573111828,0.4991831430815771,-14.20874350274932
1589988553.9761024,-1.2219303349282296,-3.7132172248803825,8.845791004784688,0.5700908452950558,0.23268988835725676,-0.6182454439128123,0.8709784688995216,0.22880382775119618,-11.342495215311004
1589988553.9861023,-1.2252432874043582,-3.699648698329903,8.758810821851089,0.5777777777777777,0.2433333333333333,-0.6288888888888889,0.8824323634306902,0.11756763656930981,-8.573478177190529
1589988553.9961023,-1.2649061080059512,-3.7398122160119023,8.719061080059511,0.5777777777777777,0.2433333333333333,-0.6288888888888889,0.8443368249628052,0.0919895251115847,-6.315508263299691
1589988554.0061023,-1.2413722310272381,-3.722941653459143,8.66921934318676,0.5777777777777777,0.2433333333333333,-0.6288888888888889,0.8566146658803583,-0.1875,-3.1261817662452547
1589988554.0161023,-1.2237661972622762,-3.736883098631138,8.775064789049106,0.5777777777777777,0.2433333333333333,-0.6288888888888889,0.7110387328892261,-0.2654225342215476,-0.6858714900075892
1589988554.0261023,-1.213646029159878,-3.73,8.76010632075866,0.5923618944172898,0.25224584905747954,-0.6321298036976694,0.6022123177507624,-0.5286507289969503,2.1615072899695034
1589988554.0361023,-1.179213496401746,-3.7345318337331395,8.789213496401747,0.6177777777777778,0.2677777777777778,-0.6377777777777778,0.3359083133430335,-0.6591760391678791,4.967930315781195
1589988554.0461023,-1.13,-3.725603080872914,8.720804107830551,0.6177777777777778,0.2677777777777778,-0.6377777777777778,0.09249358151476252,-0.8049614890885751,7.547262516046214
1589988554.0561023,-1.1430896734000378,-3.7012735510666412,8.704363224466679,0.6177777777777778,0.2677777777777778,-0.6377777777777778,-0.011350764583726636,-1.0545403058334906,9.62264489333585
1589988554.0661023,-1.1705063783447416,-3.705759567517113,8.741519135034226,0.6177777777777778,0.2677777777777778,-0.6377777777777778,-0.1875,-1.092167567672682,11.767805402146857
1589988554.0761023,-1.1974238107857427,-3.72,8.828079369285808,0.6674679048334143,0.2826202832619289,-0.6500389779603374,-0.3326984232145223,-1.243998029018153,13.740188568305287
1589988554.0861022,-1.21,-3.696820861857465,8.812052154643663,0.7033333333333334,0.2933333333333333,-0.6588888888888889,-0.5099348066954217,-1.375,15.224348066954215
1589988554.0961022,-1.21,-3.6684263817408818,8.677411053927052,0.7033333333333334,0.2933333333333333,-0.6588888888888889,-0.3816622147012754,-1.44733511411949,16.654188926493624
1589988554.1061022,-1.2034945182603645,-3.6665054817396356,8.662043853917083,0.7033333333333334,0.2933333333333333,-0.6588888888888889,-0.290659260872722,-1.540659260872722,18.28832226094533
1589988554.1161022,-1.2096440969178441,-3.679644096917844,8.78161892071952,0.7033333333333334,0.2933333333333333,-0.6588888888888889,-0.6440158315508959,-1.6830512114730531,19.80704749465269
1589988554.1261022,-1.2023817129876122,-3.6415497107159336,8.774290277925674,0.9357968425245604,0.3417836226173996,-0.770960770162133,-0.6971856919745856,-1.9226142938274233,21.976142938274233
1589988554.1361022,-1.2087000986672096,-3.596400056381263,8.676900126857841,1.2311111111111108,0.4033333333333333,-0.9133333333333332,-0.7481264976272886,-2.1650003523828913,24.425628611924637
1589988554.1461022,-1.2534664394123853,-3.632132537943349,8.71786746205665,1.2311111111111108,0.4033333333333333,-0.9133333333333332,-1.331669507345183,-2.2908347536725917,26.489963781348916
1589988554.1561022,-1.280392137970903,-3.7211764139127084,8.722352827825416,1.2311111111111108,0.4033333333333333,-0.9133333333333332,-1.2549017246362848,-2.1875,30.48896810868099
1589988554.1661022,-1.2806263581746133,-3.7171922536111466,8.756565895436534,1.2311111111111108,0.4033333333333333,-0.9133333333333332,-1.140658954365333,-2.3339631535216667,32.892412597469004
1589988554.1761022,-1.2751485148514852,-3.6902970297029705,8.786633663366336,1.176193619361936,0.022915291529152892,-0.9728272827282729,-0.9393564356435644,-2.628712871287129,35.0884900990099
1589988554.1861022,-1.2932654366795466,-3.6469382532818138,8.793570971621588,1.1244444444444444,-0.33555555555555555,-1.0288888888888892,-1.0,-2.874363468870749,36.725135302848074
1589988554.1961021,-1.312767637339484,-3.594464725321032,8.744464725321032,1.1244444444444444,-0.33555555555555555,-1.0288888888888892,-1.0797977333717759,-2.857702266628224,37.64368526691654
1589988554.2061021,-1.3080229842100346,-3.5320919368401382,8.724011492105017,1.1244444444444444,-0.33555555555555555,-1.0288888888888892,-0.7881464309072224,-2.849928174343642,38.04978452303092
1589988554.2161021,-1.3196583265540984,-3.514743744915574,8.77406039802377,1.1244444444444444,-0.33555555555555555,-1.0288888888888892,-0.6546484057223357,-2.9671484057223356,38.032851594277666
1589988554.226102,-1.3294649488197876,-3.503662372049469,8.78785979527915,0.8885763541319096,-0.10261386834863534,-0.8685219987012103,-0.684155930123672,-3.095422034938164,37.5753576156802
1589988554.236102,-1.3581094481040943,-3.5371641721561415,8.819867321524173,0.6766666666666666,0.10666666666666667,-0.7244444444444444,-0.9028813924256884,-3.0456053164498034,36.61484253159843
1589988554.246102,-1.404244577757268,-3.551816566682049,8.787266266728196,0.6766666666666666,0.10666666666666667,-0.7244444444444444,-1.0246178472542686,-3.0,35.83329631979696
1589988554.256102,-1.472035891952206,-3.487964108047794,8.745781765772467,0.6766666666666666,0.10666666666666667,-0.7244444444444444,-1.1445441443116835,-2.8554558556883167,35.02045945883118
1589988554.266102,-1.4430362598488504,-3.5408793616337033,8.75478312429651,0.6766666666666666,0.10666666666666667,-0.7244444444444444,-0.9809492583212736,-2.6902109462936163,34.14668757034893
1589988554.276102,-1.4326559175904154,-3.586294927779644,8.818180494905386,0.6418578235608803,0.15340997026586548,-0.7144990606999341,-0.7154713917814355,-2.569057216437129,33.401228865748514
1589988554.286102,-1.482522465393241,-3.4787836980898614,8.87626123269662,0.5988888888888889,0.2111111111111111,-0.7022222222222222,-1.0076018869383652,-2.650267767380713,32.6312630500348
1589988554.296102,-1.4306248549996132,-3.4009372824994197,8.850312427499807,0.5988888888888889,0.2111111111111111,-0.7022222222222222,-1.494141984378625,-2.9340828242208645,31.698727863274303
1589988554.306102,-1.4560187997107736,-3.4460187997107736,8.720269558929862,0.5988888888888889,0.2111111111111111,-0.7022222222222222,-0.7865202458423717,-2.5337382501807664,31.51990600144613
1589988554.316102,-1.4557207811133779,-3.572372291848829,8.89738365879724,0.5988888888888889,0.2111111111111111,-0.7022222222222222,-1.02536189643447,-2.443459146993102,31.419622559020695
1589988554.326102,-1.4365006299357772,-3.6008173800817382,8.815044710075899,0.601237405552312,0.21392933110721882,-0.721010355529607,-0.6127873121715883,-2.42784162492702,31.51931675014596
1589988554.336102,-1.5103321807027328,-3.4683390964863356,8.858820078081429,0.6044444444444445,0.21777777777777774,-0.7466666666666667,-0.8729238706079196,-2.6614403234802007,30.955255158951477
1589988554.346102,-1.4631734575903024,-3.48392986021091,8.902518480888483,0.6044444444444445,0.21777777777777774,-0.7466666666666667,-0.6349170549696949,-2.6349170549696947,30.273927714325755
1589988554.356102,-1.3403311359803771,-3.613768204813736,8.78983443200981,0.6044444444444445,0.21777777777777774,-0.7466666666666667,-0.39855128008585006,-2.2879139199754714,29.368915759619806
1589988554.366102,-1.22835739868049,-3.67,8.790446748350613,0.6044444444444445,0.21777777777777774,-0.7466666666666667,-0.3297467012252592,-1.9402921771913288,26.625902450518378
1589988554.376102,-1.2186522450722266,-3.655944638155554,8.77567992599445,0.5810188413703677,0.17990638614135374,-0.72324106359259,0.13680797694442468,-1.4966154913541592,23.055579769444247
1589988554.386102,-1.170326444963876,-3.510326444963876,8.809611134721631,0.5377777777777778,0.11,-0.68,0.12743040798980027,-1.335633699001275,15.875869900127498
1589988554.396102,-1.1,-3.44,8.78,0.5377777777777778,0.11,-0.68,0.3125,-1.3125,13.5625
1589988554.406102,-15.298360228345395,-9.821957117813637,-7.153088506315459,0.5377777777777778,0.11,-0.68,-33.19997640131253,37.85559007956129,-86.79686586955545
1589988554.416102,-0.08108764031974142,-5.666013332179032,0.6172495887801922,0.5377777777777778,0.11,-0.68,-90.87807152338902,49.99336637520561,-411.3994928289037
1589988554.426102,0.7288215396490273,-2.557117982247043,0.07070194556062567,0.5429546136751748,0.1506182508872695,-0.6672570193294841,-56.707242218892596,-106.84004602828668,-574.9882474630525
1589988554.436102,-0.19545099316183653,-2.767443178117877,0.27853337675024425,0.5522222222222222,0.22333333333333333,-0.6444444444444445,-66.2277942852491,-51.08818992184956,-558.6686787691306
1589988554.446102,-0.9088970878292145,-4.71747464903121,6.60539111265808,0.5522222222222222,0.22333333333333333,-0.6444444444444445,-61.236378930270334,-25.060668290985035,-535.3185186796612
1589988554.456102,-1.0549530283718076,-4.682725770665156,7.781622055421801,0.5522222222222222,0.22333333333333333,-0.6444444444444445,-13.114838549780487,47.19103467403107,-500.112829273474
1589988554.466102,-0.7111584725922337,-3.0254863970291432,4.089737829983047,0.5522222222222222,0.22333333333333333,-0.6444444444444445,39.523972965609104,117.30894536610963,-466.91011115483974
1589988554.4761019,-0.620643303854313,-2.590343554563738,4.58116896713227,0.4804573074603655,0.318217146810419,-0.6444444444444445,80.00497114086563,161.63051870678018,-438.50795520290933
1589988554.4861019,0.10003271483155607,-0.46759958045101513,10.929550483230527,0.38666666666666666,0.44222222222222224,-0.6444444444444445,135.40611654970905,180.54659054016932,-403.58914479434605
1589988554.4961019,0.3215370859514708,0.6141200597181434,8.922596262694206,0.38666666666666666,0.44222222222222224,-0.6444444444444445,139.91896830344692,98.31543668892425,-370.50137811100353
1589988554.5061018,-0.133711500368975,-0.6568310871169456,-0.5549260107973745,0.38666666666666666,0.44222222222222224,-0.6444444444444445,94.76168097254049,-17.158986969355652,-336.14053093564297
1589988554.5161018,0.19505362070251323,-0.3526340517562831,0.11788127377134772,0.38666666666666666,0.44222222222222224,-0.6444444444444445,13.311485755835633,6.699810761428889,-301.89487937206354
1589988554.5261018,0.08244656573942874,-0.07111641434857185,1.6505884107688868,0.38666666666666666,0.44222222222222224,-0.6444444444444445,-21.01802613916027,28.243729957491233,-285.66851554925796
1589988554.5361018,0.052508588605783,-1.4823225021471513,4.99750501002004,0.3111111111111111,0.5244444444444445,-0.6322222222222222,-66.3422648869167,41.73259912682508,-249.55557990981964
1589988554.5461018,1.1593568120077393,-2.3998757011354974,10.441763832157445,0.3111111111111111,0.5244444444444445,-0.6322222222222222,-6.847390652178159,6.266856567709657,-222.83869730490355
1589988554.5561018,1.1742209544958555,-1.6898562321725978,9.14829814116431,0.3111111111111111,0.5244444444444445,-0.6322222222222222,20.873688668951125,17.54240887684974,-204.7618749641059
1589988554.5661018,1.0445108872278193,-1.3193370165745857,8.861556711082223,0.3111111111111111,0.5244444444444445,-0.6322222222222222,21.673647221319467,42.28042736431589,-185.27238381540462
1589988554.5761018,1.2828440697651133,-2.5753919782134203,11.89784837501752,0.2833817257053605,0.5349816108986297,-0.623348818892382,0.265271130779551,14.693134373936203,-164.02278404653677
1589988554.5861018,0.7385524630255036,-1.9173401653662512,7.298654943519273,0.2,0.5666666666666667,-0.5966666666666667,2.186350005822755,-19.13056073133807,-148.19779172004192
1589988554.5961018,0.6758756498824869,-1.7548963749020725,7.941549747169005,0.2,0.5666666666666667,-0.5966666666666667,8.376224093725519,14.593600883127984,-120.1039055266719
1589988554.6061018,0.828850731436759,-2.2757888655219434,10.045973284647916,0.2,0.5666666666666667,-0.5966666666666667,-2.922247290333017,26.525681172147628,-100.55969789235284
1589988554.6161017,1.0816918894950938,-2.508990187195157,10.637764839698484,0.2,0.5666666666666667,-0.5966666666666667,-6.97329673613387,8.477693460700586,-87.03471713481521
1589988554.6261017,0.7005979752916953,-1.6091592312971859,6.703463452299245,0.1777514680088462,0.576619957294288,-0.6060344696103104,7.351798429993137,-1.1403944320521617,-72.88817454529855
1589988554.6361017,0.7965332055872119,-2.0038812969593063,8.155732439110484,0.11555555555555555,0.6044444444444445,-0.6322222222222222,-0.103067797892189,5.885318440824971,-49.26304145025465
1589988554.6461017,1.7896444610778444,-3.13187125748503,7.76188622754491,0.11555555555555555,0.6044444444444445,-0.6322222222222222,-6.444107877994012,1.1875,-31.21631736526946
1589988554.6561017,5.205937371240214,-6.69164812525752,8.250708693860734,0.11555555555555555,0.6044444444444445,-0.6322222222222222,1.7598887515451174,-0.2493562010712813,-16.242274412855377
1589988554.6661017,14.877567045105863,-13.288937097269102,3.999187787664928,0.11555555555555555,0.6044444444444445,-0.6322222222222222,-8.441937710954281,-17.95780722614299,12.282989413930654
1589988554.6761017,0.03213884627186303,-0.5348674440012289,4.121451825713409,0.11555555555555555,0.6044444444444445,-0.6322222222222222,-24.60974800552317,-6.978174861920834,35.04662281374655
1589988554.6861017,-1.8381053115658772,-0.17368721873665538,5.0570150773576845,0.0811111111111111,0.6133333333333333,-0.6266666666666667,24.917799247774532,12.41687949610748,61.00780967710147
1589988554.6961017,-0.4789861559961569,-0.7684347977989344,6.104523102454363,0.0811111111111111,0.6133333333333333,-0.6266666666666667,24.525036302297146,-0.3866440300462948,69.36670369682942
1589988554.7061017,0.1975689961880559,-1.7460391359593392,8.995494282083863,0.0811111111111111,0.6133333333333333,-0.6266666666666667,-19.429161372299873,-15.421432655654383,69.92333227445998
1589988554.7161016,0.6962508701561309,-2.3867699804422053,10.777101468492061,0.0811111111111111,0.6133333333333333,-0.6266666666666667,-40.191643600623195,-4.192186412304836,74.16501475121822
1589988554.7261016,0.3263110513048917,-2.067808691696833,7.027041487405947,0.08287265697553209,0.6153465286069573,-0.6316996548507267,4.183394376741277,-4.3063913158842375,83.27072356575631
1589988554.7361016,1.8096155992744525,-3.32816868982838,7.758730989256314,0.08888888888888889,0.6222222222222222,-0.6488888888888888,9.908648144272359,-2.444990930654388,91.15739674898842
1589988554.7461016,10.312960645198107,-10.668820497213398,8.81188005249843,0.08888888888888889,0.6222222222222222,-0.6488888888888888,-14.444125311471668,-12.67187529720579,100.16187491678238
1589988554.7561016,-1.8362393651007163,-1.2498204257322527,7.608155496519487,0.08888888888888889,0.6222222222222222,-0.6488888888888888,-5.405685677775162,-5.992364310454989,102.4878749537613
1589988554.7661016,-0.4915517748990579,-2.0425489989905787,7.587821963324361,0.08888888888888889,0.6222222222222222,-0.6488888888888888,8.397349217698519,-1.8141074507907136,109.78899152506729
1589988554.7761016,0.9335887874501736,-3.906987270155587,9.81987913077022,0.10704170417041704,0.6225926878402126,-0.6533344763047734,-9.646674488877458,-10.542513179889418,116.33388517423171
1589988554.7861016,2.92,-6.4,8.88,0.14333333333333334,0.6233333333333333,-0.6622222222222223,-16.1875,-17.125,120.625
1589988554.7961016,1.9380875570099718,-5.114757916978021,8.78931381895952,0.14333333333333334,0.6233333333333333,-0.6622222222222223,-11.633646512406916,-14.603767811590096,128.36459648535134
1589988554.8061016,-0.03138512650140557,-2.5631663685152057,8.85341042678252,0.14333333333333334,0.6233333333333333,-0.6622222222222223,-3.210340531561462,-9.794195629951444,148.58633082034245
1589988554.8161016,0.4636447159779871,-3.3341003637720363,9.344191306781084,0.14333333333333334,0.6233333333333333,-0.6622222222222223,-6.071468962783323,-11.402192542673259,156.61531981624847
1589988554.8261015,0.887469452476448,-4.168709075645928,9.115977987128067,0.14333333333333334,0.6233333333333333,-0.6622222222222223,-4.3191166868762245,-11.768963949258465,162.1983956720455
1589988554.8361015,0.15915204678362574,-3.256754385964912,9.04701754385965,0.1811111111111111,0.6111111111111112,-0.6411111111111111,-5.627558479532164,-12.039656432748538,177.65277777777777
1589988554.8461015,0.1,-3.13,8.54,0.1811111111111111,0.6111111111111112,-0.6411111111111111,-3.9375,-12.9375,187.6875
1589988554.8561015,0.3432935700876095,-3.986032931789737,8.413847778473091,0.1811111111111111,0.6111111111111112,-0.6411111111111111,-6.528125977784731,-14.45808481304756,195.34674202127658
1589988554.8661015,0.2626049046321526,-3.9230379375393,8.548700901278558,0.1811111111111111,0.6111111111111112,-0.6411111111111111,-7.4320870886606585,-15.141322573883881,202.95132571787886
1589988554.8761015,0.11304110854503464,-3.4592273441108548,8.942679538106235,0.19147212727739288,0.6091007646907878,-0.6451318039517577,-6.189109699769053,-15.61469168591224,216.0406143187067
1589988554.8861015,0.07429468822170901,-3.6219623094688225,8.679203879907622,0.24916124198101103,0.5979073543751604,-0.6675186245830126,-5.850078521939953,-15.905289838337183,222.53063972286375
1589988554.8961015,-0.04559064044902056,-3.718818719101959,8.738818719101959,0.25555555555555554,0.5966666666666667,-0.67,-7.011647167602126,-16.53067734081701,230.82777710664237
1589988554.9061015,-0.0689763223432331,-3.6720473553135338,8.692047355313534,0.25555555555555554,0.5966666666666667,-0.67,-7.060367338215069,-16.920438705720553,236.38187655651785
1589988554.9161015,-0.216958953319862,-4.1396548486518485,8.676958953319863,0.25555555555555554,0.5966666666666667,-0.67,-7.658698691649827,-17.52174672912457,243.7158930867675
1589988554.9261014,1.602902043497804,-8.906476262923135,9.212046955499464,0.2808699560872722,0.5841277579920781,-0.6711829159126971,-7.616921959821583,-17.856462432142735,249.4441301303551
1589988554.9361014,5.777667862000742,-21.39818462852839,11.77381476443675,0.3744444444444445,0.5377777777777778,-0.6755555555555556,-8.917256371055679,-12.805852827770721,176.78175621367626
1589988554.9461014,-0.39423395573142095,-10.831926436368134,13.640944726103623,0.3744444444444445,0.5377777777777778,-0.6755555555555556,-12.836579049428376,-0.9005418348190695,3.683249350809973
1589988554.9561014,-3.7414858120135426,-2.840037345991414,12.161711633101811,0.3744444444444445,0.5377777777777778,-0.6755555555555556,0.18219368433911498,12.524601017416494,-105.52439923562878
1589988554.9661014,-1.5163153118564798,0.07317929566158243,4.080829290426163,0.3744444444444445,0.5377777777777778,-0.6755555555555556,46.61615868556071,28.94804282573034,-88.68922768838785
1589988554.9761014,-0.9052088647292494,-2.1140543591887937,8.279705624085302,0.38225771830789607,0.530701605222199,-0.6773245986944503,23.94947208864729,9.697940623039933,-23.86424576625549
1589988554.9861014,-1.062964537030586,-4.68584268097262,12.160025778582874,0.43333333333333335,0.4844444444444445,-0.6888888888888889,-25.0,-4.125,17.0625
1589988554.9961014,-0.6134229000242072,-3.8265935608811423,8.887722101186153,0.43333333333333335,0.4844444444444445,-0.6888888888888889,-14.328491890583393,-3.026767126603728,26.635775236020336
1589988555.0061014,-0.58,-2.61,7.25,0.43333333333333335,0.4844444444444445,-0.6888888888888889,7.1875,-0.8125,45.9375
1589988555.0161014,-0.36957899124635263,-4.0434931221342225,8.505950395998333,0.43333333333333335,0.4844444444444445,-0.6888888888888889,4.598335243851604,-1.8810441850771153,56.705137557315545
1589988555.0261014,6.512849239280774,-13.980248962655601,8.434190871369294,0.4316366989396035,0.4857169202397419,-0.6903027508836638,-8.686116874135546,-7.524636929460581,65.80238589211618
1589988555.0361013,-1.9128021871150396,-2.4765302241144562,7.763651098960472,0.4066666666666667,0.5044444444444445,-0.7111111111111111,10.321016403362798,5.445243781202048,-16.205425644572195
1589988555.0461013,-0.41856163353682374,-3.355679788289778,8.104433284214958,0.4066666666666667,0.5044444444444445,-0.7111111111111111,-0.5881988091300032,0.06764615222686676,4.99573534718672
1589988555.0561013,0.754475084954741,-4.743142573602381,9.220710161489189,0.4066666666666667,0.5044444444444445,-0.7111111111111111,-8.392676976513398,-4.504674390280576,11.657133378943254
1589988555.0661013,-0.06725714893164664,-6.078656957584777,8.835809503561178,0.4066666666666667,0.5044444444444445,-0.7111111111111111,1.2837501328797705,0.5625,-0.9752976506856597
1589988555.0761013,-0.11891777246030019,-4.47151511855558,8.6632466826191,0.4069312111763711,0.5038672564232712,-0.7109427646049357,2.38338862301501,0.5422082336306286,-1.2202387426582555
1589988555.0861013,-0.07528538785894326,-4.518858448564227,8.783573060705285,0.4188888888888889,0.4777777777777778,-0.7033333333333334,-0.05148877529386822,-0.2979214270570776,0.0809551011754729
1589988555.0961013,-0.09010588678711927,-4.459576452851523,8.709470566064404,0.4188888888888889,0.4777777777777778,-0.7033333333333334,-0.020612735860168194,-0.08178915102117734,-0.042549056559327225
1589988555.1061013,-0.10146560423849971,-4.428793625430998,8.661465604238499,0.4188888888888889,0.4777777777777778,-0.7033333333333334,0.027480079471869482,0.09914010596249265,-0.0791998675468842
1589988555.1161013,-0.10587471617189471,-4.4552482970313685,8.665874716171894,0.4188888888888889,0.4777777777777778,-0.7033333333333334,0.11015092822302582,0.20936790429736776,0.0585848803717097
1589988555.1261013,-0.10888831703551209,-4.482223365928976,8.671111682964488,0.4200005718533768,0.4770984159661463,-0.7037656544861898,0.1979220277920741,0.30207797220792587,0.1770779722079259
1589988555.1361012,-0.09161893978383942,-4.516762120432321,8.68838106021616,0.43726994910504946,0.4665449076456797,-0.7104815234173958,0.3598224395265054,0.1401775604734946,0.015177560473494611
1589988555.1461012,-0.106654744873629,-4.478363137815927,8.703309489747259,0.4388888888888889,0.4655555555555556,-0.7111111111111111,0.33318431092036244,0.02090784453981879,0.0625
1589988555.1561012,-0.09174364580486472,-4.513025416780541,8.682205520634053,0.4388888888888889,0.4655555555555556,-0.7111111111111111,0.048715496037168626,0.08140885487838206,0.07339778628040448
1589988555.1661012,-0.1,-4.491503593458209,8.718636183577614,0.4388888888888889,0.4655555555555556,-0.7111111111111111,-0.29195786882462793,-0.125,0.10445786882462792
1589988555.1761012,-0.1,-4.546886424084659,8.615782355271348,0.4388888888888889,0.4655555555555556,-0.7111111111111111,-0.19305995699168127,-0.125,0.0055599569916812835
1589988555.1861012,-0.0969923518164436,-4.57345793499044,8.706015296367113,0.43333333333333335,0.4844444444444445,-0.6755555555555556,-0.15601099426386233,-0.05310109942638623,-0.0343032982791587
1589988555.1961012,-0.08095296367112811,-4.485241300191205,8.738094072657743,0.43333333333333335,0.4844444444444445,-0.6755555555555556,0.3452198852772467,-0.0029780114722753326,0.116065965583174
1589988555.2061012,-0.08703289063196364,-4.501098671895891,8.690769765576254,0.43333333333333335,0.4844444444444445,-0.6755555555555556,0.19917773420090917,0.04395556644977271,-0.006866699349318134
1589988555.2161012,-0.09,-4.482829884728289,8.751510345815136,0.43333333333333335,0.4844444444444445,-0.6755555555555556,0.125,0.23231322044819933,-0.0058955931839335535
1589988555.2261012,-0.09,-4.543037028721716,8.703266674150456,0.43333333333333335,0.4844444444444445,-0.6755555555555556,0.006805571146783845,0.13180557114678385,0.0
1589988555.2361012,-0.09,-4.5102778700321045,8.683944425993579,0.43333333333333335,0.47127470878384203,-0.7065431688746202,0.19895798737960813,-0.06822899368980406,0.0
1589988555.2461011,-0.09,-4.495627402844041,8.760323312798183,0.43333333333333335,0.4655555555555556,-0.72,0.21482873222474408,-0.07616436611237204,0.04883563388762796
1589988555.2561011,-0.09,-4.476803969729155,8.691133994954859,0.43333333333333335,0.4655555555555556,-0.72,0.24871278378916623,0.10373759459638875,-0.0625
1589988555.2661011,-0.09,-4.518568773234201,8.698094795539033,0.43333333333333335,0.4655555555555556,-0.72,-0.14283224907063202,-0.02677741635687733,-0.0625
1589988555.276101,-0.09793596623769082,-4.53,8.715871932475382,0.43333333333333335,0.4655555555555556,-0.72,-0.25,-0.11209978898556766,-0.012900211014432346
1589988555.286101,-0.1,-4.565939150644412,8.684060849355589,0.44211845904641167,0.4655555555555556,-0.7032283963659413,-0.29492393830551444,-0.125,0.04492393830551447
1589988555.296101,-0.09080031780798385,-4.52,8.724397775344114,0.4455555555555555,0.4655555555555556,-0.6966666666666667,0.14000595889969722,-0.015005958899697223,0.010003972599798149
1589988555.306101,-0.09980695312332238,-4.52,8.661351328136744,0.4455555555555555,0.4655555555555556,-0.6966666666666667,0.30888037106229466,-0.18388037106229466,0.12258691404152977
1589988555.316101,-0.10857000569151963,-4.52928500284576,8.6835749857712,0.4455555555555555,0.4655555555555556,-0.6966666666666667,0.2901563389299943,-0.05803126778599886,-0.05803126778599886
1589988555.326101,-0.09365004268639726,-4.521825021343198,8.720874893284007,0.4455555555555555,0.4655555555555556,-0.6966666666666667,0.0570319169749573,-0.011406383394991462,-0.011406383394991462
1589988555.336101,-0.10921183633803376,-4.539211836338033,8.746847345352135,0.4388888888888889,0.4777777777777778,-0.6755555555555556,0.019704091549156106,0.0625,0.23029590845084388
1589988555.346101,-0.10089327859423654,-4.530893278594236,8.713573114376947,0.4388888888888889,0.4777777777777778,-0.6755555555555556,0.2276680351440868,0.0625,0.02233196485591321
1589988555.356101,-0.09,-4.519311748536416,8.690137650292716,0.4388888888888889,0.4777777777777778,-0.6755555555555556,0.49483811402312355,-0.0008603143294794048,-0.0034412573179176194
1589988555.366101,-0.09,-4.475306670583545,8.69893866588329,0.4388888888888889,0.4777777777777778,-0.6755555555555556,0.16480002937658683,-0.05586666177056886,-0.22346664708227543
1589988555.376101,-0.08431637826093656,-4.48705086521719,8.73410173043438,0.4388888888888889,0.4777777777777778,-0.6755555555555556,0.125,0.04406790760743948,-0.07238682065426752
1589988555.386101,-0.08560197844619591,-4.52800989223098,8.748796043107609,0.4357766786410023,0.4777777777777778,-0.6792902078530195,-0.12008655702107127,0.019962904133826606,0.0625
1589988555.396101,-0.09,-4.55,8.694424005711646,0.43333333333333335,0.4777777777777778,-0.6822222222222222,-0.19042144387048004,-0.10319285204317333,0.02180714795682668
1589988555.406101,-0.09979829034193162,-4.529394871025795,8.612017096580683,0.43333333333333335,0.4777777777777778,-0.6822222222222222,0.0713247975404919,-0.061239314637072585,0.06628205608878224
1589988555.416101,-0.09193555038992202,-4.505806651169766,8.69064449610078,0.43333333333333335,0.4777777777777778,-0.6822222222222222,0.41531967044091184,-0.0120971899370126,0.2137084301889622
1589988555.426101,-0.10586014898046199,-4.5237902234706935,8.725860148980463,0.43333333333333335,0.4777777777777778,-0.6822222222222222,0.2521851721802814,0.04956296556394372,0.25
1589988555.436101,-0.1024217203527083,-4.507265161058125,8.745156559294584,0.4223869293983565,0.4777777777777778,-0.6931686261571991,0.0927715044088537,0.015135752204426853,0.10790725661328054
1589988555.446101,-0.1099106745501939,-4.529732023650582,8.710357301799226,0.4188888888888889,0.4777777777777778,-0.6966666666666667,0.0625,-0.06194171593871193,0.0625
1589988555.456101,-0.10130919103842463,-4.503927573115274,8.640473528307398,0.4188888888888889,0.4777777777777778,-0.6966666666666667,0.17113511201969211,-0.0625,-0.10045266802953814
1589988555.466101,-0.1,-4.5182884074187095,8.702139490726612,0.4188888888888889,0.4777777777777778,-0.6966666666666667,0.1794769097752009,0.057151273183467265,0.05982563659173363
1589988555.476101,-0.1,-4.4898457261045,8.737692842369375,0.4188888888888889,0.4777777777777778,-0.6966666666666667,0.0461518411148408,-0.03173210592343946,0.01538394703828027
1589988555.486101,-0.1,-4.517159891598916,8.75,0.4188888888888889,0.46642336645588683,-0.6770545016561277,-0.1741869918699187,-0.004437669376693765,0.0
1589988555.496101,-0.10836524331359954,-4.5283652433135995,8.766730486627198,0.4188888888888889,0.4655555555555556,-0.6755555555555556,-0.1875,0.0,0.05228277070999706
1589988555.506101,-0.09012163538483922,-4.549878364615161,8.620912265386293,0.4188888888888889,0.4655555555555556,-0.6755555555555556,0.06097955768950966,-0.12423977884475483,0.00038011057762258466
1589988555.516101,-0.09,-4.527170000547035,8.673269998723582,0.4188888888888889,0.4655555555555556,-0.6755555555555556,0.15762499772068342,0.06524999544136684,0.04756249886034171
1589988555.5261009,-0.0947535524710692,-4.52,8.704260657413208,0.4188888888888889,0.4655555555555556,-0.6755555555555556,0.27662910883254754,0.09529029705581749,0.03279029705581748
1589988555.5361009,-0.10450084527093158,-4.510998309458136,8.738003381083727,0.4223895463218357,0.471056588664472,-0.67855611906951,0.375,0.0625,0.0
1589988555.5461009,-0.09203849501103038,-4.517961504988969,8.736051326681373,0.4266666666666667,0.4777777777777778,-0.6822222222222222,0.15048118763787974,0.0625,0.03741980206035338
1589988555.5561008,-0.09725117004680188,-4.521374414976599,8.659620904836194,0.4266666666666667,0.4777777777777778,-0.6822222222222222,0.1078198127925117,0.11640990639625584,-0.09922971918876755
1589988555.5661008,-0.1,-4.52,8.631274857031453,0.4266666666666667,0.4777777777777778,-0.6822222222222222,0.125,0.046978570964387845,-0.046978570964387845
1589988555.5761008,-0.1,-4.513655344554254,8.69613586534894,0.4266666666666667,0.4777777777777778,-0.6822222222222222,0.2439622896077175,-0.03965409653590582,0.0
1589988555.5861008,-0.0997068941791661,-4.500586211641668,8.769120682537498,0.43333333333333335,0.4777777777777778,-0.6888888888888889,-0.06433191138021192,-0.06433191138021192,0.11950426585936424
1589988555.5961008,-0.09146159743655272,-4.517076805126894,8.744384792309658,0.43333333333333335,0.4777777777777778,-0.6888888888888889,-0.11586501602154553,-0.11586501602154553,-0.03509504806463662
1589988555.6061008,-0.09,-4.52,8.64696144513346,0.43333333333333335,0.4777777777777778,-0.6888888888888889,-0.06685090320841197,0.16574548395794014,-0.0625
1589988555.6161008,-0.09007267577287889,-4.529975774742374,8.670096901030504,0.43333333333333335,0.4777777777777778,-0.6888888888888889,0.06295422358049307,0.24939436855934258,0.06219718427967128
1589988555.6261008,-0.11352067532564336,-4.522159774891452,8.701360900434192,0.43333333333333335,0.4777777777777778,-0.6888888888888889,0.20950422078527106,0.0539943722863053,-0.03550281385684735
1589988555.6361008,-0.10189231916480239,-4.52,8.755269202087995,0.43333333333333335,0.48381367138951037,-0.6828529952771563,0.25,0.11317300521998508,-0.0059134973900074606
1589988555.6461008,-0.09302253176402836,-4.52,8.718135190584169,0.43333333333333335,0.4844444444444445,-0.6822222222222222,0.11917247057553179,0.08139082352517726,0.08721835294964547
1589988555.6561007,-0.09965337223139227,-4.52,8.661386511074431,0.43333333333333335,0.4844444444444445,-0.6822222222222222,-0.05816715289240337,0.0625,0.125
1589988555.6661007,-0.10907643312101911,-4.529076433121019,8.669076433121019,0.43333333333333335,0.4844444444444445,-0.6822222222222222,-0.0625,0.0625,0.18172770700636942
1589988555.6761007,-0.09538145926069286,-4.508072188891039,8.69192781110896,0.43333333333333335,0.4844444444444445,-0.6822222222222222,0.07454881943100444,-0.028865879620669624,-0.04091469905167408
1589988555.6861007,-0.09,-4.505828431270656,8.734970587623938,0.4177908499449168,0.4844444444444445,-0.6822222222222222,0.16142769544160135,-0.026072304558398637,-0.08857230455839864
1589988555.6961007,-0.10612730400589826,-4.51,8.765375768001967,0.4066666666666667,0.4844444444444445,-0.6822222222222222,0.05310579995084788,-0.06719710002457606,0.004697100024576059
1589988555.7061007,-0.11098608566862844,-4.519013914331371,8.65281911369217,0.4066666666666667,0.4844444444444445,-0.6822222222222222,-0.0625,0.10034785828428888,-0.05017392914214444
1589988555.7161007,-0.10395237145356064,-4.526047628546439,8.658142885639318,0.4066666666666667,0.4844444444444445,-0.6822222222222222,-0.024702321584753953,0.125,0.013095356830492094
1589988555.7261007,-0.1,-4.518326300984529,8.693347398030943,0.4066666666666667,0.4844444444444445,-0.6822222222222222,0.0,0.125,-0.010460618846694802
1589988555.7361007,-0.10917290283645142,-4.519172902836451,8.755864514182257,0.44233906658619987,0.4722139073291759,-0.6954719707637631,0.3439838563669282,-0.16165321363910684,-0.00516935727217864
1589988555.7461007,-0.10043036738679362,-4.52,8.76,0.4455555555555555,0.4711111111111111,-0.6966666666666667,0.25537959233492,-0.008069388502380093,0.059810203832539974
1589988555.7561007,-0.1,-4.512763880634646,8.68040268698111,0.4455555555555555,0.4711111111111111,-0.6966666666666667,-0.021354476200767192,0.0452257460334612,0.1077257460334612
1589988555.7661006,-0.1,-4.52656968413183,8.66656968413183,0.4455555555555555,0.4711111111111111,-0.6966666666666667,-0.021439474176063802,-0.0410605258239362,0.125
1589988555.7761006,-0.10591605780159118,-4.524083942198408,8.693664231206364,0.4455555555555555,0.4711111111111111,-0.6966666666666667,0.07395072251988959,0.048426083779834386,-0.022901445039779172
1589988555.7861006,-0.10403404043634297,-4.514034040436343,8.733863838254628,0.44157824917978417,0.4677966891313017,-0.6966666666666667,0.08771275272714352,0.050425505454287034,-0.08771275272714352
1589988555.7961006,-0.09416789003069531,-4.515832109969304,8.732503670092086,0.4388888888888889,0.4655555555555556,-0.6966666666666667,0.09895068730815428,0.10935206192446283,-0.0625
1589988555.8061006,-0.08277391961426361,-4.52,8.654965276528372,0.4388888888888889,0.4655555555555556,-0.6966666666666667,-0.055652009643409744,0.14233699758914756,-0.0625
1589988555.8161006,-0.08695445496282453,-4.526954454962825,8.664772274814123,0.4388888888888889,0.4655555555555556,-0.6966666666666667,-0.16846534351765327,0.08153465648234673,0.06789603055295981
1589988555.8261006,-0.09566780929948897,-4.524332190700511,8.714006855796933,0.4388888888888889,0.4655555555555556,-0.6966666666666667,-0.08122857563458181,-0.043771424365418185,0.08957619187819393
1589988555.8361006,-0.09683807407407408,-4.516838074074074,8.74,0.43045708641975305,0.46731218106995887,-0.6920994403292181,0.0,-0.10523796296296296,0.022975925925925927
1589988555.8461006,-0.09062429629629629,-4.510624296296296,8.74,0.413887012345679,0.47076427983539093,-0.6831239835390946,0.0,-0.06640185185185185,-0.0546962962962963
1589988555.8561006,-0.09691767510084343,-4.51,8.698493949394939,0.4122222222222222,0.4711111111111111,-0.6822222222222222,-0.04323546938027136,-0.01926453061972864,-0.0625
1589988555.8661005,-0.1077565507237431,-4.5177565507237425,8.687756550723742,0.4122222222222222,0.4711111111111111,-0.6822222222222222,-0.0625,0.04847844202339434,-0.0625
1589988555.8761005,-0.0963151455352738,-4.5131575727676365,8.703684854464727,0.4122222222222222,0.4711111111111111,-0.6822222222222222,-0.10526517020226936,-0.02303034040453872,-0.01973482979773064
1589988555.8861005,-0.1069267910739919,-4.518463395536996,8.718463395536997,0.4122222222222222,0.47205148839299954,-0.6897452404773298,-0.07210377789377528,-0.00960377789377529,0.0
1589988555.8961005,-0.09571779282303074,-4.512858896411515,8.712858896411516,0.4122222222222222,0.4722222222222222,-0.6911111111111111,0.07139569228408676,0.0,0.0
1589988555.9061005,-0.0980811190483307,-4.51808111904833,8.653432166661686,0.4122222222222222,0.4722222222222222,-0.6911111111111111,0.02398601189586634,-0.10101398810413366,-0.1515209821562005
1589988555.9161005,-0.09328779547644692,-4.5132877954764465,8.680273227141319,0.4122222222222222,0.4722222222222222,-0.6911111111111111,0.0,-0.0830487217277932,-0.06164616518337962
1589988555.9261005,-0.09599692127254068,-4.521993842545082,8.705996921272542,0.4122222222222222,0.4722222222222222,-0.6911111111111111,-0.03748075795337927,0.012461515906758536,0.03748075795337927
1589988555.9361005,-0.10799974961660042,-4.53,8.733999248849802,0.4237774161128673,0.4668890558111553,-0.6911111111111111,0.03749687020750525,-0.18749217551876313,0.012501564896247375
1589988555.9461005,-0.09806439158679267,-4.518064391586793,8.728064391586793,0.4266666666666667,0.4655555555555556,-0.6911111111111111,0.0997987762912729,-0.13810367112618133,0.07459755258254579
1589988555.9561005,-0.09,-4.503232384261008,8.679394305566046,0.4266666666666667,0.4655555555555556,-0.6911111111111111,0.20959519673740654,-0.020202401631296732,-0.0018927951061097903
1589988555.9661005,-0.09855623334016814,-4.517112466680336,8.702781166700841,0.4266666666666667,0.4655555555555556,-0.6911111111111111,0.14304708324789828,-0.10695291675210171,0.15140583350420342
1589988555.9761004,-0.1066982733175915,-4.52,8.730094819952775,0.4266666666666667,0.4655555555555556,-0.6911111111111111,-0.0005926247048406164,0.0005926247048406164,-0.02182104117473435
1589988555.9861004,-0.11,-4.51478925127316,8.74,0.41624516921298804,0.4753980809284743,-0.6754788649305932,-0.0625,-0.0026343590854913945,0.005268718170982789
1589988555.9961004,-0.09657578730169468,-4.516712106349153,8.746712106349152,0.4066666666666667,0.4844444444444445,-0.6611111111111111,-0.020549335317795896,-0.1464013293644082,0.125
1589988556.0061004,-0.10179185040162479,-4.508208149598375,8.679248897590252,0.4066666666666667,0.4844444444444445,-0.6611111111111111,0.07369906501015498,-0.1506504674949225,0.05130093498984502
1589988556.0161004,-0.10384545024444095,-4.512309099511118,8.679236398044473,0.4066666666666667,0.4844444444444445,-0.6611111111111111,0.125,-0.125,0.07693187194448825
1589988556.0261004,-0.1123338100864374,-4.507666189913563,8.71,0.4066666666666667,0.4844444444444445,-0.6611111111111111,-0.02917262608046764,-0.20208631304023383,0.04791368695976618
1589988556.0361004,-0.09796717923021514,-4.514688547179857,8.724688547179857,0.4352277306274988,0.47057192766346884,-0.6782477494876105,-0.07909829006294823,-0.15819658012589646,0.04590170993705177
1589988556.0461004,-0.09,-4.52,8.723186390291579,0.4455555555555555,0.4655555555555556,-0.6844444444444444,0.02267012135526958,-0.125,0.01991493932236521
1589988556.0561004,-0.1054556943423953,-4.512272152828802,8.681360764144012,0.4455555555555555,0.4655555555555556,-0.6844444444444444,0.1107990448199853,-0.125,0.0
1589988556.0661004,-0.09360080529191832,-4.51,8.678199597354041,0.4455555555555555,0.4655555555555556,-0.6844444444444444,0.125,-0.2274949669255105,-0.15374245038826573
1589988556.0761003,-0.10769928032899245,-4.51,8.703599040438657,0.4455555555555555,0.4655555555555556,-0.6844444444444444,0.16187350068540096,-0.13937949794379711,-0.0031324965729951915
1589988556.0861003,-0.12,-4.514967734818819,8.724967734818819,0.43948387966588837,0.46831540823267703,-0.6833405033735959,0.09435497214715129,-0.0004033147647675289,0.09395165738238376
1589988556.0961003,-0.10732096673503969,-4.5242263444216535,8.734226344421653,0.43333333333333335,0.4711111111111111,-0.6822222222222222,-0.052829305270667974,0.0625,0.03608534736466601
1589988556.1061003,-0.09,-4.526662250270213,8.709960252431923,0.43333333333333335,0.4711111111111111,-0.6822222222222222,-0.10413906418883581,0.0625,0.0
1589988556.1161003,-0.09399681445049271,-4.523996814450492,8.665987257801971,0.43333333333333335,0.4711111111111111,-0.6822222222222222,0.012440270946738316,-0.03742036126231775,0.049960180631158875
1589988556.1261003,-0.09728235754150226,-4.53,8.695435284916995,0.43333333333333335,0.4711111111111111,-0.6822222222222222,0.09102946926877822,-0.22147053073122178,0.125
1589988556.1361003,-0.1023153303105091,-4.523842334844745,8.71,0.42922822322983034,0.4676901860248586,-0.6822222222222222,-0.038485407220340925,-0.04310214945761354,0.08651459277965907
1589988556.1461003,-0.1169737452680425,-4.513026254731957,8.675131273659789,0.4266666666666667,0.4655555555555556,-0.6822222222222222,0.0246718158505312,0.0378281841494688,0.0189140920747344
1589988556.1561003,-0.1096277837249706,-4.51,8.644441675587457,0.4266666666666667,0.4655555555555556,-0.6822222222222222,0.0625,-0.06482635171893371,0.0
1589988556.1661003,-0.11138419297901549,-4.5156920964895075,8.669844675426555,0.4266666666666667,0.4655555555555556,-0.6822222222222222,0.09807560305942342,-0.125,-0.035575603059423415
1589988556.1761003,-0.12,-4.5139883495145625,8.724046601941748,0.4266666666666667,0.4655555555555556,-0.6822222222222222,0.08742718446601941,-0.125,0.012645631067961169
1589988556.1861002,-0.10690227036289089,-4.516548864818554,8.74,0.4215731051411243,0.4735597236671223,-0.6822222222222222,-0.019360810231931938,-0.002208784652102072,-0.06029121534789793
1589988556.1961002,-0.09356528308221765,-4.526434716917782,8.733565283082218,0.4188888888888889,0.4777777777777778,-0.6822222222222222,-0.14293396147227935,-0.05815094220841903,-0.004349057791580971
1589988556.2061002,-0.09623466506758614,-4.523765334932413,8.673888014391725,0.4188888888888889,0.4777777777777778,-0.6822222222222222,-0.07060002998275992,-0.008100029982759924,0.023533343327586637
