time,acc_x,acc_y,acc_z,mag_x,mag_y,mag_z,gyr_x,gyr_y,gyr_z
1589988571.9027882,-3.87,-0.79,8.87,0.3244444444444444,-0.3388888888888889,-0.6055555555555555,0.0625,-0.1875,0.0
1589988571.9127882,-3.888041163946061,-0.7809794180269695,8.960205819730305,0.31843072312909076,-0.33387745445942746,-0.6185852850721552,0.288014549325763,0.0943931866572037,-0.056378637331440745
1589988571.9227881,-3.87948468924533,-0.77,8.96298979283022,0.31777777777777777,-0.3333333333333333,-0.62,0.33118620518887393,-0.25,-0.1063137948111261
1589988571.9327881,-3.8713215469158415,-0.7737738489719472,8.968869244859736,0.31777777777777777,-0.3333333333333333,-0.62,0.2264134439253298,-0.2264134439253298,-0.06956721962664911
1589988571.9427881,-3.892312042713071,-0.784624085426142,9.009248170852283,0.31777777777777777,-0.3333333333333333,-0.62,0.17304973304330631,-0.17304973304330631,0.11054973304330631
1589988571.952788,-3.897846326810245,-0.8,9.038923163405121,0.31933320841482316,-0.3333333333333333,-0.6194017574472902,0.09807908512806099,-0.09807908512806099,0.03557908512806099
1589988571.962788,-3.88,-0.8,9.033612208807282,0.3322222222222222,-0.3333333333333333,-0.6144444444444445,-0.10242369495447896,0.10242369495447896,-0.14234738990895793
1589988571.972788,-3.8766907544610247,-0.7933815089220495,8.97712433475947,0.3322222222222222,-0.3333333333333333,-0.6144444444444445,-0.1452311384743817,0.0625,-0.04181721538140457
1589988571.982788,-3.8734023007704033,-0.78,8.85,0.3322222222222222,-0.3333333333333333,-0.6144444444444445,-0.3337643798150197,0.16882189907509865,-0.02126437981501973
1589988571.992788,-3.8829533382831687,-0.7829533382831687,8.855906676566336,0.3322222222222222,-0.3333333333333333,-0.6144444444444445,-0.3565416357301959,0.36577081786509796,-0.0625
1589988572.002788,-3.8949308926837625,-0.7949308926837627,8.879861785367526,0.3322222222222222,-0.3333333333333333,-0.6144444444444445,-0.2816819207264835,0.3283409603632418,-0.0625
1589988572.012788,-3.8601553896653957,-0.780155389665396,8.940310779330792,0.3322222222222222,-0.3333333333333333,-0.62,-0.1816728875476493,0.24708644377382466,-0.12305762918254977
1589988572.022788,-3.871481458398255,-0.7944443751947647,8.954074166406981,0.3322222222222222,-0.3333333333333333,-0.62,0.17824088501090682,0.08101822997818635,-0.018518229978186352
1589988572.032788,-3.8776827894728494,-0.8176827894728492,8.931586052635753,0.3322222222222222,-0.3333333333333333,-0.62,0.096034868410616,0.27439539476815206,-0.06706973682123199
1589988572.042788,-3.8710290781604457,-0.8110290781604454,8.964854609197774,0.3322222222222222,-0.3333333333333333,-0.62,0.012863477005568169,0.5239095689832955,0.09927304598886366
1589988572.052788,-3.8800773388773386,-0.7799613305613305,9.02003866943867,0.3321405867405867,-0.33341067221067217,-0.6200902286902287,-0.125241683991684,0.4375,0.00048336798336798335
1589988572.062788,-3.8975172557172555,-0.7712413721413721,9.028758627858627,0.3137317856317856,-0.350850589050589,-0.6404367983367983,-0.17974142411642413,0.4375,0.10948284823284823
1589988572.072788,-3.8978796854253908,-0.7842406291492187,8.984556225104688,0.3111111111111111,-0.3533333333333333,-0.6433333333333333,-0.29924803390869165,0.29924803390869165,0.04924803390869166
1589988572.082788,-3.8814785483622942,-0.8028404838792352,8.892840483879235,0.3111111111111111,-0.3533333333333333,-0.6433333333333333,-0.23224697575477984,0.16123487877389922,-0.017753024245220156
1589988572.092788,-3.8644577393075354,-0.81,8.902228869653769,0.3111111111111111,-0.3533333333333333,-0.6433333333333333,-0.15963912932790225,-0.09036087067209776,-0.04856956466395112
1589988572.102788,-3.877805180753564,-0.81,8.908902590376782,0.3111111111111111,-0.3533333333333333,-0.6433333333333333,-0.07621762029022404,-0.17378237970977595,-0.0068588101451120195
1589988572.112788,-3.8831315839154237,-0.8137368321691523,8.92,0.34444444444444444,-0.3411111111111111,-0.5911111111111111,0.22664479894279782,-0.375,-0.11521380026430054
1589988572.122788,-3.898968095148197,-0.7820638097036059,8.92,0.34444444444444444,-0.3411111111111111,-0.5911111111111111,0.4246011893524637,-0.375,-0.06572470266188407
1589988572.132788,-3.86576368396991,-0.7884726320601804,8.918645525954865,0.34444444444444444,-0.3411111111111111,-0.5911111111111111,0.6875,-0.6069884875940318,-0.0625
1589988572.142788,-3.8770671701567685,-0.7614664149216157,8.947332074608079,0.34444444444444444,-0.3411111111111111,-0.5911111111111111,0.6783349067399016,-0.5350047202197048,-0.0625
1589988572.152788,-3.8610687721707286,-0.7694656139146355,8.987328069573177,0.34444444444444444,-0.3411111111111111,-0.5911111111111111,0.6283399130335279,-0.3850197391005836,-0.0625
1589988572.162788,-3.8794050717632182,-0.7797025358816093,8.99,0.33797608719003824,-0.3389549920263091,-0.6137503615015327,0.01859150739941995,-0.07179575369970997,-0.305063397040232
1589988572.172788,-3.870622799143824,-0.78,9.008754401712352,0.3377777777777778,-0.3388888888888889,-0.6144444444444445,-0.29303752675550643,0.11332251605330387,-0.37110750535110126
1589988572.182788,-3.8332266013669543,-0.7966133006834772,8.888466748291307,0.3377777777777778,-0.3388888888888889,-0.6144444444444445,-0.14516625854346513,0.04133312927173256,-1.0125846597337385
1589988572.192788,-3.8072247105683243,-0.7836123552841623,8.920969111789594,0.3377777777777778,-0.3388888888888889,-0.6144444444444445,0.017345558947972045,-0.03992277947398602,-1.540748066580909
1589988572.2027879,-3.799286323004116,-0.8096431615020581,8.921427353991769,0.3373019931138551,-0.33940432227480516,-0.6144444444444445,0.01115120306068793,0.18303951877572483,-2.917374571630614
1589988572.2127879,-3.7840760820293373,-0.8020380410146689,8.951847835941326,0.3271618324640029,-0.350389496312145,-0.6144444444444445,0.24881121829159944,0.08797551268336024,-3.820482629508078
1589988572.2227879,-3.8044018694987995,-0.7826411216992799,8.97295700880192,0.3244444444444444,-0.3533333333333333,-0.6144444444444445,0.32350467374699937,0.5055023368734997,-5.582535053102495
1589988572.2327878,-3.8425401905870373,-0.8055241143522224,8.911935695060741,0.3244444444444444,-0.3533333333333333,-0.6144444444444445,0.41885047646759294,0.5531752382337964,-6.297628573506947
1589988572.2427878,-3.861447473546778,-0.8156575793596663,8.925789894187112,0.3244444444444444,-0.3533333333333333,-0.6144444444444445,0.7047664516631915,0.4909532903326383,-7.009046709667362
1589988572.2527878,-3.8696207884326834,-0.7911376347019506,8.958483153730734,0.3244444444444444,-0.3533333333333333,-0.6144444444444445,0.4493503614786523,0.43987007229573044,-7.06012992770427
1589988572.2627878,-3.9216323804898354,-0.8283676195101644,8.993470478040658,0.3644444444444445,-0.3388888888888889,-0.5911111111111111,0.3022976219385277,0.75,-6.617369085200861
1589988572.2727878,-3.9289075834316245,-0.8210924165683757,8.964369666273504,0.3644444444444445,-0.3388888888888889,-0.5911111111111111,0.25682760355234857,0.75,-6.026258846180531
1589988572.2827878,-3.932054138608573,-0.82,8.888216554434292,0.3644444444444445,-0.3388888888888889,-0.5911111111111111,0.051353465214322505,0.125,-4.91958613914271
1589988572.2927878,-3.939724668296504,-0.82,8.920068832925875,0.3644444444444445,-0.3388888888888889,-0.5911111111111111,0.2530114405069901,0.12284897106643564,-4.119407324772733
1589988572.3027878,-3.899977938313795,-0.8199558766275901,8.93004412337241,0.3644150288628379,-0.3388766323965528,-0.5911625883789227,0.686948457844876,-0.1866726867673141,-3.3116726867673143
1589988572.3127878,-3.8909060431716918,-0.8018120863433837,8.948187913656616,0.3523191686733669,-0.3338366906509399,-0.6123303437104969,0.4601510792922957,0.15352338106155639,-2.9714766189384436
1589988572.3227878,-3.8682178988326847,-0.8338365758754863,8.935346303501946,0.3511111111111111,-0.3333333333333333,-0.6144444444444445,0.22431906614785993,0.30136186770428014,-2.4854571984435796
1589988572.3327878,-3.9128584788029923,-0.8121430798004988,8.859287718204488,0.3511111111111111,-0.3333333333333333,-0.6144444444444445,0.125,0.45981725374064836,-2.066951761221945
1589988572.3427877,-3.9557175023340108,-0.8221412488329947,8.936423746498985,0.3511111111111111,-0.3333333333333333,-0.6144444444444445,0.08485158438134988,0.3125,-1.4108751167005327
1589988572.3527877,-3.940361359767148,-0.8298193201164259,8.959457960349278,0.3511111111111111,-0.3333333333333333,-0.6144444444444445,-0.059112252182986436,0.3125,-0.6430679883574056
1589988572.3627877,-3.8682875764217326,-0.8317124235782674,8.971437882108663,0.3322222222222222,-0.3411111111111111,-0.6288888888888889,0.060784115814972894,0.09460794209251355,-0.10359470527165762
1589988572.3727877,-3.860223785903795,-0.8397762140962048,8.931118929518975,0.3322222222222222,-0.3411111111111111,-0.6288888888888889,-0.24160802860768255,0.24580401430384127,-0.002797323797439147
1589988572.3827877,-3.8843359856773425,-0.8156640143226577,8.889440023871096,0.3322222222222222,-0.3411111111111111,-0.6288888888888889,-0.3006999701611299,0.5034998508056495,0.0
1589988572.3927877,-3.8814249445823306,-0.8271501108353384,8.915699778329323,0.3322222222222222,-0.3411111111111111,-0.6288888888888889,-0.26781180727913456,0.6517177109187018,-0.0357822890812982
1589988572.4027877,-3.889371554157746,-0.8112568916845078,8.947486216630985,0.3322222222222222,-0.3411111111111111,-0.6288888888888889,-0.367144426971827,0.8007166404577405,0.11321664045774046
1589988572.4127877,-3.87,-0.8247490849547293,8.968416971681757,0.3511111111111111,-0.3333333333333333,-0.62,-0.6973939269890195,0.7270757079560778,0.08228785397803891
1589988572.4227877,-3.87,-0.8449489501059526,8.961683683298016,0.3511111111111111,-0.3333333333333333,-0.62,-0.7394769793874013,0.895407917549605,0.1664539587748025
1589988572.4327877,-3.895437978456744,-0.85,8.864330781564032,0.3511111111111111,-0.3333333333333333,-0.62,-0.649483153806201,1.4279957884515502,0.6860547501298466
1589988572.4427876,-3.858816018326051,-0.8509319984728291,9.002795995418488,0.3511111111111111,-0.3333333333333333,-0.62,-0.3909000763585458,1.270150171806728,1.5555747041106351
1589988572.4527876,-3.7520591354515758,-0.8598284053790354,9.029485216137106,0.3511111111111111,-0.3333333333333333,-0.62,0.05392026895176688,0.26930439485852453,3.279253542188097
1589988572.4627876,-3.6191250397709194,-0.8506517885550656,9.039348211444933,0.33864682918453204,-0.3333333333333333,-0.6335029720871274,0.23777896459251852,0.19157367846916049,4.948437002863506
1589988572.4727876,-3.4540217031001936,-0.8458102897817478,8.992569130654756,0.3377777777777778,-0.3333333333333333,-0.6344444444444445,-0.260128622271847,-0.8146000889757323,7.093935911303407
1589988572.4827876,-3.373529545176992,-0.8750801653901847,8.904759503829446,0.3377777777777778,-0.3333333333333333,-0.6344444444444445,-0.6260020673773095,-1.4548786179102915,8.511695511087074
1589988572.4927876,-3.3227322908930326,-0.8563385455348361,8.904098436339549,0.3377777777777778,-0.3333333333333333,-0.6344444444444445,-1.0911913627330938,-1.9118847728778177,10.668037044099641
1589988572.5027876,-3.3395704450109394,-0.772147774945302,8.92935566751641,0.3377777777777778,-0.3333333333333333,-0.6344444444444445,-2.038337531865353,-1.7540270780224412,12.088756297798028
1589988572.5127876,-2.925623869801085,-0.7522766263272592,9.114021885287709,0.3377777777777778,-0.32666666666666666,-0.6288888888888889,-3.1481343024064543,0.32672891454537023,14.060497519358279
1589988572.5227876,-2.6014937159117855,-0.999036044581456,8.89763789423761,0.3377777777777778,-0.32666666666666666,-0.6288888888888889,-1.7248428977946406,1.6359912259900402,13.688097284799621
1589988572.5327876,-2.40507649294757,-0.9500826186661641,8.666918606477555,0.3377777777777778,-0.32666666666666666,-0.6288888888888889,0.8479192190494141,0.7395960952470706,11.244759761882323
1589988572.5427876,-1.9636821851537714,-0.9039667954638269,8.792090126598184,0.3377777777777778,-0.32666666666666666,-0.6288888888888889,1.0126185876291898,1.563092938145949,9.186017654635126
1589988572.5527875,-1.930509543836946,-0.8427013911355549,8.776789065027499,0.3377777777777778,-0.32666666666666666,-0.6288888888888889,1.0994520381753479,1.3321235037204788,7.786507198317697
1589988572.5627875,-2.0987441296773217,-0.8182286774731101,8.970402969247083,0.3377777777777778,-0.34312402161288696,-0.621574508912791,-0.16073085517345853,-0.337160089380397,5.912839910619603
1589988572.5727875,-2.169911412991486,-0.8413906055677796,9.112692624127044,0.3377777777777778,-0.3466666666666667,-0.62,-0.5266275231990816,-0.6695637615995408,4.644597244810102
1589988572.5827875,-2.2084333310528836,-0.8315666689471163,9.020966682629814,0.3377777777777778,-0.3466666666666667,-0.62,0.3015623931039201,0.2341665526441815,3.1555209687350345
1589988572.5927875,-2.237336998672894,-0.8368342496682235,9.01,0.3377777777777778,-0.3466666666666667,-0.62,0.5031421812791921,0.440642181279192,1.823792247634477
1589988572.6027875,-2.29131036658022,-0.84,9.043048293264176,0.3377777777777778,-0.3466666666666667,-0.62,0.046120417747248954,0.24181020887362448,-0.6089664961099039
1589988572.6127875,-2.3154531400158773,-0.84,9.034546859984122,0.3274756844338593,-0.3518177133386258,-0.62,0.08237318764885304,0.4772463752977061,-2.8350603768854716
1589988572.6227875,-2.3233240997229916,-0.8211080332409972,8.796703601108034,0.3244444444444444,-0.3533333333333333,-0.62,0.36114958448753465,1.0069252077562327,-6.526835180055402
1589988572.6327875,-2.3491431209602958,-0.8297143736534318,8.693427516158817,0.3244444444444444,-0.3533333333333333,-0.62,0.2535703293321022,1.0607148353339488,-9.162526931363496
1589988572.6427875,-2.37,-0.8312648851917269,8.800421628397244,0.3244444444444444,-0.3533333333333333,-0.62,0.375,0.823040709931058,-12.775205116517578
1589988572.6527874,-2.37,-0.8551626687938009,8.8083875562646,0.3244444444444444,-0.3533333333333333,-0.62,0.375,1.0221889066150076,-15.61306691926386
1589988572.6627874,-2.403557256678644,-0.859110685830339,9.030889314169661,0.3377777777777778,-0.3388888888888889,-0.5988888888888889,0.48196570848304954,1.1750239220434306,-19.754318172941726
1589988572.6727874,-2.436320106233401,-0.8509199734416497,9.039080026558349,0.3377777777777778,-0.3388888888888889,-0.5988888888888889,0.8915013279175128,1.635751493907202,-22.67225946141228
1589988572.6827874,-2.4106032213917254,-0.8695978524055163,8.942010737972417,0.3377777777777778,-0.3388888888888889,-0.5988888888888889,1.0599865775344772,1.871229866301716,-26.490867459732602
1589988572.6927874,-2.38,-0.8903330279365357,9.010999083809606,0.3377777777777778,-0.3388888888888889,-0.5988888888888889,1.0020814246033478,2.068744273810043,-30.622804051597516
1589988572.7027874,-2.38,-0.8964326745488126,9.029298023646437,0.3377777777777778,-0.3388888888888889,-0.5988888888888889,1.0402042159300786,2.183112647790236,-32.87204873987464
1589988572.7127874,-2.38,-0.9069225570485808,9.019232328854258,0.3470078538425521,-0.34888813795906104,-0.6196565600346312,1.2355639262145186,2.6393938339826666,-36.91325683787867
1589988572.7227874,-2.38,-0.903928387566349,8.985713550265396,0.3511111111111111,-0.3533333333333333,-0.6288888888888889,1.2745524222896807,3.0401854662619163,-40.288011929488206
1589988572.7327874,-2.4490961082438276,-0.927638443297531,8.838717394336728,0.3511111111111111,-0.3533333333333333,-0.6288888888888889,1.1636298646952155,3.2738701353047843,-44.32178912679593
1589988572.7427874,-2.4914040954219527,-0.94,8.785702047710975,0.3511111111111111,-0.3533333333333333,-0.6288888888888889,1.1962755963872036,3.6332401837424158,-47.70954348800331
1589988572.7527874,-2.4837259592383507,-0.9454246802538832,8.811698721015533,0.3511111111111111,-0.3533333333333333,-0.6288888888888889,1.31780850317354,3.90890425158677,-51.44315934679297
1589988572.7627873,-2.476078452965663,-0.9743138118626522,8.878627623725304,0.37542492297376334,-0.34117642740200715,-0.6234858195860773,1.375,3.9375,-55.54290052419444
1589988572.7727873,-2.5903348188399793,-1.0196651811600206,8.976986630440186,0.3911111111111111,-0.3333333333333333,-0.62,2.077148324249101,4.310407382250128,-60.613001358493065
1589988572.7827873,-2.597283510876228,-1.0127164891237719,8.914448402113948,0.3911111111111111,-0.3333333333333333,-0.62,2.3811536008349763,4.266978057023575,-62.95818492072696
1589988572.7927873,-2.6358050387189462,-1.0995125967973651,8.943707558078419,0.3911111111111111,-0.3333333333333333,-0.62,2.5,4.753508356985178,-66.78415939591436
1589988572.8027873,-2.6041535828010822,-1.1171692834397837,8.964338566879567,0.3911111111111111,-0.3333333333333333,-0.62,2.544808021498647,4.767691978501353,-69.45501711792966
1589988572.8127873,-2.59,-1.1629171513506527,8.97,0.3796665374176037,-0.3228424741142849,-0.6400280039636379,2.2406213648701048,5.01823219594158,-73.11096839860411
1589988572.8227873,-2.59,-1.1889624880092895,8.951037511990709,0.37777777777777777,-0.3211111111111111,-0.6433333333333333,2.0689844499419396,5.240273325087091,-76.46613097642248
1589988572.8327873,-2.59,-1.2293712523133868,8.83188624305984,0.37777777777777777,-0.3211111111111111,-0.6433333333333333,2.124017581739667,5.434552745219,-79.70087908698335
1589988572.8427873,-2.5999002924116774,-1.259700877235032,8.820099707588323,0.37777777777777777,-0.3211111111111111,-0.6433333333333333,2.1868768275729833,5.623130482718949,-82.47258041321126
1589988572.8527873,-2.6068380839467142,-1.3078665876269986,8.840514251840142,0.37777777777777777,-0.3211111111111111,-0.6433333333333333,2.3584520986678523,5.795952098667852,-84.50868715934726
1589988572.8627872,-2.6013351114498002,-1.3386648885502002,8.893324442751,0.40569797421731124,-0.30859516098304435,-0.6616258758282,2.599966660316251,5.820844446561249,-87.44125547723375
1589988572.8727872,-2.6207200708942153,-1.4618001772355378,8.897839787317356,0.41,-0.30666666666666664,-0.6644444444444444,3.1272502215444224,6.25,-90.01175731096593
1589988572.8827872,-2.638007954990417,-1.5050198874760423,8.84597613502875,0.41,-0.30666666666666664,-0.6644444444444444,3.181274859345053,6.25,-91.79457035838675
1589988572.8927872,-2.6497029754745594,-1.5488119018982378,8.917623803796475,0.41,-0.30666666666666664,-0.6644444444444444,3.308787193431993,6.492574386863986,-93.81930790147989
1589988572.9027872,-2.6421978127031474,-1.5812087491874116,8.959010936484265,0.41,-0.30666666666666664,-0.6644444444444444,3.3125,6.6462910118159915,-95.19161910634392
1589988572.9127872,-2.6171508617455035,-1.6128491382544965,8.962383620581836,0.4455431039514387,-0.28127873527278185,-0.6483654212283174,3.169692885909398,6.735102371363534,-96.65735454136129
1589988572.9227872,-2.61,-1.6986843063478576,8.900986770239108,0.4566666666666666,-0.2733333333333333,-0.6433333333333333,2.8791115426629443,6.995888457337055,-98.72121920135939
1589988572.9327872,-2.5767066070509523,-1.7133173571796192,8.826754535512094,0.4566666666666666,-0.2733333333333333,-0.6433333333333333,2.83338325881369,6.833533035254761,-99.95688549440298
1589988572.9427872,-2.600823883360333,-1.7771534367044666,8.830823883360333,0.4566666666666666,-0.2733333333333333,-0.6433333333333333,2.7104402915991668,7.158238833603333,-101.88927620921083
1589988572.9527872,-2.6172306376028156,-1.8189225504112627,8.818308087191554,0.4566666666666666,-0.2733333333333333,-0.6433333333333333,2.868265940070391,7.25,-103.54324455052793
1589988572.9627872,-2.600220635487326,-1.849779364512674,8.899007140307033,0.47095176325915344,-0.2535539688206593,-0.6708046729342695,3.308363084612638,7.25,-105.9168154230632
1589988572.9727871,-2.6,-1.9294011633450938,8.880149709163728,0.4711111111111111,-0.2533333333333333,-0.6711111111111111,3.684692953180128,7.498128635453418,-107.55033613044722
1589988572.9827871,-2.6,-1.988076171875,8.792885742187499,0.4711111111111111,-0.2533333333333333,-0.6711111111111111,3.8084920247395835,7.802480061848958,-109.37738037109375
1589988572.9927871,-2.5642340078472867,-2.0525904862672486,8.870473482343606,0.4711111111111111,-0.2533333333333333,-0.6711111111111111,3.5889625490455406,7.644846911784155,-110.83460906846537
1589988573.002787,-2.583161494169248,-2.090881992225664,8.910881992225663,0.4711111111111111,-0.2533333333333333,-0.6711111111111111,3.7072593385577983,7.8662655642629975,-112.39934027272538
1589988573.012787,-2.5622683019628028,-2.127731698037197,8.899201226472103,0.5019241089302189,-0.20326221187728316,-0.6872879349661427,3.75,8.197484669098722,-113.85243867639488
1589988573.022787,-2.517373559400364,-2.2052528811992724,8.865530169550272,0.5155555555555555,-0.1811111111111111,-0.6944444444444444,3.597063559689206,8.108584746252275,-115.28109745530169
1589988573.032787,-2.4891598132484223,-2.2477869156687698,8.790532710828074,0.5155555555555555,-0.1811111111111111,-0.6944444444444444,3.605917055732453,8.279585278662266,-116.15125583598679
1589988573.042787,-2.45545658054286,-2.2763622796380933,8.751818860180954,0.5155555555555555,-0.1811111111111111,-0.6944444444444444,3.522735752261916,8.375,-117.4090103535118
1589988573.052787,-2.4275643363308608,-2.347306991007418,8.817306991007417,0.5155555555555555,-0.1811111111111111,-0.6944444444444444,3.219554204135759,8.281518068045253,-118.23263255770586
1589988573.062787,-2.409458292026625,-2.396354269933437,8.84,0.5319537679585831,-0.16119899605029192,-0.7049861524178193,3.256771349667186,8.282942837416796,-118.93164256125195
1589988573.072787,-2.380913648326858,-2.432724234448761,8.83363788277562,0.5466666666666666,-0.14333333333333334,-0.7144444444444444,3.573816163261896,8.511316163261895,-119.85215879182854
1589988573.082787,-2.3343203492637192,-2.475679650736281,8.782427132351625,0.5466666666666666,-0.14333333333333334,-0.7144444444444444,3.7989989085508777,8.587833697149707,-120.38516411995205
1589988573.092787,-2.2471104862045075,-2.578611892244366,8.812889513795493,0.5466666666666666,-0.14333333333333334,-0.7144444444444444,4.022397297958186,8.9064270285691,-121.20122162448547
1589988573.102787,-2.2119898894051437,-2.5939966298017145,8.805986519206858,0.5466666666666666,-0.14333333333333334,-0.7144444444444444,4.0625,9.037521063739284,-121.78773170113213
1589988573.112787,-2.187344918530294,-2.634292785143972,8.872258029553091,0.5515880872382191,-0.10185278851596277,-0.7200689250976473,3.706575833664511,9.378877036742656,-122.41842416633548
1589988573.122787,-2.156275336892008,-2.677793497330994,8.83103251334503,0.5544444444444444,-0.07777777777777778,-0.7233333333333334,3.611209358318713,9.340081283362574,-123.18104679159356
1589988573.132787,-2.1159160655215015,-2.746195847116496,8.761972021840501,0.5544444444444444,-0.07777777777777778,-0.7233333333333334,3.286101092025029,9.087150273006257,-124.06424863496872
1589988573.142787,-2.0842531535450193,-2.7793101348412352,8.77287342322749,0.5544444444444444,-0.07777777777777778,-0.7233333333333334,3.066811657242279,8.982041104828186,-124.67025337103088
1589988573.152787,-2.07,-2.8021170891435667,8.804234178287134,0.5544444444444444,-0.07777777777777778,-0.7233333333333334,3.1893295178682326,9.278293132162819,-125.16469542144188
1589988573.162787,-2.0310863863943416,-2.815559087657951,8.808881824684098,0.5581505028830785,-0.05986516199104612,-0.7430989783393821,3.38198859572439,9.5,-125.34724429786219
1589988573.172787,-1.9548056442000845,-2.865194355799915,8.79246760736668,0.5611111111111111,-0.045555555555555564,-0.7588888888888888,3.202112730208774,9.5,-125.42207745395825
1589988573.182787,-1.9312916115114966,-2.9322503309310193,8.720332892091974,0.5611111111111111,-0.045555555555555564,-0.7588888888888888,3.125,10.098701708584596,-125.16536285973427
1589988573.192787,-1.921598937096257,-3.074417006459889,8.726802125807486,0.5611111111111111,-0.045555555555555564,-0.7588888888888888,3.3350265725935766,10.397526572593577,-124.44241363907088
1589988573.202787,-1.9127862256793282,-3.0855724513586567,8.787710194565374,0.5611111111111111,-0.045555555555555564,-0.7588888888888888,3.1044834629748075,10.257155641983205,-123.68129474694122
1589988573.212787,-1.8469183725204386,-3.070988338931491,8.782965016794472,0.614179781847885,-0.028533529092816756,-0.790930350465809,3.0,10.07485423664364,-122.0294279580455
1589988573.222787,-1.8237749963432728,-3.086225003656727,8.771887498171635,0.62,-0.02666666666666667,-0.7944444444444444,2.847890590718181,10.113203136427273,-120.30320277075454
1589988573.232787,-1.7797036855638546,-3.113026465392083,8.723947069215834,0.62,-0.02666666666666667,-0.7944444444444444,2.2368383651979222,9.98108459129948,-118.78617673039584
1589988573.242787,-1.7357012330705477,-3.1514481503941782,8.718597533858905,0.62,-0.02666666666666667,-0.7944444444444444,1.6784490600363857,9.919683646654539,-116.28420507378209
1589988573.2527869,-1.7250521136147705,-3.174843659155689,8.710208454459082,0.62,-0.02666666666666667,-0.7944444444444444,1.563151420184631,9.690105680738524,-114.20248266424652
1589988573.2627869,-1.7115531383737517,-3.201262482168331,8.712524964336662,0.6234413139958789,-0.02353819939768585,-0.792880210809954,1.3944142296718973,9.31431660128388,-111.97570435092724
1589988573.2727869,-1.6696669815777043,-3.263888364037159,8.729333963155408,0.6322222222222222,-0.015555555555555557,-0.7888888888888889,1.2097209100928987,8.534034994489057,-107.92433770272397
1589988573.2827868,-1.66,-3.3283579899743243,8.697910502506419,0.6322222222222222,-0.015555555555555557,-0.7888888888888889,1.136660960997677,8.161381281330236,-105.0862956962954
1589988573.2927868,-1.6121358625231004,-3.2882037937846507,8.66606793126155,0.6322222222222222,-0.015555555555555557,-0.7888888888888889,1.1821603436922488,7.823179312615502,-102.37924570384689
1589988573.3027868,-1.5647779761087464,-3.286447617739942,8.697335713304957,0.6322222222222222,-0.015555555555555557,-0.7888888888888889,1.43194940271866,7.174289441164356,-99.10757071261843
1589988573.3127868,-1.5512607531825333,-3.3746848117043666,8.750630376591266,0.6056749558974779,-0.04314389114793699,-0.7847246118183407,1.884580804675208,6.75,-95.84849634238542
1589988573.3227868,-1.5180898624401915,-3.397865206339713,8.75191013755981,0.5755555555555556,-0.07444444444444444,-0.78,2.212780820125598,6.638342460376794,-92.0287875672847
1589988573.3327868,-1.4809479579929987,-3.41,8.76,0.5755555555555556,-0.07444444444444444,-0.78,1.6881680280046676,6.153955659276546,-87.97505250875146
1589988573.3427868,-1.4560060672023714,-3.4519817983928864,8.76,0.5755555555555556,-0.07444444444444444,-0.78,1.7186551999629485,5.91253792001482,-84.37613760044462
1589988573.3527868,-1.4554048760469325,-3.507834132328527,8.787024380234662,0.5755555555555556,-0.07444444444444444,-0.78,1.7111585741200173,5.5034147717733966,-81.25695195769367
1589988573.3627868,-1.432493742799253,-3.5056171784990666,8.68622184259664,0.5434649221546841,-0.014847553842826183,-0.6799077862972822,2.0118067418855032,5.230478526876167,-76.89783133367764
1589988573.3727868,-1.4055610396763192,-3.49,8.658877920647361,0.5288888888888889,0.012222222222222223,-0.6344444444444445,1.5557954858389644,4.70853898786197,-73.16068194335585
1589988573.3827868,-1.3606396831178291,-3.5031201056273904,8.637199735931524,0.5288888888888889,0.012222222222222223,-0.6344444444444445,1.8865046211983245,4.705001650427973,-69.35847722409397
1589988573.3927867,-1.3673210467365848,-3.5578118317890235,8.715623663578047,0.5288888888888889,0.012222222222222223,-0.6344444444444445,1.8032977802667753,4.385608644740861,-65.1002061908156
1589988573.4027867,-1.3481825047471085,-3.5672730018988434,8.72181900569653,0.5288888888888889,0.012222222222222223,-0.6344444444444445,1.7045437381322286,4.227271869066114,-61.028469165372
1589988573.4127867,-1.2687388853846624,-3.5855254644230574,9.583181069037785,0.524351028547012,0.06497484869654076,-0.616293003076937,1.6542795084135349,3.9947453557694264,-57.26783552404012
1589988573.4227867,-0.8317605075337035,-2.7049269287413615,8.363191344737736,0.52,0.11555555555555555,-0.5988888888888889,2.660069955817378,6.662781805823043,-51.68371898719837
1589988573.4327867,-1.0827197943444729,-3.225249357326478,7.990503856041132,0.52,0.11555555555555555,-0.5988888888888889,10.382487146529563,11.838592544987147,-45.30539845758355
1589988573.4427867,-1.228295104701151,-3.5214979891831923,9.026477881015117,0.52,0.11555555555555555,-0.5988888888888889,8.019426917209818,5.5186953959228955,-44.948015185133826
1589988573.4527867,-1.2353836328531116,-3.4708768750928263,9.959183424922026,0.52,0.11555555555555555,-0.5988888888888889,-7.788294593791772,-5.831681642655576,-44.60094311599584
1589988573.4627867,-1.1343577119794022,-3.299723391670436,8.53546414529766,0.531620565278406,0.13540735457283246,-0.608088503067627,-4.41476244737483,1.0171705925333148,-39.383951715319576
1589988573.4727867,-1.154342809742855,-3.4366141316642786,8.370042229092828,0.5466666666666666,0.16111111111111112,-0.62,6.2990253374556975,3.4434808837945856,-33.79804030616092
1589988573.4827867,-1.1887278137580954,-3.5723668825485735,8.941287064589533,0.5466666666666666,0.16111111111111112,-0.62,-0.041051111500087334,1.4248326185891824,-30.439718624190444
1589988573.4927866,-1.150480615652679,-3.5303499346595038,8.812011035283868,0.5466666666666666,0.16111111111111112,-0.62,-1.165129954987658,-0.647660447219399,-27.23445440685349
1589988573.5027866,-1.1850500022523538,-3.5474782647867023,8.780300013514122,0.5466666666666666,0.16111111111111112,-0.62,1.5758423802874004,1.257880422541556,-21.26271735213298
1589988573.5127866,-1.2132515337423313,-3.602085889570552,8.87276073619632,0.5551942740286299,0.19877471029311522,-0.6107617586912065,1.1024731595092025,0.5675805214723926,-16.599405674846626
1589988573.5227866,-1.2132029319545672,-3.610234016487053,8.74281172781827,0.56,0.22,-0.6055555555555555,1.3950183247160448,0.22998167528395524,-12.10694652089952
1589988573.5327866,-1.2015689373297003,-3.5831378746594007,8.683465395095368,0.56,0.22,-0.6055555555555555,1.3623382152588555,-0.057597070844686654,-7.670364441416893
1589988573.5427866,-1.200939548434086,-3.637717892692401,8.757516387472688,0.56,0.22,-0.6055555555555555,1.380872177713037,-0.25587217771303716,-3.3083120903131826
1589988573.5527866,-1.2290634651917136,-3.7028761582300564,8.974882335457025,0.56,0.22,-0.6055555555555555,1.0085720331864412,-0.5269639834067794,-0.751886768069681
1589988573.5627866,-1.2561650792830281,-3.735398095139634,9.180854602551015,0.56,0.22,-0.6055555555555555,0.39878571613186686,-0.8318571419340666,1.1113492007081844
1589988573.5727866,-1.1169880926291182,-3.463855650522317,8.451687486302871,0.5544444444444444,0.2577777777777778,-0.6433333333333333,0.6957821973847615,-0.750753342099496,5.475153407845715
1589988573.5827866,-1.2395478121119146,-3.6630151946818614,9.095126013587553,0.5544444444444444,0.2577777777777778,-0.6433333333333333,-0.11809093980568341,-1.0380026846373,7.91677281941705
1589988573.5927866,-1.193776607985272,-3.622659647911633,8.685957887469797,0.5544444444444444,0.2577777777777778,-0.6433333333333333,0.11668860027614775,-1.3361037999079508,11.73304819641008
1589988573.6027865,-1.1767738688869573,-3.599612059106089,8.663803010201748,0.5544444444444444,0.2577777777777778,-0.6433333333333333,0.20322864723912348,-1.46209799167391,14.527437211217347
1589988573.6127865,-1.2054266232018422,-3.6353105840835003,8.77352902473308,0.5741516882495439,0.254698520933231,-0.6433333333333333,0.021800325986182978,-1.5278583604988485,17.316382301043753
1589988573.6227865,-1.2121279788702803,-3.72,8.98179422534366,0.59,0.25222222222222224,-0.6433333333333333,-0.1096141725193589,-1.736700132060748,19.96427231526502
1589988573.6327865,-1.2031469882033614,-3.7100798621985596,8.797412047186555,0.59,0.25222222222222224,-0.6433333333333333,-0.02016781501200543,-1.9581669537530013,22.22184596513206
1589988573.6427865,-1.248749865054518,-3.686249595163554,8.626251754291266,0.59,0.25222222222222224,-0.6433333333333333,-0.1875,-2.0390667170463135,24.453167170463132
1589988573.6527865,-1.2331671770223651,-3.666832822977635,8.760498468932905,0.59,0.25222222222222224,-0.6433333333333333,-0.37967314624597853,-2.333852571805109,28.297833733865655
1589988573.6627865,-1.234594545121728,-3.68,8.83648636280432,0.6066215652775235,0.25587085850265423,-0.6433333333333333,-0.6359801162365001,-2.4662159070108,31.532090884129598
1589988573.6727865,-1.2414538725878932,-3.6336346814697333,8.784086703674333,0.6355555555555555,0.26222222222222225,-0.6433333333333333,-0.8431965371398361,-2.7698916204070843,34.596632963256674
1589988573.6827865,-1.2303758163972707,-3.5972930273287846,8.698420476520598,0.6355555555555555,0.26222222222222225,-0.6433333333333333,-1.0747208742292116,-2.9807325683219617,36.82376765060021
1589988573.6927865,-1.28242130369237,-3.6191928987692097,8.76838579753842,0.6355555555555555,0.26222222222222225,-0.6433333333333333,-0.9964941048084063,-3.197588765384875,39.81711546250253
1589988573.7027864,-1.3008881077418262,-3.5872202693545656,8.772779730645436,0.6355555555555555,0.26222222222222225,-0.6433333333333333,-1.3694493266135863,-3.3694493266135863,41.93411321573776
1589988573.7127864,-1.2477425813944176,-3.4429794561691565,8.773995434704258,0.6846752900030701,0.2618610477042258,-0.6501956491752655,-1.4781321332745985,-3.4781321332745985,43.815746265668174
1589988573.7227864,-1.2096312971957315,-3.2671482256177544,8.769631297195732,0.7866666666666666,0.2611111111111111,-0.6644444444444444,-1.4347723969227497,-3.635487201758429,45.90688481582586
1589988573.7327864,-1.3345592446565677,-3.4527962232828386,8.794255862212077,0.7866666666666666,0.2611111111111111,-0.6644444444444444,-1.381457511931936,-3.7840047208964513,48.4973347686242
1589988573.7427864,-1.3467633016473828,-3.469855047528926,8.73072476235537,0.7866666666666666,0.2611111111111111,-0.6644444444444444,-1.6452293647038583,-3.8345412705922834,50.42723611768248
1589988573.7527864,-1.3453770620581305,-3.4412262372348783,8.803678711704634,0.7866666666666666,0.2611111111111111,-0.6644444444444444,-1.617336017282011,-3.981721327572663,52.587868224666146
1589988573.7627864,-1.3125637853718881,-3.417436214628112,8.74,0.963282992285621,0.2673781420201708,-0.7960520935346975,-1.75,-3.9535236585743,54.80923341580331
1589988573.7727864,-1.3197701149425287,-3.4102298850574715,8.74,1.4597190293742017,0.2849936143039592,-1.165977011494253,-1.75,-3.9985632183908044,56.20545977011494
1589988573.7827864,-1.3760634772796476,-3.527537389622253,8.656716519496337,1.4755555555555555,0.2855555555555556,-1.1777777777777778,-2.3852608765739465,-4.25,58.21000541813688
1589988573.7927864,-1.4286509286955276,-3.61768730633519,8.776916408446919,1.4755555555555555,0.2855555555555556,-1.1777777777777778,-2.0096362236033745,-4.25,59.102113968941985
1589988573.8027864,-1.383141221908707,-3.4838740469472294,8.671675571831663,1.4755555555555555,0.2855555555555556,-1.1777777777777778,-1.8668177542974926,-4.465314882631927,59.765052480438655
1589988573.8127863,-1.3361812572310066,-3.3452749710759737,8.746181257231006,1.381806487551956,0.20554261473197072,-1.1283277199297252,-1.2886328576937909,-4.692050713459314,59.64831035480139
1589988573.8227863,-1.4084140385152109,-3.2309531119173878,8.790476555958694,0.8688888888888889,-0.23222222222222225,-0.8577777777777778,-1.5436523164945577,-4.309521525258163,58.00791061959252
1589988573.8327863,-1.4716248057533157,-3.266649922301326,8.801624805753317,0.8688888888888889,-0.23222222222222225,-0.8577777777777778,-1.6145310071916448,-4.166562014383289,56.17483330924072
1589988573.8427863,-1.4430794507280966,-3.2663493134101205,8.773079450728096,0.8688888888888889,-0.23222222222222225,-0.8577777777777778,-1.33769694061084,-3.9398801494240945,52.99741447891806
1589988573.8527863,-1.4718866043613708,-3.3,8.79811339563863,0.8688888888888889,-0.23222222222222225,-0.8577777777777778,-0.9162694704049844,-3.7110825545171338,50.75003115264798
1589988573.8627863,-1.484091399453715,-3.3088629008194275,8.765228498634286,0.8022530049502299,-0.13440205762261448,-0.8216696633282581,-1.2755712465857185,-3.808249363050015,46.900638671471526
1589988573.8727863,-1.4665832244736763,-3.33,8.723166448947353,0.6433333333333333,0.09888888888888887,-0.7355555555555555,-1.2729193881580947,-3.3932257648023816,43.82861249506334
1589988573.8827863,-1.4946448305326119,-3.3453977024589387,8.706150574385266,0.6433333333333333,0.09888888888888887,-0.7355555555555555,-1.2931465394474508,-3.1153232697237256,40.82608468622425
1589988573.8927863,-1.5373454786353098,-3.3446909572706196,8.706327260682345,0.6433333333333333,0.09888888888888887,-0.7355555555555555,-1.0625,-3.0593180688969857,38.30091089764823
1589988573.9027863,-1.5184917091836734,-3.323966836734694,8.73273756377551,0.6433333333333333,0.09888888888888887,-0.7355555555555555,-1.1951829559948979,-2.9486706792091835,35.029316804846935
1589988573.9127862,-1.4894143948332608,-3.3618828789666524,8.741882878966653,0.6361181146370242,0.12008359380929709,-0.7382612625666715,-1.2481699838539402,-2.701098009687636,32.08133383531019
1589988573.9227862,-1.4345985725230856,-3.363795717569257,8.766788580184686,0.6255555555555555,0.1511111111111111,-0.7422222222222222,-0.7750892173071495,-2.5538302955764345,28.434294225573613
1589988573.9327862,-1.44,-3.38,8.764263253210405,0.6255555555555555,0.1511111111111111,-0.7422222222222222,-0.5154603638459005,-2.0680924843595654,24.425990903852487
1589988573.9427862,-1.4799845111326233,-3.356009293320426,8.747981413359147,0.6255555555555555,0.1511111111111111,-0.7422222222222222,-0.5000484027105518,-1.7375290416263311,19.61330348499516
1589988573.9527862,-1.5330464890964248,-3.3252151331776814,8.813046489096426,0.6255555555555555,0.1511111111111111,-0.7422222222222222,-0.3559594431473452,-1.5598108352789821,15.467838225250553
1589988573.9627862,-1.5063995171614173,-3.345200362128937,8.786399517161417,0.6255555555555555,0.1511111111111111,-0.7422222222222222,-0.5225030177411414,-1.309995473388288,11.512428328647893
1589988573.9727862,-1.4282074998956027,-3.3515100012527665,8.779717501148369,0.6233333333333333,0.13444444444444445,-0.7644444444444445,0.31898437173758715,-0.5129687434751743,3.0017342986595397
1589988573.9827862,-1.4080063047285463,-3.4463096322241684,8.854315936952714,0.6233333333333333,0.13444444444444445,-0.7644444444444445,0.11439579684763572,0.05766199649737303,-3.7150087565674257
1589988573.9927862,-1.3096646859827172,-3.41,8.694381518290651,0.6233333333333333,0.13444444444444445,-0.7644444444444445,0.7654620427336944,0.800577553417118,-13.067623705105959
1589988574.0027862,-1.3608688664082444,-3.41,8.68434433204122,0.6233333333333333,0.13444444444444445,-0.7644444444444445,1.126810138350509,1.2735317985566166,-19.246178815669218
1589988574.0127861,-1.3654057637069537,-3.3572980650863293,8.815946150689687,0.5932737111973878,0.11648674810349,-0.7269675129502787,1.2972956977368137,2.150336558189451,-30.442524699346613
1589988574.0227861,-0.9410794561556692,-3.9111029063240617,5.048826743170762,0.5377777777777778,0.08333333333333333,-0.6577777777777778,-25.751591929649496,84.90116783085942,-62.79303511288512
1589988574.0327861,-0.003960608674902222,-3.0118482350997633,0.8581372638998512,0.5377777777777778,0.08333333333333333,-0.6577777777777778,-44.2809947410929,37.40172933607444,-217.09644083041172
1589988574.0427861,0.6511127953339704,-1.2765653936138663,-0.17874287408969583,0.5377777777777778,0.08333333333333333,-0.6577777777777778,-34.36283858371503,-90.40960803374304,-407.3808634296636
1589988574.052786,0.06182281276027041,-1.5890005616998197,0.047393519146216256,0.5377777777777778,0.08333333333333333,-0.6577777777777778,-28.782367952119934,-30.42209683511205,-428.5966777392551
1589988574.062786,-0.19638069275176395,-1.2923316228351507,-0.09950930083386789,0.5301295346019528,0.14676876202694034,-0.6519291212315587,-25.643411241180242,-27.370790570878768,-412.8987932969852
1589988574.072786,-0.02574863484234631,-1.0797005460630615,-0.045149726968469264,0.5188888888888888,0.24,-0.6433333333333333,-22.68151642592919,-19.19047802536551,-391.6129778051788
1589988574.082786,0.9198621413051622,-3.273327838965061,5.092756174920706,0.5188888888888888,0.24,-0.6433333333333333,-24.743413001673286,-13.701003346569767,-373.98591443770135
1589988574.092786,0.8314081106803779,-3.155175143341303,6.2587244365003825,0.5188888888888888,0.24,-0.6433333333333333,57.499567654773784,88.42243755658208,-337.27554028645045
1589988574.102786,2.4247367564157356,1.6216360380161587,9.236714085108979,0.5188888888888888,0.24,-0.6433333333333333,105.07271633392352,180.6499392006024,-300.8196572847345
1589988574.112786,3.9972632694345434,3.566313071958385,14.312324824198054,0.496658125421443,0.28099699236853654,-0.644776889402648,41.52673393700029,146.25961010499952,-277.9021565841441
1589988574.122786,-1.8455618508026441,-0.5608813345923828,1.8316650928548945,0.43333333333333335,0.3977777777777778,-0.6488888888888888,-4.725448536355052,62.41168948693736,-249.17095530374567
1589988574.132786,-1.7927535410764872,0.6185042492917846,3.3983116147308783,0.43333333333333335,0.3977777777777778,-0.6488888888888888,22.338810198300283,7.072981586402264,-232.61334985835694
1589988574.142786,3.5975636496084498,-1.5134199599344382,21.18375942451284,0.43333333333333335,0.3977777777777778,-0.6488888888888888,6.514462301948643,-70.69725801311236,-206.29358837188127
1589988574.152786,-0.16057803678747096,-0.298898561282098,-0.07418430158440614,0.43333333333333335,0.3977777777777778,-0.6488888888888888,7.660237206337643,-51.457787743580404,-192.21010517209982
1589988574.162786,0.2839473492836885,-1.1064533488473567,5.4814333503017965,0.4268799844859768,0.41235756591439815,-0.6450646821645294,6.140612500909024,41.26430350519962,-163.17232383099412
1589988574.172786,1.2905061450076358,-1.1293296851138097,8.78325121809323,0.4040036482195234,0.4640411404423113,-0.6315083347473719,8.189950958112137,79.20089448040142,-149.16056786779143
1589988574.182786,-0.5943824862713301,-1.3699620388456861,8.199624811115616,0.4033333333333333,0.4655555555555556,-0.6311111111111111,-10.737833081487487,18.647253805329306,-133.87289693362325
1589988574.192786,0.6480072156978243,-2.65698891874977,9.728950778632699,0.4033333333333333,0.4655555555555556,-0.6311111111111111,3.7126030813974893,-19.542810992894747,-122.36826519530243
1589988574.202786,0.7313697787438227,-2.4242787130641625,8.881854122664917,0.4033333333333333,0.4655555555555556,-0.6311111111111111,1.0785636290934448,12.75666690589948,-100.75083560604507
1589988574.212786,0.4159301980687473,-2.5628194311702863,9.743544804402992,0.37558455730225165,0.4784528739925372,-0.6283753162911453,-5.533782503378044,9.390800596513198,-88.3958841413176
1589988574.222786,0.3731265151515151,-2.069552840909091,7.510866477272728,0.3244444444444444,0.5022222222222222,-0.6233333333333333,4.552578125,5.181607481060606,-75.39406368371212
1589988574.232786,0.35,-1.9300418859413597,6.7433433573193,0.3244444444444444,0.5022222222222222,-0.6233333333333333,4.504504081194286,5.304351036408549,-63.42951884867361
1589988574.242786,0.4105656299915437,-2.454633796861787,8.237686742459832,0.3244444444444444,0.5022222222222222,-0.6233333333333333,0.656091445081274,3.70408807432115,-48.898250317109834
1589988574.252786,0.51,-2.64320397092562,8.71,0.3244444444444444,0.5022222222222222,-0.6233333333333333,1.6940489718904779,2.3754851090289244,-36.03870151589871
1589988574.262786,0.48125668745976424,-2.6908377916398427,8.736348036495217,0.31220192243656625,0.5160615949267802,-0.6283900272061526,-1.552765722467645,1.705826692121562,-23.444143061691122
1589988574.272786,0.3778991120347629,-2.521092008312866,8.29482146230871,0.2733333333333333,0.56,-0.6444444444444445,-0.2779378424334026,0.2086127904779898,-9.301246929907425
1589988574.282786,0.38726981989564047,-2.5538613028109745,7.982149469786231,0.2733333333333333,0.56,-0.6444444444444445,0.9783916849015317,-0.3125,8.026458087863997
1589988574.292786,0.4625605274038682,-3.054186842467956,9.528097349198328,0.2733333333333333,0.56,-0.6444444444444445,-0.45631575320439194,-1.2283717898653927,22.73225381311159
1589988574.3027859,0.45920456676180754,-3.0634659055396987,9.178409133523616,0.2733333333333333,0.56,-0.6444444444444445,-0.7198144753015688,-2.7599429154774056,36.41050594804059
1589988574.3127859,0.397881973479871,-2.94045155895353,8.689236650340462,0.2677160567567926,0.5684259148648111,-0.6490084816628838,-2.174262334249194,-3.5857200453948153,51.13432534942062
1589988574.3227859,3.386445433766588,-8.38540459864224,7.121265138334527,0.25555555555555554,0.5866666666666667,-0.6588888888888889,-6.726005739774162,-9.427367976665643,75.44249565039402
1589988574.3327858,9.397222913537867,-19.69404977472645,5.770151040549238,0.25555555555555554,0.5866666666666667,-0.6588888888888889,-18.028789422870627,-20.42580723020811,112.40677697918902
1589988574.3427858,4.0069939927054286,-9.084567474790818,6.840997854537653,0.25555555555555554,0.5866666666666667,-0.6588888888888889,-39.68194191160695,-26.893631999570907,252.05555004290923
1589988574.3527858,-1.3695497630331754,-2.8763744075829383,10.88563981042654,0.25555555555555554,0.5866666666666667,-0.6588888888888889,28.489188388625593,-5.793098341232227,284.4518661137441
1589988574.3627858,-0.7463419181108887,-1.9289194227715254,3.127847821583926,0.25887461928544575,0.584919791019356,-0.6608104521009306,25.50517416971622,3.779228233100877,283.15234671684044
1589988574.3727858,-1.264196606077819,-2.7859661081132256,8.026874585818423,0.2766666666666667,0.5755555555555556,-0.6711111111111111,-19.70910992379059,-25.320974450913567,270.23673731420996
1589988574.3827858,-1.0110614882135758,-3.183040802802234,8.617523194168324,0.2766666666666667,0.5755555555555556,-0.6711111111111111,-4.50859426772697,-17.565609320268862,271.84985326138406
1589988574.3927858,-0.86,-3.42,8.97,0.2766666666666667,0.5755555555555556,-0.6711111111111111,4.5625,-12.9375,272.8125
1589988574.4027858,-0.7965954537685865,-3.15229191591181,7.807583319090754,0.2766666666666667,0.5755555555555556,-0.6711111111111111,-0.5891193813023419,-13.465871218595112,272.4602525209366
1589988574.4127858,1.5194422031944672,-7.0664926724847685,8.351616581590648,0.29790465997036064,0.5647502607168341,-0.6724151984192327,-17.477163263625886,-25.016450889181623,259.99943139716777
1589988574.4227858,10.175129363063318,-25.035184244362906,8.152830934236523,0.4033333333333333,0.5111111111111111,-0.6788888888888889,-16.21663216984978,-21.224556637501177,202.40626078025528
1589988574.4327857,-1.6839306323755516,0.15982029112837204,7.390032547273417,0.4033333333333333,0.5111111111111111,-0.6788888888888889,-11.3033435833949,-5.606391395938578,-85.66151459635391
1589988574.4427857,-2.460673993160463,-1.377470367542083,14.705146585211992,0.4033333333333333,0.5111111111111111,-0.6788888888888889,34.785797586241245,34.4585975630001,-112.03951616919552
1589988574.4527857,-1.5615161035328455,-0.1118657397085352,8.555189614285425,0.4033333333333333,0.5111111111111111,-0.6788888888888889,34.223947037720166,11.424199890548675,-88.2283174899163
1589988574.4627857,-1.0626398612627657,-2.1222878797610636,8.770589312094547,0.4184653263964716,0.4945780075791637,-0.6788888888888889,-17.618047080737362,-4.644788923501831,-70.84200173421543
1589988574.4727857,-1.96,-2.9,13.22,0.4633333333333333,0.4455555555555555,-0.6788888888888889,-36.5,4.5625,-59.625
1589988574.4827857,-1.1590380136233795,-2.819168973851901,11.140438145462536,0.4633333333333333,0.4455555555555555,-0.6788888888888889,-4.121662821357944,5.067693913425621,-44.92844979125467
1589988574.4927857,-0.5617019116900693,-2.363862290644561,7.381569954322449,0.4633333333333333,0.4455555555555555,-0.6788888888888889,10.909099560142108,6.492873456267975,-25.882020808661817
1589988574.5027857,-0.8067206099743249,-11.469284213802226,9.432523146347156,0.4633333333333333,0.4455555555555555,-0.6788888888888889,-10.495842410332218,-3.0900227573329184,-9.813652454679842
1589988574.5127857,0.824993491348918,-27.143789933286325,8.624249606768997,0.4614534480784413,0.4488815063911337,-0.6800457413534379,-10.38770203937734,-3.9589141400444756,14.214971931442209
1589988574.5227857,-0.011058817586340447,-2.315979591493088,8.32513176284372,0.4488888888888889,0.4711111111111111,-0.6877777777777778,8.089723971576271,-1.2091882482698235,21.261138801421186
1589988574.5327857,-0.86564029164632,-0.9387615134625422,5.796700624715847,0.4488888888888889,0.4711111111111111,-0.6877777777777778,28.3948623015138,14.637647970094466,20.24588188492431
1589988574.5427856,0.2438424695320728,-3.8716334821204677,8.025963187722555,0.4488888888888889,0.4711111111111111,-0.6877777777777778,-5.812910627413611,-5.920900935352826,11.789241561763378
1589988574.5527856,0.3711526828257717,-5.512780609073959,9.80948249430288,0.4488888888888889,0.4711111111111111,-0.6877777777777778,-17.12833799461363,-12.081613838823287,-10.40658017402113
1589988574.5627856,-0.3651580872011252,-3.7716073136427566,9.075267791842474,0.4464888576340053,0.4711111111111111,-0.6859424597593374,-1.2501283403656822,6.1875,-27.49029887482419
1589988574.5727856,-2.1287429095142554,-7.021952143865646,7.999960367590597,0.43,0.4711111111111111,-0.6733333333333333,4.638908498674791,3.97488141239999,-21.14952564959996
1589988574.5827856,0.477361387446078,-4.953640637380051,9.009672682454442,0.43,0.4711111111111111,-0.6733333333333333,-4.627797341315256,-1.9450567831675323,3.0521876925785723
1589988574.5927856,0.6029060656747953,-3.520954309358218,8.773353288141562,0.43,0.4711111111111111,-0.6733333333333333,0.4032210141737824,-1.7604322563605952,4.067622590016727
1589988574.6027856,0.06,-4.71,9.02,0.43,0.4711111111111111,-0.6733333333333333,-1.125,-0.5625,-2.0625
1589988574.6127856,-0.055680781237492996,-4.600103257824381,8.840694789081887,0.43,0.4711111111111111,-0.6733333333333333,-0.07664292003521989,-0.12869707035940126,-0.7972414552149203
1589988574.6227856,-0.10365680564662322,-4.501828402823311,8.582798819763182,0.4414413760001371,0.4711111111111111,-0.6773714660392641,0.271067564700891,0.11178501176379835,0.011427517645697535
1589988574.6327856,-0.03828547035082273,-4.531714529649177,8.625143588947532,0.4488888888888889,0.4711111111111111,-0.68,0.3650021344303011,0.0625,0.04178632412294318
1589988574.6427855,-0.06011629982912086,-4.549844933561172,8.550465199316484,0.4488888888888889,0.4711111111111111,-0.68,-0.3100770868933153,-0.12306166951465225,0.0
1589988574.6527855,-0.09092594969199179,-4.5104629748459955,8.666296201232033,0.4488888888888889,0.4711111111111111,-0.68,0.30092562885010266,0.36342562885010266,-0.0028935927874743327
1589988574.6627855,-0.10438302104722792,-4.517191510523614,8.612467915811088,0.4488888888888889,0.4711111111111111,-0.68,0.13271223690965092,0.19521223690965092,-0.04494694077258727
1589988574.6727855,-0.07141328806600608,-4.529646677983498,8.744346847735976,0.42316441426622625,0.45396146136266935,-0.7142992994968834,0.48454216177805853,0.0647082626031345,-0.0022082626031344962
1589988574.6827855,-0.09287858801672086,-4.484242823966558,8.719495215977707,0.4222222222222222,0.4533333333333333,-0.7155555555555555,-0.024300975383186207,-0.08049117510450535,-0.04766372503483511
1589988574.6927855,-0.07,-4.50447814270111,8.639252457517337,0.4222222222222222,0.4533333333333333,-0.7155555555555555,-0.4430976783763875,-0.18190232162361247,-0.11940232162361249
1589988574.7027855,-0.06881682054465048,-4.551183179455349,8.548930871285592,0.4222222222222222,0.4533333333333333,-0.7155555555555555,-0.42605128404065484,-0.09542051361626193,-0.0625
1589988574.7127855,-0.060681394987974244,-4.559318605012026,8.679097680192411,0.4222222222222222,0.4533333333333333,-0.7155555555555555,0.08241281325160987,0.10796512530064398,-0.0625
1589988574.7227855,-0.07248973868706182,-4.47,8.70369356277884,0.44222222222222224,0.4711111111111111,-0.7022222222222222,0.2030608667941364,-0.09387826641172722,-0.054719566602931806
1589988574.7327855,-0.09,-4.4725816421839175,8.77676522034474,0.44222222222222224,0.4711111111111111,-0.7022222222222222,0.28022947270102744,0.14113526364948628,0.0
1589988574.7427855,-0.09,-4.486827375392715,8.648553621465568,0.44222222222222224,0.4711111111111111,-0.7022222222222222,0.10215780759106735,0.23017109620446632,0.0
1589988574.7527854,-0.07713961707837987,-4.52429057438243,8.65713961707838,0.44222222222222224,0.4711111111111111,-0.7022222222222222,-0.0625,0.0625,-0.07143869663006294
1589988574.7627854,-0.06128484756846661,-4.5480727286473,8.641284847568468,0.44222222222222224,0.4711111111111111,-0.7022222222222222,-0.0625,0.0625,-0.12098485134854184
1589988574.7727854,-0.08,-4.463026450980861,8.74596473202552,0.43,0.4633333333333333,-0.6877777777777778,0.2436948937898736,-0.0189153186303792,-0.1622795751594944
1589988574.7827854,-0.08102300213421865,-4.488976997865781,8.70283898506047,0.43,0.4633333333333333,-0.6877777777777778,0.13634989328906805,-0.1875,0.056106236661133506
1589988574.7927854,-0.08903275429545132,-4.483868982818195,8.637098262886354,0.43,0.4633333333333333,-0.6877777777777778,-0.3125,-0.18145471434657073,0.006045285653429261
1589988574.8027854,-0.07892690690007957,-4.52160963964988,8.61214618619984,0.43,0.4633333333333333,-0.6877777777777778,-0.30914658406274864,-0.125,0.05914658406274866
1589988574.8127854,-0.06700721836989883,-4.539489172445151,8.635985563260203,0.43,0.4633333333333333,-0.6877777777777778,-0.27189755740593385,-0.125,0.02189755740593384
1589988574.8227854,-0.05319609541053295,-4.515980477052665,8.71803904589467,0.43,0.4731611955181191,-0.6923137141707558,-0.07990238526332363,-0.2100488073683382,0.0
1589988574.8327854,-0.0702609772169086,-4.506753659072302,8.736492681855395,0.43,0.4777777777777778,-0.6944444444444444,0.3376829536151435,0.04547258441325053,0.0
1589988574.8427854,-0.08,-4.490402214623026,8.649798892688487,0.43,0.4777777777777778,-0.6944444444444444,0.24497231721218043,0.125,0.125
1589988574.8527853,-0.07891337527454119,-4.508913375274541,8.646519748352754,0.43,0.4777777777777778,-0.6944444444444444,-0.00679140453411756,0.10462578639764733,0.09783438186352976
1589988574.8627853,-0.07110654059487027,-4.50110654059487,8.693360756430778,0.43,0.4777777777777778,-0.6944444444444444,-0.055584121282060826,-0.04175236384618247,-0.0973364851282433
1589988574.8727853,-0.07,-4.508705262139679,8.7,0.43580350809311924,0.4652035102426861,-0.6760666688162336,0.04631577674598568,0.04631577674598568,-0.125
1589988574.8827853,-0.07,-4.471884287069238,8.707173569396144,0.43666666666666665,0.4633333333333333,-0.6733333333333333,0.12696279903045632,-0.12892559806091264,-0.001962799030456318
1589988574.8927853,-0.07,-4.516085994309201,8.6408710085362,0.43666666666666665,0.4633333333333333,-0.6733333333333333,0.17300624407208345,-0.2210124881441669,-0.04800624407208346
1589988574.9027853,-0.07,-4.501163267092708,8.623489801278122,0.43666666666666665,0.4633333333333333,-0.6733333333333333,-0.1947704193294231,-0.0036352096647115466,-0.0625
1589988574.9127853,-0.07,-4.515850477107589,8.667551431322769,0.43666666666666665,0.4633333333333333,-0.6733333333333333,-0.2865654819224372,-0.04953274096121859,-0.0625
1589988574.9227853,-0.07,-4.494089627959414,8.7,0.44222222222222224,0.4633333333333333,-0.6877777777777778,-0.09304978156708005,0.118609956313416,-0.04971991262683202
1589988574.9327853,-0.07,-4.525521094201503,8.691042188403005,0.44222222222222224,0.4633333333333333,-0.6877777777777778,0.20429589674436524,0.0625,0.0513027355037565
1589988574.9427853,-0.07095915195657722,-4.4809591519565775,8.605754911739464,0.44222222222222224,0.4633333333333333,-0.6877777777777778,0.36900530027139244,0.06849469972860756,-0.0625
1589988574.9527853,-0.08056945990556985,-4.49,8.662277839622279,0.44222222222222224,0.4633333333333333,-0.6877777777777778,0.2875861291313193,0.11432262677056543,-0.055381751180376956
1589988574.9627852,-0.08861963072434839,-4.49,8.694478522897393,0.44222222222222224,0.4633333333333333,-0.6877777777777778,-0.06460884419024221,-0.03661807608153239,0.04524538405435492
1589988574.9727852,-0.07,-4.528510964045832,8.720496345318058,0.44222222222222224,0.4633333333333333,-0.68,-0.11569352528644805,-0.056295683524298694,0.056295683524298694
1589988574.9827852,-0.07,-4.5,8.721935914835864,0.44222222222222224,0.4633333333333333,-0.68,0.0625,0.0533362668589363,-0.057918133429468145
1589988574.9927852,-0.07,-4.5,8.624096191364831,0.44222222222222224,0.4633333333333333,-0.68,0.0625,-0.05784523708541861,-0.002327381457290695
1589988575.0027852,-0.060368745846387545,-4.5,8.719262508307226,0.44222222222222224,0.4633333333333333,-0.68,-0.12730466153992215,-0.057890676920155704,-0.0023046615399221495
1589988575.0127852,-0.06833285863476693,-4.5,8.703334282730466,0.44222222222222224,0.4633333333333333,-0.68,-0.17708036646729325,0.041660732934586525,-0.05208036646729326
1589988575.0227852,-0.06103654251581166,-4.517926914968377,8.7,0.4183196689310534,0.4703049113765909,-0.6869715780432576,-0.2435216092761771,0.006478390723822905,-0.0625
1589988575.0327852,-0.07884159508613657,-4.539227730057425,8.668069325143561,0.4155555555555556,0.4711111111111111,-0.6877777777777778,0.07215337428219525,-0.06008665642945119,0.06491334357054881
1589988575.0427852,-0.05871442967512837,-4.525809619783419,8.634524049458546,0.4155555555555556,0.4711111111111111,-0.6877777777777778,0.2398797527072636,-0.018155061823184097,0.1068449381768159
1589988575.0527852,-0.06725907111756169,-4.494111393323657,8.654518142235123,0.4155555555555556,0.4711111111111111,-0.6877777777777778,0.3125,0.1618037917271408,-0.09073838896952102
1589988575.0627851,-0.06223020703975896,-4.482230207039759,8.722158343681928,0.4155555555555556,0.4711111111111111,-0.6877777777777778,0.16681638199548057,0.04181638199548057,-0.07643879399849351
1589988575.0727851,-0.07015079958851586,-4.490301599177032,8.729849200411484,0.43666666666666665,0.4711111111111111,-0.6877777777777778,-0.058730010287103715,0.06061500514355186,-0.0009424974282240718
1589988575.0827851,-0.07995698120265594,-4.509913962405312,8.720043018797345,0.43666666666666665,0.4711111111111111,-0.6877777777777778,0.18642453006639856,-0.06196226503319928,-0.06223113251659964
1589988575.0927851,-0.0701028606640912,-4.51,8.601234327969093,0.43666666666666665,0.4711111111111111,-0.6877777777777778,0.12564287915056999,-0.0625,0.06121424169886
1589988575.102785,-0.07928841549374567,-4.51,8.66501890845622,0.43666666666666665,0.4711111111111111,-0.6877777777777778,0.06694740316408959,-0.004447403164089599,0.004447403164089599
1589988575.112785,-0.07215085552293207,-4.51,8.70924572238534,0.43666666666666665,0.4711111111111111,-0.6877777777777778,-0.182785764908373,0.09811430596334919,-0.049057152981674595
1589988575.122785,-0.07,-4.5172443622065455,8.712755637793455,0.43666666666666665,0.4711111111111111,-0.704681289593051,-0.25,-0.05610905516364059,-0.10777726379091015
1589988575.132785,-0.06978954251036963,-4.52978954251037,8.718105882593328,0.43666666666666665,0.4711111111111111,-0.7111111111111111,0.003946077930569461,-0.18486928137962036,0.05986928137962036
1589988575.142785,-0.06121942747389714,-4.521219427473897,8.640974847265076,0.43666666666666665,0.4711111111111111,-0.7111111111111111,0.1646357348644286,-0.07774284342371426,-0.047257156576285736
1589988575.152785,-0.06972691631742599,-4.490819251047722,8.668907665269703,0.43666666666666665,0.4711111111111111,-0.7111111111111111,0.06591354603217521,0.05908645396782479,-0.1232932269839124
1589988575.162785,-0.07,-4.49,8.715758202448159,0.43666666666666665,0.4711111111111111,-0.7111111111111111,0.25315917686732625,0.0625,-0.22032958843366313
1589988575.172785,-0.07,-4.510681523099077,8.723106158966974,0.43207077264464955,0.4672811994260969,-0.7111111111111111,0.1401539741743585,0.01941349354358962,-0.16382698708717924
1589988575.182785,-0.07,-4.506057156696537,8.699085735044806,0.43,0.4655555555555556,-0.7111111111111111,-0.11178554129329135,-0.08714277064664568,-0.037857229353354324
1589988575.192785,-0.07569775093872179,-4.5056977509387215,8.638720241551503,0.43,0.4655555555555556,-0.7111111111111111,-0.1875,-0.05377811326597763,0.0
1589988575.202785,-0.08,-4.502189295194326,8.631242819222694,0.43,0.4655555555555556,-0.7111111111111111,0.10540143021274911,-0.09763381007091636,0.0
1589988575.212785,-0.07415363621769144,-4.5,8.686770910258469,0.43,0.4655555555555556,-0.7111111111111111,0.07788067908171456,-0.08846022636057152,0.0
1589988575.222785,-0.07,-4.5,8.71394909255215,0.43,0.4608492942072278,-0.6842181891206667,-0.03781817154906243,0.013136343098124864,-0.1134545146471873
1589988575.232785,-0.08697242756164679,-4.508486213780823,8.718486213780825,0.43,0.4577777777777778,-0.6666666666666666,-0.22161650839043867,0.0625,-0.02838349160956133
1589988575.242785,-0.07040503734865033,-4.51,8.592632742766227,0.43,0.4577777777777778,-0.6666666666666666,-0.12753148342906453,0.12373425828546773,-0.06123425828546773
1589988575.252785,-0.07,-4.51,8.645019868434234,0.43,0.4577777777777778,-0.6666666666666666,0.04693708885698067,-0.003952816642735502,-0.019515727785754833
1589988575.262785,-0.0766581676502607,-4.4966836646994786,8.703290838251304,0.43,0.4577777777777778,-0.6666666666666666,0.125,0.1039541912565175,0.041613547814129376
1589988575.272785,-0.0738191765162186,-4.477638353032437,8.72,0.4251926928459478,0.4701394247453406,-0.6666666666666666,0.16363014677363383,0.1875,-0.014760293547267642
1589988575.282785,-0.07,-4.50417769932333,8.68582230067667,0.4222222222222222,0.4777777777777778,-0.6666666666666666,-0.02611062077081494,-0.02611062077081494,-0.009097344807296265
1589988575.292785,-0.07,-4.518062872789794,8.615497017681646,0.4222222222222222,0.4777777777777778,-0.6666666666666666,-0.16328590987242894,0.03828590987242894,0.0
1589988575.302785,-0.07,-4.52,8.61855430542206,0.4222222222222222,0.4777777777777778,-0.6666666666666666,-0.01355338666817435,0.12048220444394188,0.05798220444394188
1589988575.312785,-0.07,-4.505636032093363,8.684637855579869,0.4222222222222222,0.4777777777777778,-0.6666666666666666,-0.04488739970824216,0.03522520058351568,-0.02727479941648432
1589988575.322785,-0.07,-4.508416687849516,8.726833375699034,0.4287685349940688,0.4721666525447664,-0.6722777918996781,-0.009895700940518552,0.0,0.042708598118962895
1589988575.332785,-0.07748678266858428,-4.5025132173314155,8.73,0.43,0.4711111111111111,-0.6733333333333333,-0.04679239167865173,-0.04679239167865173,-0.0778771750359552
1589988575.342785,-0.06330403323817868,-4.525043950142732,8.621476216048162,0.43,0.4711111111111111,-0.6733333333333333,-0.0625,-0.11467489613069161,0.03152468839207487
1589988575.3527849,-0.0738745075429999,-4.5091882386855,8.641623522629,0.43,0.4711111111111111,-0.6733333333333333,0.024215672143749395,-0.038284327856250605,-0.11093134428749879
1589988575.3627849,-0.07147637698497239,-4.5,8.685570869045083,0.43,0.4711111111111111,-0.6733333333333333,0.08913632192196129,0.0,-0.1608636780780387
1589988575.3727849,-0.06271303258145364,-4.502713032581454,8.72,0.43,0.4711111111111111,-0.6751420217209692,0.15891290726817042,0.01695645363408521,-0.10804354636591479
1589988575.3827848,-0.07495004348656159,-4.51,8.690299739080631,0.43,0.4711111111111111,-0.68,0.12624891283596018,0.0006244564179800974,0.03031331537302985
1589988575.3927848,-0.06702785824124737,-4.51,8.621083574723741,0.43,0.4711111111111111,-0.68,-0.040537942996101986,0.018575885992203972,0.08446205700389801
1589988575.4027848,-0.0777851407475773,-4.515928380249192,8.641498661744347,0.43,0.4711111111111111,-0.68,-0.1366047531149054,0.0995523765574527,0.0254476234425473
1589988575.4127848,-0.07843828129542416,-4.508438281295424,8.681561718704575,0.43,0.4711111111111111,-0.68,-0.11523925809640095,0.052739258096400954,-0.03613037095179952
1589988575.4227848,-0.07555499301322424,-4.505554993013224,8.701109986026449,0.42567944987860334,0.47481443978659393,-0.6762966713245172,0.0069374126653030666,0.03471870633265153,0.0069374126653030666
1589988575.4327848,-0.06555816389179818,-4.495558163891798,8.71,0.4222222222222222,0.4777777777777778,-0.6733333333333333,0.0625,0.017369262161869334,-0.027761475676261332
1589988575.4427848,-0.06719934413823549,-4.511598032414706,8.63080721447941,0.4222222222222222,0.4777777777777778,-0.6733333333333333,0.017504099136028253,-0.04499590086397175,0.027491801727943493
1589988575.4527848,-0.06166132509760504,-4.511661325097605,8.608338674902395,0.4222222222222222,0.4777777777777778,-0.6733333333333333,0.1563501544199056,0.0938501544199056,0.11461671813996854
1589988575.4627848,-0.0667953573839346,-4.51,8.67115821645541,0.4222222222222222,0.4777777777777778,-0.6733333333333333,0.1875,0.04005803270081752,-0.0024129509487737233
1589988575.4727848,-0.062377154775780624,-4.502377154775781,8.70762284522422,0.43323299865720577,0.4726958809616315,-0.6894260065844631,0.33042834795411324,0.09528556530274217,-0.014857217348628916
1589988575.4827847,-0.09206094702297235,-4.491984763244257,8.73404571026723,0.43666666666666665,0.4711111111111111,-0.6944444444444444,0.22471431082981716,0.02480954055321144,0.05009522972339428
1589988575.4927847,-0.06795788466140225,-4.481989471165351,8.651884182818858,0.43666666666666665,0.4711111111111111,-0.6944444444444444,-0.012763220866235936,0.10013161043311797,0.0625
1589988575.5027847,-0.06627570634120852,-4.492551412682417,8.648827119023625,0.43666666666666665,0.4711111111111111,-0.6944444444444444,-0.0625,0.04655367073489344,0.02327683536744672
1589988575.5127847,-0.07720415485689008,-4.50720415485689,8.67440830971378,0.43666666666666665,0.4711111111111111,-0.6944444444444444,-0.10752596785556301,0.045025967855563016,0.0
