time,acc_x,acc_y,acc_z,mag_x,mag_y,mag_z,gyr_x,gyr_y,gyr_z
1589988646.4876904,-3.8,-0.81,9.05,0.3388888888888889,-0.33555555555555555,-0.6088888888888889,-0.3125,-0.1875,0.0
1589988646.4976904,-3.817442942978602,-0.8302282280855914,9.039543543828817,0.3533333333333333,-0.33,-0.6322222222222222,-0.5930367872325266,-0.047944819151210016,0.1235735744650533
1589988646.5076904,-3.81,-0.85169000470244,8.94953001724228,0.3533333333333333,-0.33,-0.6322222222222222,-0.44806252939025026,-0.1875,-0.09712498040649982
1589988646.5176904,-3.807593117408907,-0.8275931174089068,8.872406882591093,0.3533333333333333,-0.33,-0.6322222222222222,-0.25232793522267205,-0.12732793522267205,-0.14237095141700407
1589988646.5276904,-3.800517712550607,-0.8205177125506072,8.879482287449393,0.3533333333333333,-0.33,-0.6322222222222222,-0.07544281376518219,0.04955718623481781,-0.009707110323886659
1589988646.5376904,-3.819526332973353,-0.8395263329733531,8.919052665946706,0.3533333333333333,-0.33,-0.6322222222222222,0.05953958108345682,-0.18157916216691364,0.18305937162518524
1589988646.5476904,-3.8199023849908267,-0.8299023849908269,8.960097615009174,0.3322222222222222,-0.3377777777777778,-0.6044444444444445,0.25,-0.06311009380733151,0.06311009380733151
1589988646.5576904,-3.81,-0.82,8.953702001808717,0.3322222222222222,-0.3377777777777778,-0.6044444444444445,0.22962750226089507,-0.10462750226089507,0.125
1589988646.5676904,-3.8131474705869466,-0.8168525294130534,8.957769647043358,0.3322222222222222,-0.3377777777777778,-0.6044444444444445,0.12848492649475277,-0.042828308831584255,0.10532830883158426
1589988646.5776904,-3.82620032166179,-0.8141335477745267,9.044133547774527,0.3322222222222222,-0.3377777777777778,-0.6044444444444445,-0.03875201038618792,0.0,0.04958266320460403
1589988646.5876904,-3.8490201207735373,-0.8297550301933843,9.060244969806616,0.3320861278852135,-0.3377777777777778,-0.6045533199140514,-0.19515530645673912,-0.006124245165391291,0.0030621225826956457
1589988646.5976903,-3.81,-0.82,9.069556491898702,0.32666666666666666,-0.3377777777777778,-0.6088888888888889,-0.5,-0.25,0.1277719256331176
1589988646.6076903,-3.81,-0.82,9.060446765996264,0.32666666666666666,-0.3377777777777778,-0.6088888888888889,-0.5,-0.25,0.18470771252334825
1589988646.6176903,-3.8172908402946604,-0.8345816805893213,8.93605571499077,0.32666666666666666,-0.3377777777777778,-0.6088888888888889,-0.40886449631674193,-0.20443224815837097,0.09636449631674192
1589988646.6276903,-3.81,-0.8100770284149265,8.900308113659706,0.32666666666666666,-0.3377777777777778,-0.6088888888888889,-0.12403714481342006,0.1855742896268401,0.12307428962684012
1589988646.6376903,-3.81,-0.8172565902088326,8.92902636083533,0.32666666666666666,-0.3377777777777778,-0.6088888888888889,-0.0342926223895926,0.006085244779185206,-0.056414755220814794
1589988646.6476903,-3.82,-0.8203612209046991,8.998555116381203,0.3322222222222222,-0.34444444444444444,-0.5966666666666667,0.06927289196310936,-0.12274236934563021,0.006772891963109355
1589988646.6576903,-3.8184964873257425,-0.8269929746514855,8.950978923954457,0.3322222222222222,-0.34444444444444444,-0.5966666666666667,0.24060304578589203,-0.0812939084282159,0.1499121831435682
1589988646.6676903,-3.81,-0.8108281211524255,8.905796848066979,0.3322222222222222,-0.34444444444444444,-0.5966666666666667,0.1771484855946811,-0.1875,-0.0625
1589988646.6776903,-3.81,-0.82,8.975007143923401,0.3322222222222222,-0.34444444444444444,-0.5966666666666667,0.02494642057449939,-0.1937589299042501,-0.043723210287249695
1589988646.6876903,-3.81,-0.82,9.019729170665132,0.3322222222222222,-0.34444444444444444,-0.5966666666666667,-0.31046877998848443,-0.24966146333141406,0.12398438999424222
1589988646.6976902,-3.8194201785109025,-0.8294201785109027,9.067100892554514,0.33850234122949074,-0.3308375199286961,-0.6081802181799922,-0.371376115693142,-0.13224776861371595,0.18387611569314202
1589988646.7076902,-3.8172552545539467,-0.8354894908921064,8.999807800093414,0.3388888888888889,-0.33,-0.6088888888888889,-0.3063813638486689,-0.028190681924334424,0.15319068192433444
1589988646.7176902,-3.817259216410439,-0.8427407835895611,8.92,0.3388888888888889,-0.33,-0.6088888888888889,-0.10987663247825216,0.0625,0.09274673504349568
1589988646.7276902,-3.8370667908709826,-0.8214666045645086,8.922933209129017,0.3388888888888889,-0.33,-0.6088888888888889,-0.053333721471821145,0.053333721471821145,0.16000116441546344
1589988646.7376902,-3.8214382859804377,-0.829280857009781,8.938561714019562,0.3388888888888889,-0.33,-0.6088888888888889,-0.004494643688868191,0.004494643688868191,0.01348393106660456
1589988646.7476902,-3.81,-0.806836475567526,8.96,0.3388888888888889,-0.3422222222222222,-0.6177777777777778,0.11431800692574066,0.09295402077722201,0.09295402077722201
1589988646.7576902,-3.81,-0.8353348203462153,8.946004461038648,0.3388888888888889,-0.3422222222222222,-0.6177777777777778,0.03334262716384619,-0.0625,-0.0625
1589988646.7676902,-3.8141238184688557,-0.8220619092344277,8.912371455406568,0.3388888888888889,-0.3422222222222222,-0.6177777777777778,-0.03672613456965289,-0.11404773086069422,-0.0625
1589988646.7776902,-3.829344339761954,-0.83,8.96196698071414,0.3388888888888889,-0.3422222222222222,-0.6177777777777778,0.05635318526831862,-0.3125,-0.05840212351221241
1589988646.7876902,-3.816956791399628,-0.83,8.999129625801116,0.3388888888888889,-0.3422222222222222,-0.6177777777777778,-0.05978008062848872,-0.3125,0.019020053752325822
1589988646.7976902,-3.81,-0.83,9.05676717587779,0.3388888888888889,-0.33323469034098485,-0.6079731975437006,-0.07904103015276334,-0.17462309045829003,0.0625
1589988646.8076901,-3.81,-0.8202831873956716,9.02660175125194,0.3388888888888889,-0.33,-0.6044444444444445,-0.0625,0.0,0.11969023633115647
1589988646.8176901,-3.81,-0.8314668072712664,8.915867229085066,0.3388888888888889,-0.33,-0.6044444444444445,-0.05333245455458471,0.01833509089083057,-0.044164909109169426
1589988646.8276901,-3.81,-0.8384874962338054,8.943949984935221,0.3388888888888889,-0.33,-0.6044444444444445,-0.009453148538716483,0.10609370292256703,0.043593702922567035
1589988646.83769,-3.81903244400527,-0.8129026679841898,8.931935111989459,0.3388888888888889,-0.33,-0.6044444444444445,0.16935832509881424,0.012094449934123841,0.0060472249670619205
1589988646.84769,-3.811931534180405,-0.7938630683608107,8.946136931639188,0.3451643623041292,-0.33986145822394903,-0.6098234216575076,0.08664417725506668,0.0,-0.05042791137246666
1589988646.85769,-3.802656328630272,-0.8026563286302724,8.955390192533503,0.3466666666666667,-0.3422222222222222,-0.6111111111111112,-0.03759691909119714,-0.25,-0.05419897303039904
1589988646.86769,-3.8182912418690473,-0.8182912418690473,8.869398169720238,0.3466666666666667,-0.3422222222222222,-0.6111111111111112,0.10898039252231934,-0.25,-0.005339869159226879
1589988646.87769,-3.8114938654953043,-0.8229877309906088,8.984481596485914,0.3466666666666667,-0.3422222222222222,-0.6111111111111112,-0.07183665934565284,0.0,0.009336659345652832
1589988646.88769,-3.819435209027567,-0.8388704180551347,9.008305627082702,0.3466666666666667,-0.3422222222222222,-0.6111111111111112,-0.12147005642229627,0.0,0.058970056422296274
1589988646.89769,-3.82,-0.83,9.083985009147261,0.32,-0.3233333333333333,-0.6111111111111112,0.14238756860446528,-0.05498126143407755,0.0
1589988646.90769,-3.82,-0.83,9.04673611481146,0.32,-0.3233333333333333,-0.6111111111111112,-0.13697913891405122,-0.008420143514324789,0.0
1589988646.91769,-3.8091064617071333,-0.8282129234142664,8.92,0.32,-0.3233333333333333,-0.6111111111111112,-0.3526615426783308,-0.016753842991251912,-0.0055846143304173045
1589988646.92769,-3.800289272912395,-0.8105785458247905,8.920867818737186,0.32,-0.3233333333333333,-0.6111111111111112,-0.12319204429752988,-0.1856920442975299,-0.05707613289258965
1589988646.93769,-3.8061393084787367,-0.8222786169574738,8.93841792543621,0.32,-0.3233333333333333,-0.6111111111111112,-0.08662932200789433,-0.14912932200789433,0.052612033976317
1589988646.94769,-3.8044710625266505,-0.83,8.95552893747335,0.32,-0.3337768818941048,-0.6147970694266776,-0.02794414079156491,-0.0904441407915649,0.05588828158312982
1589988646.95769,-3.8101022122081116,-0.8202044244162228,8.97918230233511,0.32,-0.3422222222222222,-0.6177777777777778,0.0,-0.060583521097910695,0.0625
1589988646.96769,-3.81869356820975,-0.8373871364195001,8.910451454321999,0.32,-0.3422222222222222,-0.6177777777777778,0.0,0.10050440393281443,0.0625
1589988646.97769,-3.82,-0.8258969783487984,8.98461812990721,0.32,-0.3422222222222222,-0.6177777777777778,-0.04407194266000476,0.125,0.0625
1589988646.98769,-3.82,-0.82,9.051690029557227,0.32,-0.3422222222222222,-0.6177777777777778,-0.11201567118316702,0.27354701354950106,0.0625
1589988646.99769,-3.82,-0.8123397893903753,9.082980631828875,0.34042722829233263,-0.3328597425882365,-0.6237357193630414,-0.125,0.21674736737969091,0.39763421417108186
1589988647.00769,-3.828239790250189,-0.83,9.032959161000754,0.3466666666666667,-0.33,-0.6255555555555555,-0.1709980335955206,0.005500655468159801,0.7095026218726392
1589988647.01769,-3.809265845034439,-0.83,8.96036707748278,0.3466666666666667,-0.33,-0.6255555555555555,0.0034413514010668955,0.0590586485989331,0.938647117133689
1589988647.02769,-3.7749755758579107,-0.83,8.977512212071044,0.3466666666666667,-0.33,-0.6255555555555555,0.1641769881660433,-0.10167698816604329,0.9922256627220144
1589988647.03769,-3.7896878560349205,-0.8103121439650794,8.95046821594762,0.34283847243765436,-0.33,-0.6217273613265432,0.12597544989087314,0.09033592538194399,0.5078035991269851
1589988647.04769,-3.804439825633651,-0.7866638953801905,8.91777593025346,0.3388888888888889,-0.33,-0.6177777777777778,0.0833506538738091,0.3125,0.0
1589988647.05769,-3.757082966871885,-0.7594165933743771,8.894165933743771,0.3388888888888889,-0.33,-0.6177777777777778,0.22447596012899443,0.3453166226912929,0.0
1589988647.06769,-3.6993006332629705,-0.7506293745139428,8.80188812354183,0.3388888888888889,-0.33,-0.6177777777777778,-0.24257026997000333,1.0205428563492944,0.019667953560715476
1589988647.07769,-3.5672725252749693,-0.7583957338073547,8.825187201422064,0.3388888888888889,-0.33,-0.6177777777777778,-0.9221267081435396,2.816513442950783,0.2623666814798356
1589988647.0876899,-3.457942191780822,-0.8055876712328768,8.866470136986301,0.3388888888888889,-0.33,-0.6177777777777778,-2.99997602739726,7.119436643835616,1.3952071917808218
1589988647.0976899,-3.2467471945530195,-0.894882612533098,8.985110578741647,0.3466666666666667,-0.3233333333333333,-0.6255555555555555,-6.276114298323036,13.478117513554407,4.2746469549867605
1589988647.1076899,-2.9727220444320763,-0.9623440471221186,9.288355363851398,0.3466666666666667,-0.3233333333333333,-0.6255555555555555,-9.249527503362552,17.843218078938825,8.52351178052966
1589988647.1176898,-2.193064254595894,-0.9724297184832086,9.046214859241605,0.3466666666666667,-0.3233333333333333,-0.6255555555555555,-9.723820257096529,13.944126438353488,13.268699816359623
1589988647.1276898,-1.6850317463418447,-0.8904889913454588,9.005244495672729,0.3466666666666667,-0.3233333333333333,-0.6255555555555555,-4.704950719909352,-0.1906489929083559,16.85360662863618
1589988647.1376898,-1.6719172896754044,-0.9146115264502698,8.671190498722437,0.3466666666666667,-0.3233333333333333,-0.6255555555555555,1.8322755985615604,0.32546193337749596,19.367559382984766
1589988647.1476898,-1.810400015944831,-0.7996631654475514,8.657242142188029,0.32666666666666666,-0.33,-0.6044444444444445,2.030262790744026,1.4409206645008272,18.67157883722321
1589988647.1576898,-1.9692338508759692,-0.8749002451517749,9.025067865186456,0.32666666666666666,-0.33,-0.6044444444444445,-1.6270952504335003,-2.4254292647439852,17.57437142486995
1589988647.1676898,-2.061065166135008,-0.8593342711656199,9.05866854233124,0.32666666666666666,-0.33,-0.6044444444444445,-2.7058954647223157,-2.4175281349685958,16.493342711656197
1589988647.1776898,-2.127547700659785,-0.8177826870876346,8.97556537417527,0.32666666666666666,-0.33,-0.6044444444444445,0.04689698044421542,-1.1709806126290345,16.077826870876343
1589988647.1876898,-2.229969526825991,-0.8018209521067281,9.164476197331798,0.32666666666666666,-0.33,-0.6044444444444445,0.7158571479988483,-0.17071426000575873,14.977619013341013
1589988647.1976898,-2.2521745454545457,-0.8392751515151515,9.313476363636363,0.32,-0.3377777777777778,-0.6044444444444445,-0.504530303030303,-1.3387575757575758,12.560651515151514
1589988647.2076898,-2.27011807486631,-0.8332939750445633,9.25964577540107,0.32,-0.3377777777777778,-0.6044444444444445,-0.5419126559714795,-1.039698752228164,11.513945632798574
1589988647.2176898,-2.287448810182623,-0.8448976203652463,9.006535694521306,0.32,-0.3377777777777778,-0.6044444444444445,0.13582595462091862,-0.2697841726618705,9.587403154399556
1589988647.2276897,-2.327462525862433,-0.812537474137567,8.8176124224127,0.32,-0.3377777777777778,-0.6044444444444445,0.28134368534391757,0.31212525862432966,7.392358178862475
1589988647.2376897,-2.34,-0.7911186600892093,8.717830620624465,0.32,-0.3377777777777778,-0.6044444444444445,-0.3050837444244233,-0.006566995539538545,4.481148273417423
1589988647.2476897,-2.362221246915923,-0.7985191687227178,8.748144572025053,0.32666666666666666,-0.3422222222222222,-0.6044444444444445,-0.5532448045169861,-0.18287240225849308,1.3010132971152022
1589988647.2576897,-2.39157592813075,-0.7805253093769168,8.848949381246166,0.32666666666666666,-0.3422222222222222,-0.6044444444444445,-0.41451771475989463,-0.11186726557708265,-1.3319600786520909
1589988647.2676897,-2.4142748132914815,-0.788091604430494,8.833816791139013,0.32666666666666666,-0.3422222222222222,-0.6044444444444445,-0.08349230616589098,0.07729011076234801,-3.4126912183858282
1589988647.2776897,-2.3726985722903677,-0.7821164287150614,8.908835712849386,0.32666666666666666,-0.3422222222222222,-0.6044444444444445,0.4927232053086668,0.4206339231852001,-6.253299064950734
1589988647.2876897,-2.4053442445556605,-0.7724426259073899,9.01313111501871,0.32666666666666666,-0.3422222222222222,-0.6044444444444445,0.7667007642364398,0.5,-9.047745051625412
1589988647.2976897,-2.459789140433666,-0.8004217191326684,9.197891404336659,0.3388888888888889,-0.3555555555555556,-0.5966666666666667,0.6901357445791769,0.571725106027119,-13.008665103637776
1589988647.3076897,-2.4514377874678934,-0.8171244250642136,9.114377874678931,0.3388888888888889,-0.3555555555555556,-0.5966666666666667,0.7945276566513351,0.9370967982796727,-15.827246729586047
1589988647.3176897,-2.497115175857577,-0.8105769648284846,8.968077507598785,0.3388888888888889,-0.3555555555555556,-0.5966666666666667,1.0480758792878855,1.4122577887537995,-19.37498643074251
1589988647.3276896,-2.4842043042745217,-0.8178978478627392,8.833634434196172,0.3388888888888889,-0.3555555555555556,-0.5966666666666667,0.8650538034315184,1.7830308439948428,-22.2280236536745
1589988647.3376896,-2.48,-0.8308661362730313,8.783700795590454,0.3388888888888889,-0.3555555555555556,-0.5966666666666667,0.6766732965871076,2.1126967309725617,-24.635333792661154
1589988647.3476896,-2.4737404672071928,-0.865038131171229,8.782519065585614,0.34375741439440566,-0.3444274972572316,-0.6043172067467645,0.36688960022477324,2.3125,-28.214214397527495
1589988647.3576896,-2.47,-0.8411333717213033,8.809433314139348,0.3466666666666667,-0.3377777777777778,-0.6088888888888889,0.3309721422472847,2.191041786629073,-31.56478962730576
1589988647.3676896,-2.5591402169546003,-0.8605182804339092,8.844310968260345,0.3466666666666667,-0.3377777777777778,-0.6088888888888889,0.780182804339092,2.1756478505423864,-35.118596826034555
1589988647.3776896,-2.6048746121805313,-0.87,8.912186530451327,0.3466666666666667,-0.3377777777777778,-0.6088888888888889,1.030466326128319,2.342966326128319,-37.514229332007744
1589988647.3876896,-2.62,-0.8761103257529195,8.992772280270437,0.3466666666666667,-0.3377777777777778,-0.6088888888888889,1.468705823601721,2.781205823601721,-40.30533958205286
1589988647.3976896,-2.6021725764723787,-0.9245685588190534,9.073482270582865,0.3704365647034952,-0.3417394274505825,-0.6237450751619067,1.910342794095267,2.944289301476183,-44.27195632323847
1589988647.4076896,-2.563509806252229,-0.9664901937477712,9.043509806252228,0.37333333333333335,-0.3422222222222222,-0.6255555555555555,2.108547783192678,3.222579638654463,-47.19071674789017
1589988647.4176896,-2.577740880736498,-0.97,8.96903647705401,0.37333333333333335,-0.3422222222222222,-0.6255555555555555,1.6814779815875518,3.083679243095332,-50.76391513809336
1589988647.4276896,-2.588792334693103,-0.9963770040793094,8.951207665306896,0.37333333333333335,-0.3422222222222222,-0.6255555555555555,1.295287449008633,3.5570688264870505,-54.31976923441799
1589988647.4376895,-2.619339384168309,-1.0,8.861981847495073,0.37333333333333335,-0.3422222222222222,-0.6255555555555555,1.4792139388149121,4.083427877629824,-57.042139388149124
1589988647.4476895,-2.655550782997763,-1.008516927665921,8.855550782997762,0.38942086336896187,-0.33843692103736844,-0.6312335073328362,1.2963460104399702,4.462923191648024,-60.58977069351231
1589988647.4576895,-2.6514699367818744,-1.0270601264362513,8.842939873563749,0.3922222222222223,-0.3377777777777778,-0.6322222222222222,1.1433742097734299,4.28674841954686,-63.56820607032439
1589988647.4676895,-2.666398672321593,-1.0791960169647796,8.782604646874423,0.3922222222222223,-0.3377777777777778,-0.6322222222222222,1.5862126590448091,4.352491702009957,-65.99858818919418
1589988647.4776895,-2.683370286945451,-1.1301108608363528,8.850221721672707,0.3922222222222223,-0.3377777777777778,-0.6322222222222222,2.1053214670453433,4.625692880227206,-68.10878586818137
1589988647.4876895,-2.709233548585486,-1.1564111828618286,8.934878280032802,0.3922222222222223,-0.3377777777777778,-0.6322222222222222,2.592989250205002,4.709930107113571,-70.33994625102501
1589988647.4976895,-2.7387557902745767,-1.1787557902745764,9.010015440732204,0.40819937690056524,-0.3162433519069677,-0.6502833535977404,2.867223689216103,4.765649126144068,-72.4926097075212
1589988647.5076895,-2.7636775244299674,-1.2310325732899023,9.008085776330075,0.4177777777777778,-0.3033333333333333,-0.6611111111111111,3.0229845276872966,5.040458740499457,-74.05336590662324
1589988647.5176895,-2.775542837842909,-1.2889143243141818,8.938799864900364,0.4177777777777778,-0.3033333333333333,-0.6611111111111111,3.069285473036364,5.284642736518182,-75.60607432356363
1589988647.5276895,-2.792685757221573,-1.3226857572215729,8.91701431791618,0.4177777777777778,-0.3033333333333333,-0.6611111111111111,2.716428034730339,5.356339486976123,-77.3591088871264
1589988647.5376894,-2.774272957034541,-1.34,8.92404549283909,0.4177777777777778,-0.3033333333333333,-0.6611111111111111,2.2394903117101936,5.511931339511373,-78.76959772535804
1589988647.5476894,-2.7233185840707965,-1.393362831858407,8.875530973451326,0.4365535889872173,-0.27961651917404134,-0.6611111111111111,1.9513274336283186,5.5625,-80.08379424778761
1589988647.5576894,-2.7290795087570423,-1.4,8.82460245621479,0.4388888888888889,-0.2766666666666667,-0.6611111111111111,1.9942469297315135,5.449006140536973,-80.92521008650968
1589988647.5676894,-2.755522578336427,-1.4,8.760447317215004,0.4388888888888889,-0.2766666666666667,-0.6611111111111111,2.0,5.54384407640178,-81.79758057301335
1589988647.5776894,-2.7763230359828763,-1.5060997338886961,8.831615179914381,0.4388888888888889,-0.2766666666666667,-0.6611111111111111,2.1530284623394653,5.511490512553512,-82.54961384935787
1589988647.5876894,-2.739091948260303,-1.53,8.856818008623282,0.4388888888888889,-0.2766666666666667,-0.6611111111111111,2.8693008623282865,5.585225107791036,-83.11362553895518
1589988647.5976894,-2.7119597927972374,-1.5541206216082881,8.900201036013813,0.48176999397028997,-0.2570128268376912,-0.6825516636518116,3.589510360138135,6.077261655155402,-83.86526424518993
1589988647.6076894,-2.7319758753422123,-1.6405782095881105,8.983252917807373,0.4922222222222222,-0.25222222222222224,-0.6877777777777778,3.046536969185484,5.867018484592742,-84.86987839896256
1589988647.6176894,-2.703645610950647,-1.691812633429612,8.871853321612457,0.4922222222222222,-0.25222222222222224,-0.6877777777777778,2.8579429863116914,5.9317719452467665,-86.00547375361045
1589988647.6276894,-2.714542062348226,-1.7429486091093958,8.844542062348227,0.4922222222222222,-0.25222222222222224,-0.6877777777777778,3.143428806933723,6.268428806933723,-86.96439853112476
1589988647.6376894,-2.735205967231428,-1.775205967231428,8.891235803388568,0.4922222222222222,-0.25222222222222224,-0.6877777777777778,2.9871270480357475,6.404962704803575,-88.1558950847142
1589988647.6476893,-2.6872514041788365,-1.8135672882498315,8.891228038643002,0.49488629271824064,-0.22717995955964954,-0.702163758456277,2.4177628622781397,6.28508762075938,-89.74415299932599
1589988647.6576893,-2.6364891484655795,-1.8694674453967375,8.821065109206526,0.4977777777777778,-0.2,-0.7177777777777777,2.2466715337296104,6.30917153372961,-91.57975791401714
1589988647.6676893,-2.620621481556752,-1.8929190122954984,8.741864444670258,0.4977777777777778,-0.2,-0.7177777777777777,2.393243826846865,6.819091047657758,-92.99105400873896
1589988647.6776893,-2.593109825395185,-1.9126676309536108,8.731112718256018,0.4977777777777778,-0.2,-0.7177777777777777,2.5694544891001136,6.930545510899886,-94.23894513896063
1589988647.6876893,-2.5600525567059194,-1.9631581443136015,8.793158144313601,0.4977777777777778,-0.2,-0.7177777777777777,2.8328953607840037,6.9365145617640085,-95.83026752548803
1589988647.6976893,-2.54,-2.0588756850302854,8.898500913373713,0.5079377410291745,-0.18128427822111123,-0.724729331581365,3.270709547158927,7.643367224305355,-98.68441496009999
1589988647.7076893,-2.524056674123788,-2.1006288839174743,8.908113348247577,0.5188888888888888,-0.16111111111111112,-0.7322222222222222,3.5625,8.0,-100.5
1589988647.7176893,-2.503041583966694,-2.1587089122331413,8.824332671733554,0.5188888888888888,-0.16111111111111112,-0.7322222222222222,3.6494802004163236,8.130470300624486,-101.63074260541221
1589988647.7276893,-2.5073239261050584,-2.2385914088404677,8.887887113260701,0.5188888888888888,-0.16111111111111112,-0.7322222222222222,3.138205542120615,8.1875,-104.73414867492707
1589988647.7376893,-2.4652109644087257,-2.279195300967689,8.888007831720518,0.5188888888888888,-0.16111111111111112,-0.7322222222222222,3.0174804206987043,8.1875,-106.6872552587338
1589988647.7476892,-2.44,-2.281866261803864,8.804930094430912,0.5342526165927014,-0.12947990701502665,-0.7566234368106303,2.2491261803863996,8.44167931862925,-108.52089659314625
1589988647.7576892,-2.410691629174528,-2.3444784158160386,8.795861674165094,0.5377777777777778,-0.12222222222222222,-0.7622222222222222,2.09913546353184,8.3168226823408,-109.61848019770048
1589988647.7676892,-2.3790014862856372,-2.411997027428726,8.739508174571004,0.5377777777777778,-0.12222222222222222,-0.7622222222222222,2.4687035535738415,8.737425685718145,-110.59994426428861
1589988647.7776892,-2.37,-2.43,8.69,0.5377777777777778,-0.12222222222222222,-0.7622222222222222,2.8839773918905425,9.142840869369818,-111.47340956756217
1589988647.7876892,-2.345253969219539,-2.498051584646268,8.727119046170692,0.5377777777777778,-0.12222222222222222,-0.7622222222222222,2.860168653811059,9.356994038566823,-112.26748509641706
1589988647.7976892,-2.3195005786117857,-2.560998842776429,8.755249710694107,0.551777006295397,-0.1327216436104367,-0.7773880531163098,2.976553459190851,9.762485534705363,-112.82186415102902
1589988647.8076892,-2.3152596264583645,-2.58,8.754740373541635,0.5644444444444444,-0.14222222222222222,-0.7911111111111111,2.8620186770817684,10.03287266536478,-113.06574533072956
1589988647.8176892,-2.2911493128698965,-2.6377013742602067,8.726919450295918,0.5644444444444444,-0.14222222222222222,-0.7911111111111111,2.4086198465242252,10.0625,-113.52169694803892
1589988647.8276892,-2.238317582250973,-2.6863364835498054,8.76702835194825,0.5644444444444444,-0.14222222222222222,-0.7911111111111111,2.131190933441148,10.022896977813716,-113.89170604437257
1589988647.8376892,-2.208533288767261,-2.7301334893145874,8.81146671123274,0.5644444444444444,-0.14222222222222222,-0.7911111111111111,1.7758322191815163,9.820832636988447,-113.9375
1589988647.8476892,-2.2077428756476682,-2.7522571243523317,8.758056994818654,0.5893937104202648,-0.1310380685089234,-0.7893904720782959,1.1269632448186528,9.397142163212436,-114.08267891839378
1589988647.8576891,-2.1702128229152726,-2.829574354169455,8.970765627091419,0.5966666666666667,-0.12777777777777774,-0.7888888888888889,1.0497339713559095,8.914628229152724,-114.02553205728817
1589988647.8676891,-2.135077344076622,-2.887383983885067,8.668621489111018,0.5966666666666667,-0.12777777777777774,-0.7888888888888889,2.2307494964083463,8.734616700239444,-113.45481690167611
1589988647.8776891,-2.1328624621829184,-2.9614498487316734,8.700818012566907,0.5966666666666667,-0.12777777777777774,-0.7888888888888889,2.013010530602746,8.486524028391901,-113.00441441703514
1589988647.887689,-2.128244498583794,-2.9958777507081034,8.76358924079466,0.5966666666666667,-0.12777777777777774,-0.7888888888888889,2.4918704319923943,8.338264058074357,-112.12930927763583
1589988647.897689,-2.099036013095671,-3.0628919607129865,8.772891960712988,0.5399862576290368,-0.15262398447920456,-0.7803480053352734,2.7070753001091306,8.181475081847944,-110.86370043652238
1589988647.907689,-2.085005501760563,-3.0908324163732392,8.8,0.5155555555555555,-0.16333333333333333,-0.7766666666666666,2.5260130116637325,8.135405204665492,-110.45844795334507
1589988647.917689,-2.009192691564713,-3.106935769478429,8.747981728911784,0.5155555555555555,-0.16333333333333333,-0.7766666666666666,2.8125,8.184977161139729,-108.87901440759819
1589988647.927689,-1.9799289465554526,-3.134893419833179,8.70460920605499,0.5155555555555555,-0.16333333333333333,-0.7766666666666666,2.688388168056843,7.876332252085264,-107.41091288229842
1589988647.937689,-1.9701920483492332,-3.19753908396184,8.787731132311073,0.5155555555555555,-0.16333333333333333,-0.7766666666666666,2.5625,7.5389403626192495,-106.05672169222316
1589988647.947689,-1.9347284705323757,-3.2647284705323756,8.83,0.5126269280735422,-0.11940392110313175,-0.7186798425228005,2.4636588224820466,7.213658822482047,-104.27516469820168
1589988647.957689,-1.8803372556507627,-3.26,8.817584313912691,0.51,-0.08,-0.6666666666666666,2.7629901902284173,7.047401961954317,-102.38343139126907
1589988647.967689,-1.802248151994624,-3.2334711955525686,8.672050216873359,0.51,-0.08,-0.6666666666666666,2.7678729610849775,6.568906927729245,-100.66333083878062
1589988647.977689,-1.76,-3.2618513435621552,8.627777015343232,0.51,-0.08,-0.6666666666666666,2.465278730820959,6.446756717810776,-98.51621641094611
1589988647.987689,-1.7445168045009412,-3.304838934833647,8.68451680450094,0.51,-0.08,-0.6666666666666666,2.6653099156073523,6.622986685420589,-96.08674702299118
1589988647.997689,-1.7978799158439878,-3.417247127366888,9.064937692183202,0.5161709014403625,-0.017605329880778987,-0.6447256837675999,3.0146362680045313,7.333862680045315,-93.24050210390031
1589988648.007689,-1.6075922634360822,-3.10265377239347,8.612776790308247,0.52,0.021111111111111112,-0.6311111111111111,7.596211527667337,14.238926048926515,-88.62215404134899
1589988648.017689,-1.29275651126147,-2.8856891278153673,7.335615441653536,0.52,0.021111111111111112,-0.6311111111111111,7.166329710816573,-0.034647557697656595,-88.14332885346185
1589988648.027689,-1.6034578436509719,-3.4766828854455176,9.764204905556802,0.52,0.021111111111111112,-0.6311111111111111,-6.682863612545848,1.1789835816054097,-87.0482539860768
1589988648.037689,-1.5787634377190933,-3.429395740827296,9.923821862584715,0.52,0.021111111111111112,-0.6311111111111111,-3.9497646573381626,4.933606530439355,-84.02359451682636
1589988648.047689,-1.3214718503261242,-3.041774802608994,8.438442327497425,0.5258874013044971,0.033049452645230196,-0.6281674104588625,6.065750514933058,5.119856033299005,-80.42045893408857
1589988648.057689,-1.3755814113597247,-3.24294578313253,8.332403270223752,0.56,0.10222222222222224,-0.6111111111111112,1.7630808950086059,5.4408907056798625,-76.5402129948365
1589988648.067689,-1.4866334973573903,-3.49663349735739,9.199731729542554,0.56,0.10222222222222224,-0.6111111111111112,0.030100692546017882,2.454132494988154,-74.79859896118097
1589988648.077689,-1.5922973758672818,-3.681447730532191,9.391062056668863,0.56,0.10222222222222224,-0.6111111111111112,2.4843138299934107,4.463562056668863,-70.10316533586573
1589988648.087689,-1.4729396202925615,-3.6393837535014004,8.935108932461874,0.56,0.10222222222222224,-0.6111111111111112,2.728096794273265,4.1240371148459385,-66.82798397136632
1589988648.097689,-1.3770863551698174,-3.522327903935323,8.619509372646931,0.5545632042695412,0.12850006825277305,-0.6170009731524415,2.7712296397574603,3.699030040026949,-63.24638618079499
1589988648.107689,-1.4132679485191504,-3.6345751279268104,8.84372538378043,0.5466666666666666,0.16666666666666666,-0.6255555555555555,3.233047274771282,3.654207532175531,-59.45608573034579
1589988648.117689,-1.3411425132617127,-3.572571657825525,8.563427539785136,0.5466666666666666,0.16666666666666666,-0.6255555555555555,3.0,3.3339221236571124,-55.582105603352204
1589988648.127689,-1.3364044488358542,-3.6120222441792706,8.677302323224646,0.5466666666666666,0.16666666666666666,-0.6255555555555555,2.319527311190494,3.1650278052240886,-52.13344290745104
1589988648.1376889,-1.3576213607645173,-3.6696480617201637,8.861322824395975,0.5466666666666666,0.16666666666666666,-0.6255555555555555,2.047633504778233,2.9947663666380926,-49.30559755691018
1589988648.1476889,-1.3850413844996237,-3.750248306997743,9.058058690744922,0.552268204999582,0.1784298971657888,-0.620234094139286,2.092974040632054,2.702737020316027,-46.44601203912716
1589988648.1576889,-1.2959886360816812,-3.6538744014093245,8.78921172121182,0.5688888888888889,0.21333333333333332,-0.6044444444444445,1.6756429422127386,2.3572144133191077,-42.198501042106045
1589988648.1676888,-1.2660426876450863,-3.622274954862007,8.639455119938097,0.5688888888888889,0.21333333333333332,-0.6044444444444445,1.6261848723239618,2.1875,-39.093008447253034
1589988648.1776888,-1.2946385845778403,-3.6842048860712486,8.7431929228892,0.5688888888888889,0.21333333333333332,-0.6044444444444445,1.5606929228892013,2.0289911536115017,-35.69390268972652
1589988648.1876888,-1.2836619306554407,-3.657323861310881,8.712218031924223,0.5688888888888889,0.21333333333333332,-0.6044444444444445,1.4801935332982519,1.8963467666491258,-32.82592783429808
1589988648.1976888,-1.3081856984154827,-3.7063713968309653,8.877753464304508,0.5688888888888889,0.21333333333333332,-0.6044444444444445,1.5568303075483834,1.9346651537741917,-30.718416542419458
1589988648.2076888,-1.2640679691049523,-3.614407814629714,8.690679691049523,0.59,0.23777777777777775,-0.6177777777777778,1.4491503861880963,1.412075193094048,-26.739379827351204
1589988648.2176888,-1.2793130395274874,-3.705878237164925,8.843130395274875,0.59,0.23777777777777775,-0.6177777777777778,1.2585870059064062,1.3167935029532032,-24.357337573830076
1589988648.2276888,-1.2229923700524559,-3.61,8.654577968526466,0.59,0.23777777777777775,-0.6177777777777778,1.1892584644730568,1.1285169289461134,-19.929989270386265
1589988648.2376888,-1.17,-3.619826410591511,8.708734587192453,0.59,0.23777777777777775,-0.6177777777777778,0.9931761037558953,0.75,-16.97239012159782
1589988648.2476888,-1.1677701962766405,-3.704459607446719,8.759931766489764,0.5942118514774567,0.24174187328597233,-0.6222373852244967,0.7981372672900345,0.6942549069160138,-12.96281378990818
1589988648.2576888,-1.167406537770114,-3.716296731114943,8.697406537770114,0.6088888888888889,0.25555555555555554,-0.6377777777777778,0.3240727152658033,0.41899099313937704,-9.893582382507246
1589988648.2676888,-1.1894592429044548,-3.703513585698515,8.67378262882376,0.6088888888888889,0.25555555555555554,-0.6377777777777778,0.19932071507424948,-0.003379731847156439,-6.511804022292654
1589988648.2776887,-1.1680808186279628,-3.7138383627440743,8.610302808812781,0.6088888888888889,0.25555555555555554,-0.6377777777777778,-0.125,-0.13699488357523232,-4.279673958442101
1589988648.2876887,-1.140250585331899,-3.6944510535974184,8.720751755995696,0.6088888888888889,0.25555555555555554,-0.6377777777777778,-0.05093969499462128,-0.1875,-1.7231498766057078
1589988648.2976887,-1.1446133766459772,-3.632308138523116,8.65307558443065,0.6862348292953317,0.2692299759589045,-0.6458969648922662,-0.05768533557630953,-0.40383360403735713,0.16342667788154763
1589988648.3076887,-1.1465499859326644,-3.658872737503517,8.68028181562412,0.81,0.2911111111111111,-0.6588888888888889,-0.09815336912688738,-0.689261347650755,1.9146024805401858
1589988648.3176887,-1.1428913231478812,-3.7096166042087058,8.713274718939175,0.81,0.2911111111111111,-0.6588888888888889,-0.23801888152205247,-0.6851037763044105,3.351037763044105
1589988648.3276887,-1.1760886780617845,-3.7080443390308924,8.740073898384821,0.81,0.2911111111111111,-0.6588888888888889,-0.38814661086717894,-0.7001847459620512,4.5479677944174375
1589988648.3376887,-1.1379549500454131,-3.681819800181653,8.720225249772934,0.81,0.2911111111111111,-0.6588888888888889,-0.2016893732970027,-0.6761262488646684,5.732883742052679
1589988648.3476887,-1.1303358764759308,-3.6513435059037236,8.758320617620345,0.81,0.2911111111111111,-0.6588888888888889,-0.48740463215258856,-0.8666030881017257,7.06622161671208
1589988648.3576887,-1.1258853001102243,-3.601983700190387,8.789573800060122,1.5233333333333334,0.3111111111111111,-1.1588888888888889,-0.6032787501252547,-0.9565575002505093,9.195902501753565
1589988648.3676887,-1.20491156431891,-3.7545578215945494,8.76614966385417,1.5233333333333334,0.3111111111111111,-1.1588888888888889,-0.5954081690204395,-1.0022108920272526,11.173129201822858
1589988648.3776886,-1.21,-3.798006036684467,8.681993963315533,1.5233333333333334,0.3111111111111111,-1.1588888888888889,-0.44373113536104014,-1.0156721615973996,12.731495240306478
1589988648.3876886,-1.1986361184865582,-3.7896963159641555,8.71681940756721,1.5233333333333334,0.3111111111111111,-1.1588888888888889,-0.39867475315300366,-1.2821990126120146,14.358917347743112
1589988648.3976886,-1.1821226598718901,-3.7569812789751214,8.79938670064055,1.3943227833417875,0.22431790746049163,-1.0853033466633637,-0.42423337580068654,-1.4507666241993133,15.94723210178009
1589988648.4076886,-1.1895443606893867,-3.8163548855150933,8.762278196553066,0.9432483003228306,-0.07914719263270059,-0.8280177183234831,-0.3778477456913331,-1.4971522543086668,17.29241537495134
1589988648.4176886,-1.191357876132817,-3.7535184070996124,8.717592035498063,0.9155555555555556,-0.09777777777777777,-0.8122222222222222,-0.5439800887451585,-1.7905099556274207,19.413586282104312
1589988648.4276886,-1.1605368159024496,-3.7308052238536744,8.60125257043905,0.9155555555555556,-0.09777777777777777,-0.8122222222222222,-0.25111836646343666,-1.9386183664634367,20.698683664634366
1589988648.4376886,-1.2170808455704374,-3.799565918993061,8.737080845570437,0.9155555555555556,-0.09777777777777777,-0.8122222222222222,-0.39324471518476684,-2.0625,22.33888373406487
1589988648.4476886,-1.2027703583635787,-3.7451802389090525,8.754098805454738,0.8550407774136588,-0.02815900646409121,-0.7825003621613791,-0.5278705204552663,-2.0625,23.523364547728953
1589988648.4576886,-1.1893403222852956,-3.7113193554294086,8.769287905145578,0.6644444444444444,0.19111111111111112,-0.6888888888888889,-0.7541229857169016,-2.091688507141549,24.771270142830982
1589988648.4676886,-1.213161991205587,-3.7250986432148987,8.717549321607448,0.6644444444444444,0.19111111111111112,-0.6888888888888889,-0.9068665200931173,-2.262104075058198,25.766549780139677
1589988648.4776886,-1.2433700737891369,-3.7532874077635787,8.689862223290737,0.6644444444444444,0.19111111111111112,-0.6888888888888889,-0.9577018567492094,-2.3748277791134207,26.41729814325079
1589988648.4876885,-1.2754599733615029,-3.72955495338263,8.625489826849767,0.6644444444444444,0.19111111111111112,-0.6888888888888889,-0.6194369172828733,-2.25,26.88353120837735
1589988648.4976885,-1.3134978915419946,-3.7771743976793535,8.832510542290027,0.6565418005903085,0.1961636211162144,-0.6925163319694758,-1.3094145335876017,-2.25,26.9375
1589988648.5076885,-1.3371464144996061,-3.688560756501182,8.739950197005516,0.5966666666666667,0.2344444444444445,-0.72,-0.8303349093774626,-2.3035047281323875,26.901830181245074
1589988648.5176885,-1.2904397183503378,-3.7416482253197296,8.705495042391147,0.5966666666666667,0.2344444444444445,-0.72,-0.7019237677827274,-2.289148943813766,26.664148943813768
1589988648.5276885,-1.2497837153482974,-3.8097837153482974,8.589026719067338,0.5966666666666667,0.2344444444444445,-0.72,-0.5405401841057157,-2.1243241104634296,25.881083005829137
1589988648.5376885,-1.3000307437147307,-3.80318986266459,8.746594931332295,0.5966666666666667,0.2344444444444445,-0.72,-0.75,-2.2082052345219556,24.20666804878542
1589988648.5476885,-1.3180639146090536,-3.717744341563786,8.696127829218106,0.5977422696616369,0.23207811785550989,-0.7251628943758573,-0.6773967978395061,-2.0523967978395063,22.919290927211936
1589988648.5576885,-1.307128995813119,-3.741386987439357,8.700097029308168,0.6022222222222222,0.2222222222222222,-0.7466666666666667,-0.3929437761680069,-1.7141124476639862,21.8112871336479
1589988648.5676885,-1.2772104980067076,-3.674652597608049,8.776515693222805,0.6022222222222222,0.2222222222222222,-0.7466666666666667,-0.4040787350503069,-1.531973754983231,19.768946165285072
1589988648.5776885,-1.2440340441688287,-3.6348408530025944,8.663715750174019,0.6022222222222222,0.2222222222222222,-0.7466666666666667,-0.15525533126621527,-1.6149148895779282,18.35894687717522
1589988648.5876884,-1.19344854781744,-3.7048703837053805,8.61866457497514,0.6022222222222222,0.2222222222222222,-0.7466666666666667,-0.07246661008812537,-1.1974666100881253,14.98355257518088
1589988648.5976884,-1.2509776086136544,-3.640150190309639,8.784060624764257,0.6022222222222222,0.2222222222222222,-0.7466666666666667,0.15225628364708704,-0.9727437163529129,11.972265799129033
1589988648.6076884,-1.215900936943448,-3.372950468471724,8.796554216245514,0.5188888888888888,0.15555555555555556,-0.6444444444444445,-0.06559572051725471,-0.6946787161551764,5.521670043620783
1589988648.6176884,-0.1535494134022668,-4.26007108769139,5.674288128852654,0.5188888888888888,0.15555555555555556,-0.6444444444444445,-35.53699169815073,34.09939072131636,-119.52689712169418
1589988648.6276884,1.4975187045558327,-5.444102708208929,-0.05211739084618355,0.5188888888888888,0.15555555555555556,-0.6444444444444445,-89.69282816396782,41.562728318521906,-455.7256533422319
1589988648.6376884,0.8983833949009872,-4.5746829770483854,-0.4112384182159511,0.5188888888888888,0.15555555555555556,-0.6444444444444445,-68.59403954460123,-88.74497176467025,-760.133111033731
1589988648.6476884,-0.03866534938027655,-5.076716364289563,1.4496658882701636,0.520169251342235,0.18756461688920822,-0.646236951879129,-80.38841611280762,-37.08387596551105,-740.3963198311478
1589988648.6576884,-1.1559188213295506,-5.112803211038751,4.703678831646141,0.5244444444444445,0.29444444444444445,-0.6522222222222223,-68.65546215100909,15.548034608936746,-710.0156562318654
1589988648.6676884,-0.4834701398938736,-3.927823058369513,1.4681744331886153,0.5244444444444445,0.29444444444444445,-0.6522222222222223,-11.686786058851906,104.59114568258562,-654.3610552339604
1589988648.6776884,-0.9875557487868503,-4.313344927211018,3.5769041541611735,0.5244444444444445,0.29444444444444445,-0.6522222222222223,23.238035048105242,152.83365824240553,-613.9744975596758
1589988648.6876884,0.4755664273460829,-2.4457487769235655,6.46636762183112,0.5244444444444445,0.29444444444444445,-0.6522222222222223,83.06275811677997,194.73544618463688,-564.852178505623
1589988648.6976883,3.0953329184816427,0.16355631611698818,10.43499377722464,0.47453847749429584,0.3592100532393003,-0.6401662863859504,161.56049704418172,150.08112943372743,-519.5714257934038
1589988648.7076883,0.955724572218089,-1.2427853650759912,-0.23422760123286215,0.32666666666666666,0.5511111111111111,-0.6044444444444445,155.95681329046658,6.102038274524391,-460.11451303273464
1589988648.7176883,-0.0293410897362055,-1.5701797027992166,1.1555707867757172,0.32666666666666666,0.5511111111111111,-0.6044444444444445,5.2915217140882405,0.5003873401681833,-415.6762599354913
1589988648.7276883,0.057699542238868085,-1.2716554307116104,6.044362879733667,0.32666666666666666,0.5511111111111111,-0.6044444444444445,-20.639060549313356,43.10743341656263,-388.47623283395757
1589988648.7376883,-0.7408652706440142,-0.5380012550259139,9.877703767401863,0.32666666666666666,0.5511111111111111,-0.6044444444444445,-8.542714458363353,85.9498744974086,-365.27308579496594
1589988648.7476883,-1.1901790965573662,-0.9554076104981537,8.796691578039667,0.2858186481526522,0.5605706522406724,-0.6057343818712028,10.648962456055012,50.908851460410816,-343.53581240188385
1589988648.7576883,1.3627126944254142,-2.068551165918145,10.009648575270862,0.11555555555555555,0.6,-0.6111111111111112,13.406828042932176,-26.367871596762324,-318.72460734312756
1589988648.7676883,3.192070920310609,-4.278291357878886,8.892099560069681,0.11555555555555555,0.6,-0.6111111111111112,12.108939959845287,-7.801791461218222,-293.37983295934333
1589988648.7776883,9.179528694158076,-11.753514776632302,5.488458762886598,0.11555555555555555,0.6,-0.6111111111111112,11.11597186426117,28.846876073883163,-270.9119115120275
1589988648.7876883,12.127069415807561,-15.15507766323024,9.163876288659793,0.11555555555555555,0.6,-0.6111111111111112,-5.0540635738831625,33.66635738831615,-251.27365120274914
1589988648.7976882,-1.666503588723625,1.6007413092355587,11.144042070217917,0.09209635266535993,0.6017249413889849,-0.6121460759445021,-8.657430927879627,39.796154823158076,-202.20821758258387
1589988648.8076882,0.8970420185590658,0.1700646439370243,7.909326451881973,-0.03555555555555556,0.6111111111111112,-0.6177777777777778,14.969861067667605,10.979929100198103,-177.7693280158482
1589988648.8176882,1.0838637615386308,-0.3350635588552797,8.635917692934724,-0.03555555555555556,0.6111111111111112,-0.6177777777777778,6.795881892886254,0.8053826749796213,-151.3963203057875
1589988648.8276882,3.7858391087838186,-2.3713316905385287,10.96427280661225,-0.03555555555555556,0.6111111111111112,-0.6177777777777778,-3.0453469120591405,11.756067431592998,-131.73670362954977
1589988648.8376882,6.557181732390662,-4.093669611225421,9.692886337969338,-0.03555555555555556,0.6111111111111112,-0.6177777777777778,-3.1935663840715356,17.79456674762914,-117.69582798310617
1589988648.8476882,1.9176846795278397,-0.6026914092111575,10.023815498383328,-0.03555555555555556,0.6111111111111112,-0.6177777777777778,-0.5169334689583684,8.994122163090395,-114.85697489131948
1589988648.8576882,1.100864018287409,-0.1669436550105029,8.42765074755962,-0.10666666666666667,0.6022222222222222,-0.6177777777777778,8.45405172680094,5.805499351291239,-104.72804815890275
1589988648.8676882,3.7223160990066915,-1.7536740836787146,9.458770288730927,-0.10666666666666667,0.6022222222222222,-0.6177777777777778,3.6269449396837157,3.1577470536479195,-88.00598821459168
1589988648.8776882,2.9810622443296397,-1.4814571049952947,9.736124181374715,-0.10666666666666667,0.6022222222222222,-0.6177777777777778,0.06496787916034485,3.8683609729397532,-82.81265484261269
1589988648.8876882,1.985501828123456,-0.8736374715899733,8.277379360321486,-0.10666666666666667,0.6022222222222222,-0.6177777777777778,2.5741934022859776,10.299095820020423,-81.56954898053296
1589988648.8976882,3.3532534009684114,-1.7025778187687342,8.705665206363847,-0.10666666666666667,0.6022222222222222,-0.6177777777777778,1.3221480862347246,6.888351683191146,-77.12262940973022
1589988648.9076881,2.931402706247401,-1.3700594990563322,8.488984677393557,-0.16,0.5822222222222222,-0.6322222222222222,0.9436558331467324,3.303543152810211,-72.51996297303349
1589988648.9176881,3.680354822499013,-1.8588231810187015,9.22187461861517,-0.16,0.5822222222222222,-0.6322222222222222,2.845579525467533,6.446296528949352,-70.90438345776948
1589988648.9276881,3.883603503356187,-1.821184536415521,8.386296708424567,-0.16,0.5822222222222222,-0.6322222222222222,1.9046134103880252,3.529301572202879,-67.84624358376108
1589988648.937688,3.4462449648392166,-1.5888775858537585,8.757530552331534,-0.16,0.5822222222222222,-0.6322222222222222,3.030612070731208,5.228698709633372,-66.70994913634192
1589988648.947688,3.66,-1.6339782594286472,8.815432491549016,-0.16420671218046443,0.5799786423926412,-0.6303993136106877,2.4211241466162923,4.757286902631405,-64.79552346390932
1589988648.957688,3.653497662381032,-1.731725455000835,9.006455585239607,-0.19333333333333333,0.5644444444444444,-0.6177777777777778,1.6718019494072467,4.232761364585072,-64.17825649106696
1589988648.967688,3.6021864614308203,-1.5921007521427324,8.796216547140109,-0.19333333333333333,0.5644444444444444,-0.6177777777777778,1.3156485044603814,3.9768891026762287,-65.10818611159699
1589988648.977688,3.4925990983625703,-1.5891336338791433,8.948267267758286,-0.19333333333333333,0.5644444444444444,-0.6177777777777778,1.6219254397234355,4.175936091191516,-65.79244674265959
1589988648.987688,3.660872911763571,-1.508548169296655,8.816680234576951,-0.19333333333333333,0.5644444444444444,-0.6177777777777778,2.0417514661059455,4.5059644951579925,-66.20564788379181
1589988648.997688,3.3291349974921873,-1.4114541456074694,8.873318415062311,-0.19333333333333333,0.5644444444444444,-0.6177777777777778,2.3957400941394345,4.556534299162776,-67.41932317990663
1589988649.007688,3.5319678740836564,-1.39,8.794417636912462,-0.20555555555555555,0.5644444444444444,-0.6466666666666666,2.014307082794308,5.12801180465718,-68.08408662138854
1589988649.017688,3.525327172526653,-1.3832279257815319,8.70693018554617,-0.20555555555555555,0.5644444444444444,-0.6466666666666666,1.6612594156859914,4.424379707842996,-69.19850702717012
1589988649.027688,3.452029174831265,-1.3410603091661224,8.849954278249509,-0.20555555555555555,0.5644444444444444,-0.6466666666666666,2.4236746135423473,4.833238079686479,-71.3260396255171
1589988649.037688,3.788543346438329,-1.4273294684702693,8.926843917283046,-0.20555555555555555,0.5644444444444444,-0.6466666666666666,2.3079479576197772,5.015173474600742,-71.97088164412163
1589988649.047688,3.732645432131672,-1.3248499589080651,8.805731769618623,-0.20555555555555555,0.5644444444444444,-0.6466666666666666,2.1332669754114746,5.597443415295085,-73.25187551364918
1589988649.057688,3.7806599049128367,-1.286226730058109,8.943536397253038,-0.24026697188472151,0.5306711745025533,-0.6166459822738746,2.01945853143159,5.941624405705229,-74.68453909138933
1589988649.067688,3.5284627855563744,-1.1435261606484892,8.972242446573324,-0.2466666666666667,0.5244444444444445,-0.6111111111111112,2.0528924097273396,5.317699889462049,-76.94032332350774
1589988649.077688,3.65396234973917,-1.1814674529371738,8.874654116579723,-0.2466666666666667,0.5244444444444445,-0.6111111111111112,2.764544114311635,4.601284304831028,-78.71711272397368
1589988649.087688,3.796657972329326,-1.0942645724654116,8.922219324109776,-0.2466666666666667,0.5244444444444445,-0.6111111111111112,2.9131853878430483,4.997661034248129,-79.65850745633931
1589988649.097688,3.7111116858931252,-1.0074077905954166,8.920925973824428,-0.2466666666666667,0.5244444444444445,-0.6111111111111112,2.6539366820133465,5.572913972375977,-81.74073056230924
1589988649.107688,3.435214855328833,-0.93456445659865,9.001521485532884,-0.27555555555555555,0.52,-0.6322222222222222,2.851916438775315,6.3125,-85.39938995238187
1589988649.117688,3.5154255990514622,-0.9586276797154386,9.009542559905146,-0.27555555555555555,0.52,-0.6322222222222222,2.400731005335526,6.3125,-87.50492197510087
1589988649.127688,3.527280307771601,-0.9163181533703936,8.87167415233958,-0.27555555555555555,0.52,-0.6322222222222222,2.693513465007547,6.084990382137466,-89.76359040790781
1589988649.137688,3.6076319943869497,-0.8495983160848973,8.847230310471847,-0.27555555555555555,0.52,-0.6322222222222222,3.234936853183652,6.4076368181020875,-95.55575776179617
1589988649.147688,3.76294919020055,-0.84142372683155,8.994372917032099,-0.27555555555555555,0.52,-0.6322222222222222,2.9283897561831256,7.071822194936561,-99.23432292580249
1589988649.157688,3.597653617443013,-0.9166295011562604,9.071899405351834,-0.30666666666666664,0.4988888888888889,-0.6255555555555555,3.152932978196234,7.652932978196234,-105.6172024694417
1589988649.167688,3.493731417244797,-1.5055219689461512,8.801701684836472,-0.30666666666666664,0.4988888888888889,-0.6255555555555555,3.282835728444004,7.782835728444004,-108.77816939213743
1589988649.177688,4.484932632638229,0.42718566556717164,10.096463353273327,-0.30666666666666664,0.4988888888888889,-0.6255555555555555,2.776314502152401,-5.894881757701124,-81.0959041482641
1589988649.1876879,4.5630955442500145,-0.9484815788002461,8.9787337172248,-0.30666666666666664,0.4988888888888889,-0.6255555555555555,4.876942751719126,-19.08487309218986,1.1705603231397106
1589988649.1976879,3.6702620358488223,-0.34104814339528916,9.057337003767024,-0.30689958742117535,0.4985006876313744,-0.6256817209642478,15.276723620482676,6.1746776296725585,0.9961657076623753
1589988649.2076879,3.6963060396572422,-0.44522415862896886,9.786569110402782,-0.3300498130286597,0.45991697828556705,-0.6382214265016352,-6.914937957941799,11.112186685018836,-11.808802831477418
1589988649.2176878,3.8949347071340576,-0.8229181319296673,9.162918131929667,-0.3333333333333333,0.4544444444444444,-0.64,-6.458147608914772,8.063834135961473,-0.6976943106730877
1589988649.2276878,3.372160671276513,-0.6102198741356538,8.942613109574497,-0.3333333333333333,0.4544444444444444,-0.64,-1.8872886074638076,3.1631607230725405,-1.2744979022608967
1589988649.2376878,3.8069735549748893,-0.5355788439799114,8.827894219899557,-0.3333333333333333,0.4544444444444444,-0.64,0.03634916884416523,-0.5639813939697189,0.0625
1589988649.2476878,3.8458377346602175,-0.566670187728174,8.98335093864087,-0.3333333333333333,0.4544444444444444,-0.64,-0.10939150497581587,-0.22391982172309632,0.0625
1589988649.2576878,3.8070000789920613,-0.5635384493858367,8.940692167937122,-0.35,0.4744444444444445,-0.6177777777777778,-0.08461530866147952,0.20240358031517833,-0.0625
1589988649.2676878,3.7007915902356427,-0.5798603076054748,9.12827712713419,-0.35,0.4744444444444445,-0.6177777777777778,-0.1875,0.5604628192465076,-0.06133589671229011
1589988649.2776878,3.826555488923381,-0.5576666784252857,8.854555700578524,-0.35,0.4744444444444445,-0.6177777777777778,-0.1875,0.23680572703541697,0.12361101312261888
1589988649.2876878,3.734343345215826,-0.5403102389439877,9.031313309568347,-0.35,0.4744444444444445,-0.6177777777777778,0.11530503300038825,-0.5411710726008542,0.005816980199767036
1589988649.2976878,3.854240590584533,-0.54,8.866063173181653,-0.35,0.4744444444444445,-0.6177777777777778,0.02146617451288879,-0.5107330872564444,-0.051766912743555604
1589988649.3076878,3.761211840352198,-0.5404039467840661,9.037374345903569,-0.3422222222222222,0.4622222222222222,-0.6533333333333333,-0.0637623337002066,-0.17992599779876034,0.12247533259958679
1589988649.3176877,3.809804784799861,-0.5566015949332871,8.932089632933634,-0.3422222222222222,0.4622222222222222,-0.6533333333333333,-0.11437998416652184,0.12377990499913111,0.021240031666956316
1589988649.3276877,3.7614407080904306,-0.5790395279397127,8.988079055879426,-0.3422222222222222,0.4622222222222222,-0.6533333333333333,-0.0625,0.1814970496232049,-0.1814970496232049
1589988649.3376877,3.783804741930897,-0.5641301720460685,8.958260344092137,-0.3422222222222222,0.4622222222222222,-0.6533333333333333,-0.0625,0.08831357528792834,-0.08831357528792834
1589988649.3476877,3.79,-0.552134668257509,8.95,-0.3422222222222222,0.4622222222222222,-0.6533333333333333,-0.20997497017170721,-0.23244994034341443,-0.013341676609430926
1589988649.3576877,3.830855988689154,-0.55,8.990855988689153,-0.34751836890414955,0.4622222222222222,-0.6487937790345384,-0.16488335689759645,-0.26994167844879824,0.042558321551201775
1589988649.3676877,3.779626580741983,-0.5403734192580169,8.999502107655978,-0.35,0.4622222222222222,-0.6466666666666666,-0.0007779567875350357,0.24844408642492993,-0.0007779567875350357
1589988649.3776877,3.751856502835956,-0.568143497164044,8.96247533711461,-0.35,0.4622222222222222,-0.6466666666666666,-0.05863228575842511,0.1327354284831498,-0.05863228575842511
1589988649.3876877,3.798213134878011,-0.5695532837195028,8.896254027926961,-0.35,0.4622222222222222,-0.6466666666666666,0.12220802324689274,-0.26116790701242903,0.11383209298757097
1589988649.3976877,3.7660334509743745,-0.5615083627435937,9.008882921589688,-0.35,0.4622222222222222,-0.6466666666666666,0.07192726714746048,-0.4622909314101581,-0.08729093141015806
1589988649.4076877,3.7706124016902205,-0.56,8.99,-0.33555555555555555,0.4666666666666667,-0.6533333333333333,-0.0038275105638786115,-0.4068799154889711,-0.11351746830836416
1589988649.4176877,3.779092416247144,-0.56,8.99,-0.33555555555555555,0.4666666666666667,-0.6533333333333333,-0.05682760154465134,0.017120812357210746,0.045482804633954016
1589988649.4276876,3.7897726487855414,-0.5601818809715667,8.860727523886267,-0.33555555555555555,0.4666666666666667,-0.6533333333333333,-0.06193162196385404,0.437215810981927,-0.062215810981927015
1589988649.4376876,3.749537239553356,-0.5923702083573155,8.989480833429262,-0.33555555555555555,0.4666666666666667,-0.6533333333333333,0.038656901116611034,0.3869215494416945,-0.011921549441694483
1589988649.4476876,3.767859418801038,-0.5888562324795849,8.992140581198962,-0.33555555555555555,0.4666666666666667,-0.6533333333333333,0.0625,0.16605435899221704,0.0
1589988649.4576876,3.7965157853196527,-0.5734842146803473,8.976515785319654,-0.33555555555555555,0.46377076208015433,-0.6446456195737964,-0.059670974743488564,0.0,0.0
1589988649.4676876,3.8,-0.5505733617537204,8.967048907835814,-0.33555555555555555,0.4622222222222222,-0.64,-0.125,-0.0404721630130825,0.080944326026165
1589988649.4776876,3.7820884346100563,-0.5489557826949718,8.924176869220114,-0.33555555555555555,0.4622222222222222,-0.64,-0.06902635815642669,0.10542092553071997,0.1809736418435733
1589988649.4876876,3.7942910849530063,-0.5571455424765034,8.955727712382517,-0.33555555555555555,0.4622222222222222,-0.64,-0.0625,0.03568071904370837,0.05352107856556254
1589988649.4976876,3.778425657570952,-0.5528085525236507,8.984382894952699,-0.33555555555555555,0.4622222222222222,-0.64,-0.1523930934543665,-0.13483964018154973,0.0
1589988649.5076876,3.790801059614248,-0.5430663134619174,8.976132626923835,-0.33555555555555555,0.4622222222222222,-0.64,-0.10082891827396721,-0.1875,0.08667108172603279
1589988649.5176876,3.79036522278935,-0.578539108842599,8.931460891157402,-0.33555555555555555,0.4622222222222222,-0.64,-0.0022826424334390985,-0.1272826424334391,-0.1158694302662436
1589988649.5276875,3.79,-0.5549270207285661,8.904927020728566,-0.33555555555555555,0.4622222222222222,-0.64,-0.05223537348215381,0.08394149392861525,0.08394149392861525
1589988649.5376875,3.76,-0.5601822738254066,8.951822738254064,-0.33555555555555555,0.4622222222222222,-0.64,0.06022157718241806,0.30680394295604513,0.002278422817581942
1589988649.5476875,3.76,-0.567744203656294,9.02744203656294,-0.33555555555555555,0.4622222222222222,-0.64,-0.03430254570367432,0.07049363574081419,0.09680254570367432
1589988649.5576875,3.7887852508721025,-0.5795950836240341,8.992429498255795,-0.33555555555555555,0.4547593794035289,-0.6602562876507387,-0.12246927265021354,0.0,0.00506145469957292
1589988649.5676875,3.79,-0.5533748364587876,8.99,-0.33555555555555555,0.4544444444444444,-0.6611111111111111,-0.18046909071085915,-0.22187636284343656,-0.11093818142171828
1589988649.5776875,3.8297578901859057,-0.55,8.870726329442283,-0.33555555555555555,0.4544444444444444,-0.6611111111111111,-0.0011348897535667923,-0.06363488975356679,-0.06287829658452226
1589988649.5876875,3.779364000485496,-0.5584393332524175,8.988150665533842,-0.33555555555555555,0.4544444444444444,-0.6611111111111111,0.0,0.04299166565521706,-0.00975416717239147
1589988649.5976875,3.775506789368685,-0.5544932106313148,8.982466053156575,-0.33555555555555555,0.4544444444444444,-0.6611111111111111,0.0,-0.07516973421713108,0.13766973421713108
1589988649.6076875,3.7852506368949497,-0.5552506368949498,8.98625318447475,-0.33205513095892236,0.4544444444444444,-0.6459426045257006,-0.03281648059343623,-0.25313296118687245,0.1515505582196913
1589988649.6176875,3.801116555561886,-0.5655582777809431,8.982208611095285,-0.3288888888888889,0.4544444444444444,-0.6322222222222222,-0.0625,-0.3125,0.0625
1589988649.6276875,3.7735169674806337,-0.5481101804883803,8.908923754472887,-0.3288888888888889,0.4544444444444444,-0.6322222222222222,-0.016896209350792342,-0.175688628052377,0.0625
1589988649.6376874,3.7824316760750323,-0.5512158380375163,8.91803959509379,-0.3288888888888889,0.4544444444444444,-0.6322222222222222,-0.0700989877344762,0.12034645707066671,-0.007598987734476204
1589988649.6476874,3.7851385752412234,-0.569907616505851,8.979630466023403,-0.3288888888888889,0.4544444444444444,-0.6322222222222222,-0.032116095257647304,0.2196160952576473,0.030383904742352696
1589988649.6576874,3.77587631539143,-0.5564947384342791,8.99649473843428,-0.3210538017003152,0.4590149119711124,-0.6446277769374639,-0.047680913589316976,-0.13208879837507292,0.014819086410683024
1589988649.6676874,3.78,-0.54,8.948580853549585,-0.31555555555555553,0.4622222222222222,-0.6533333333333333,-0.125,-0.16522275101367603,-0.01340758367122534
1589988649.6776874,3.78,-0.5661385268706984,8.887722946258604,-0.31555555555555553,0.4622222222222222,-0.6533333333333333,-0.07054473568604482,-0.07054473568604482,0.16336579294186557
1589988649.6876874,3.789210308190792,-0.57,8.916841232763169,-0.31555555555555553,0.4622222222222222,-0.6533333333333333,-0.1200644261924497,-0.1776288523848994,0.07237114761510059
1589988649.6976874,3.775137045337011,-0.5551370453370109,8.994314773314946,-0.31555555555555553,0.4622222222222222,-0.6533333333333333,-0.07855326667815894,-0.001713066712635769,0.0625
1589988649.7076874,3.803945630836952,-0.566972815418476,9.011513592290761,-0.3221560948849629,0.46599395898188356,-0.6354175837249421,0.04358009636547498,-0.14966019273094996,0.0625
1589988649.7176874,3.79479118520964,-0.5547911852096402,9.01,-0.3233333333333333,0.4666666666666667,-0.6322222222222222,0.014972453780125454,-0.23502754621987454,-0.03255509243974909
1589988649.7276874,3.8062017946800557,-0.55,8.89658743723961,-0.3233333333333333,0.4666666666666667,-0.6322222222222222,-0.20252243350069438,-0.04747756649930562,0.03876121675034719
1589988649.7376873,3.792765394225774,-0.55,8.921703817322678,-0.3233333333333333,0.4666666666666667,-0.6322222222222222,-0.03456742782217165,0.2692907152222854,0.008641856955542912
1589988649.7476873,3.7829054291401585,-0.5712837125795246,8.972567425159049,-0.3233333333333333,0.4666666666666667,-0.6322222222222222,0.0,0.2681589321259904,0.0443410678740096
1589988649.7576873,3.7679407176287047,-0.5739703588143525,9.020148205928237,-0.34678193794418444,0.4666666666666667,-0.6322222222222222,0.037685257410296415,0.17462948517940718,-0.01287051482059283
1589988649.7676873,3.7804643667437077,-0.5546517249422191,8.978606899768875,-0.3622222222222222,0.4666666666666667,-0.6322222222222222,0.03052442696295668,-0.00290229214817328,-0.03052442696295668
1589988649.7776873,3.8,-0.5550671287996495,8.882332178000876,-0.3622222222222222,0.4666666666666667,-0.6322222222222222,-0.04708477749890442,-0.07791522250109559,0.04708477749890442
1589988649.7876873,3.7890178009184594,-0.56,8.89745549770385,-0.3622222222222222,0.4666666666666667,-0.6322222222222222,-0.09681937212981309,-0.028180627870186915,0.09681937212981309
1589988649.7976873,3.784218111133454,-0.5557818888665461,8.94109055566727,-0.3622222222222222,0.4666666666666667,-0.6322222222222222,-0.09863680541591259,-0.07908958375226222,0.045910416247737784
1589988649.8076873,3.79,-0.566879272627837,9.003758545255675,-0.35190711117187734,0.4666666666666667,-0.6322222222222222,-0.009752273038009296,0.023490907847962816,-0.009752273038009296
1589988649.8176873,3.7817940724478594,-0.5617940724478595,8.99358814489572,-0.35,0.4666666666666667,-0.6322222222222222,-0.10257409440175631,-0.24522228320526895,0.10257409440175631
1589988649.8276873,3.78,-0.5659531448314765,8.924515406853759,-0.35,0.4666666666666667,-0.6322222222222222,-0.125,-0.27529284480327176,0.08779284480327175
1589988649.8376873,3.7947155479770576,-0.57,8.902073321965586,-0.35,0.4666666666666667,-0.6322222222222222,-0.07901391257169432,-0.06605565028677726,0.10848608742830568
1589988649.8476872,3.7796270517951394,-0.5632090172650465,8.950745896409721,-0.35,0.4666666666666667,-0.6322222222222222,-0.02005635790654061,0.08488728418691878,0.08255635790654062
1589988649.8576872,3.785734906099643,-0.5521325469501785,9.009337265249107,-0.3386359011502578,0.45705089071688476,-0.6549504199217066,0.14751474468415335,0.07582841843861554,0.16084316312276892
1589988649.8676872,3.76517717278475,-0.566548551476833,9.028274275738417,-0.33555555555555555,0.4544444444444444,-0.6611111111111111,-0.07107111682551664,-0.09264267009530999,0.03235732990469001
1589988649.8776872,3.7831274767353844,-0.5622908410882052,8.922071775234873,-0.33555555555555555,0.4544444444444444,-0.6611111111111111,-0.17318224319871767,-0.17318224319871767,0.0
1589988649.8876872,3.79,-0.5680842314961434,8.922336925984574,-0.33555555555555555,0.4544444444444444,-0.6611111111111111,-0.08644710629820708,-0.1875,0.05052644685089646
1589988649.8976872,3.803228606544784,-0.563385696727608,8.95645721308957,-0.33555555555555555,0.4544444444444444,-0.6611111111111111,-0.021160604547549547,-0.022142418190198188,-0.020178790904900906
1589988649.9076872,3.78458819348635,-0.5701647226054601,8.99032944521092,-0.33555555555555555,0.45839739212434555,-0.6503816816942366,-0.06352951628412559,-0.06455903256825118,-0.0942647581420628
1589988649.9176872,3.7633408307636493,-0.5699775077090513,8.996636676945402,-0.33555555555555555,0.4622222222222222,-0.64,-0.10411980772719027,-0.1666198077271903,-0.125
1589988649.9276872,3.7739984712402066,-0.55,8.958004586279381,-0.33555555555555555,0.4622222222222222,-0.64,-0.050004777374355054,-0.16248566787693483,-0.10000955474871011
1589988649.9376872,3.79,-0.556387073237467,8.903612926762534,-0.33555555555555555,0.4622222222222222,-0.64,-0.07983841546833673,-0.15282316906332655,0.03991920773416836
1589988649.9476871,3.7961232430230187,-0.5538767569769811,8.936739458138113,-0.33555555555555555,0.4622222222222222,-0.64,-0.010189193318394782,0.014040537787736812,-0.014040537787736812
1589988649.9576871,3.784889035449299,-0.5575554822753505,8.990221929101402,-0.33555555555555555,0.4513087478244939,-0.64,0.015278235779060179,0.10972176422093982,-0.015278235779060179
1589988649.9676871,3.78,-0.5536866932387465,9.006313306761253,-0.33555555555555555,0.4477777777777778,-0.64,-0.0394581672578345,0.125,-0.078916334515669
1589988649.9776871,3.77437191513554,-0.5556280848644598,8.96497532108432,-0.33555555555555555,0.4477777777777778,-0.64,0.007851060805747212,-0.015702121611494424,-0.05464893919425279
1589988649.987687,3.7848011237616443,-0.5748011237616443,8.937400561880821,-0.33555555555555555,0.4477777777777778,-0.64,0.0625,-0.125,0.09250702351027651
1589988649.997687,3.784472196748645,-0.5689443934972905,8.95105560650271,-0.33555555555555555,0.4477777777777778,-0.64,0.027951229679032928,-0.19409754064193413,0.055902459358065856
1589988650.007687,3.786075374663506,-0.56,8.966075374663507,-0.3396058053312262,0.4565533189583975,-0.656876040731961,0.0,-0.17405781670617543,0.03797109164691229
1589988650.017687,3.79,-0.5655931231095505,8.96440687689045,-0.3422222222222222,0.4622222222222222,-0.6677777777777778,0.0699140388693808,0.049785097173452,-0.007414038869380801
1589988650.027687,3.7844340825226435,-0.5588681650452868,8.915472660181148,-0.3422222222222222,0.4622222222222222,-0.6677777777777778,0.1597869842334787,-0.021221905400872182,0.0766479369339148
1589988650.037687,3.7873862175366417,-0.55,8.909544870146567,-0.3422222222222222,0.4622222222222222,-0.6677777777777778,0.049008421187966056,-0.23366385960401131,0.09517228079197737
1589988650.047687,3.784348869880675,-0.5443488698806751,8.936953390357974,-0.3422222222222222,0.4622222222222222,-0.6677777777777778,0.0,-0.1087217470168762,-0.008139126491561899
1589988650.057687,3.783613969828477,-0.5472279396569539,8.975297788799338,-0.3422222222222222,0.45941135680007344,-0.6549281072765264,0.022587311427980986,0.04517462285596197,-0.03991268857201902
1589988650.067687,3.79,-0.56,9.02,-0.3422222222222222,0.4544444444444444,-0.6322222222222222,0.0625,0.17381423973402185,-0.024407119867010926
1589988650.077687,3.770130528008577,-0.56,8.947145269364782,-0.3422222222222222,0.4544444444444444,-0.6322222222222222,0.021105266684534975,0.20860526668453497,0.02028946663093005
1589988650.087687,3.787296744186046,-0.56,8.930472558139535,-0.3422222222222222,0.4544444444444444,-0.6322222222222222,-0.04265116279069767,0.10219767441860465,-0.022802325581395347
1589988650.097687,3.788661616161616,-0.5486616161616162,8.945669191919192,-0.3422222222222222,0.4544444444444444,-0.6322222222222222,-0.027067550505050504,-0.07922979797979798,0.008364898989898992
1589988650.107687,3.7863147107232695,-0.5526294214465389,8.968944132169808,-0.3506418365199149,0.4670738658909834,-0.6455532781935689,0.0,-0.06909917393869756,0.023033057979565855
1589988650.117687,3.782893194706994,-0.5457863894139887,9.001320415879016,-0.3555555555555556,0.4744444444444445,-0.6533333333333333,-0.044417533081285446,0.0,0.08883506616257089
1589988650.127687,3.7854651013009954,-0.5618604052039821,8.944418784388054,-0.3555555555555556,0.4744444444444445,-0.6533333333333333,0.005813766262444106,-0.03415688313122205,0.09084311686877794
1589988650.137687,3.79,-0.5683657273522094,8.924902817943371,-0.3555555555555556,0.4744444444444445,-0.6533333333333333,0.026142897975654042,-0.0625,0.026142897975654042
1589988650.147687,3.79,-0.565461377561409,8.966384132684228,-0.3555555555555556,0.4744444444444445,-0.6533333333333333,0.06826721951761286,0.0399008292764193,-0.03413360975880643
1589988650.157687,3.7846070754278993,-0.5592141508557987,8.985392924572102,-0.3447697064113543,0.46785309218965476,-0.657527830222745,0.125,0.125,-0.0625
1589988650.167687,3.78,-0.5643655541004495,8.980422963933034,-0.33555555555555555,0.4622222222222222,-0.6611111111111111,0.0950717622907302,0.1549282377092698,-0.0625
1589988650.177687,3.775386404755751,-0.5661592142672525,8.933091238046007,-0.33555555555555555,0.4622222222222222,-0.6611111111111111,0.03366502972344275,0.1298300594468855,0.052839881106229
1589988650.187687,3.7748392803439064,-0.5645178410317193,8.909357121375626,-0.33555555555555555,0.4622222222222222,-0.6611111111111111,-0.06049100429883065,0.153236506448246,0.12700899570116936
1589988650.197687,3.7834528347797876,-0.5696414956606375,8.94381133911915,-0.33555555555555555,0.4622222222222222,-0.6611111111111111,-0.08183956525265634,0.25,0.019339565252656343
1589988650.207687,3.798503789695865,-0.5542518948479325,8.98700757939173,-0.33839015212084383,0.4622222222222222,-0.6488278593281951,0.026574342799577856,0.09055394320253288,-0.009351314400844288
1589988650.217687,3.792646718146718,-0.5542155727155728,8.998431145431146,-0.3422222222222222,0.4622222222222222,-0.6322222222222222,0.0625,-0.08884732947232948,0.026347329472329477
