time,acc_x,acc_y,acc_z,mag_x,mag_y,mag_z,gyr_x,gyr_y,gyr_z
1589985619.2643073,-3.74,-0.48,9.1,0.27111111111111114,-0.38333333333333336,-0.5966666666666667,0.0625,0.0,1.125
1589985619.2743073,-3.7851188440194057,-0.4788391330145545,9.03395797703396,0.27111111111111114,-0.38333333333333336,-0.5966666666666667,-0.03924819378032181,-0.2267481937803218,0.28050722487871277
1589985619.2843072,-3.8,-0.5333862978959465,9.072396085113128,0.27111111111111114,-0.38333333333333336,-0.5966666666666667,-0.023762234021476404,-0.13378670206442922,0.1875
1589985619.2943072,-3.7934045451910254,-0.5402136355730768,9.093190909617949,0.27624090929586903,-0.38333333333333336,-0.6017964648514246,0.0,-0.021278407443909797,0.3111647776682706
1589985619.3043072,-3.79,-0.508294599645407,9.10723513345153,0.2788888888888889,-0.38333333333333336,-0.6044444444444445,0.0,0.09043916814413724,0.6915370885044803
1589985619.3143072,-3.76707337304879,-0.4954146746097579,9.06873207148782,0.2788888888888889,-0.38333333333333336,-0.6044444444444445,0.05731656737802579,0.1823165673780258,0.9844497021340773
1589985619.3243072,-3.7443376175773677,-0.4813247648452646,9.03084404394342,0.2788888888888889,-0.38333333333333336,-0.6044444444444445,0.125,0.19577978028290371,1.201055054929274
1589985619.3343072,-3.763402464378074,-0.46360985751229655,9.073402464378074,0.2788888888888889,-0.38333333333333336,-0.6044444444444445,0.16753080472592669,0.0,1.05861137873333
1589985619.3443072,-3.7757921974522293,-0.4957921974522293,9.082316878980892,0.2803047593772116,-0.3842343418259024,-0.6010978414720453,0.22827925955414013,0.0,0.6512987659235668
1589985619.3543072,-3.8579833819896696,-0.54,9.081008309005165,0.2911111111111111,-0.3911111111111111,-0.5755555555555556,0.022933977094093866,-0.19783011452953064,0.4936980687177184
1589985619.3643072,-3.8920131532312054,-0.5700328830780136,9.015940810459576,0.2911111111111111,-0.3911111111111111,-0.5755555555555556,0.0,-0.1998766884574489,0.8252877269326193
1589985619.3743072,-3.9,-0.5813880772059554,8.988611922794044,0.2911111111111111,-0.3911111111111111,-0.5755555555555556,-0.02691225873138927,-0.125,1.3229471047766712
1589985619.3843071,-3.841889529802482,-0.5235116238419857,9.03486628211851,0.2911111111111111,-0.3911111111111111,-0.5755555555555556,-0.0625,-0.14921269591563247,2.1374031346501194
1589985619.3943071,-3.70931013015311,-0.42558607809186594,9.098137973969378,0.2911111111111111,-0.3911111111111111,-0.5791724328752792,-0.037068831345693665,-0.21293116865430634,3.0297428551973695
1589985619.4043071,-3.624825313117996,-0.39419578114700066,9.11,0.2911111111111111,-0.3911111111111111,-0.5844444444444444,-0.02622363216875412,-0.22377636783124588,3.463723632168754
1589985619.414307,-3.6218251854863297,-0.41060839516210995,9.067566419351559,0.2911111111111111,-0.3911111111111111,-0.5844444444444444,-0.0625,-0.021743825592031724,2.9695802418945014
1589985619.424307,-3.7161143896137037,-0.48010399055791253,9.054041596223165,0.2911111111111111,-0.3911111111111111,-0.5844444444444444,0.08775997639478134,0.125,1.5608751475326166
1589985619.434307,-3.7821069825951446,-0.5144732543512138,9.081053491297572,0.2911111111111111,-0.3911111111111111,-0.5844444444444444,0.15295783969508647,0.09045783969508646,0.3502832748164698
1589985619.444307,-3.787759348714657,-0.5038796743573286,9.102240651285342,0.28771093019851596,-0.3911111111111111,-0.5844444444444444,0.04849592946660812,-0.16701221160017565,-0.27800814106678373
1589985619.454307,-3.793689604027147,-0.47946559395927907,9.041551979864263,0.2855555555555556,-0.3911111111111111,-0.5844444444444444,0.0,-0.1413799496606589,-0.5461200503393411
1589985619.464307,-3.8,-0.47,8.961033868986437,0.2855555555555556,-0.3911111111111111,-0.5844444444444444,-0.08743951966707614,-0.1936592795006142,-0.581280240166462
1589985619.474307,-3.7656810631229236,-0.47,8.994910299003323,0.2855555555555556,-0.3911111111111111,-0.5844444444444444,-0.08210132890365449,-0.16420265780730897,-0.5625
1589985619.484307,-3.75558852034257,-0.47558852034257004,9.03117704068514,0.2855555555555556,-0.3911111111111111,-0.5844444444444444,-0.16728475642318874,0.014713008564251673,-0.5275717478589371
1589985619.494307,-3.76,-0.48822868874782643,9.064686066243478,0.2855555555555556,-0.38791106548695636,-0.5867301913188406,-0.17285604298912702,0.09928534766304234,-0.4485706953260847
1589985619.504307,-3.7700763969732245,-0.49496180151338764,9.120152793946449,0.2855555555555556,-0.38333333333333336,-0.59,0.0004774810826542464,0.12547748108265425,-0.21755629729336437
1589985619.514307,-3.78,-0.5037698856725857,9.064265628800777,0.2855555555555556,-0.38333333333333336,-0.59,0.0625,-0.07068535636098272,0.06659267818049136
1589985619.524307,-3.785894598422011,-0.49821080315597815,9.077156787376087,0.2855555555555556,-0.38333333333333336,-0.59,0.09934124013756829,-0.11381751972486344,0.125
1589985619.534307,-3.7854825247782995,-0.49,9.119034950443401,0.2855555555555556,-0.38333333333333336,-0.59,0.125,-0.03426577986437142,0.20970266040688576
1589985619.544307,-3.7830589016223812,-0.4961178032447629,9.117764393510475,0.2872549453457675,-0.38571247903963,-0.59,0.14411813513988403,0.038236270279768066,0.3889725405595361
1589985619.554307,-3.79,-0.5050351579192728,9.09,0.2911111111111111,-0.3911111111111111,-0.59,0.1875,0.125,0.5625
1589985619.564307,-3.771572092770331,-0.4777147285135539,9.016288371081323,0.2911111111111111,-0.3911111111111111,-0.59,0.1875,0.04821705320971206,0.639282946790288
1589985619.574307,-3.765258411639891,-0.45948317672021827,8.991033646559563,0.2911111111111111,-0.3911111111111111,-0.59,0.05603970900272809,0.06573014549863596,0.8518253637465899
1589985619.584307,-3.7857272029938867,-0.46179540224541504,9.037522605239301,0.2911111111111111,-0.3911111111111111,-0.59,-0.13622126403384394,0.0021312266102601063,1.0245737546779479
1589985619.594307,-3.796080625787361,-0.4846397914042129,9.075360208595788,0.2797693987897017,-0.3911111111111111,-0.5863912733522788,-0.25,-0.15850130372366916,1.0045026074473384
1589985619.604307,-3.7713887219824835,-0.48569436099124197,9.061388721982484,0.26666666666666666,-0.3911111111111111,-0.5822222222222222,-0.14235902478104914,-0.15191024380473772,0.8567692685857868
1589985619.614307,-3.7681501852488446,-0.48,9.02962453687789,0.26666666666666666,-0.3911111111111111,-0.5822222222222222,-0.02546932890263932,-0.1875,0.6735920132920821
1589985619.624307,-3.7740304002168217,-0.48,9.041787198482249,0.26666666666666666,-0.3911111111111111,-0.5822222222222222,0.012119997289728068,-0.1875,0.5998099986448641
1589985619.634307,-3.7885980821547784,-0.4985980821547782,9.097897123232167,0.26666666666666666,-0.3911111111111111,-0.5822222222222222,0.12061900673368192,-0.1875,0.625
1589985619.644307,-3.816215205650187,-0.52,9.133107602825094,0.27633476434473525,-0.38869408669159394,-0.5780787517887642,0.22634503531366845,-0.1292324470294973,0.6638450353136685
1589985619.654307,-3.8335793522684343,-0.5378967613421712,9.136420647731567,0.2977777777777777,-0.38333333333333336,-0.5688888888888889,0.2677580966445719,-0.044741903355428096,0.8394838067108562
1589985619.6643069,-3.8182637557851433,-0.5591318778925717,9.059357206301716,0.2977777777777777,-0.38333333333333336,-0.5688888888888889,0.017685592071431916,-0.22688864475714085,1.1358515263428544
1589985619.6743069,-3.8059292480287876,-0.5262830078848495,9.02371699211515,0.2977777777777777,-0.38333333333333336,-0.5688888888888889,-0.1991156003598455,-0.3495578001799227,1.2129421998200773
1589985619.6843069,-3.7849462284442095,-0.48494622844420965,9.050021508622317,0.2977777777777777,-0.38333333333333336,-0.5688888888888889,-0.18736557111052413,-0.34368278555526205,0.9995967133315724
1589985619.6943069,-3.754460290228036,-0.4516904353420545,9.05723014511402,0.292545829659812,-0.38333333333333336,-0.5731975520448607,-0.14231159303738652,-0.27787681392522695,0.7605652208878404
1589985619.7043068,-3.74058881800531,-0.4305888180053097,9.04941118199469,0.2788888888888889,-0.38333333333333336,-0.5844444444444444,-0.17277954986725838,-0.1801397749336292,0.6323602250663708
1589985619.7143068,-3.7594832319721982,-0.4463221546481321,9.027355690703736,0.2788888888888889,-0.38333333333333336,-0.5844444444444444,0.08225673327541269,-0.0032298001737619472,0.7697567332754127
1589985619.7243068,-3.777995813304388,-0.4630062800434176,9.00501046673903,0.2788888888888889,-0.38333333333333336,-0.5844444444444444,0.14378925027135991,0.125,0.8688677508140797
1589985619.7343068,-3.766689163854518,-0.49,9.070067491563554,0.2788888888888889,-0.38333333333333336,-0.5844444444444444,0.29159636295463065,0.10409636295463068,1.437710911136108
1589985619.7443068,-3.7747086828383587,-0.4758898209022897,9.117055089548854,0.2788888888888889,-0.38333333333333336,-0.5869921156704199,0.2279528451598277,0.07352357742008615,1.6506886193606891
1589985619.7543068,-3.7426120839827632,-0.4026120839827634,9.146306041991382,0.2788888888888889,-0.38333333333333336,-0.5988888888888889,0.05573828733840652,0.05573828733840652,2.1548489502154577
1589985619.7643068,-3.7270407083806765,-0.3870407083806763,9.095610625710144,0.2788888888888889,-0.38333333333333336,-0.5988888888888889,-0.09949114524154684,0.029977863103867103,2.3125
1589985619.7743068,-3.7240538072611056,-0.4043228435666334,9.006215229044422,0.2788888888888889,-0.38333333333333336,-0.5988888888888889,-0.1621637046180902,0.17399111385427057,2.185818523090451
1589985619.7843068,-3.7373282525268903,-0.4436641262634452,9.033664126263444,0.2788888888888889,-0.38333333333333336,-0.5988888888888889,-0.11354960542673369,0.07395039457326631,1.9083968434138696
1589985619.7943068,-3.7725051835068295,-0.4675155505204882,9.057515550520488,0.28362090217956665,-0.38333333333333336,-0.5952702904901354,-0.0625,0.09368520616463245,1.4060556184938973
1589985619.8043067,-3.7873098172545685,-0.49,9.08730981725457,0.2977777777777777,-0.38333333333333336,-0.5844444444444444,-0.04727121405298201,-0.04568635784105397,1.079313642158946
1589985619.8143067,-3.805791614710031,-0.4984167705799383,9.051082605940431,0.2977777777777777,-0.38333333333333336,-0.5844444444444444,0.0,-0.2664072241869212,1.0690120403115353
1589985619.8243067,-3.7960812483805024,-0.4904062419025135,8.993512509716984,0.2977777777777777,-0.38333333333333336,-0.5844444444444444,0.024492197621858173,-0.375,1.2744921976218582
1589985619.8343067,-3.7776286393345218,-0.4558762131115072,9.050618934442463,0.2977777777777777,-0.38333333333333336,-0.5844444444444444,0.11404733610615964,-0.3492263319469202,1.2094053277876808
1589985619.8443067,-3.76,-0.4422610340479193,9.08773896595208,0.2857393862967633,-0.39107229928541404,-0.5865941572089113,0.1391314627994956,-0.26413146279949556,1.0383157313997478
1589985619.8543067,-3.7555493788082615,-0.4166481364247844,9.095549378808261,0.26666666666666666,-0.4033333333333333,-0.59,0.006867235103268185,-0.10405085265490227,0.9443672351032681
1589985619.8643067,-3.754086603518268,-0.4,9.065480378890392,0.26666666666666666,-0.4033333333333333,-0.59,-0.11358254397834912,-0.02554127198917456,0.875
1589985619.8743067,-3.76,-0.4085043999688498,9.03850439996885,0.26666666666666666,-0.4033333333333333,-0.59,-0.16092375009734444,-0.009347500194688885,0.9281524998053111
1589985619.8843067,-3.7644408688656474,-0.42,9.06110217216412,0.26666666666666666,-0.4033333333333333,-0.59,-0.125,-0.006888576025744164,0.916733708769107
1589985619.8943067,-3.77943791901314,-0.42,9.09859479753285,0.26666666666666666,-0.4033333333333333,-0.59,-0.125,-0.24121748458031644,0.6355390185036203
1589985619.9043067,-3.772655559048517,-0.4432777952425862,9.11,0.27111111111111114,-0.3911111111111111,-0.5822222222222222,-0.23340275594676727,-0.2665972440532327,0.7002082678403018
1589985619.9143066,-3.78,-0.48,9.093159675000871,0.27111111111111114,-0.3911111111111111,-0.5822222222222222,-0.15742799107298533,-0.25235598214597066,0.48731997768246327
1589985619.9243066,-3.783293158917577,-0.4865863178351542,9.046586317835153,0.27111111111111114,-0.3911111111111111,-0.5822222222222222,0.01982897293942809,-0.12424672970457107,0.3529112161742851
1589985619.9343066,-3.7895128197990036,-0.5,9.060243590100498,0.27111111111111114,-0.3911111111111111,-0.5822222222222222,0.1875,-0.24238780935942764,0.5685897525124579
1589985619.9443066,-3.77,-0.4956666247800955,9.074333375219904,0.2704691295970512,-0.3938395325458658,-0.5812592499511323,0.19652786504146771,0.0625,0.7944442699170646
1589985619.9543066,-3.7687036524078983,-0.47043211586403383,9.098703652407899,0.26666666666666666,-0.41,-0.5755555555555556,0.25,0.0652007241502117,0.6902007241502117
1589985619.9643066,-3.743596169807883,-0.46201915096058466,9.0484229811527,0.26666666666666666,-0.41,-0.5755555555555556,0.25,0.16995212259853837,0.6825718161021924
1589985619.9743066,-3.752941679981739,-0.438825039945218,9.024708399908697,0.26666666666666666,-0.41,-0.5755555555555556,0.15807250057064598,0.2132290002282584,0.5073435003423876
1589985619.9843066,-3.7632255947805544,-0.4632255947805546,9.069676784341665,0.26666666666666666,-0.41,-0.5755555555555556,-0.08265996737846604,0.08468006524306793,0.2540401957292038
1589985619.9943066,-3.763721583744641,-0.47418561083690597,9.087907194581547,0.270619743568189,-0.4060469230984776,-0.5799737003278452,-0.13808003386533127,0.0,0.0
1589985620.0043066,-3.736087849735864,-0.49391215026413615,9.08,0.2855555555555556,-0.3911111111111111,-0.5966666666666667,-0.16304906084914889,0.048901878301702215,0.024450939150851107
1589985620.0143065,-3.723868803261516,-0.5183935902154526,9.05240961467682,0.2855555555555556,-0.3911111111111111,-0.5966666666666667,-0.06752003057671074,0.16331997961552616,0.15829994903881545
1589985620.0243065,-3.6926361248208885,-0.5217994746059545,8.993472775035823,0.2855555555555556,-0.3911111111111111,-0.5966666666666667,0.04079515602611049,0.3151145319216685,0.5920484397388951
1589985620.0343065,-3.6570480479026455,-0.4381921916105812,9.001475976048678,0.2855555555555556,-0.3911111111111111,-0.5966666666666667,-0.06457395212963411,0.6127721557804354,1.101473353346568
1589985620.0443065,-3.6435090947239304,-0.3840363788957214,9.008245452638034,0.2855555555555556,-0.3911111111111111,-0.5966666666666667,-0.3607385529140238,1.416647500766636,1.5668748688648946
1589985620.0543065,-3.5203033373183925,-0.26680148325261904,8.91525278109866,0.2911111111111111,-0.38333333333333336,-0.6044444444444445,-2.089642307146765,5.114256803306924,2.7803020708800226
1589985620.0643065,-3.3737244340359096,-0.20687587822014053,8.805184231069477,0.2911111111111111,-0.38333333333333336,-0.6044444444444445,-4.201995511319282,10.609396955503513,3.2696965261514443
1589985620.0743065,-3.5085063834031516,-0.43432907773123214,9.322835461134384,0.2911111111111111,-0.38333333333333336,-0.6044444444444445,-6.404902461932309,16.06534572611211,3.6539538865616064
1589985620.0843065,-3.5294234989028523,-0.42038433406476494,9.329807832967617,0.2911111111111111,-0.38333333333333336,-0.6044444444444445,-5.40262401090498,15.150221923000199,2.9567167032382473
1589985620.0943065,-2.598758882320091,-0.38656126634443183,9.067343873365557,0.29288186220073986,-0.3853992096045669,-0.6044444444444445,-2.3388833792293324,2.554743014500568,-0.36813245007606543
1589985620.1043065,-2.022813961856783,-0.5102302986685858,9.072177042101476,0.2977777777777777,-0.3911111111111111,-0.6044444444444445,-1.1657070888808925,0.46770421014753527,-2.497346167686218
1589985620.1143064,-1.7826517104285902,-0.7401662370571017,8.936134606142689,0.2977777777777777,-0.3911111111111111,-0.6044444444444445,1.2458440735724583,5.466177803748526,-2.5158973742845907
1589985620.1243064,-1.7972486799094796,-0.6459964797586121,8.677248679909479,0.2977777777777777,-0.3911111111111111,-0.6044444444444445,1.4748679909479505,1.2669757354790043,0.7189150113150615
1589985620.1343064,-1.8882710607465143,-0.62526324750752,8.847669838627292,0.2977777777777777,-0.3911111111111111,-0.6044444444444445,-0.6785729487882859,-1.1165399931894284,4.250944730320286
1589985620.1443064,-2.0907148952931136,-0.6485702094137727,9.104995732948204,0.2959919618955921,-0.3911111111111111,-0.600575176699709,-0.6841089247029476,-0.4375,7.792473577102344
1589985620.1543064,-2.1388269356137593,-0.5937653871227518,8.93765387122752,0.2911111111111111,-0.3911111111111111,-0.59,0.7395909230356252,-0.2492306438624075,12.036250814894352
1589985620.1643064,-2.2043622611706812,-0.6114540870568937,9.022908174113788,0.2911111111111111,-0.3911111111111111,-0.59,-0.47357309923756874,-0.4923073418182923,14.849968485161448
1589985620.1743064,-2.29,-0.6129876278093658,9.057489689841137,0.2911111111111111,-0.3911111111111111,-0.59,-0.6217590107128041,-1.5654832353156496,18.3038080480246
1589985620.1843064,-2.315411111318885,-0.5727396824803186,9.022739682480319,0.2911111111111111,-0.3911111111111111,-0.59,-0.40325396899601695,-1.2101884922490043,21.145982151205192
1589985620.1943064,-2.337959890689217,-0.5616953930239064,9.02356314419125,0.2901692260978298,-0.3911111111111111,-0.5924489010345314,-0.636673444795903,-1.3347696511953178,23.41432928797366
1589985620.2043064,-2.2360970091027306,-0.57087100130039,9.079547984395319,0.2855555555555556,-0.3911111111111111,-0.6044444444444445,-0.9782249674902471,-1.7608875162548765,25.978637841352406
1589985620.2143064,-2.2896852198034128,-0.5779370439606826,8.965874087921366,0.2855555555555556,-0.3911111111111111,-0.6044444444444445,-0.7628934752457336,-1.7718521980341313,28.91652596032081
1589985620.2243063,-2.2355496704059212,-0.5627748352029606,8.935549670405921,0.2855555555555556,-0.3911111111111111,-0.6044444444444445,-0.5641349601017693,-1.9846232797502026,31.790252399676188
1589985620.2343063,-2.229963969344083,-0.5557039912411665,8.9271119737235,0.2855555555555556,-0.3911111111111111,-0.6044444444444445,-0.32107469891509904,-2.83077535582761,33.864848959888526
1589985620.2443063,-2.2726009930730093,-0.5589014896095138,8.975549255195244,0.2828836919430312,-0.3919332229918878,-0.5991007172193956,-0.7546952583828849,-2.2731218966468463,35.90932844970269
1589985620.2543063,-2.215976035053206,-0.527159974961996,9.017159974961997,0.27111111111111114,-0.3955555555555556,-0.5755555555555556,-0.6072498435124742,-2.525149780917464,37.97374921756237
1589985620.2643063,-2.1783064818284004,-0.5544623454477333,9.0416935181716,0.27111111111111114,-0.3955555555555556,-0.5755555555555556,-0.8990258523791682,-2.8125,39.31149306856501
1589985620.2743063,-2.2049246447925372,-0.54,9.032311611981344,0.27111111111111114,-0.3955555555555556,-0.5755555555555556,-1.094220970046642,-2.8125,40.37123223962686
1589985620.2843063,-2.214576304052744,-0.5372881520263719,9.067288152026372,0.27111111111111114,-0.3955555555555556,-0.5755555555555556,-1.033898099670351,-2.778601900329649,41.294490498351756
1589985620.2943063,-2.205671525247267,-0.5243284747527329,9.065671525247268,0.27315916189484646,-0.3976036063392909,-0.578863945283128,-1.1338617581988548,-2.7140852745965645,41.741138241801146
1589985620.3043063,-2.2510106345351226,-0.47898936546487775,9.1,0.2855555555555556,-0.41,-0.5988888888888889,-1.1645611780518286,-2.645611780518286,41.435172958570114
1589985620.3143063,-2.27,-0.4537021897810219,9.046468613138686,0.2855555555555556,-0.41,-0.5988888888888889,-1.125,-2.3090419708029195,40.685109489051094
1589985620.3243062,-2.2652930213294677,-0.4329395319942017,8.934706978670532,0.2855555555555556,-0.41,-0.5988888888888889,-1.0661627666183475,-2.4375,39.69110452474632
1589985620.3343062,-2.237748913472936,-0.40264934808376135,8.96715152113789,0.2855555555555556,-0.41,-0.5988888888888889,-0.8596861418411695,-2.498755432635322,38.16682882259976
1589985620.3443062,-2.2061612236461348,-0.37794625878462174,9.025134353038446,0.28213265352992517,-0.4093154195948739,-0.601741307243581,-0.7996641174038859,-2.6618282348077718,36.292946465481606
1589985620.3543062,-2.2673847122396515,-0.3427690047741461,9.062615287760348,0.25222222222222224,-0.4033333333333333,-0.6266666666666667,-0.6567303656681182,-2.4375,33.19902877603484
1589985620.3643062,-2.284478245415961,-0.284478245415961,9.026195613539903,0.25222222222222224,-0.4033333333333333,-0.6266666666666667,-0.648777415375609,-2.3339671015492693,29.97119294779318
1589985620.3743062,-2.2651666639150747,-0.27,8.99,0.25222222222222224,-0.4033333333333333,-0.6266666666666667,-0.8296874742038269,-2.032291649469218,26.91640595334401
1589985620.3843062,-2.237468260388635,-0.27,8.99,0.25222222222222224,-0.4033333333333333,-0.6266666666666667,-0.5700149411434514,-1.8591766274289676,23.930171823149692
1589985620.3943062,-2.2502044750430295,-0.24002271944922546,9.130022719449226,0.25222222222222224,-0.40340906483075156,-0.6266666666666667,-0.4375,-1.3112220309810672,18.363356282271944
1589985620.4043062,-2.3203024775801793,-0.24507561939504485,9.112915906672747,0.25222222222222224,-0.43666666666666665,-0.6266666666666667,-0.32977917426660586,-0.6730565530475756,11.9265727124183
1589985620.4143062,-2.2618167751574,-0.22878881656173303,9.028183224842598,0.25222222222222224,-0.43666666666666665,-0.6266666666666667,-0.011354844733753068,-0.4261451552662469,7.534354657987408
1589985620.4243062,-2.29,-0.2115988689825595,8.992005655087203,0.25222222222222224,-0.43666666666666665,-0.6266666666666667,-0.13753534429501496,-0.19004241315401796,1.3006715416052845
1589985620.4343061,-2.2859799792467803,-0.21865999308226006,8.962060062259658,0.25222222222222224,-0.43666666666666665,-0.6266666666666667,0.1333750432358746,0.16687521617937293,-4.533379366823333
1589985620.4443061,-2.2603784410669596,-0.21012614702231988,9.03886467679912,0.25222222222222224,-0.43666666666666665,-0.6266666666666667,0.18671158111050074,0.4335579055525036,-9.920369692160573
1589985620.4543061,-2.322060673325934,-0.22198483166851646,9.048091009988902,0.25222222222222224,-0.43,-0.6344444444444445,0.5868363854975953,0.924146781354051,-17.902261376248614
1589985620.464306,-2.293847576766556,-0.2290381058083611,9.005771365149833,0.25222222222222224,-0.43,-0.6344444444444445,0.8954171291157973,1.3208934517203108,-22.66322142064373
1589985620.474306,-2.3639852318775327,-0.25,9.036014768122467,0.25222222222222224,-0.43,-0.6344444444444445,0.874538496172895,1.8496307969383161,-31.907054254840162
1589985620.484306,-2.379093021161639,-0.25,9.02090697883836,0.25222222222222224,-0.43,-0.6344444444444445,1.3466569113012157,2.2273255290409724,-37.47805155335435
1589985620.494306,-2.2706539920766344,-0.29039239524598065,9.02078479049196,0.25246928589561746,-0.43008719894355124,-0.6344444444444445,1.501634980191586,2.875817490095793,-45.28314634120779
1589985620.504306,-2.3146129498815684,-0.31676776992894123,9.073535539857883,0.26907600328859266,-0.4359483933175425,-0.6344444444444445,1.6115323747039219,2.930766187351961,-51.71214392017943
1589985620.514306,-2.4541436291017305,-0.3360615553293132,9.06181533401206,0.27111111111111114,-0.43666666666666665,-0.6344444444444445,1.7253847208082074,4.05051296107761,-61.26474763098128
1589985620.524306,-2.5072187564068766,-0.3631288990422634,8.988957033652579,0.27111111111111114,-0.43666666666666665,-0.6344444444444445,1.885864232785637,4.258691386228509,-67.24118596784113
1589985620.534306,-2.4494344073760987,-0.4535335286138361,8.97766764306918,0.27111111111111114,-0.43666666666666665,-0.6344444444444445,2.143330892327049,4.6766764306918045,-75.18527729176087
1589985620.544306,-2.539919030941747,-0.47006072679368954,9.059898788677184,0.2711515956402375,-0.4366531718236245,-0.6345164169406692,1.9383855990746393,5.5,-81.01315747196607
1589985620.554306,-2.5070335422994896,-0.5093780563993192,9.021722570499149,0.2911111111111111,-0.43,-0.67,2.462919278743618,5.661185344363299,-89.02393416488938
1589985620.564306,-2.5398697211769106,-0.5526896415131709,9.0459003983187,0.2911111111111111,-0.43,-0.67,2.7588122510508133,6.257998008406505,-94.91647410928456
1589985620.574306,-2.6007606223035693,-0.6338031115178455,8.962281866910708,0.2911111111111111,-0.43,-0.67,2.836269446986534,6.697007778794614,-100.95161949274414
1589985620.584306,-2.6139163616425365,-0.6848954520531706,8.994895452053171,0.2911111111111111,-0.43,-0.67,3.125,6.873693150664631,-107.0004769861146
1589985620.594306,-2.6387784709770155,-0.7159730887212696,9.025973088721269,0.2911111111111111,-0.43,-0.67,3.125,7.262163609015871,-110.57440520294601
1589985620.604306,-2.5859532424158087,-0.7757476839887082,9.058299073595483,0.3399086406990665,-0.4117009264045167,-0.6750830759987454,3.296553814957656,8.009346049858852,-117.67722207864499
1589985620.614306,-2.556867105772956,-0.8802425416505231,9.083132894227044,0.34444444444444444,-0.41,-0.6755555555555556,3.1679194110809763,7.821532351801627,-122.71769178612941
1589985620.624306,-2.569374789286383,-0.9521882374976587,8.93968739464319,0.34444444444444444,-0.41,-0.6755555555555556,3.3906302678404194,8.53126053568084,-129.8067018636449
1589985620.634306,-2.553662858213148,-1.0071799962539802,8.931831429106573,0.34444444444444444,-0.41,-0.6755555555555556,3.7834285446712865,9.316857089342573,-134.3729818318037
1589985620.644306,-2.597752733389403,-1.153089991589571,8.997190916736754,0.34534959349593497,-0.40856424633211846,-0.6769913092234371,3.823034062237174,10.012289739276703,-141.79003364171572
1589985620.654306,-2.527201009251472,-1.2500986122792261,8.90900126156434,0.3737662601626016,-0.36348953368844034,-0.7220660218671152,4.153745269133726,10.398119480656014,-146.97117588309504
1589985620.664306,-2.6058376034686637,-1.3583247930626725,8.997800551832873,0.37666666666666665,-0.3588888888888889,-0.7266666666666667,4.293358297201419,10.552029956641702,-154.06513598738667
1589985620.674306,-2.583293259755617,-1.4034134804887661,8.877564052029957,0.37666666666666665,-0.3588888888888889,-0.7266666666666667,4.528195210878991,10.833834253054789,-158.48006996452503
1589985620.684306,-2.5327316029548297,-1.6368602914463326,8.966860291446332,0.37666666666666665,-0.3588888888888889,-0.7266666666666667,4.299057946151051,11.348115892302102,-165.8732314414887
1589985620.694306,-2.4407061927673444,-1.6205432252056498,8.949945677479434,0.37684170589959815,-0.35862934795730084,-0.7268235983927432,4.565216126028248,11.879753220549434,-170.59169835480367
1589985620.704306,-2.547455452306546,-1.7527920693722965,8.927702973985388,0.4088888888888889,-0.3111111111111111,-0.7555555555555555,4.960024783211573,12.852475216788427,-176.9750615699828
1589985620.7143059,-2.461996151451695,-1.8889826815326276,8.865028864112288,0.4088888888888889,-0.3111111111111111,-0.7555555555555555,4.612403786292377,13.306141759578924,-181.4366581300583
1589985620.7243059,-2.491469063412646,-1.9975257521903511,8.780463879015644,0.4088888888888889,-0.3111111111111111,-0.7555555555555555,4.919136707341921,13.798163670734192,-186.36420671934076
1589985620.7343059,-2.525627714009127,-2.0954653574885906,8.944534642511409,0.4088888888888889,-0.3111111111111111,-0.7555555555555555,4.457995090582216,13.79782187802517,-190.03591653989767
1589985620.7443058,-2.502425943852856,-2.1244675701839304,8.91553242981607,0.4088888888888889,-0.3111111111111111,-0.7555555555555555,4.566753388189738,14.05159123910939,-191.88480759922555
1589985620.7543058,-2.3938937381404175,-2.2361062618595824,8.892607210626187,0.42038878347037745,-0.30125405861269233,-0.7341986084756483,4.625,15.065393738140418,-195.13904174573054
1589985620.7643058,-2.3314922974493193,-2.3819383795945543,8.848061620405446,0.4244444444444445,-0.2977777777777777,-0.7266666666666667,4.043846281883509,15.024229744931928,-199.10163263080563
1589985620.7743058,-2.33874201853759,-2.4688697219361484,8.790063851699278,0.4244444444444445,-0.2977777777777777,-0.7266666666666667,3.976811920700309,15.843550463439753,-201.03304582904224
1589985620.7843058,-2.33,-2.610741203134604,8.86,0.4244444444444445,-0.2977777777777777,-0.7266666666666667,4.192457840350338,15.63459035994161,-203.2877107982483
1589985620.7943058,-2.33,-2.667133527965581,8.86,0.4244444444444445,-0.2977777777777777,-0.7266666666666667,3.8903561001843885,15.684940649969269,-204.79821949907804
1589985620.8043058,-2.1674102645550666,-2.6338689476789034,8.869032763080273,0.4886774263486158,-0.27369040956371354,-0.7527613155652362,4.270183384761991,15.235861845986296,-205.72182153877569
1589985620.8143058,-2.2453144388042863,-2.792202834179357,8.917062887760856,0.4955555555555556,-0.27111111111111114,-0.7555555555555555,4.2545892378736605,14.53321524252679,-205.86582152425268
1589985620.8243058,-2.0974612239142694,-2.8143808164128594,8.887492244782855,0.4955555555555556,-0.27111111111111114,-0.7555555555555555,4.300793367526791,13.609132649464184,-205.7734132649464
1589985620.8343058,-2.052878299194515,-2.850791300089498,8.862878299194515,0.4955555555555556,-0.27111111111111114,-0.7555555555555555,3.8093475067123728,13.069238757831101,-204.76125061213463
1589985620.8443058,-1.9891340617031696,-2.8578739931440924,8.79913406170317,0.4955555555555556,-0.27111111111111114,-0.7555555555555555,4.34054948580692,13.688974400108073,-203.74311348553672
1589985620.8543057,-1.7959900426742532,-2.804873399715505,8.844441678520626,0.4744444444444445,-0.25,-0.7033333333333334,4.4222706258890465,12.872146159317213,-201.75570768136558
1589985620.8643057,-1.9471343153650547,-3.0543712629722113,8.873917894206318,0.4744444444444445,-0.25,-0.7033333333333334,3.720487503149985,14.019461180728964,-199.0137940711553
1589985620.8743057,-1.7986795632739796,-2.9917605823013607,8.68955985442466,0.4744444444444445,-0.25,-0.7033333333333334,4.818001819691752,12.790492721232994,-196.1859581470897
1589985620.8843057,-1.7663610998458918,-3.0322743125963174,8.685913212750426,0.4744444444444445,-0.25,-0.7033333333333334,4.872113512855869,12.306814218509206,-193.30104124422095
1589985620.8943057,-1.7119294346662342,-3.0662941033336035,8.77436466866737,0.4744444444444445,-0.25,-0.7033333333333334,3.8940445291588937,12.221764741665991,-191.25985379998377
1589985620.9043057,-1.69,-3.12197392237045,8.910737413689079,0.49683053637535096,-0.125010986719105,-0.6315112883883414,3.867271820741436,11.505423761480191,-187.55179283703157
1589985620.9143057,-1.680511772817815,-3.18692936309311,9.23362326982992,0.5011111111111111,-0.10111111111111112,-0.6177777777777778,4.115404259665969,11.67150709944328,-182.7895991879054
1589985620.9243057,-1.526862598493127,-3.059833208719158,8.507283602691667,0.5011111111111111,-0.10111111111111112,-0.6177777777777778,6.182783832748605,10.299692298843965,-179.11690846609537
1589985620.9343057,-1.3124599670376627,-2.9414798461757585,8.987200439497833,0.5011111111111111,-0.10111111111111112,-0.6177777777777778,2.6668794636498667,11.049126854131483,-173.4117545323214
1589985620.9443057,-1.3380625470527194,-3.06095855291269,8.645832705963741,0.5011111111111111,-0.10111111111111112,-0.6177777777777778,-0.8001365800557512,9.608981728284533,-169.89139978025108
1589985620.9543056,-1.4956168402523105,-3.3356168402523103,9.49679938808441,0.52,0.024444444444444446,-0.5877777777777777,0.2736279050273476,10.10233083258241,-163.4141916741759
1589985620.9643056,-1.3146218295108514,-3.1571316424057874,8.518605072782638,0.52,0.024444444444444446,-0.5877777777777777,8.222618502807457,10.642927234963828,-158.01270945910267
1589985620.9743056,-1.2038822100575572,-3.0980705120306973,8.695788463907908,0.52,0.024444444444444446,-0.5877777777777777,5.084995951630789,11.012059299808142,-154.4136718268706
1589985620.9843056,-1.2568907328359995,-3.2085504847010013,9.190461961941995,0.52,0.024444444444444446,-0.5877777777777777,0.09979255595005387,6.148374855387561,-148.3447959468624
1589985620.9943056,-1.2234260182710337,-3.3005784497546578,8.87254717357482,0.52,0.024444444444444446,-0.5877777777777777,3.8645729445087165,10.436041409023815,-141.96558473291577
1589985621.0043056,-1.1617247167436004,-3.2655224506924045,9.257744439781789,0.5466666666666666,0.12444444444444445,-0.5877777777777777,5.248859106168695,8.391169219471255,-135.29508497691984
1589985621.0143056,-1.1793256399496432,-3.42393075954679,8.82652182123374,0.5466666666666666,0.12444444444444445,-0.5877777777777777,3.323758130507763,8.556177874527906,-130.014808015107
1589985621.0243056,-1.11,-3.4708603933736337,8.868107134578006,0.5466666666666666,0.12444444444444445,-0.5877777777777777,5.429971557980706,7.936424508282958,-122.88814886142762
1589985621.0343056,-1.11,-3.50825674494909,8.785835161112002,0.5466666666666666,0.12444444444444445,-0.5877777777777777,5.102753481695466,7.889679068813638,-118.02662315661834
1589985621.0443056,-1.1172256962756475,-3.6211597478590623,8.955093799442476,0.5466666666666666,0.12444444444444445,-0.5877777777777777,3.870984956930109,7.378233381049248,-112.16458223461161
1589985621.0543056,-1.0388463660003677,-3.513923458800662,8.843346641800846,0.5538803230221896,0.1893673516441503,-0.5994999693555024,2.5752426387539074,7.08605795750046,-105.27573481127368
1589985621.0643055,-1.0552661341447953,-3.665147204260175,8.782366932927602,0.5555555555555556,0.20444444444444448,-0.6022222222222222,3.6423766958285784,6.015536642576391,-98.00113319386332
1589985621.0743055,-0.962042086963553,-3.584506862883826,8.855352240797268,0.5555555555555556,0.20444444444444448,-0.6022222222222222,2.3525503345529524,5.969190300996583,-92.0070334451879
1589985621.0843055,-0.87276644863409,-3.4927664486340904,8.698760420674619,0.5555555555555556,0.20444444444444448,-0.6022222222222222,3.0673656534564575,5.403817173271771,-83.57563405797102
1589985621.0943055,-0.8299135030283836,-3.522069197577293,8.730086496971616,0.5555555555555556,0.20444444444444448,-0.6022222222222222,3.325432484858082,5.675648727287123,-77.78821478761728
1589985621.1043055,-0.82,-3.447354387781517,9.061399603071878,0.5433117611528174,0.25648057065608193,-0.6103847518240477,2.11235870221762,3.8560380533264302,-71.0999708775563
1589985621.1143055,-0.7302158383508521,-3.30033574854577,9.06007194611695,0.5422222222222223,0.2611111111111111,-0.6111111111111112,3.371702469639759,4.123950785794468,-63.6417874272885
1589985621.1243055,-0.6798797221461812,-3.278519880919792,8.916799206131946,0.5422222222222223,0.2611111111111111,-0.6111111111111112,2.2562437979058307,3.6774975191623325,-58.97097419928826
1589985621.1343055,-0.6691969372573212,-3.2883938745146426,8.455334760677868,0.5422222222222223,0.2611111111111111,-0.6111111111111112,3.134559730739921,4.304732010015604,-50.57218220415865
1589985621.1443055,-0.7247144693352919,-3.4359052515607784,8.784763128901947,0.5422222222222223,0.2611111111111111,-0.6111111111111112,1.7301536295752233,2.0192381258415963,-46.922311099889825
1589985621.1543055,-0.7309900462140064,-3.4792325808745113,8.715395485247067,0.5583388632144409,0.2893152328474938,-0.6159461034087768,1.0219683167436902,2.04115379488091,-39.996742245822965
1589985621.1643054,-0.7420613638233117,-3.504122727646623,8.92356666940857,0.5644444444444444,0.3,-0.6177777777777778,1.2169223492637986,1.8436600312577116,-33.39099901291437
1589985621.1743054,-0.7226155343463518,-3.583897086525179,8.757027188245637,0.5644444444444444,0.3,-0.6177777777777778,0.8506432092176315,1.3913470896646993,-25.525995227929172
1589985621.1843054,-0.6919494843391901,-3.5712996562261266,8.860902406417111,0.5644444444444444,0.3,-0.6177777777777778,0.9293771485867074,1.0243685542398777,-18.333941104851032
1589985621.1943054,-0.6593232435814709,-3.5316540544768387,8.80864648716294,0.5644444444444444,0.3,-0.6177777777777778,0.7457702723841928,0.5206756809604818,-12.985891945796915
1589985621.2043054,-0.6596789064766756,-3.4135320287565687,8.799678906476677,0.6784404540586235,0.3860347242371163,-0.6392864588370568,0.8084863309584448,0.07253417260388795,-4.845751797285535
1589985621.2143054,-0.6505686843559978,-3.3534121061359867,8.611373687119956,0.6822222222222222,0.3888888888888889,-0.64,0.046205603924820315,-1.2932516238253178,2.0948123963515757
1589985621.2243054,-0.6583908681234589,-3.42551781311113,8.792989966839555,0.6822222222222222,0.3888888888888889,-0.64,0.7342009608026528,-0.43102733611087496,9.212694498767112
1589985621.2343054,-0.6870610927413006,-3.4039185430115992,8.8029389072587,0.6822222222222222,0.3888888888888889,-0.64,-0.30892280743190037,-1.88494101978691,16.814254972970136
1589985621.2443054,-0.6973189419043423,-3.334129522860919,8.726810580956576,0.6822222222222222,0.3888888888888889,-0.64,-0.2087830654893022,-1.8337830654893021,22.851976267550327
1589985621.2543054,-0.7076762072185903,-3.3407048288743613,8.661618963907049,1.214439256044486,0.5961464837908281,-1.1116602879867177,-0.8446444267428446,-2.421668131626655,30.04191616766467
1589985621.2643054,-0.7820626294692099,-3.539164402356676,9.0193209760297,1.3755555555555556,0.6588888888888889,-1.2544444444444445,-1.0625,-2.9064946463641013,37.93048007855586
1589985621.2743053,-0.7707589779700231,-3.444553867820139,8.745729973510379,1.3755555555555556,0.6588888888888889,-1.2544444444444445,-1.3430982379371625,-3.137927312812259,42.99431541930725
1589985621.2843053,-0.818249250951494,-3.621318325370475,8.836282290063973,1.3755555555555556,0.6588888888888889,-1.2544444444444445,-1.1879504413312818,-3.6660660782249574,51.054392056036924
1589985621.2943053,-0.8031035807810543,-3.67,8.814690026186952,1.3755555555555556,0.6588888888888889,-1.2544444444444445,-1.2594820960947284,-4.052584716213139,56.05386026272344
1589985621.3043053,-0.8246945994811729,-3.714694599481173,8.787245499567645,1.1822927966878916,0.40230878075622983,-1.0843566630855366,-1.375,-4.522005935067998,62.564145900479524
1589985621.3143053,-0.8740676037215989,-3.6862704148863954,8.901864792556802,0.8566666666666667,-0.03,-0.7977777777777778,-1.5046619813920057,-5.199154953480014,72.86465529289622
1589985621.3243053,-0.9600779260859501,-3.583120129619628,9.005038963042974,0.8566666666666667,-0.03,-0.7977777777777778,-1.3670048607360543,-5.80099432914127,83.80138010184399
1589985621.3343053,-0.9682552404438964,-3.3772397392989255,8.785494979742822,0.8566666666666667,-0.03,-0.7977777777777778,-2.2936189889025895,-6.943846882156068,91.01106438259644
1589985621.3443053,-1.006978381390983,-3.491168930216186,8.776282889912293,0.8566666666666667,-0.03,-0.7977777777777778,-2.372077674459535,-7.555230852717726,97.39107279047256
1589985621.3543053,-1.0655553259207209,-3.695555325920721,8.861112718554955,0.703586574629025,0.10271056366166523,-0.7304966082934917,-2.499974166081098,-7.3958376389864835,103.04154610837845
1589985621.3643053,-1.0427333978186184,-3.5364003869117107,8.720933591274473,0.5811111111111111,0.2088888888888889,-0.6766666666666666,-2.5739593409159136,-7.95156098862613,108.3572846135886
1589985621.3743052,-1.0625888299343678,-3.345939095229713,8.947005054442124,0.5811111111111111,0.2088888888888889,-0.6766666666666666,-2.273159906455101,-8.148159906455101,113.00888299343677
1589985621.3843052,-1.102784164987555,-3.377372288728221,8.592001896408677,0.5811111111111111,0.2088888888888889,-0.6766666666666666,-2.762252577930544,-9.047054640274979,115.74778505392912
1589985621.3943052,-1.1756044585987262,-3.543077070063694,8.711392144373672,0.5811111111111111,0.2088888888888889,-0.6766666666666666,-3.558379777070064,-8.202151008492569,117.87317011677283
1589985621.4043052,-1.1463298280038017,-3.6715602293282648,8.709494742005703,0.5443371043729752,0.21684002548091824,-0.6756727745926631,-2.4707457000950424,-8.203845004138946,120.45672502069473
1589985621.4143052,-1.2840463917525773,-3.6399871134020616,8.996095360824743,0.54,0.21777777777777774,-0.6755555555555556,-2.812661082474227,-8.400048324742269,122.53809600515464
1589985621.4243052,-1.32,-3.4379714448615,8.7243486007507,0.54,0.21777777777777774,-0.6755555555555556,-3.417571387846249,-8.725542832707749,124.536228441108
1589985621.4343052,-1.386185917810268,-3.4582197210484984,8.73432113076319,0.54,0.21777777777777774,-0.6755555555555556,-3.261654919044236,-9.263767621433646,125.60169016191153
1589985621.4443052,-1.389130693069307,-3.502569216921692,8.806284608460846,0.54,0.21777777777777774,-0.6755555555555556,-3.108942394239424,-9.376730423042304,126.3947603510351
1589985621.4543052,-1.3645574432695735,-3.584684566947844,8.827848402043484,0.5480450939236731,0.195499056142991,-0.687313769751693,-3.1875,-8.992878994891292,127.25395776404895
1589985621.4643052,-1.436481702283775,-3.8154939007612585,8.856481702283775,0.5688888888888889,0.13777777777777778,-0.7177777777777777,-2.9155106392735943,-8.857831560121067,127.84066312024214
1589985621.4743052,-1.3878031339142667,-3.6747731624399202,8.717651908874213,0.5688888888888889,0.13777777777777778,-0.7177777777777777,-2.5307774217498338,-8.7542617521785,127.2713087608925
1589985621.4843051,-2.695412889606358,-4.7663633428535945,7.106630324102819,0.5688888888888889,0.13777777777777778,-0.7177777777777777,-2.2277319011548493,-8.577048925866137,125.61208711039365
1589985621.4943051,-3.0610871478873243,-7.3948229080364545,-0.33503106876553446,0.5688888888888889,0.13777777777777778,-0.7177777777777777,-33.97481326377382,76.69311341393953,98.6733944568144
1589985621.5043051,-2.9749213402964743,-0.9535171429498206,-0.604123714684226,0.5067915130414725,0.11293882743881122,-0.6184219764219117,-51.668609507282106,-73.8456384410782,-283.2676822147978
1589985621.514305,-0.43773875539125084,-0.4918032450195112,-0.06096734442390633,0.5022222222222222,0.1111111111111111,-0.6111111111111112,-51.75,-88.1875,-310.375
1589985621.524305,-0.07373888315310906,-0.6418310420402471,-0.037938560741908024,0.5022222222222222,0.1111111111111111,-0.6111111111111112,-53.36043602492347,-89.04889601333116,-304.53248790957997
1589985621.534305,-0.32582115721800115,-0.6836715371127996,-0.16265692577440094,0.5022222222222222,0.1111111111111111,-0.6111111111111112,-60.56636956945256,-84.07523621663745,-282.7209794467173
1589985621.544305,1.3984532237192662,-0.9722341478267489,2.330907551191292,0.5022222222222222,0.1111111111111111,-0.6111111111111112,-65.03672118824693,-77.67216045329984,-269.10888854000154
1589985621.554305,2.1173636776243274,-1.5975543020164689,3.612218115801076,0.4765131441497907,0.20843833524245897,-0.6533474536586772,28.058702911236466,39.932612818517796,-261.6971608960643
1589985621.564305,0.3278171875000002,-0.7599173611111111,0.5529718749999999,0.4711111111111111,0.2288888888888889,-0.6622222222222223,82.88990234375001,102.89444986979166,-255.22078125
1589985621.574305,0.44499150428401,-0.6966964317992842,1.1407823289107408,0.4711111111111111,0.2288888888888889,-0.6622222222222223,130.19250479013775,161.25556288637432,-241.8171590868009
1589985621.584305,1.0481487922705315,1.5484985507246374,11.340898550724638,0.4711111111111111,0.2288888888888889,-0.6622222222222223,70.1507729468599,290.5141243961353,-202.62754830917874
1589985621.594305,0.6658581795395282,1.54826807624669,10.192470336156536,0.4711111111111111,0.2288888888888889,-0.6622222222222223,51.118985112490144,261.8147412120232,-185.3625318368337
1589985621.604305,-0.6483475689881735,0.18932572273324572,0.7834280551905388,0.4578790699372171,0.24532869762009052,-0.6588139691925828,27.93055498521682,86.73509362680683,-146.7926145696452
1589985621.614305,2.802688709086671,-0.5136616388639164,13.655792961076148,0.3977777777777778,0.32,-0.6433333333333333,-22.99072478606866,-30.050319648386772,-115.43950820763827
1589985621.624305,1.4199515975260955,-1.7474476251008384,13.021026230229545,0.3977777777777778,0.32,-0.6433333333333333,-72.37382507883737,-10.058368677732417,-93.76397071405871
1589985621.634305,-0.05152667657007859,-1.791199863977234,10.463376765163854,0.3977777777777778,0.32,-0.6433333333333333,-34.29135271061157,1.9313935174413404,-80.24702897642868
1589985621.644305,0.08112298738033075,-2.461087630548303,11.543475032637076,0.3977777777777778,0.32,-0.6433333333333333,27.538134383159267,16.548630942667536,-64.64710311956048
1589985621.654305,0.31027379704066177,-1.891261019845431,8.009903297215425,0.4079436094605616,0.3341192106705331,-0.6297788910896216,52.95579439978252,25.44579158413919,-51.81452435046021
1589985621.664305,0.19549506133503267,-1.4618396527003346,4.895091205990123,0.4177777777777778,0.3477777777777778,-0.6166666666666667,6.097125418193407,-1.7415490082842133,-41.94800710928788
1589985621.674305,0.26323791709809946,-3.0615688566752395,11.183264304084974,0.4177777777777778,0.3477777777777778,-0.6166666666666667,-27.18046068672968,-8.122536657871006,-31.06201150673035
1589985621.684305,0.09161598432589085,-3.473482182946243,12.708776684762643,0.4177777777777778,0.3477777777777778,-0.6166666666666667,-10.2066895587575,-1.010099902036818,-15.420091126168415
1589985621.694305,-0.006543011392957802,-2.7277902822436584,9.110924536540828,0.4177777777777778,0.3477777777777778,-0.6166666666666667,15.921708149736018,7.577688956373308,0.6061502619983337
1589985621.704305,-0.0417139716816448,-2.2007887761039635,6.854869076097498,0.39751607364783814,0.3759679748281287,-0.6149047793510197,2.1185022952091543,1.9514369302385717,16.037850746751147
1589985621.714305,-0.13166243436096015,-2.5405615369589447,8.018090061933378,0.3922222222222223,0.38333333333333336,-0.6144444444444445,-1.976622016798998,0.37026091877420164,29.76556521389422
1589985621.724305,-0.2280509944960875,-3.0369626216548506,9.762723000379184,0.3922222222222223,0.38333333333333336,-0.6144444444444445,-0.6211578898987695,1.5449964954210667,42.98887080743201
1589985621.734305,-0.20396684036001894,-2.7126849834201803,8.027130270014212,0.3922222222222223,0.38333333333333336,-0.6144444444444445,-0.3125,-3.510084083372809,54.67916864045476
1589985621.744305,-0.18368585584522826,-2.6683980181668043,8.144011442727379,0.3922222222222223,0.38333333333333336,-0.6144444444444445,-3.587962280287838,-4.88821959419606,64.4159121741182
1589985621.754305,-0.19775124834988234,-2.862009986799059,8.696507490099293,0.40504256825269286,0.38974350634856864,-0.6144444444444445,-2.2548499110371347,-5.276990185387132,73.44409329621764
1589985621.7643049,-0.2548672497871352,-3.000151714528988,8.77520860747736,0.4211111111111111,0.3977777777777778,-0.6144444444444445,0.19366340274015026,-5.128081701370075,84.60579862992492
1589985621.7743049,-0.2556913822909513,-2.9256913822909514,8.665106211665522,0.4211111111111111,0.3977777777777778,-0.6144444444444445,-3.2387024297250573,-7.100075188860208,95.47707923840197
1589985621.7843049,-0.2828023102169558,-3.01394846766975,8.970189250245088,0.4211111111111111,0.3977777777777778,-0.6144444444444445,-3.45103842547206,-6.884562412088147,103.28420703507949
1589985621.7943048,-0.3212291336158928,-3.0743854331920537,9.084552364264912,0.4211111111111111,0.3977777777777778,-0.6144444444444445,-2.325588106457036,-6.920049191390619,110.35233259536382
1589985621.8043048,-0.3606932250032761,-2.9472270999868955,8.618661381208229,0.4211111111111111,0.38839929236011,-0.6297910569460825,-1.9897908203380945,-7.303834687459049,117.8685255864238
1589985621.8143048,-0.39181197829716197,-3.09903714524207,8.921698247078464,0.4211111111111111,0.3855555555555555,-0.6344444444444445,-1.6535254069282137,-8.187215671953256,122.61267998747913
1589985621.8243048,0.2964879898466022,-3.2287944407013365,7.451846257501449,0.4211111111111111,0.3855555555555555,-0.6344444444444445,-21.65405587502546,-13.87661290954388,37.57719833597092
1589985621.8343048,0.36494306323459413,-2.8907290102888945,6.076000878766798,0.4211111111111111,0.3855555555555555,-0.6344444444444445,-40.72279255611292,-12.015170169528762,-117.18510627585954
1589985621.8443048,-1.2985298806497478,-2.570904821405489,9.85918781507174,0.4211111111111111,0.3855555555555555,-0.6344444444444445,8.7230654056616,21.119304472402945,-249.9563127450558
1589985621.8543048,0.11403502053888459,-3.6654842303140014,12.675485622780757,0.4622223769407505,0.36234758290979135,-0.6510215677628475,60.754081668175175,44.156297866044696,-217.33058031052008
1589985621.8643048,-2.598128429181061,-6.434287746393009,10.275429790692948,0.49,0.3466666666666667,-0.6622222222222223,35.789270473481,26.52971956919325,-193.1557483235115
1589985621.8743048,-3.2823101004541075,-6.592165267648273,7.7601448328058344,0.49,0.3466666666666667,-0.6622222222222223,-15.67560547681299,0.9237499139947709,-107.6337854341544
1589985621.8843048,-0.026950952765680658,-2.648860228190829,11.501023508778845,0.49,0.3466666666666667,-0.6622222222222223,-17.861709805505743,-11.420902959780873,29.349911078487402
1589985621.8943048,-0.02786446866777642,-1.811377329109166,11.733112280513344,0.49,0.3466666666666667,-0.6622222222222223,6.505366348064221,-7.5334264082049085,81.37587593298609
1589985621.9043047,0.791178748027354,-3.266314781693845,7.662514466070489,0.4565384300660471,0.36880278216143547,-0.6622222222222223,1.4656338769068906,-0.016280904786954764,90.08949894792215
1589985621.9143047,2.625775337103088,-5.353466724662897,8.082207481513702,0.4177777777777778,0.3944444444444444,-0.6622222222222223,-17.11501603958243,-15.665370813397129,52.96558286211396
1589985621.9243047,0.27069557394111543,-3.1066249757439977,9.389606788152486,0.4177777777777778,0.3944444444444444,-0.6622222222222223,-5.799095251115775,-3.8584860726445207,-0.19132583308342177
1589985621.9343047,-1.011469174703205,-2.7960479327795285,8.094383016645978,0.4177777777777778,0.3944444444444444,-0.6622222222222223,16.788350599955443,11.428868678188357,-18.73573713358159
1589985621.9443047,-0.9721231369096285,-5.094483365826049,7.475465903611932,0.4177777777777778,0.3944444444444444,-0.6622222222222223,6.9993108399891,6.2506524746871275,-19.49735341592772
1589985621.9543047,-0.7400053364957011,-5.063619329973318,8.894252594129854,0.434231577560365,0.38964541950785647,-0.6622222222222223,-5.460120812333235,-4.671512748295286,-14.545263860065223
1589985621.9643047,-0.29683607651245547,-4.268350756227758,8.860124555160143,0.4444444444444444,0.38666666666666666,-0.6622222222222223,-0.7721307829181496,-0.7879295484875444,-0.458011287811388
1589985621.9743047,-0.13394569448400265,-4.268649007879996,8.844324503939998,0.4444444444444444,0.38666666666666666,-0.6622222222222223,0.922837748030001,0.5308079369600303,2.2383758188550273
1589985621.9843047,0.02538841252359975,-4.439689269981121,8.813057937382,0.4444444444444444,0.38666666666666666,-0.6622222222222223,0.2720252025645059,-0.6826448434550032,0.36723174952800497
1589985621.9943047,-0.0026537356321839067,-4.359245689655173,8.795307471264367,0.4444444444444444,0.38666666666666666,-0.6622222222222223,-0.261871408045977,-0.020599856321839083,-0.049057112068965514
1589985622.0043046,-0.036656602903894914,-4.317283705923023,8.871193823461626,0.4308722695961691,0.3919204117692249,-0.6617844101303424,-0.3352615810094492,0.15522297764461856,0.01324613966351694
1589985622.0143046,-0.0005288414646041073,-4.402211536585841,8.75,0.41,0.4,-0.6611111111111111,-0.10456737803093846,-0.1651142149308468,0.013822103661510252
1589985622.0243046,-0.054478228885697276,-4.412260833012225,8.718956457771394,0.41,0.4,-0.6611111111111111,0.9097825515816023,0.20163020632640907,0.1875
1589985622.0343046,0.0,-4.312117704568864,8.747753801567764,0.41,0.4,-0.6611111111111111,0.7694519370100735,-0.12292790551511025,0.101403874020147
1589985622.0443046,0.001210466815562357,-4.250894201340062,8.993053464582127,0.41,0.4,-0.6611111111111111,0.4983645600683817,-0.045392505583588386,-0.07006541759726473
1589985622.0543046,-0.0022915988277434074,-4.3566317974601105,8.851562601758385,0.41,0.3972685335938348,-0.6611111111111111,-0.9134112463366981,-0.3237850048844025,-0.08658875366330185
1589985622.0643046,-0.04648333265331103,-4.463516667346689,8.755383328573176,0.41,0.38666666666666666,-0.6611111111111111,-1.0038888775551837,-0.16163195152801013,0.055173609694397975
1589985622.0743046,-0.05553991549366202,-4.454460084506338,8.580154261569618,0.41,0.38666666666666666,-0.6611111111111111,0.16733755031627373,-0.24710759556966774,0.0
1589985622.0843046,-0.043138424821002386,-4.367931583134447,8.714964200477327,0.41,0.38666666666666666,-0.6611111111111111,0.7122861972951472,-0.12758552108194113,-0.032542760540970564
1589985622.0943046,-0.017130426105179123,-4.345695639157769,8.83856521305259,0.41,0.38666666666666666,-0.6611111111111111,0.34836967368526095,-0.08043483684263047,0.017798872368027144
1589985622.1043046,-0.04,-4.401158497772119,8.78652450668364,0.41,0.38666666666666666,-0.657819789235448,-0.28132558879694464,0.03605187778485042,0.04565563335455124
1589985622.1143045,-0.02920336332524987,-4.446194955012125,8.678406726650499,0.41,0.38666666666666666,-0.6533333333333333,-0.3788656143054643,0.03373948960859416,-0.0625
1589985622.1243045,-0.014988884257329443,-4.419911074058636,8.64496665277199,0.41,0.38666666666666666,-0.6533333333333333,0.2820142073086008,0.03118052660830902,0.00013894678338195743
1589985622.1343045,-0.02655306718597858,-4.367585199610516,8.712765335929893,0.41,0.38666666666666666,-0.6533333333333333,0.7025925024342746,0.07759250243427458,0.0625
1589985622.1443045,-0.05,-4.35,8.823522811894952,0.41,0.38666666666666666,-0.6533333333333333,0.664064439259296,0.14701757434344437,0.04900585811448146
1589985622.1543045,-0.05,-4.35,8.80270019361565,0.41,0.38666666666666666,-0.6533333333333333,0.18687943702526932,0.016876210097800742,0.005625403365933569
1589985622.1643045,-0.006713996710215348,-4.416713996710215,8.766572006579569,0.43,0.3944444444444444,-0.6822222222222222,-0.75,-0.15952501370743605,-0.013987493146281976
1589985622.1743045,-0.03135782198633014,-4.4403394554965825,8.716605445034176,0.43,0.3944444444444444,-0.6822222222222222,-0.7287840314635916,-0.06462159685364084,-0.0625
1589985622.1843045,-0.064347191087562,-4.42173595543781,8.656743257930847,0.43,0.3944444444444444,-0.6822222222222222,0.08698033421642551,-0.125,-0.0625
1589985622.1943045,-0.0501012159500034,-4.350506079750017,8.749342096324979,0.43,0.3944444444444444,-0.6822222222222222,0.6212044018748726,-0.125,-0.0625
1589985622.2043045,-0.02576062639821029,-4.3363590604026845,8.822119686800896,0.4274092716877952,0.3956220482227193,-0.6777473278647775,0.35427153243847875,0.1610039149888143,0.013248042505592842
1589985622.2143044,-0.007621525933793592,-4.3814062665958575,8.801458311205524,0.4177777777777778,0.4,-0.6611111111111111,-0.2172309258275801,0.0625,0.07736546291379005
1589985622.2243044,-0.007242798353909465,-4.4282716049382715,8.684650205761317,0.4177777777777778,0.4,-0.6611111111111111,-0.15406378600823045,0.0625,0.07973251028806584
1589985622.2343044,-0.026778579251482307,-4.392259526417161,8.655816684920126,0.4177777777777778,0.4,-0.6611111111111111,0.25209836096529326,0.03425591978549039,0.014122040107254806
1589985622.2443044,-0.030085241517633296,-4.368136386428214,8.75779542035768,0.4177777777777778,0.4,-0.6611111111111111,0.6875,-0.037606551897041623,0.0625
1589985622.2543044,-0.00917507931929622,-4.332233439092395,8.820824920680703,0.4177777777777778,0.3983009112371674,-0.6587323868431454,0.38166402269012595,0.019114748581867128,0.043385251418132875
1589985622.2643044,-0.01575998689476024,-4.37424001310524,8.781013315859681,0.4177777777777778,0.3944444444444444,-0.6533333333333333,-0.549833551753996,0.0625,-0.02966669396924949
1589985622.2743044,-0.014227157730855308,-4.40896954364114,8.688864211345724,0.4177777777777778,0.3944444444444444,-0.6533333333333333,-0.6050206164250267,-0.02641973581784568,-0.0032201761214362135
1589985622.2843044,-0.03467485283296542,-4.420650294334069,8.614674852832964,0.4177777777777778,0.3944444444444444,-0.6533333333333333,-0.17047518855776306,-0.03734650938189846,0.09171783020603386
1589985622.2943044,-0.04345814694133024,-4.396167412234679,8.675330351061284,0.4177777777777778,0.3944444444444444,-0.6533333333333333,0.235407347066512,0.0625,0.103386581616686
1589985622.3043044,-0.04591025150006384,-4.365910251500064,8.793632494999787,0.42035280461107094,0.3952018052777659,-0.6533333333333333,0.5284187625005319,0.0625,0.07102030937486702
1589985622.3143044,-0.020297640014089468,-4.340892920042268,8.878511799929553,0.43666666666666665,0.4,-0.6533333333333333,0.29947824938358575,0.05877949982388165,0.12313974991194082
1589985622.3243043,-0.029531305036984853,-4.368593915110955,8.832343474815076,0.43666666666666665,0.4,-0.6533333333333333,-0.10449459536808736,-0.056641312962310675,0.06542934351884466
1589985622.3343043,-0.02,-4.426158766778523,8.67152369966443,0.43666666666666665,0.4,-0.6533333333333333,-0.1444460465604027,-0.05297687709731544,0.07698458473154363
1589985622.3443043,-0.023505728563014194,-4.405977085747943,8.721551557067126,0.43666666666666665,0.4,-0.6533333333333333,0.3221972316695484,-0.003232410556516116,0.021910803518838708
1589985622.3543043,-0.02763553849902534,-4.372906615497076,8.801280153508772,0.4350903589993502,0.3986864102772363,-0.6533333333333333,0.6136105780945419,-0.09544423123781677,0.09205576876218323
1589985622.3643043,-0.02376929434628186,-4.357538588692564,8.836076350883463,0.43,0.3944444444444444,-0.6533333333333333,0.13941910335738378,-0.11779044832130811,0.14038382067147676
1589985622.3743043,-0.027560763888888888,-4.382196180555556,8.748289930555556,0.43,0.3944444444444444,-0.6533333333333333,-0.3719618055555556,-0.2515190972222222,0.0625
1589985622.3843043,-0.020278993055555555,-4.418605034722222,8.653626909722222,0.43,0.3944444444444444,-0.6533333333333333,-0.7360503472222222,-0.06947482638888888,0.0625
1589985622.3943043,-0.03411474201963478,-4.411172113029452,8.678254176872374,0.43,0.3944444444444444,-0.6533333333333333,-0.06608568811358703,-0.20589143118864128,0.0992828623772826
1589985622.4043043,-0.026318704453441297,-4.3815750607287445,8.782637408906883,0.43,0.3965506792622582,-0.6505250202429149,0.40132793522267207,-0.2105080971659919,0.16117206477732793
1589985622.4143043,-0.04040500200225709,-4.359594997997743,8.83,0.43,0.4044444444444445,-0.64,0.4200416833521424,-0.002531262514106812,0.042510420838035606
1589985622.4243042,-0.02,-4.383008843738699,8.811946937567807,0.43,0.4044444444444445,-0.64,0.18418154321596475,0.09679208994969918,0.0
1589985622.4343042,-0.012606809155398425,-4.407393190844601,8.702606809155398,0.43,0.4044444444444445,-0.64,-0.1643962786106201,0.0068111641681397606,-0.02310372138937992
1589985622.4443042,-0.008135916877281662,-4.411864083122718,8.70898380604699,0.43,0.4044444444444445,-0.64,-0.023301039033979218,0.10805017317232987,-0.04555017317232987
1589985622.4543042,-0.029582166523414756,-4.388746499570244,8.76,0.43,0.4034230737239028,-0.6408820928950133,0.24477708154268446,0.05988854077134222,0.0
1589985622.4643042,-0.02376757146421937,-4.371302714392658,8.76,0.43,0.3892096191347585,-0.6531573491310925,0.1720946433027421,0.023547321651371057,0.0
1589985622.4743042,-0.013747591726123685,-4.369378612410815,8.734990366904494,0.43,0.38,-0.6611111111111111,-0.07038775855863486,0.019538775855863486,0.03907755171172697
1589985622.4843042,-0.002396621057689876,-4.3923966210576895,8.68479324211538,0.43,0.38,-0.6611111111111111,-0.5149788816105617,0.047521118389438274,0.0650844735577531
1589985622.4943042,-0.017148731320830408,-4.4119145522013845,8.7,0.43,0.38,-0.6611111111111111,-0.5029272389930799,0.0,-0.050534048741349924
1589985622.5043042,-0.037758825190624117,-4.44439706297656,8.711205874046879,0.4307470582697919,0.38074705826979194,-0.6594924848598952,-0.24246328720700366,0.021011013837898898,0.18049632872070037
1589985622.5143042,-0.022173130251231323,-4.393480609246306,8.79782686974877,0.43666666666666665,0.38666666666666666,-0.6466666666666666,0.3260820640701958,0.1467538077894127,0.09783587185960846
1589985622.5243042,-0.027526602128170253,-4.369175534042723,8.78505320425634,0.43666666666666665,0.38666666666666666,-0.6466666666666666,0.35954126330106406,0.010305824465957276,0.0
1589985622.5343041,-0.002358788703096245,-4.3607862629010326,8.734717577406192,0.43666666666666665,0.38666666666666666,-0.6466666666666666,0.20224242939435155,0.11517171373709897,0.0
1589985622.5443041,-0.01400531831690912,-4.4020026591584545,8.722002659158456,0.43666666666666665,0.38666666666666666,-0.6466666666666666,-0.11248338025965901,-0.12491690129829501,-0.03746676051931801
1589985622.5543041,-0.027126857500391052,-4.408563428750195,8.728563428750196,0.43666666666666665,0.38666666666666666,-0.6466666666666666,-0.07147857031127797,0.08010714844361022,0.04454285937744408
1589985622.564304,-0.026390933871348544,-4.403984889785581,8.760827198385954,0.43666666666666665,0.3944444444444444,-0.6533333333333333,0.11513221437616708,-0.015037775536047735,0.1024433366959284
1589985622.574304,-0.0009050501229430679,-4.360301683374314,8.835474749385284,0.43666666666666665,0.3944444444444444,-0.6533333333333333,0.48491583128428223,-0.125,-0.0625
1589985622.584304,-0.02778670996356724,-4.376639870109298,8.703279740218596,0.43666666666666665,0.3944444444444444,-0.6533333333333333,-0.027666125455409474,-0.11116693727229526,-0.034833874544590526
1589985622.594304,-0.020666598741689805,-4.40199979622507,8.74800020377493,0.43666666666666665,0.3944444444444444,-0.6533333333333333,-0.14999745281336763,-0.0625,0.05416751572887746
1589985622.604304,-0.02884222251343205,-4.428842222513432,8.72115777748657,0.43666666666666665,0.3950876541592044,-0.6533333333333333,-0.43487501638055304,-0.0625,-0.048027781417900664
1589985622.614304,-0.020472425636705333,-4.418582723089884,8.731889702546821,0.43666666666666665,0.4,-0.6533333333333333,0.08021596137645,-0.0625,0.06545266022940834
1589985622.624304,-0.035815053563975324,-4.378369892872049,8.755462366090061,0.43666666666666665,0.4,-0.6533333333333333,0.3648118304503084,-0.0806720423874229,0.052311830450308405
1589985622.634304,-0.044125042034196434,-4.352937478982902,8.722937478982903,0.43666666666666665,0.4,-0.6533333333333333,0.11406302542745544,-0.08828151271372772,-0.033203781784319306
1589985622.644304,-0.027327882017960138,-4.3733605899102,8.73801635394612,0.43666666666666665,0.4,-0.6533333333333333,-0.07920073738774915,0.0,0.1540985252245017
1589985622.654304,-0.019451003180817227,-4.410548996819183,8.760548996819182,0.43587367126118043,0.4,-0.6537603308593644,-0.12156876988010766,0.0068624602397846825,0.0625
1589985622.664304,-0.015357073549388705,-4.406607316126528,8.780714147098777,0.4222222222222222,0.4,-0.6611111111111111,0.02120427420919853,0.07477743547448087,0.0625
1589985622.674304,-0.03801576663561806,-4.37,8.785952700093146,0.4222222222222222,0.4,-0.6611111111111111,0.25,-0.09589902764840857,0.07919951382420429
1589985622.684304,-0.05021169100186935,-4.374894154499065,8.729788308998131,0.4222222222222222,0.4,-0.6611111111111111,0.18882306876168342,-0.17220576719042086,0.125
1589985622.694304,-0.02228586612006301,-4.39,8.757714133879936,0.4222222222222222,0.4,-0.6611111111111111,-0.08571997950236292,-0.125,0.09642667349921236
1589985622.704304,-0.03,-4.391539236903738,8.75,0.4220511958995846,0.3994869210320872,-0.6608118150464953,-0.3677848270137262,-0.13221517298627375,-0.0024050576620912516
1589985622.714304,-0.028488436779782245,-4.425465310339346,8.75,0.4177777777777778,0.38666666666666666,-0.6533333333333333,-0.1591581896209171,-0.2652636493681952,-0.053052729873639036
1589985622.724304,-0.021821823094651513,-4.405465469283955,8.75,0.4177777777777778,0.38666666666666666,-0.6533333333333333,-0.03415918302471588,-0.056931971707859796,-0.011386394341571966
1589985622.734304,-0.03,-4.37,8.696463179989504,0.4177777777777778,0.38666666666666666,-0.6533333333333333,0.35884205002623754,-0.046342050026237536,0.09268410005247507
1589985622.744304,-0.028505800366338926,-4.3744825989009835,8.745976798534643,0.4177777777777778,0.38666666666666666,-0.6533333333333333,0.22198375686885488,0.0718387477103817,-0.10632250457923659
1589985622.754304,-0.02,-4.400871406788276,8.779128593211723,0.41860077307781607,0.3874412504784674,-0.6533333333333333,0.04888426893319026,0.125,0.002723146213361947
1589985622.764304,-0.02,-4.416108566745408,8.76,0.43666666666666665,0.4044444444444445,-0.6533333333333333,-0.21351781323820085,0.07635708431760112,0.07466072892059972
1589985622.774304,-0.02166040453987969,-4.393358381840482,8.751697977300601,0.43666666666666665,0.4044444444444445,-0.6533333333333333,0.010142698619736407,-0.125,0.125
1589985622.784304,-0.029825763622559228,-4.360696945509764,8.710871181887205,0.43666666666666665,0.4044444444444445,-0.6533333333333333,0.36737715848696634,-0.125,0.125
1589985622.794304,-0.02,-4.365943237392768,8.747924316523692,0.43666666666666665,0.4044444444444445,-0.6533333333333333,0.05070953259039525,0.15035476629519762,0.05011825543173254
1589985622.804304,-0.020538008118778848,-4.391076016237557,8.78,0.43588954382843054,0.40390643632566564,-0.6541104561715695,-0.25,-0.013450202969471166,0.0
1589985622.8143039,-0.028014205757598575,-4.415957382727204,8.776028411515197,0.4222222222222222,0.3944444444444444,-0.6677777777777778,-0.25,-0.25,-0.01241121401500891
1589985622.8243039,-0.02429211411913489,-4.43141577176173,8.744977600583027,0.4222222222222222,0.3944444444444444,-0.6677777777777778,-0.16952286026622082,-0.19634857351081386,-0.02226143013311041
1589985622.8343039,-0.04,-4.396095729013255,8.699109965635738,0.4222222222222222,0.3944444444444444,-0.6677777777777778,0.14940169366715758,0.0,0.11686610211094747
1589985622.8443038,-0.03641869107425504,-4.37,8.76447663615718,0.4222222222222222,0.3944444444444444,-0.6677777777777778,0.301308409607047,-0.011191590392952998,0.051308409607047
1589985622.8543038,-0.013327093799463216,-4.37,8.79334113275067,0.4222222222222222,0.3944444444444444,-0.6677777777777778,0.22914716812332256,-0.08335283187667744,-0.02085283187667744
1589985622.8643038,-0.022987989285405682,-4.38532532619027,8.794674673809729,0.4222222222222222,0.3944444444444444,-0.6677777777777778,-0.09984986606757107,-0.029216711310809634,-0.0625
1589985622.8743038,-0.012108922363847046,-4.392108922363847,8.733128621089223,0.4222222222222222,0.3944444444444444,-0.6677777777777778,-0.07227694090382386,0.0,0.026361529548088066
1589985622.8843038,-0.0213571916189676,-4.3972856167620655,8.678143149713806,0.4222222222222222,0.3944444444444444,-0.6677777777777778,0.141964895237095,0.008482447618547497,0.10803510476290501
1589985622.8943038,-0.03,-4.383373764180387,8.740121292541163,0.4222222222222222,0.3944444444444444,-0.6677777777777778,0.21837096080886614,0.0625,-0.02108602612742258
1589985622.9043038,-0.03,-4.399051339077131,8.787154017231389,0.4222222222222222,0.3944444444444444,-0.6677777777777778,0.07139369615190536,0.0625,-0.1190708692320631
1589985622.9143038,-0.03,-4.4,8.798289158147167,0.42866934522557393,0.3944444444444444,-0.6558045493429817,-0.1965361920989524,-0.09292171525937146,0.030421715259371457
1589985622.9243038,-0.0025451020518067746,-4.391696734701204,8.771516326493977,0.43,0.3944444444444444,-0.6533333333333333,-0.41098852029367944,0.11439540811747177,-0.057197704058735886
1589985622.9343038,-0.02513274812860143,-4.406755165419067,8.696224172904662,0.43,0.3944444444444444,-0.6533333333333333,-0.1757005403270684,0.020280216130827367,-0.010140108065413683
1589985622.9443038,-0.03877522680985003,-4.3875504536197,8.7624495463803,0.43,0.3944444444444444,-0.6533333333333333,0.08546449731531199,0.11734516756156267,0.11734516756156267
1589985622.9543037,-0.031009442695797074,-4.3720188853915944,8.777981114608405,0.43,0.3944444444444444,-0.6533333333333333,0.23107294945380485,0.06880901684873172,0.06880901684873172
1589985622.9643037,-0.01459299191374663,-4.376123989218329,8.803159029649596,0.43666666666666665,0.4,-0.6322222222222222,0.05293126684636119,-0.10586253369272237,0.009568733153638815
1589985622.9743037,-0.03717281817960633,-4.41,8.707172818179608,0.43666666666666665,0.4,-0.6322222222222222,-0.008834943188730201,0.0,0.0625
1589985622.9843037,-0.01849872486402311,-4.408498724864024,8.69450382540793,0.43666666666666665,0.4,-0.6322222222222222,-0.05311703040014444,0.0,0.07188296959985556
1589985622.9943037,-0.010694291453379122,-4.399305708546621,8.724165748720276,0.43666666666666665,0.4,-0.6322222222222222,0.008678643167239033,0.013017964750858549,0.12933932158361952
1589985623.0043037,-0.017488660662217326,-4.392511339337783,8.764931963973304,0.43666666666666665,0.4,-0.6322222222222222,0.09360825827771659,0.14041238741657486,0.17180412913885829
1589985623.0143037,-0.02,-4.39,8.805251496243475,0.43666666666666665,0.39532379699194925,-0.6621499214737467,-0.03282185152171144,0.029678148478288563,0.1875
1589985623.0243037,-0.018762725899946417,-4.382474548200107,8.741339081299625,0.43666666666666665,0.3944444444444444,-0.6677777777777778,-0.1875,-0.015465926250669783,-0.04703407374933022
1589985623.0343037,-0.012786666978113101,-4.397213333021887,8.681393333489057,0.43666666666666665,0.3944444444444444,-0.6677777777777778,-0.17879166569339655,-0.1424166686132069,0.05379166569339656
1589985623.0443037,-0.02904607725707441,-4.3809539227429255,8.696677459200478,0.43666666666666665,0.3944444444444444,-0.6677777777777778,-0.08922789714029046,-0.22018991428357537,0.011924034286569846
1589985623.0543036,-0.02119628686929181,-4.388803713130708,8.751625991914958,0.43666666666666665,0.3944444444444444,-0.6677777777777778,0.20513924240155712,0.025116035334630915,0.11004641413385238
1589985623.0643036,-0.02890913191659984,-4.39,8.786727395749798,0.42379792056491133,0.3993939621758888,-0.6747071026017999,0.25,0.0625,-0.04204622343624698
1589985623.0743036,-0.019203342902277862,-4.390796657097722,8.79884680063189,0.4222222222222222,0.4,-0.6755555555555556,0.05752089313923664,0.004979106860763364,-0.0625
1589985623.0843036,-0.012078782422584974,-4.397921217577415,8.69910295391619,0.4222222222222222,0.4,-0.6755555555555556,0.012992390141156086,0.049507609858843914,-0.0625
1589985623.0943036,-0.010519211610962437,-4.398961576778076,8.73207684644385,0.4222222222222222,0.4,-0.6755555555555556,-0.11850985486296954,-0.05276478229445432,0.0
1589985623.1043036,-0.018712323950540115,-4.38257535209892,8.76484929580216,0.4222222222222222,0.4,-0.6755555555555556,-0.01609595061824859,0.10085607407262712,0.0
1589985623.1143036,-0.030769979403843108,-4.380769979403843,8.805380123576942,0.4222222222222222,0.4,-0.6611111111111111,0.0625,0.009624742548038839,-0.05287525745196116
1589985623.1243036,-0.03941284959955534,-4.390293575200222,8.746770672797554,0.4222222222222222,0.4,-0.6611111111111111,0.05516061999444178,0.125,0.06066515499861044
1589985623.1343036,-0.018408346694970754,-4.4,8.643979133262574,0.4222222222222222,0.4,-0.6611111111111111,-0.17755216684356723,0.12002608342178361,0.0
1589985623.1443036,-0.0002202250529208601,-4.399559549894159,8.691761800423366,0.4222222222222222,0.4,-0.6611111111111111,-0.06662921974226613,0.05837078025773387,0.004129219742266127
1589985623.1543036,-0.008008504475062204,-4.3839829910498755,8.754068035800497,0.4222222222222222,0.4,-0.6611111111111111,-0.21265945890741636,-0.08765945890741636,0.15015945890741636
1589985623.1643035,-0.03910173240871921,-4.37044913379564,8.80089826759128,0.4222222222222222,0.38666666666666666,-0.6755555555555556,0.06811417244550494,0.06530708622275247,-0.0084212586682574
1589985623.1743035,-0.02131162825389722,-4.38,8.814097672857462,0.4222222222222222,0.38666666666666666,-0.6755555555555556,0.1752034851197136,0.1168023234131424,-0.1834011617065712
1589985623.1843035,-0.036953830088759604,-4.38,8.743707764600583,0.4222222222222222,0.38666666666666666,-0.6755555555555556,0.028557842917878717,0.01903856194525247,-0.13451928097262622
1589985623.1943035,-0.020122884303269188,-4.399877115696731,8.740245768606538,0.4222222222222222,0.38666666666666666,-0.6755555555555556,-0.1257680268954324,-0.18519591931370277,0.0007680268954324135
1589985623.2043035,-0.02822687224669603,-4.391773127753304,8.756453744493392,0.4222222222222222,0.38666666666666666,-0.6755555555555556,-0.17641795154185022,-0.03324614537444934,0.051417951541850214
