time,acc_x,acc_y,acc_z,mag_x,mag_y,mag_z,gyr_x,gyr_y,gyr_z
1589988772.4295075,-3.73,-0.68,8.93,0.3022222222222222,-0.3566666666666667,-0.6222222222222222,-0.25,0.5,0.0
1589988772.4395075,-3.74,-0.67617987507031,8.974606708309897,0.3022222222222222,-0.3566666666666667,-0.6222222222222222,-0.10604036531572872,0.5238757808105627,0.06741614612629149
1589988772.4495075,-3.7238704194710723,-0.6519352097355361,9.012259161057855,0.2959496075720836,-0.3521862276308534,-0.6105730807291077,-0.2399296349173975,0.9274296349173975,-0.10080987830579917
1589988772.4595075,-3.7025670866596134,-0.65,8.94155188996826,0.29444444444444445,-0.3511111111111111,-0.6077777777777778,-0.3125,1.0,-0.125
1589988772.4695075,-3.7332750039770017,-0.6583187509942504,8.871768743040247,0.29444444444444445,-0.3511111111111111,-0.6077777777777778,-0.6244531622843896,1.1039843874281299,0.030976581142194842
1589988772.4795074,-3.748258229542684,-0.635225311371949,8.868258229542683,0.29444444444444445,-0.3511111111111111,-0.6077777777777778,-0.8423418039253185,1.3830696732088643,0.0625
1589988772.4895074,-3.723649876449344,-0.6563501235506558,8.889762592662992,0.29444444444444445,-0.3511111111111111,-0.6077777777777778,-0.9161720680478996,1.5610162041436988,-0.061016204143698904
1589988772.4995074,-3.5697531666125366,-0.5375446573562845,8.7052127314063,0.30050449280069286,-0.3511111111111111,-0.5913290750965321,-1.2296809028905489,2.696329977265346,0.2645745371873985
1589988772.5095074,-3.5713106853179735,-0.5495728223815681,8.765669918890325,0.3022222222222222,-0.3511111111111111,-0.5866666666666667,-3.5845876924885385,8.008920594804279,1.149575349712002
1589988772.5195074,-3.645125031414928,-0.5672361146016587,8.753819426991706,0.3022222222222222,-0.3511111111111111,-0.5866666666666667,-5.690625785373209,11.911720124403116,2.2622400414677055
1589988772.5295074,-3.894234015879649,-0.778217300459674,9.092367739239448,0.3022222222222222,-0.3511111111111111,-0.5866666666666667,-6.91312682824906,11.79874634350188,2.8752611784371083
1589988772.5395074,-4.1065685266135254,-0.8598225764978144,9.276923373617898,0.3022222222222222,-0.3511111111111111,-0.5866666666666667,-4.732611211108254,6.607233543327334,2.8443044484443303
1589988772.5495074,-4.027821308863125,-0.836955327215781,9.194343645255234,0.2912073312941493,-0.3511111111111111,-0.609614356100152,0.3996133029287323,-0.6387885323369416,2.9673969036760264
1589988772.5595074,-3.8304157356873376,-0.7060730376176697,8.928668546939672,0.2888888888888889,-0.3511111111111111,-0.6144444444444445,1.8424508259770704,-2.220154481520823,1.9400983480458591
1589988772.5695074,-3.7538100108290218,-0.6630166847150363,8.790793326113986,0.2888888888888889,-0.3511111111111111,-0.6144444444444445,1.434499458548911,-1.890853738017888,0.7132703144427065
1589988772.5795074,-3.782111836274273,-0.69,8.828447345097091,0.2888888888888889,-0.3511111111111111,-0.6144444444444445,0.17080613971476916,-0.4551607445008461,-0.0625
1589988772.5895073,-3.79,-0.69,8.904786683647073,0.2888888888888889,-0.3511111111111111,-0.6144444444444445,-0.2049762207983444,0.0625,-0.0625
1589988772.5995073,-3.8049784828019475,-0.6974892414009737,8.952467724202922,0.3088601992914856,-0.3610967663124095,-0.6036266513097045,0.030846552536516414,-0.2651543112926025,-0.10930775875608607
1589988772.6095073,-3.7977288417400104,-0.6938644208700052,8.929322104350026,0.31555555555555553,-0.3644444444444445,-0.6,0.31673684781233624,-0.5283894782498689,-0.125
1589988772.6195073,-3.79637341517096,-0.69,8.85901267863232,0.31555555555555553,-0.3644444444444445,-0.6,0.6765030689110015,-0.5054984655444992,-0.08516615518149973
1589988772.6295073,-3.7938290144868394,-0.69,8.873196898592123,0.31555555555555553,-0.3644444444444445,-0.6,0.7739313405427464,-0.2832253621709855,-0.10106865945725363
1589988772.6395073,-3.78484382647386,-0.6951561735261401,8.91546852057842,0.31555555555555553,-0.3644444444444445,-0.6,0.7822260845383759,-0.4130825917686318,-0.09277391546162403
1589988772.6495073,-3.7864229532210296,-0.6935770467789701,8.93642295322103,0.3069916179275158,-0.35588050681640465,-0.6,0.732213084737127,-0.8257172881571825,-0.14278691526287296
1589988772.6595073,-3.782473408166266,-0.6523670408313318,8.94,0.3022222222222222,-0.3511111111111111,-0.6,0.499335204156659,-0.8434176020783295,-0.04637640311749422
1589988772.6695073,-3.7659053898575094,-0.6470473050712453,8.862479644216302,0.3022222222222222,-0.3511111111111111,-0.6,0.04108908974245512,-0.4160890897424551,-0.08809131339056554
1589988772.6795073,-3.7239514949831087,-0.5995320929763526,8.772322391972974,0.3022222222222222,-0.3511111111111111,-0.6,-0.6657275752533656,0.47097010033782083,-0.034878737457772396
1589988772.6895072,-3.703828332700342,-0.6046866691986327,8.78703000379795,0.3022222222222222,-0.3511111111111111,-0.6,-1.9164688568173185,2.177198063045955,0.03857292062286365
1589988772.6995072,-3.878506532159529,-0.7556649644412419,9.045628622450579,0.306982396413143,-0.3479376616504973,-0.5904796516181584,-2.785633165199411,3.7765261286381153,0.3302597982392932
1589988772.7095072,-3.880776532908307,-0.7715425182823926,9.070776532908308,0.3088888888888889,-0.3466666666666667,-0.5866666666666667,-1.1444133227076692,1.514691836208513,0.24521259141196325
1589988772.7195072,-3.8247645038347526,-0.7197308615254318,8.924158942266974,0.3088888888888889,-0.3466666666666667,-0.5866666666666667,0.41318872629746384,-0.1308874041311815,0.12457947113348704
1589988772.7295072,-3.771858938153064,-0.6546025134142898,8.785487150522451,0.3088888888888889,-0.3466666666666667,-0.5866666666666667,1.2107367269133014,-0.8185893815306411,0.0625
1589988772.7395072,-3.758928446937288,-0.6364998257122033,8.82435671958678,0.3088888888888889,-0.3466666666666667,-0.5866666666666667,0.4102705025826282,-0.1924127372690687,0.0861605586716101
1589988772.7495072,-3.791114934054231,-0.6822298681084624,8.932229868108463,0.3072784285883327,-0.34716219291299166,-0.5856756141740167,-0.28484168919472436,0.29856332432211025,0.125
1589988772.7595072,-3.7958218655222926,-0.6916437310445852,8.954178134477708,0.29444444444444445,-0.3511111111111111,-0.5777777777777777,-0.5363866595143287,0.16138665951432873,0.046659978542986244
1589988772.7695072,-3.7797090800029993,-0.6902909199970009,8.882818100022494,0.29444444444444445,-0.3511111111111111,-0.5777777777777777,-0.5643182499812551,0.18931824998125515,-0.030340875009372423
1589988772.7795072,-3.7806137091607943,-0.7,8.857761691223574,0.29444444444444445,-0.3511111111111111,-0.5777777777777777,-0.8240070467648943,0.48217488789237667,0.03316784112748238
1589988772.7895072,-3.79,-0.7043495197438634,8.917398078975454,0.29444444444444445,-0.3511111111111111,-0.5777777777777777,-0.9184465048025614,0.6603155016008538,0.03531550160085379
1589988772.7995071,-3.8029951811752927,-0.7143317270584308,8.952995181175293,0.2978135654898907,-0.3429289600007417,-0.5907729589530704,-0.5688403529632643,0.4625602353088428,-0.027073294115192856
1589988772.8095071,-3.8051028709742485,-0.72,8.930274322597997,0.3022222222222222,-0.3322222222222222,-0.6077777777777778,-0.06378588717810799,0.15689294358905398,0.06164274188126133
1589988772.8195071,-3.7835687883051534,-0.7007063649154603,8.799963036272148,0.3022222222222222,-0.3322222222222222,-0.6077777777777778,0.24558521927837265,-0.09828029237116354,0.026719707628836464
1589988772.829507,-3.78,-0.6707387134391585,8.769261286560841,0.3022222222222222,-0.3322222222222222,-0.6077777777777778,0.23224463932982697,0.09339376234560554,0.057883041005259525
1589988772.839507,-3.790674761422931,-0.6653373807114656,8.822699045691724,0.3022222222222222,-0.3322222222222222,-0.6077777777777778,-0.07936903557327935,0.3167172588933198,0.02492411166002023
1589988772.849507,-3.8,-0.6871996145117667,8.900132433860788,0.2945779491058815,-0.3462367229355136,-0.6033186184599123,-0.5633277116299313,0.3391674697671527,0.009165060465694652
1589988772.859507,-3.7940568660488627,-0.7059431339511373,8.912170598146588,0.2888888888888889,-0.3566666666666667,-0.6,-0.6385662384161752,0.3496445871946083,0.17393376158382476
1589988772.869507,-3.779314268215119,-0.71,8.851914206968035,0.2888888888888889,-0.3566666666666667,-0.6,-0.6292858236555087,0.40839291182775433,0.35017873548326306
1589988772.879507,-3.776078958190541,-0.7160789581905415,8.889026456477039,0.2888888888888889,-0.3566666666666667,-0.6,-0.7634869773817683,0.3235195339273475,0.665460932145305
1589988772.889507,-3.7651128345990195,-0.7249623884669933,8.949924776933987,0.2888888888888889,-0.3566666666666667,-0.6,-0.7194552162438735,0.15695521624387354,1.1226492791870881
1589988772.899507,-3.755279108677466,-0.6983253479352042,8.954720891322534,0.29182172704303666,-0.34728158457339386,-0.6,-0.49302228306335083,0.12848885846832458,1.86642758004411
1589988772.909507,-3.796808120381088,-0.691033211646336,8.944741697088416,0.29444444444444445,-0.3388888888888889,-0.6,-0.375,0.08890682040779983,2.6443727183688006
1589988772.919507,-3.8096964273878173,-0.679544641081726,8.863861602704315,0.29444444444444445,-0.3388888888888889,-0.6,-0.24810267117385829,-0.12689732882614171,3.3489676542718896
1589988772.929507,-3.772154700986098,-0.661896866009268,8.81974216502317,0.29444444444444445,-0.3388888888888889,-0.6,-0.1621777062789625,-0.2871777062789625,3.6875
1589988772.939507,-3.764918770673701,-0.6798375413474019,8.8449187706737,0.29444444444444445,-0.3388888888888889,-0.6,-0.24898463342126198,-0.18953073315747604,3.626015366578738
1589988772.949507,-3.7861570109407854,-0.6738429890592144,8.876928351567976,0.3022237460085264,-0.35265226857918786,-0.5880318437475661,-0.4471417578398805,-0.0625,3.5625
1589988772.959507,-3.7878421410750733,-0.617447493762758,8.875684282150146,0.3088888888888889,-0.3644444444444445,-0.5777777777777777,-0.6384866182807893,-0.17647992742118393,3.8284531639827626
1589988772.969507,-3.74024811895378,-0.5590818702973844,8.824664994625582,0.3088888888888889,-0.3644444444444445,-0.5777777777777777,-0.9083437835901111,-0.11197263525618059,4.49689851307775
1589988772.979507,-3.7096241943119335,-0.5867222606605732,8.88597064928444,0.3088888888888889,-0.3644444444444445,-0.5777777777777777,-1.1629697571100834,0.01343951422016678,5.959028258257165
1589988772.989507,-3.72052879056502,-0.6072473599013335,9.00132197641255,0.3088888888888889,-0.3644444444444445,-0.5777777777777777,-0.699067293609805,-0.39716141216372464,8.619069413397055
1589988772.999507,-3.6839893338910383,-0.5360106661089616,8.98735822092091,0.29821511148291446,-0.34724780306815234,-0.5825216788470997,-0.5501999895430305,-0.5832222280316497,11.463433284534142
1589988773.009507,-3.6902316028047313,-0.5398841985976345,8.999768397195268,0.2888888888888889,-0.3322222222222222,-0.5866666666666667,-0.6228287237056449,-0.6903950350591401,14.299705848502018
1589988773.019507,-3.6958989046327,-0.533525273841825,8.927120892372626,0.2888888888888889,-0.3322222222222222,-0.5866666666666667,-0.37140111546578236,-0.9815659230228118,17.21901065219576
1589988773.029507,-3.5566057926829266,-0.47097743902439027,8.83,0.2888888888888889,-0.3322222222222222,-0.5866666666666667,-0.31162728658536587,-1.3398227896341464,21.413064024390245
1589988773.039507,-3.387982081209929,-0.37399104060496463,8.856008959395036,0.2888888888888889,-0.3322222222222222,-0.5866666666666667,-0.5700671954627651,-1.657511199243794,24.03279118033865
1589988773.049507,-3.2808882812996756,-0.30271062503974056,8.874088828129967,0.2967704513822655,-0.343387769087839,-0.590607447913355,-0.8977792967508107,-1.7244448241877026,25.181948241877027
1589988773.059507,-3.1949933857131407,-0.25988615409284055,8.874045538362862,0.3022222222222222,-0.3511111111111111,-0.5933333333333334,-1.018963461075924,-1.7278759620780886,25.38060961677223
1589988773.069507,-2.446791870440151,-0.09175098212138222,8.941299607151446,0.3022222222222222,-0.3511111111111111,-0.5933333333333334,-1.3342169085224085,-1.3600802733905235,24.434849274432775
1589988773.0795069,-1.943274788717699,-0.3892790317532084,9.065497165513165,0.3022222222222222,-0.3511111111111111,-0.5933333333333334,-0.34064271554272596,-0.6126947622856745,18.289350241713908
1589988773.0895069,-1.700613611172689,-1.3678523608955886,9.220536909776103,0.3022222222222222,-0.3511111111111111,-0.5933333333333334,3.853427732210153,1.1769535579694081,11.39705165151851
1589988773.0995069,-1.6546609665025165,-1.3588478813788625,8.883110557930625,0.2883578356212157,-0.3530367203612509,-0.5956440644335012,6.319227230910764,3.0390882894096,6.008743032631636
1589988773.1095068,-1.7431675710698955,-0.8007329715720418,8.48657082692152,0.26222222222222225,-0.3566666666666667,-0.6,4.032229488944683,2.9383984976107556,-1.062176034664291
1589988773.1195068,-1.8722435585014785,-0.7774633655002112,8.918365337752217,0.26222222222222225,-0.3566666666666667,-0.6,-1.6698143093868798,-0.1884158624947201,-12.739151801670078
1589988773.1295068,-1.9707175523806146,-0.7876183216931968,9.013083986244549,0.26222222222222225,-0.3566666666666667,-0.6,-1.8614506150955437,0.45992351189421066,-20.152098769808912
1589988773.1395068,-2.054127233220666,-0.8319084983099952,8.752381699662,0.26222222222222225,-0.3566666666666667,-0.6,2.3502233220666344,3.401813737324964,-31.051786576533075
1589988773.1495068,-2.10537797810689,-0.8973110109465551,8.77567224726336,0.27356671674894467,-0.3566666666666667,-0.5924370036488517,2.3702752736638764,3.707984546039923,-38.47976899549259
1589988773.1595068,-2.183414157919517,-0.883946741629047,8.839201124435704,0.2822222222222222,-0.3566666666666667,-0.5866666666666667,1.4688244315506689,3.2154957833661064,-42.165863786800344
1589988773.1695068,-2.2473038468994933,-0.8897548951726812,8.926323427590217,0.2822222222222222,-0.3566666666666667,-0.5866666666666667,0.7791061982441077,2.8887871465366826,-44.525426163901734
1589988773.1795068,-2.333496762257169,-0.9,8.926993524514339,0.2822222222222222,-0.3566666666666667,-0.5866666666666667,1.5061285846438484,3.307701202590194,-48.557296484736355
1589988773.1895068,-2.3466905694326843,-0.9099282917019476,8.943452847163421,0.2822222222222222,-0.3566666666666667,-0.5866666666666667,2.166367882091448,3.9784197052286197,-52.20101311124047
1589988773.1995068,-2.3274516007532955,-0.9258172002510986,8.914182799748902,0.2850107553881565,-0.3543428890283881,-0.5922437329985353,2.25,4.265927495291902,-55.60940991839297
1589988773.2095068,-2.3053961209327416,-0.9476232744035505,8.869357330260158,0.2888888888888889,-0.3511111111111111,-0.6,2.25,4.346225755829635,-58.8236152318368
1589988773.2195067,-2.3193318787878785,-0.9703340606060605,8.756837333333333,0.2888888888888889,-0.3511111111111111,-0.6,2.25,4.403118181818182,-61.82489090909091
1589988773.2295067,-2.335367912877512,-0.9738962613674638,8.713896261367463,0.2888888888888889,-0.3511111111111111,-0.6,2.1631483664533513,4.528950544515549,-64.64882395868418
1589988773.2395067,-2.3263037419566377,-1.0010887741300873,8.785443870650438,0.2888888888888889,-0.3511111111111111,-0.6,1.9700935489159392,4.6318048383130455,-67.1876741874667
1589988773.2495067,-2.3224198749161418,-1.0272596247484256,8.88,0.29372863872117266,-0.34654023626950975,-0.5983867500559054,1.8578726546776603,4.780248436451774,-69.63521716548725
1589988773.2595067,-2.3451412099540248,-1.055047069984675,8.882523534992337,0.3088888888888889,-0.3322222222222222,-0.5933333333333334,1.984227906297891,4.953860468510545,-72.24011165438225
1589988773.2695067,-2.408060513200431,-1.0772242052801724,8.875551589439656,0.3088888888888889,-0.3322222222222222,-0.5933333333333334,2.140680773504849,5.232651283001077,-74.94295001852102
1589988773.2795067,-2.4446748394629307,-1.0993496789258612,8.85467483946293,0.3088888888888889,-0.3322222222222222,-0.5933333333333334,2.538956995524421,5.351456995524421,-76.87983070636311
1589988773.2895067,-2.4812575737923623,-1.1687626229872703,8.895010098389816,0.3088888888888889,-0.3322222222222222,-0.5933333333333334,2.75,5.656313114936352,-79.7114581982249
1589988773.2995067,-2.5027941576086956,-1.2139707880434782,8.908823369565217,0.32379106280193237,-0.3266339070048309,-0.5874345561594203,2.8897078804347824,5.829963485054348,-81.62868546195652
1589988773.3095067,-2.51,-1.2609785678977474,8.839745251041593,0.3622222222222222,-0.31222222222222223,-0.5722222222222222,3.2042559670927195,6.012232098721841,-83.95903251006285
1589988773.3195066,-2.5138088016933624,-1.28,8.750955991533187,0.3622222222222222,-0.31222222222222223,-0.5722222222222222,3.07738997883297,6.214292484124727,-85.5207701481692
1589988773.3295066,-2.541040595399188,-1.3020811907983763,8.714162381596752,0.3622222222222222,-0.31222222222222223,-0.5722222222222222,2.736992557510149,6.1315037212449255,-87.60453597203428
1589988773.3395066,-2.5745617154811717,-1.34,8.787087656903765,0.3622222222222222,-0.31222222222222223,-0.5722222222222222,2.4817978556485354,6.213595711297071,-89.16864932008369
1589988773.3495066,-2.6000836202656172,-1.3523954746679785,8.807270044269552,0.36525222714106137,-0.3091922173033831,-0.5810367819861179,2.4375,6.094011313330054,-90.48189252336448
1589988773.3595066,-2.5791496322663385,-1.4082992645326773,8.899149632266338,0.3744444444444445,-0.3,-0.6077777777777778,2.3803147983353834,5.942814798335384,-92.03262981914308
1589988773.3695066,-2.5769153594704055,-1.4518077342159905,8.870746078411218,0.3744444444444445,-0.3,-0.6077777777777778,2.5578370099298944,6.093077342159906,-93.3031740198598
1589988773.3795066,-2.5530736199246147,-1.507705520301541,8.813073619924616,0.3744444444444445,-0.3,-0.6077777777777778,3.113094315091369,6.5265145641490525,-94.39204369244716
1589988773.3895066,-2.5522260756247768,-1.5722260756247768,8.824452151249554,0.3744444444444445,-0.3,-0.6077777777777778,3.428777297854005,6.697880541017718,-95.70847783592913
1589988773.3995066,-2.5828997395833335,-1.6144986979166667,8.885799479166668,0.38990972222222225,-0.2942005208333333,-0.6055224247685185,3.161246744791667,6.546240234375,-97.09434407552084
1589988773.4095066,-2.5940059299942293,-1.6740355799653752,8.871958490040395,0.42777777777777776,-0.28,-0.6,3.4252594372475276,6.962722374783595,-98.23794474956719
1589988773.4195065,-2.597981386612022,-1.7200930669398906,8.799720799180328,0.42777777777777776,-0.28,-0.6,3.624418331625683,7.174883666325137,-98.90197767247268
1589988773.4295065,-2.590818989071038,-1.7559050546448087,8.692284836065573,0.42777777777777776,-0.28,-0.6,3.400593408469945,7.130118681693989,-99.66298241120218
1589988773.4395065,-2.514021350578448,-1.7979715325620695,8.781957298843103,0.42777777777777776,-0.28,-0.6,2.937722401858833,6.487544480371766,-100.6494662355388
1589988773.4495065,-2.4935759781619655,-1.8252320291173796,8.82284804367607,0.42777777777777776,-0.28,-0.6,2.724749772520473,6.444949954504095,-101.16060054595087
1589988773.4595065,-2.520890995076947,-1.8771279606155755,8.846436019692211,0.4544444444444444,-0.2411111111111111,-0.6433333333333333,2.976481034616428,7.084774876923674,-102.03898103461643
1589988773.4695065,-2.529020428732023,-1.9421634298561847,8.813918285071908,0.4544444444444444,-0.2411111111111111,-0.6433333333333333,3.3321437570260106,7.288010718300578,-102.39464375702602
1589988773.4795065,-2.4087618140863385,-1.974603023477231,8.751682418781785,0.4544444444444444,-0.2411111111111111,-0.6433333333333333,3.1172613380396164,6.929761338039617,-103.2162688967327
1589988773.4895065,-2.432404104414974,-2.0364451485647135,8.78,0.4544444444444444,-0.2411111111111111,-0.6433333333333333,3.325128262967937,7.167679568155112,-103.4525256525936
1589988773.4995065,-2.44,-2.1258777782325735,8.785877778232573,0.46071407455918933,-0.23797629605373866,-0.6416353085105899,3.5771944455814335,7.492652777209283,-103.56612500511645
1589988773.5095065,-2.44,-2.16879763415333,8.82879763415333,0.5064952542079962,-0.2150857062293352,-0.6292362390223715,3.6844940853833243,7.439002957308338,-104.04897338422496
1589988773.5195065,-2.4269354060942847,-2.2114521573400077,8.793224873131415,0.5077777777777778,-0.21444444444444444,-0.6288888888888889,3.4566537119107212,7.4133074238214425,-104.44657598337506
1589988773.5295064,-2.4058065140121383,-2.2855482747781513,8.71,0.5077777777777778,-0.21444444444444444,-0.6288888888888889,3.482258142515173,7.482258142515173,-104.99838600478758
1589988773.5395064,-2.359784518481684,-2.352553870379579,8.720215481518316,0.5077777777777778,-0.21444444444444444,-0.6288888888888889,3.3736532405105253,7.277883101276314,-105.80057858859605
1589988773.5495064,-2.316462593797301,-2.367735660687256,8.761603491030884,0.5112158491943362,-0.20455998912183898,-0.6357650317220057,3.1875,6.860847879295353,-106.4696306077099
1589988773.5595064,-2.2306714771008456,-2.4460876788415282,8.793240844057626,0.5255555555555556,-0.16333333333333333,-0.6644444444444444,3.266058543479878,7.245803268119715,-107.62253744203923
1589988773.5695064,-2.1859958901146443,-2.5380287691974908,8.737967120917153,0.5255555555555556,-0.16333333333333333,-0.6644444444444444,3.375,7.675179807484318,-108.63783392818516
1589988773.5795064,-2.170841935830025,-2.586105376113317,8.699158064169975,0.5255555555555556,-0.16333333333333333,-0.6644444444444444,3.451317201416461,8.013817201416462,-109.58290320849876
1589988773.5895064,-2.1479042322597595,-2.6,8.71790423225976,0.5255555555555556,-0.16333333333333333,-0.6644444444444444,3.651197096753005,8.1875,-110.96556225778906
1589988773.5995064,-2.1412434020091946,-2.61616422611953,8.718703814064362,0.5287331384679418,-0.15628738861456382,-0.6707996102692169,3.7422287374425336,8.195271262557466,-112.49090913928146
1589988773.6095064,-2.149204093799682,-2.7306367249602546,8.779363275039746,0.5511111111111111,-0.10666666666666667,-0.7155555555555555,3.6865051172496024,8.247015351748807,-114.21436183426073
1589988773.6195064,-2.1075278219395868,-2.7639777424483305,8.746022257551669,0.5511111111111111,-0.10666666666666667,-0.7155555555555555,3.6344097774244832,8.09072933227345,-115.62093600953895
1589988773.6295063,-2.09,-2.7528134051869317,8.688542270124621,0.5511111111111111,-0.10666666666666667,-0.7155555555555555,3.401907207814079,8.1875,-118.09724233748737
1589988773.6395063,-2.09,-2.816384809700236,8.730923206466825,0.5511111111111111,-0.10666666666666667,-0.7155555555555555,3.2253199730549005,8.1875,-119.50994021556079
1589988773.6495063,-2.0748577623416513,-2.853428158438899,8.750857039609725,0.5522538305907441,-0.10209578874813462,-0.7144128360759225,3.1196435024392204,8.458925990243118,-121.65891695609403
1589988773.6595063,-2.024335187006886,-2.887109875328743,8.759277468832185,0.5634810695540253,-0.05718683289500981,-0.7031855971126413,3.0670158197988395,8.669436720804642,-122.60621524362088
1589988773.6695063,-1.9562631592428472,-2.8868684203785766,8.747508772828564,0.5644444444444444,-0.05333333333333334,-0.7022222222222222,3.372998898593786,8.945285084910735,-123.62299889859379
1589988773.6795063,-1.8899645152009208,-2.9632741920015344,8.660053227198619,0.5644444444444444,-0.05333333333333334,-0.7022222222222222,3.8538709600076726,9.416149180013427,-123.97909274000192
1589988773.6895063,-1.9179394623049444,-3.0444726452340665,8.619296860312089,0.5644444444444444,-0.05333333333333334,-0.7022222222222222,4.051818950930626,9.879394623049446,-124.18310537695055
1589988773.6995063,-1.8820962586952434,-3.087484489565708,8.67664598608761,0.5644444444444444,-0.05333333333333334,-0.7022222222222222,3.648582910321489,9.520962586952434,-124.54153741304756
1589988773.7095063,-1.825629406057993,-3.124370593942007,8.752147892637705,0.5577777777777778,-0.0033333333333333327,-0.7233333333333334,3.0111135065215047,9.10879729438396,-124.17360811684811
1589988773.7195063,-1.7828126952092644,-3.1896888664648504,8.65499687665177,0.5577777777777778,-0.0033333333333333327,-0.7233333333333334,3.535158690115804,9.382817380231609,-123.28123047907357
1589988773.7295063,-1.7806238185255199,-3.23296786389414,8.56578449905482,0.5577777777777778,-0.0033333333333333327,-0.7233333333333334,3.434546313799622,9.430647448015122,-122.28414461247637
1589988773.7395062,-1.7495818716670075,-3.21334502666394,8.653763154996932,0.5577777777777778,-0.0033333333333333327,-0.7233333333333334,2.788980281269172,8.994773395837594,-121.32012065629473
1589988773.7495062,-1.7429838443266372,-3.2661292453869026,8.713145401060265,0.5577777777777778,-0.0033333333333333327,-0.7233333333333334,2.4178412433733425,8.912298054082965,-120.45412956787114
1589988773.7595062,-1.693874723951014,-3.299225055209797,8.712324834370609,0.5762278881973721,0.0028167034731981524,-0.7643335787102099,2.307656595061233,9.163282975306164,-118.2751455531018
1589988773.7695062,-1.65,-3.2981041918233567,8.683791616353286,0.5777777777777777,0.0033333333333333327,-0.7677777777777778,2.667019887133739,9.26616445698514,-115.52907291949037
1589988773.7795062,-1.6366082144931275,-3.3480868877847327,8.591478673291604,0.5777777777777777,0.0033333333333333327,-0.7677777777777778,2.214129145963735,9.336413902690843,-113.58150670291025
1589988773.7895062,-1.5892440472349487,-3.341320578176421,8.632076530941474,0.5777777777777777,0.0033333333333333327,-0.7677777777777778,2.0872608408078985,9.420992772794735,-112.10137647609214
1589988773.7995062,-1.5217313003452244,-3.3497114499424625,8.630288550057537,0.5777777777777777,0.0033333333333333327,-0.7677777777777778,1.4555343785960875,9.740982810701956,-109.56672720080553
1589988773.8095062,-1.4960766668614505,-3.3818977775180663,8.661897777518066,0.6043592590428329,0.008649629586344364,-0.7438544446392281,1.2381388905120863,9.351277781024173,-107.4067083503769
1589988773.8195062,-1.438153044411235,-3.419630608882247,8.628153044411237,0.6111111111111112,0.01,-0.7377777777777778,1.1111478330842626,8.979221749626394,-104.20630005364602
1589988773.8295062,-1.3979731386749434,-3.411594627734989,8.587973138674943,0.6111111111111112,0.01,-0.7377777777777778,0.8097985400620761,8.527197810093114,-101.89595547380925
1589988773.8395061,-1.3236485115680232,-3.3533974484023252,8.609748936834302,0.6111111111111112,0.01,-0.7377777777777778,1.0625,7.314069144785611,-98.17724996098474
1589988773.8495061,-1.3793770733505344,-3.451245853298931,8.652076422164885,0.6104881844616457,0.009976928642612388,-0.7387006320732823,1.0508201253225211,7.036544722938936,-95.75669615431872
1589988773.8595061,-1.3383431152984788,-3.5080571858830796,8.720857788246196,0.5811111111111111,0.008888888888888889,-0.7822222222222223,0.7307091763842768,5.909640705846011,-92.50572800023168
1589988773.8695061,-1.28982242015954,-3.4999408067198465,8.599585647038927,0.5811111111111111,0.008888888888888889,-0.7822222222222223,1.690459664007667,6.312130041999041,-89.91826218395016
1589988773.879506,-1.25726208296594,-3.49958270961921,8.545058543687329,0.5811111111111111,0.008888888888888889,-0.7822222222222223,2.0591601390284415,6.147328111222753,-86.27681244489101
1589988773.889506,-1.2400606967826604,-3.5597875612606886,8.639666167695369,0.5811111111111111,0.008888888888888889,-0.7822222222222223,1.2528451616872065,5.502276129349765,-83.69660451739907
1589988773.899506,-1.21,-3.5604698458632265,8.640201362512812,0.5806785546021093,0.009030588434941242,-0.7813869406875978,1.8133390104700469,5.8745804947649765,-79.91274919113361
1589988773.909506,-1.21,-3.6194720765257933,8.665488032796768,0.5263590406587935,0.026824911968096388,-0.6764940861763675,1.9187001366532024,5.821899931673399,-76.80459596873054
1589988773.919506,-1.1787015324207886,-3.6532461689480287,8.805067622839069,0.5166666666666667,0.03,-0.6577777777777778,1.5649233789605714,4.9375,-72.11530648415771
1589988773.929506,-1.1565175827927618,-3.708706043018095,8.605670877432571,0.5166666666666667,0.03,-0.6577777777777778,2.3041140320928646,4.796026800955958,-67.68939911232502
1589988773.939506,-1.1377099143949971,-3.7477099143949975,8.678854957197498,0.5166666666666667,0.03,-0.6577777777777778,1.4107825875781677,4.089217412421832,-63.91507422135875
1589988773.949506,-1.1207334102361728,-3.7307334102361724,8.670366705118086,0.5166666666666667,0.03,-0.6577777777777778,1.6760404650598022,3.823959534940198,-60.04230921012689
1589988773.959506,-1.0019481305207114,-3.595341023676038,8.459058605251482,0.4955555555555556,0.1111111111111111,-0.6222222222222222,2.8335013915218004,3.157468842011858,-54.55864558544751
1589988773.969506,-0.7936774026273334,-3.268580606130445,7.8543777368057155,0.4955555555555556,0.1111111111111111,-0.6222222222222222,6.472120592302374,-0.3998851261811477,-51.40460791657064
1589988773.979506,-0.7408351133749589,-3.1302160696680907,7.060253039763392,0.4955555555555556,0.1111111111111111,-0.6222222222222222,10.465373911436084,-0.8808279247453172,-45.778104974531715
1589988773.989506,-1.1442425887718535,-4.011677272233684,9.47175849712238,0.4955555555555556,0.1111111111111111,-0.6222222222222222,-5.185215550005429,8.898867955261158,-40.799876479530894
1589988773.999506,-1.0066789310611928,-3.5964417118512784,8.701259682416731,0.4959772785954041,0.1131933686203632,-0.6216950684224116,-14.254804899302865,5.305316857087529,-38.43202943454686
1589988774.009506,-0.8977725990797091,-3.5124883479293456,8.12267240611548,0.5133333333333333,0.1988888888888889,-0.6,5.289652293305625,2.404953985453466,-32.454974395131366
1589988774.019506,-0.9973848894166544,-3.736616001187472,8.813732670328038,0.5133333333333333,0.1988888888888889,-0.6,2.293501373014695,2.2882208327148583,-30.27595554401069
1589988774.029506,-1.0048741571162971,-3.7735926963953714,9.311693537197879,0.5133333333333333,0.1988888888888889,-0.6,-2.0635024419346784,-0.7813219746371785,-26.843107431251212
1589988774.039506,-0.9434993016186016,-3.7019363651302277,8.57305665105579,0.5133333333333333,0.1988888888888889,-0.6,3.5109789663955304,1.4261756942732726,-21.264090871744312
1589988774.049506,-1.0078029103240111,-3.80807754653351,9.114071099849081,0.5131807576613896,0.20050619101149184,-0.5996338183873352,-0.432350571071901,1.0453352369063367,-18.45951142143802
1589988774.059506,-0.9452842317079988,-3.753373702744499,8.660810679882992,0.5088391827575,0.24652688499272316,-0.5892140386179998,-0.28582241806562203,0.5569080602187402,-15.528948361312441
1589988774.069506,-1.08796316992634,-3.977057912115824,8.937100076200151,0.5077777777777778,0.2577777777777778,-0.5866666666666667,1.9646383667767335,0.6108553467106934,-10.613947802895606
1589988774.079506,-1.0067159440661124,-3.864271381140489,8.417777185371884,0.5077777777777778,0.2577777777777778,-0.5866666666666667,0.5476834573346582,-0.026234156508251946,-7.106949627996025
1589988774.089506,-1.0766571209615619,-4.014149961682732,8.8124498850482,0.5077777777777778,0.2577777777777778,-0.5866666666666667,1.671651272536603,-0.3281697454926794,-3.1761585931512926
1589988774.099506,-1.0428225708869439,-3.954939499052152,8.634818497156454,0.5077777777777778,0.2577777777777778,-0.5866666666666667,0.8786540051627475,-0.4867691989674505,0.10156344532731021
1589988774.109506,-1.0664684712574735,-4.003519532534876,8.779976007584699,0.5288888888888889,0.2911111111111111,-0.5866666666666667,1.0036411876245575,-0.6544294061877213,4.746583741268889
1589988774.119506,-1.0421221678308148,-3.8899034498771354,8.5040512354159,0.5288888888888889,0.2911111111111111,-0.5866666666666667,0.5978694638469129,-0.8573152680765436,7.739150204129017
1589988774.1295059,-1.0910928767642323,-4.024371507056928,8.842185753528465,0.5288888888888889,0.2911111111111111,-0.5866666666666667,0.1728133584351615,-1.0898219191058065,12.41665926636355
1589988774.1395059,-1.0961138733822764,-4.057668324029366,8.835906014970114,0.5288888888888889,0.2911111111111111,-0.5866666666666667,0.4750621511012188,-1.3756495575380085,16.065098230152035
1589988774.1495059,-1.0584704995422807,-4.035082299725368,8.60251709716214,0.5288888888888889,0.2911111111111111,-0.5866666666666667,-0.3719137602986844,-1.9873543824379385,18.511917529751756
1589988774.1595058,-0.9403094622001538,-3.8306189244003077,8.850251940695152,0.5311111111111111,0.2888888888888889,-0.6077777777777778,0.26547311000769286,-1.860493959367788,23.116655885026926
1589988774.1695058,-0.954975872438632,-3.8599517448772644,8.38826001818309,0.5311111111111111,0.2888888888888889,-0.6077777777777778,0.9987936219316037,-1.1730059794391217,25.683277676760614
1589988774.1795058,-1.0682204919483278,-3.900444877012918,8.593771721819147,0.5311111111111111,0.2888888888888889,-0.6077777777777778,-1.6235489293930279,-3.8791098920545037,28.723767917182798
1589988774.1895058,-1.038531587329676,-3.907867103167581,8.489860555653868,0.5311111111111111,0.2888888888888889,-0.6077777777777778,-0.556603919660237,-2.904942709254999,31.414324898248097
1589988774.1995058,-1.0628128001756456,-3.926406400087823,8.845550402063836,0.5311111111111111,0.2888888888888889,-0.6077777777777778,-0.5063500013722315,-2.8813500013722315,34.9560800148201
1589988774.2095058,-1.0405340270551509,-3.878434547346514,8.561675338189385,0.5703990750375766,0.2888888888888889,-0.6184182680078621,-0.6085405827263267,-3.121662330905307,37.68036680541103
1589988774.2195058,-1.0628409885013659,-3.921420494250683,8.614318022997267,0.5844444444444444,0.2888888888888889,-0.6222222222222222,-0.9596952226669208,-3.4822438218664633,40.97674464773522
1589988774.2295058,-1.0983685915761388,-3.939184295788069,8.543262816847722,0.5844444444444444,0.2888888888888889,-0.6222222222222222,-1.237254621688584,-3.260196302649133,43.03068420049552
1589988774.2395058,-1.1221431968610045,-3.951837025880861,8.73908148705957,0.5844444444444444,0.2888888888888889,-0.6222222222222222,-1.1326542745035868,-3.3239814117553803,44.72003066664024
1589988774.2495058,-1.180325789703143,-4.001707819745551,8.714146090127226,0.5844444444444444,0.2888888888888889,-0.6222222222222222,-1.3404492489397963,-3.6356738734096945,45.60315930799413
1589988774.2595057,-1.1723369383664606,-3.8931159178219477,8.64012673292133,0.6766666666666666,0.2677777777777778,-0.6222222222222222,-1.1063175943711374,-3.6396058647903793,46.889605864790376
1589988774.2695057,-1.1986082345081008,-3.928144312677468,8.75396901620177,0.6766666666666666,0.2677777777777778,-0.6222222222222222,-1.5989043970268917,-3.8038014656756305,47.05380146567563
1589988774.2795057,-1.2097700216450216,-3.910459956709957,8.564599567099567,0.6766666666666666,0.2677777777777778,-0.6222222222222222,-1.441812094155844,-3.6903747294372296,47.12356263528139
1589988774.2895057,-1.2422776914146283,-3.893861154292686,8.624555382829257,0.6766666666666666,0.2677777777777778,-0.6222222222222222,-1.387066107164643,-3.8892355713414273,46.721528857317146
1589988774.2995057,-1.2358489859731794,-3.8970755070134104,8.654151014026821,0.6766666666666666,0.2677777777777778,-0.6222222222222222,-1.1981123246647436,-3.804834243498558,46.005893136326605
1589988774.3095057,-1.285519612590799,-3.9277598062954,8.706266343825666,0.9881933817594836,0.25029938122141515,-0.7085860640301318,-1.3563317191283293,-3.5186682808716707,44.99817191283293
1589988774.3195057,-1.29,-3.8408079721923527,8.610897746880392,1.0133333333333334,0.2488888888888889,-0.7155555555555555,-1.436938908199755,-3.7477556327990196,44.2561720098027
1589988774.3295057,-1.3158966641064498,-3.857264442737633,8.592735557262367,1.0133333333333334,0.2488888888888889,-0.7155555555555555,-1.221694465779586,-3.5881458493346896,44.142097232889796
1589988774.3395057,-1.3402427712567995,-3.866747590418933,8.603495180837866,1.0133333333333334,0.2488888888888889,-0.7155555555555555,-1.3140173203549956,-3.267292919171677,44.251517320355
1589988774.3495057,-1.35,-3.897505384657867,8.630629038493401,1.0133333333333334,0.2488888888888889,-0.7155555555555555,-1.6328629811675044,-3.210954327055835,45.21502043408626
1589988774.3595057,-1.4239424596207866,-3.9570542924859553,8.73410858497191,1.344954061329588,-0.04464026899968784,-0.9642711015527465,-1.6659744777036516,-3.3340255222963484,46.54928074525983
1589988774.3695056,-1.469889047566736,-3.970110952433264,8.601997143798748,1.5066666666666666,-0.18777777777777774,-1.0855555555555556,-1.8104196418763046,-3.8076458310447103,48.730583324178845
1589988774.3795056,-1.4605945066859414,-4.026432959884351,8.59059450668594,1.5066666666666666,-0.18777777777777774,-1.0855555555555556,-1.3422253342970727,-3.8125,50.51352999638598
1589988774.3895056,-1.5147278295976612,-3.856695206274073,8.726819573994153,1.5066666666666666,-0.18777777777777774,-1.0855555555555556,-1.369508155830897,-3.983524467492691,52.27823651909601
1589988774.3995056,-1.5605139095349332,-3.81569165427904,8.683280526651094,1.5066666666666666,-0.18777777777777774,-1.0855555555555556,-1.5775695476746656,-4.202569547674665,53.75420205988532
1589988774.4095056,-1.5898067864750534,-3.790193213524947,8.699710179712579,0.790321222485574,-0.006215568423122958,-0.7323345300837726,-1.6868962077345415,-4.3118962077345415,55.67180140109808
1589988774.4195056,-1.6310576271186439,-3.7524677966101696,8.734359322033898,0.7833333333333333,-0.004444444444444445,-0.7288888888888889,-1.6852966101694915,-4.310296610169492,55.678686440677964
1589988774.4295056,-1.659493559322034,-3.8188183050847457,8.582701016949153,0.7833333333333333,-0.004444444444444445,-0.7288888888888889,-1.6260550847457627,-4.251055084745762,55.44172033898305
1589988774.4395056,-1.6941974847466068,-3.700308803386876,8.58,0.7833333333333333,-0.004444444444444445,-0.7288888888888889,-1.7318671398331467,-4.463734279666293,54.79629716100112
1589988774.4495056,-1.7213110722705471,-3.651585236972604,8.72917750589383,0.7833333333333333,-0.004444444444444445,-0.7288888888888889,-1.838796134460613,-4.3668057983090804,54.11032512600602
1589988774.4595056,-1.7237107946673933,-3.614843178669574,8.701951125343507,0.6764168426790216,0.08639963258209495,-0.710720073483581,-1.5998472666984624,-4.1945774000136264,53.12815686675297
1589988774.4695055,-1.689541408093265,-3.6710700477823823,8.70076431984456,0.6133333333333333,0.14,-0.7,-1.3740446001943019,-4.061544600194302,51.92603520233162
1589988774.4795055,-1.5842389579720306,-3.6894926386480207,8.547970554592082,0.6133333333333333,0.14,-0.7,-1.2335822478875318,-3.7237878676063616,50.79291123943766
1589988774.4895055,-1.699017916390179,-3.7041716434417165,8.721532846715329,0.6133333333333333,0.14,-0.7,-1.6844309887193099,-3.783358217208582,49.23735069674851
1589988774.4995055,-1.6810467517449303,-3.5619776566307357,8.666512204187834,0.6133333333333333,0.14,-0.7,-1.0683181555362822,-3.763808439681163,48.332126595217446
1589988774.5095055,-1.7147386759581882,-3.5647386759581883,8.766759581881534,0.6075338753387534,0.15491289198606273,-0.7,-1.57404181184669,-3.843205574912892,46.95993031358885
1589988774.5195055,-1.7207256988705422,-3.5521770966116266,8.670885483058132,0.6055555555555555,0.16,-0.7,-1.116927415290665,-3.41128494352711,44.997461684403994
1589988774.5295055,-1.7590260371206008,-3.595530376640701,8.6274783023995,0.6055555555555555,0.16,-0.7,-1.2657606100031291,-3.4156521220006257,43.41152360797747
1589988774.5395055,-1.7717379860418745,-3.6695720837487538,8.659572083748754,0.6055555555555555,0.16,-0.7,-1.065174476570289,-3.385862412761715,40.55949651046859
1589988774.5495055,-1.7628071115534036,-3.6728071115534036,8.684385776893192,0.6055555555555555,0.16,-0.7,-0.9100888944175454,-3.1502222360438634,38.10200012439477
1589988774.5595055,-1.730160819779739,-3.7495711472540294,8.709892786813509,0.5989246266177198,0.13789690354054734,-0.7419958832729601,-0.9371649587922106,-2.6895102472467363,33.39610759609073
1589988774.5695055,-1.6454478635168244,-3.6748425453482882,8.606658499853896,0.5988888888888889,0.13777777777777778,-0.7422222222222222,-0.4677659084268021,-2.3939161927667514,28.736375845714672
1589988774.5795054,-1.7142966661145682,-3.623564583678395,8.655722499585927,0.5988888888888889,0.13777777777777778,-0.7422222222222222,-0.553588540804013,-1.7945572959799352,22.749161500603364
1589988774.5895054,-1.617974888618874,-3.4994248683677602,8.641449979748886,0.5988888888888889,0.13777777777777778,-0.7422222222222222,0.19109457270149866,-1.228280680437424,16.34171223167274
1589988774.5995054,-1.5955896571523829,-3.446768971457149,8.64,0.5988888888888889,0.13777777777777778,-0.7422222222222222,0.06987071440478618,-1.1424676786011965,10.696283039137601
1589988774.6095054,-1.7168772836084163,-3.810631850825249,8.487747259669902,0.5246421821847045,0.09924467683003654,-0.651058544370249,0.5815208832052413,-0.5963446516315989,2.079308145394985
1589988774.6195054,-19.91893566786666,-11.163699331432046,-5.4405201271681705,0.5111111111111111,0.09222222222222222,-0.6344444444444445,-57.93502062976297,119.50565857450091,-77.93791785497218
1589988774.6295054,-9.13837511307669,-3.0153721982108745,-2.3193323952156,0.5111111111111111,0.09222222222222222,-0.6344444444444445,-20.04446678058096,-19.775430947833968,-194.54646195597547
1589988774.6395054,-1.5191486633758573,-0.28766651708442853,-0.4866049105711905,0.5111111111111111,0.09222222222222222,-0.6344444444444445,-6.028960189755754,-55.8686774793256,-229.97662109750624
1589988774.6495054,-0.555035807753951,-0.7174820961230245,0.08785944695786252,0.5111111111111111,0.09222222222222222,-0.6344444444444445,-1.5589217605648091,-31.38166957456737,-219.04948798969386
1589988774.6595054,-0.028833904364665597,-0.38354238045583194,-0.23384179949352002,0.6311510336494696,0.20278530877071024,-0.6544510982008375,3.8928459705049905,-15.85201288544615,-203.22262028899152
1589988774.6695054,0.14100798496946923,-0.3883139971817755,-0.0618020197275716,0.6377777777777778,0.2088888888888889,-0.6555555555555556,2.3553751761390327,-12.54008777595115,-191.4693385979333
1589988774.6795053,1.6978661856792814,-2.005164715491424,4.512840321263273,0.6377777777777778,0.2088888888888889,-0.6555555555555556,1.3667067962156276,-8.505334535801797,-180.80184369044377
1589988774.6895053,3.1855691422406043,-0.1092591260564646,8.242003236827909,0.6377777777777778,0.2088888888888889,-0.6555555555555556,76.12901231792843,78.93599397590361,-170.88046214709584
1589988774.6995053,1.9414978584414386,2.091603241610945,8.25059224108711,0.6377777777777778,0.2088888888888889,-0.6555555555555556,52.11649539333806,121.06424868271037,-155.58688622777555
1589988774.7095053,-0.11439174393141693,0.829591855751759,4.043004239854634,0.5514276248013377,0.24702687312014993,-0.6426030326090896,-4.518732819270372,50.24248415878489,-124.77656606718539
1589988774.7195053,2.647673469387755,-0.783112244897959,12.949484693877551,0.5044444444444445,0.2677777777777778,-0.6355555555555555,23.112308673469386,-22.479272959183675,-102.85717474489796
1589988774.7295053,1.4764852170473648,-0.11336720063284889,6.194770345100364,0.5044444444444445,0.2677777777777778,-0.6355555555555555,33.52602467121527,4.05998003806981,-91.79131130722831
1589988774.7395053,0.7950245445993329,-0.3670224920892842,3.9969802445907807,0.5044444444444445,0.2677777777777778,-0.6355555555555555,1.2858344736166956,9.722085863337039,-81.27822094415463
1589988774.7495053,-0.20491163433308401,-1.60464970352887,7.192501870934315,0.5044444444444445,0.2677777777777778,-0.6355555555555555,-28.734406482067815,8.905165217891888,-68.20493566864315
1589988774.7595053,-0.09997844349342211,-3.2321848153431603,11.316505943889682,0.4941265564185203,0.3059539634736972,-0.6159515683062996,3.9659553812014607,5.647242035187827,-51.6646853701062
1589988774.7695053,-0.04727673438098888,-2.775622844001533,9.356420084323496,0.4933333333333334,0.3088888888888889,-0.6144444444444445,11.86023141050211,5.52650680337294,-46.66795228056726
1589988774.7795053,-0.15773138023519703,-2.233266762946152,6.972050753043119,0.4933333333333334,0.3088888888888889,-0.6144444444444445,4.387025479678151,2.4386347225087683,-37.20281359603879
1589988774.7895052,-0.47022483048495184,-2.8327919425829733,8.92668622863714,0.4933333333333334,0.3088888888888889,-0.6144444444444445,-7.014639260081684,2.312636305959792,-26.583347376977677
1589988774.7995052,-0.4667055734476605,-2.5136445875812834,7.853436993579356,0.4933333333333334,0.3088888888888889,-0.6144444444444445,4.119812714106956,2.2564039775174876,-17.72243789616197
1589988774.8095052,-0.5405557215416792,-2.887112040633403,8.848891544666866,0.48729628523055474,0.3149259369916675,-0.6275247153337982,-2.449324021511803,0.08159359127576926,-8.651723558410517
1589988774.8195052,-0.5591376466707507,-3.0039635266952547,9.12792705339051,0.4866666666666667,0.31555555555555553,-0.6288888888888889,-0.7015957070826069,-0.125,-0.7987135384760382
1589988774.8295052,-0.56,-2.9442265902265903,8.700140322140323,0.4866666666666667,0.31555555555555553,-0.6288888888888889,1.5151481026481026,0.08054190554190555,2.8553576303576307
1589988774.8395052,-0.5875125772360469,-3.0838569065063983,8.888499172772395,0.4866666666666667,0.31555555555555553,-0.6288888888888889,-1.3189806530033428,-0.9576404598710202,10.779014164162474
1589988774.8495052,-0.605033327688921,-3.195033327688921,9.234833361555395,0.4866666666666667,0.31555555555555553,-0.6288888888888889,-1.4212527516509903,-1.1535421252751652,15.300205123073845
1589988774.8595052,-0.5774058968794432,-3.196378432986605,9.12670395869191,0.48224030698362813,0.330444219943958,-0.6236577365362069,-0.04120051635111888,-1.1574262890069595,19.415183248522037
1589988774.8695052,-0.4698536323351685,-3.0729918087820596,8.378243588022022,0.4744444444444445,0.3566666666666667,-0.6144444444444445,-1.5093494024439371,-1.6138210017456693,24.14258258359071
1589988774.8795052,-0.5076376805382934,-3.153214974499636,8.593463763768053,0.4744444444444445,0.3566666666666667,-0.6144444444444445,-0.49467090601294306,-2.1579710067286677,25.76631942956328
1589988774.8895051,-0.52,-3.1974346989771156,8.703246265302822,0.4744444444444445,0.3566666666666667,-0.6144444444444445,-0.3226445790713143,-2.1672108418573712,26.788945790713143
1589988774.8995051,-0.5145397569190219,-3.335585590862498,8.993012154048909,0.4744444444444445,0.3566666666666667,-0.6144444444444445,-0.30674696148777275,-2.1990060770244546,27.278373480743888
1589988774.9095051,-0.3103068545422024,-3.5345914899536934,8.68398155692907,0.4820351195641853,0.361337851355738,-0.637216469803667,-0.15146719796490252,-1.9512130592046426,27.020090128584773
1589988774.9195051,-0.2951619569969397,-3.5051047255673464,8.731390644251023,0.4888888888888889,0.3655555555555556,-0.6577777777777778,0.29654773260204287,-1.6698809665752554,26.588095167123722
1589988774.929505,0.31028728767234215,-4.525404004616038,8.121543943473771,0.4888888888888889,0.3655555555555556,-0.6577777777777778,-0.3121634138440669,-1.8197935436195412,26.940978478731804
1589988774.939505,-5.984864771550236,-21.864406721141673,6.589586833927955,0.4888888888888889,0.3655555555555556,-0.6577777777777778,-13.238649441822995,3.9883761077224076,-15.248978593624123
1589988774.949505,-2.8836903443972544,-8.271430124192346,6.54847265554236,0.4888888888888889,0.3655555555555556,-0.6577777777777778,-21.75933958656227,-2.0084753225579197,-176.21702964916165
1589988774.959505,-0.6240944034926761,-2.959194533202569,11.825918567496599,0.5002143552644992,0.35989282236775044,-0.6653280886948513,30.946207962921953,26.168757315954316,-247.7113104653738
1589988774.969505,-0.6,-3.42,12.74,0.5022222222222222,0.3588888888888889,-0.6666666666666666,40.6875,31.75,-248.8125
1589988774.979505,0.4406113205863321,-2.9449383101671094,8.68312398206198,0.5022222222222222,0.3588888888888889,-0.6666666666666666,11.750210559782243,6.960074518640816,-228.2170676133955
1589988774.989505,-0.3482761215085113,-3.3250587792720774,10.395876986739395,0.5022222222222222,0.3588888888888889,-0.6666666666666666,-14.189992241136089,9.634334148405905,-210.19542932380324
1589988774.999505,-0.7151426727846285,-3.3216324921135647,10.634631846859765,0.5022222222222222,0.3588888888888889,-0.6666666666666666,-12.800632259105248,16.205484209205622,-194.44961419199885
1589988775.009505,0.0566487224497757,-2.680731031792471,7.32098108055393,0.49512376741867675,0.3677619573933208,-0.6681877641245693,10.901067875950849,14.190842598010532,-177.24865418373318
1589988775.019505,-0.3810416393011953,-3.4002187048469725,9.661588401418626,0.4711111111111111,0.3977777777777778,-0.6733333333333333,-0.17457597202154318,10.25937541048207,-158.42825594378039
1589988775.029505,-5.234166372929151,-8.624630243214664,7.4209418399718015,0.4711111111111111,0.3977777777777778,-0.6733333333333333,2.763055163905534,12.232543179414876,-130.24719774409587
1589988775.039505,-1.0208741776803167,-2.676534107746104,10.79163397143365,0.4711111111111111,0.3977777777777778,-0.6733333333333333,-9.063996473656136,-1.7824371777395847,6.965562585195272
1589988775.049505,0.07834302325581399,-0.6116569767441862,10.902790697674419,0.4711111111111111,0.3977777777777778,-0.6733333333333333,6.321947674418606,-10.192587209302326,118.77834302325581
1589988775.059505,-0.904087108334099,-1.6354740420839842,6.7330609207020125,0.4430088721451397,0.42894571554003696,-0.6626033875463261,17.688861067720296,-3.5446958559220807,148.70483667187355
1589988775.069505,2.4345196367402213,-4.479502907671473,5.869627180753605,0.41,0.4655555555555556,-0.65,-8.902819545128654,-10.310120090814943,137.09569674579782
1589988775.079505,1.8020141864932757,-3.7403007241022608,8.497713166839073,0.41,0.4655555555555556,-0.65,-26.671443217082903,-20.77144598788237,52.23421106103147
1589988775.089505,-0.9398746423731366,-2.0046928173467853,11.1220810118958,0.41,0.4655555555555556,-0.65,7.449252277518447,8.204423750188223,-27.992529833609396
1589988775.099505,-0.29065253434391286,-1.8141520606347703,7.205742539081005,0.41,0.4655555555555556,-0.65,29.05419528659403,14.222199194694458,-31.101721636665086
1589988775.109505,0.12523233112065602,-4.261507223740726,9.40938207731355,0.4255232331120656,0.44572031324569394,-0.6448255889626447,-3.3853048125732172,-1.9959854549004277,-23.424242239359625
1589988775.119505,0.17,-5.13,10.88,0.43,0.44,-0.6433333333333333,-13.5,-5.4375,-22.375
1589988775.129505,-0.19587926771397887,-5.052602462598966,9.775326057094334,0.43,0.44,-0.6433333333333333,2.111435100776742,3.1377953370463807,-44.97859899098379
1589988775.139505,-3.570319620108671,-8.006863613533628,7.8886649011460666,0.43,0.44,-0.6433333333333333,6.67050876672298,7.73703826309301,-36.64748185014383
1589988775.149505,-0.8511545967942862,-6.376293704841791,7.913730379536584,0.43,0.44,-0.6433333333333333,1.1364115314342662,-1.6255294410763224,1.9643302051324625
1589988775.159505,1.0452499272863256,-4.173174886774421,8.335163086383846,0.43,0.44609299040179495,-0.6570425617373721,-0.8683207296297835,-4.164122553704242,11.847155856567083
1589988775.169505,-0.7328322002472187,-4.7171453955500615,8.672939585908528,0.43,0.4533333333333333,-0.6733333333333333,-1.0920720990420274,1.2532857887824473,-5.930187248918418
1589988775.1795049,-0.319452479338843,-4.68118332081142,8.301656649135987,0.43,0.4533333333333333,-0.6733333333333333,-0.6446926652892562,0.11270308978211863,-0.2559459522915102
1589988775.1895049,-0.048241485258547434,-4.531813209561788,8.20060578326905,0.43,0.4533333333333333,-0.6733333333333333,-0.2043279183282125,-0.3804953585670393,2.0466976095530716
1589988775.1995049,0.054543376623376626,-4.547572294372294,8.693942164502165,0.43,0.4533333333333333,-0.6733333333333333,-0.44891558441558443,-0.5928463203463203,0.0
1589988775.2095048,0.053075379322512356,-4.609231871912491,8.66,0.43,0.4533333333333333,-0.6733333333333333,0.2836593595624559,-0.13461951967184194,-0.04807967978122795
1589988775.2195048,0.004310722100656456,-4.600175054704596,8.591728665207878,0.43,0.4533333333333333,-0.6733333333333333,0.3663840262582057,-0.10776805251641139,-0.053884026258205694
1589988775.2295048,0.0,-4.548499682354356,8.550750158822822,0.43,0.4533333333333333,-0.6733333333333333,0.21171726103603988,0.0,-0.03359424632132003
1589988775.2395048,0.004684417530278437,-4.548737670121114,8.550631164939443,0.43,0.4533333333333333,-0.6733333333333333,0.007889561743039078,0.05855521912848046,-0.1503328286927207
1589988775.2495048,0.001006263198743751,-4.565503131599372,8.589465552406908,0.43,0.4533333333333333,-0.6733333333333333,0.015527137519628892,0.040683717488222665,-0.16568371748822266
1589988775.2595048,-0.005837936046511628,-4.539189680232558,8.633351744186047,0.41566400193798453,0.4561080426356589,-0.6821199127906976,0.1875,-0.0625,-0.036487100290697676
1589988775.2695048,0.005988937233845584,-4.557911497870765,8.687856184039992,0.3955555555555556,0.46,-0.6944444444444444,0.0752074268653953,-0.0625,0.0
1589988775.2795048,0.003702793982192201,-4.5459195578753455,8.620353085661652,0.3955555555555556,0.46,-0.6944444444444444,-0.2755027632790912,-0.10185753761129873,-0.11807261283389622
1589988775.2895048,0.010598584077624955,-4.5517957522328745,8.57119716815525,0.3955555555555556,0.46,-0.6944444444444444,-0.503741150485156,-0.19124115048515597,-0.05501769902968806
1589988775.2995048,0.02,-4.58,8.571774029071676,0.3955555555555556,0.46,-0.6944444444444444,-0.4296022953143094,-0.21202922723265982,0.005543840848989748
1589988775.3095047,0.020523826043079254,-4.58,8.536809738560029,0.39834929445197825,0.46,-0.6928729663152067,-0.10535652338452806,-0.11845217446150935,-0.11517826169226403
1589988775.3195047,0.01839398965752756,-4.556787979315055,8.625181968972583,0.4488888888888889,0.46,-0.6644444444444444,0.3225375646404527,-0.02417918821348424,0.0625
1589988775.3295047,0.009215021150929844,-4.547645063452789,8.57,0.4488888888888889,0.46,-0.6644444444444444,0.4375,-0.12009388219331152,0.004906117806688481
1589988775.3395047,0.011212558536800872,-4.571212558536801,8.548031396342003,0.4488888888888889,0.46,-0.6644444444444444,0.3001962271375136,-0.0776569817100109,-0.035039245427502724
1589988775.3495047,0.0,-4.551063605687648,8.555745577249409,0.4488888888888889,0.46,-0.6644444444444444,0.125,0.03457376777389846,-0.027926232226101542
1589988775.3595047,0.0,-4.54,8.60795758143895,0.4418154831653777,0.46324197762327596,-0.6644444444444444,0.10842170533552066,-0.03315658932895867,-0.07907829466447934
1589988775.3695047,-0.0017443785071252675,-4.54,8.636977514028501,0.4222222222222222,0.4722222222222222,-0.6644444444444444,0.07340236566953293,-0.09229290299140123,-0.125
1589988775.3795047,-0.01,-4.554061958192941,8.624298635872943,0.4222222222222222,0.4722222222222222,-0.6644444444444444,0.0371127612941215,0.040528190323530375,-0.08105638064706075
1589988775.3895047,-0.009153060848413372,-4.576612243393654,8.540846939151585,0.4222222222222222,0.4722222222222222,-0.6644444444444444,-0.13558673939483287,-0.03176021818449858,-0.00529336969741643
1589988775.3995047,0.007607612949128425,-4.570430451796514,8.55,0.4222222222222222,0.4722222222222222,-0.6644444444444444,-0.29754758093205264,-0.2561310476698684,-0.01495241906794735
1589988775.4095047,0.010969749462676034,-4.57484874731338,8.59515125268662,0.43225583393035993,0.4692121387097809,-0.6714679726401409,-0.20568280242517564,-0.17537813171654956,0.0907195329291374
1589988775.4195046,0.0,-4.554217049993113,8.65427713124914,0.4444444444444444,0.4655555555555556,-0.68,0.10692828122848093,-0.2590358593857595,0.044803789078639314
1589988775.4295046,0.0,-4.570965158189828,8.645482579094914,0.4444444444444444,0.4655555555555556,-0.68,0.28629355226271525,-0.15120644773728475,-0.08064677613135762
1589988775.4395046,0.0,-4.539440407392573,8.606055959260742,0.4444444444444444,0.4655555555555556,-0.68,0.27639898151856723,-0.0625,-0.07569949075928363
1589988775.4495046,-0.0023919727731486914,-4.583256190587959,8.597608027226851,0.4444444444444444,0.4655555555555556,-0.68,0.06520068067128271,-0.04755017016782068,0.014949829832179322
1589988775.4595046,-0.004965925299804533,-4.542585186750489,8.600068149400391,0.4388510281108939,0.4655555555555556,-0.6819576957167427,-0.10926851656188916,0.031462966876221674,0.07823148343811084
1589988775.4695046,0.001568190263842438,-4.5504886659234485,8.63,0.4222222222222222,0.4655555555555556,-0.6877777777777778,0.01654821627647715,0.019602378298030465,0.019602378298030465
1589988775.4795046,0.011403436141585592,-4.536754295176982,8.58719312771683,0.4222222222222222,0.4655555555555556,-0.6877777777777778,0.1584428689712275,-0.058114262057545024,-0.125
1589988775.4895046,0.020890644978724296,-4.555445322489362,8.563664032531914,0.4222222222222222,0.4655555555555556,-0.6877777777777778,0.10209979667554028,-0.056933468882973154,-0.09653326555851342
1589988775.4995046,0.01,-4.564541397212861,8.590906047909646,0.4222222222222222,0.4655555555555556,-0.6877777777777778,-0.11360466572547591,-0.056837200564714446,-0.01705813370980963
1589988775.5095046,0.0014338190277947832,-4.59,8.618566180972206,0.4336437968518292,0.45794117246915095,-0.6844464851774757,-0.2589613689237174,0.0892693155381413,-0.07134657769070651
1589988775.5195045,-0.0045923395156417055,-4.562961697578208,8.63540766048436,0.4488888888888889,0.4477777777777778,-0.68,-0.05230848789104264,0.125,-0.18240424394552132
1589988775.5295045,0.007430954494447887,-4.5548619089888955,8.606560704774985,0.4488888888888889,0.4477777777777778,-0.68,0.1553869311805986,-0.014330396770897896,-0.10177826720485035
1589988775.5395045,0.01649734527300103,-4.569492035819003,8.562259291544496,0.4488888888888889,0.4477777777777778,-0.68,0.3234457960218718,-0.18432522386876932,-0.05155420397812822
1589988775.5495045,0.0058843191599002795,-4.540595117059651,8.63471079789975,0.4488888888888889,0.4477777777777778,-0.68,0.30144601050124653,0.08822300525062325,0.0
1589988775.5595045,0.017567443350371165,-4.581486051726299,8.663918608375928,0.4488888888888889,0.4477777777777778,-0.68,0.15540695812036046,0.015203479060180228,0.0
1589988775.5695045,0.0047830047498210685,-4.55,8.65260849762509,0.4177777777777778,0.4722222222222222,-0.68,0.0,-0.06521244062723663,0.0
1589988775.5795045,-0.005366947048757562,-4.545366947048757,8.60440336458509,0.4177777777777778,0.4722222222222222,-0.68,0.057913161890530473,-0.10521709527367382,0.0
1589988775.5895045,0.0,-4.54,8.563801088741034,0.4177777777777778,0.4722222222222222,-0.68,0.125,-0.04375486045104987,0.02125097209020997
1589988775.5995045,0.0010269530715556164,-4.543080859214667,8.611026953071555,0.4177777777777778,0.4722222222222222,-0.68,0.09932617321110959,-0.25,0.0560815433027774
1589988775.6095045,0.012116719096965212,-4.5742334381939305,8.62,0.4177777777777778,0.4696351211037092,-0.6816463370754174,-0.1646884830680977,-0.19708202257586974,-0.013229494356032568
1589988775.6195045,0.017568052462261816,-4.587568052462261,8.60540831477357,0.4177777777777778,0.46,-0.6877777777777778,-0.2517013115565454,0.0,-0.0321006557782727
1589988775.6295044,0.005924207089552239,-4.567772621268657,8.547772621268656,0.4177777777777778,0.46,-0.6877777777777778,0.06486852845149255,0.05094741138059702,0.03702629430970149
1589988775.6395044,0.008660365997329634,-4.55866036599733,8.53866036599733,0.4177777777777778,0.46,-0.6877777777777778,0.2770636437416551,0.125,0.027063643741655104
1589988775.6495044,0.013166130472131922,-4.5631661304721325,8.587586282403276,0.4177777777777778,0.46,-0.6877777777777778,0.3125,0.03957663090164902,0.01978831545082451
1589988775.6595044,0.0011163589523400601,-4.55223271790468,8.66,0.4198864557988646,0.45925576069844,-0.6854210199895043,0.27063653928724773,-0.10406826964362387,-0.05552275654787463
1589988775.6695044,0.005753591429267105,-4.557260774287801,8.66,0.43666666666666665,0.4533333333333333,-0.6666666666666666,-0.08904005356708058,0.03595994643291941,-0.10616021426832237
1589988775.6795044,0.0,-4.548403582718651,8.62218387776607,0.43666666666666665,0.4533333333333333,-0.6666666666666666,-0.15126119599578502,-0.0787835879873551,-0.11869402002107482
1589988775.6895044,0.0041942135718043136,-4.555805786428196,8.590971067859021,0.43666666666666665,0.4533333333333333,-0.6666666666666666,-0.1350723303524461,-0.16128616517622305,0.010072330352446077
1589988775.6995044,0.006981215423126275,-4.5530187845768735,8.62,0.43666666666666665,0.4533333333333333,-0.6666666666666666,-0.043632596394539216,-0.10613259639453922,-0.08136740360546078
1589988775.7095044,0.0033940686179492153,-4.561697034308974,8.625091102926923,0.43666666666666665,0.4544646895393164,-0.6702492946522797,-0.03181939329327389,-0.0731064644310913,-0.125
1589988775.7195044,0.01965419654971894,-4.5698270982748594,8.649481294824579,0.43666666666666665,0.45988473218323966,-0.6874127630247033,-0.18425809265361504,-0.12391936421787168,-0.125
1589988775.7295043,0.0,-4.578439634661141,8.592198173305702,0.43666666666666665,0.46,-0.6877777777777778,-0.2978715749481925,-0.07225228336787168,-0.0625
1589988775.7395043,0.0,-4.56,8.516746055234506,0.43666666666666665,0.46,-0.6877777777777778,-0.0028933472483995,-0.13516857739217122,-0.04505619246405708
1589988775.7495043,0.0,-4.56,8.55594573124192,0.43666666666666665,0.46,-0.6877777777777778,0.2829376236389975,-0.012669589869001074,-0.004223196623000365
1589988775.7595043,0.0035413522322112123,-4.546458647767789,8.653541352232212,0.43548621592259623,0.4588195492559296,-0.6877777777777778,0.35286654854867994,0.029299822823019885,-0.04036654854867992
1589988775.7695043,0.01847540752240491,-4.5360983699103805,8.665426222567215,0.43,0.4533333333333333,-0.6877777777777778,0.2309425940300614,-0.1345287029849693,0.0625
1589988775.7795043,0.006869191530990148,-4.56686919153099,8.608691915309901,0.43,0.4533333333333333,-0.6877777777777778,0.046729788274753686,-0.16793244706868843,0.04293244706868842
1589988775.7895043,0.0018950184368447692,-4.560947509218422,8.546632564528956,0.43,0.4533333333333333,-0.6877777777777778,-0.1309219326151399,-0.1190780673848601,-0.005921932615139903
1589988775.7995043,0.016805518805518806,-4.566805518805519,8.619583443583444,0.43,0.4533333333333333,-0.6877777777777778,-0.1875,-0.042534492534492534,-0.022568985068985067
1589988775.8095043,0.008291889713923905,-4.56,8.641708110286077,0.4311387401907174,0.4533333333333333,-0.6864492475552741,-0.16614862142404882,0.0,0.0518243107120244
1589988775.8195043,0.0,-4.557450839561293,8.644901679122587,0.43666666666666665,0.4533333333333333,-0.68,-0.07843225274191983,0.01593225274191983,-0.01593225274191983
1589988775.8295043,0.002252736822122382,-4.553379105233184,8.617609947478327,0.43666666666666665,0.4533333333333333,-0.68,-0.11092039486173512,0.04138059229260267,-0.06953980256913245
1589988775.8395042,0.008963846810538228,-4.571722885107904,8.531036153189461,0.43666666666666665,0.4533333333333333,-0.68,0.0,-0.10775601064146598,-0.125
1589988775.8495042,-0.018314566935198163,-4.551685433064802,8.564213582662004,0.43666666666666665,0.4533333333333333,-0.68,0.02106791331002295,-0.057233021672494264,-0.10919906501748279
1589988775.8595042,-0.005393324194020424,-4.56460667580598,8.59651668951495,0.43666666666666665,0.4533333333333333,-0.68,0.18258344757474468,-0.01685413810631383,0.011937585681058516
1589988775.8695042,0.0,-4.559921916074384,8.66960958037192,0.43666666666666665,0.4533333333333333,-0.6877777777777778,0.31054790185960474,-0.0009760490701976438,-0.0004880245350988219
1589988775.8795042,0.0,-4.55175464901178,8.628773245058904,0.43666666666666665,0.4533333333333333,-0.6877777777777778,0.10636622529451856,-0.10306688735274072,-0.05153344367637036
1589988775.8895042,0.0,-4.57,8.532015076833865,0.43666666666666665,0.4533333333333333,-0.6877777777777778,-0.11870288489417222,-0.0625,-0.056202884894172224
1589988775.8995042,0.0,-4.57,8.547216222093361,0.43666666666666665,0.4533333333333333,-0.6877777777777778,-0.07119930595824878,-0.0625,-0.00869930595824877
1589988775.9095042,0.0,-4.54,8.65,0.43662284604805435,0.4534136711341225,-0.6875878884304578,-0.062089181700509664,-0.18626754510152901,0.12458918170050967
1589988775.9195042,0.0,-4.54,8.65,0.43096755925895963,0.4637816969141296,-0.6630816456777139,-0.009070868052746539,-0.027212604158239645,0.07157086805274654
1589988775.9295042,0.0016911616670022146,-4.5783088383329975,8.629706059995973,0.43,0.4655555555555556,-0.6588888888888889,-0.08363952083752768,0.01056976041876384,-0.11443023958123616
1589988775.9395041,0.009367827662572981,-4.570632172337428,8.537586068049123,0.43,0.4655555555555556,-0.6588888888888889,-0.17959784578216226,0.058548922891081136,-0.06645107710891887
1589988775.9495041,0.007800462060264456,-4.577800462060265,8.588798151758942,0.43,0.4655555555555556,-0.6588888888888889,0.0,-0.0274942242466943,-0.04875288787665285
1589988775.9595041,0.0009280529566941392,-4.5709280529566945,8.616287788173222,0.43,0.4655555555555556,-0.6588888888888889,0.0,-0.11339933804132325,-0.005800330979338374
1589988775.969504,-0.00793849745493513,-4.547938497454935,8.64175398981974,0.4177777777777778,0.4655555555555556,-0.6666666666666666,0.125,-0.09923121818668912,0.03673121818668912
1589988775.979504,0.0,-4.54,8.608663846546568,0.4177777777777778,0.4655555555555556,-0.6666666666666666,0.125,0.0,-0.0614561301145066
1589988775.989504,0.0,-4.552305101454038,8.536152550727019,0.4177777777777778,0.4655555555555556,-0.6666666666666666,0.06731983693419863,-0.03845344204386758,0.0
1589988775.999504,0.0,-4.576564248142272,8.558589379644319,0.4177777777777778,0.4655555555555556,-0.6666666666666666,-0.08397344911079568,-0.10352655088920432,-0.010736724555397845
1589988776.009504,0.0004739286909943087,-4.559052142618011,8.601895714763977,0.4179884127515531,0.4655555555555556,-0.6669826191273295,-0.17861383704385672,-0.0029620543187144294,-0.0625
1589988776.019504,0.00925008369601607,-4.541499832607968,8.637000334784064,0.42188892608711825,0.4655555555555556,-0.6728333891306774,-0.014060930699698715,-0.05781302310010044,-0.0625
1589988776.029504,-0.010585558758367678,-4.556276294161088,8.61861852919456,0.4222222222222222,0.4655555555555556,-0.6733333333333333,0.019613419253400672,-0.0036597422397979806,0.0
1589988776.039504,0.008071537603475606,-4.568071537603476,8.553856924793049,0.4222222222222222,0.4655555555555556,-0.6733333333333333,0.026341330065167617,0.10089422004344507,0.0
1589988776.049504,0.001915399518581577,-4.561915399518582,8.566169200962838,0.4222222222222222,0.4655555555555556,-0.6733333333333333,-0.08908625902659542,0.02394249398226972,0.0
1589988776.059504,0.0,-4.569127733755943,8.612180665610142,0.4220283852790984,0.4655555555555556,-0.673624088748019,0.07067749603803486,0.005451664025356577,-0.05704833597464342
1589988776.069504,0.0,-4.547618479096685,8.66476304180663,0.4177777777777778,0.4655555555555556,-0.68,0.1755774717714193,0.06546197741713546,0.03273098870856773
1589988776.079504,0.0,-4.539197443181818,8.671171875,0.4177777777777778,0.4655555555555556,-0.68,-0.05246803977272727,-0.11998401988636363,-0.05246803977272727
1589988776.089504,0.0,-4.531358216208134,8.584940378289474,0.4177777777777778,0.4655555555555556,-0.68,0.04552229739832535,-0.07098885130083732,0.04552229739832535
1589988776.099504,0.0,-4.561648555148555,8.604945665445666,0.4177777777777778,0.4655555555555556,-0.68,0.0734826516076516,0.0,-0.04189306064306064
1589988776.109504,-0.0005899243017488907,-4.5697050378491255,8.63058992430175,0.41813828707329104,0.4655555555555556,-0.6793445285536124,-0.18196945967110414,0.0,0.06065648655703472
1589988776.119504,-0.015939013632051132,-4.555939013632051,8.647969506816025,0.43,0.4655555555555556,-0.6577777777777778,0.02538116479968042,0.03807174719952063,-0.05076232959936084
1589988776.129504,-0.001976397742971755,-4.541976397742972,8.640988198871487,0.43,0.4655555555555556,-0.6577777777777778,0.11264751410642654,0.1689712711596398,-0.22529502821285308
1589988776.139504,0.016174906220256427,-4.561912546889872,8.537650187559487,0.43,0.4655555555555556,-0.6577777777777778,0.07445341806169867,-0.023906836123397345,0.050546581938301326
1589988776.149504,0.0005195677733609537,-4.56974021611332,8.568960864453278,0.43,0.4655555555555556,-0.6577777777777778,0.12337635070824701,-0.12175270141649402,0.0016236492917529877
1589988776.159504,-0.009974736379613358,-4.5799494727592265,8.62007579086116,0.4299494727592267,0.4655555555555556,-0.6577637424331185,-0.0001578976274165202,0.06265789762741653,0.06186840949033392
1589988776.169504,-0.0007605448154657298,-4.561521089630931,8.647718365553603,0.4115210896309314,0.4655555555555556,-0.6526447471197032,-0.05774659490333919,0.1202465949033392,-0.16848637961335677
1589988776.179504,0.0,-4.544263404571035,8.64081467943034,0.41,0.4655555555555556,-0.6522222222222223,0.0,0.0358537214310273,-0.0983537214310273
1589988776.189504,0.0,-4.559443368741065,8.572504840665207,0.41,0.4655555555555556,-0.6522222222222223,0.0,-0.05902105463165705,-0.0034789453683429505
1589988776.199504,-0.008919714848589475,-4.56,8.60108028515141,0.41,0.4655555555555556,-0.6522222222222223,0.1537410890184211,-0.020255346588947336,-0.05574821780368422
1589988776.209504,-0.0004011211081097546,-4.56,8.60959887889189,0.41,0.4655555555555556,-0.6522222222222223,-0.11246496537157019,-0.1799789792229421,-0.0025070069256859714
1589988776.2195039,0.0,-4.5515373116943625,8.605388064916912,0.4222222222222222,0.46,-0.68,-0.17789180191023451,0.0,0.05289180191023451
1589988776.2295039,0.0,-4.55967968628669,8.580960941139928,0.4222222222222222,0.46,-0.68,-0.1270019607081845,0.0,0.002001960708184501
1589988776.2395039,0.0,-4.578461827978289,8.537690860108553,0.4222222222222222,0.46,-0.68,0.04327284972861614,0.13461357513569194,-0.02884072540707579
1589988776.2495039,0.0,-4.57015332197615,8.579233390119251,0.4222222222222222,0.46,-0.68,-0.06058347529812606,0.18654173764906304,-0.1846252129471891
1589988776.2595038,0.0,-4.541360695652174,8.630118782608696,0.4222222222222222,0.46,-0.68,-0.0625,0.05325326086956522,-0.05325326086956522
1589988776.2695038,0.01995920345760795,-4.559979601728804,8.649959203457609,0.43,0.4655555555555556,-0.6733333333333333,-0.062372510805024844,-0.12461753241507452,0.0
1589988776.2795038,0.0030173284323625656,-4.551508664216181,8.633017328432363,0.43,0.4655555555555556,-0.6733333333333333,-0.009429151351133015,0.03421254594660095,0.0
1589988776.2895038,0.007823731219685319,-4.547823731219685,8.580881343901574,0.43,0.4655555555555556,-0.6733333333333333,0.125,0.013601679876966756,-0.07610167987696675
