time,acc_x,acc_y,acc_z,mag_x,mag_y,mag_z,gyr_x,gyr_y,gyr_z
1589988790.029551,-3.86,-0.86,9.06,0.3233333333333333,-0.3322222222222222,-0.6088888888888889,-1.125,0.1875,-0.25
1589988790.039551,-3.823023789909883,-0.8230237899098829,8.91023789909883,0.3233333333333333,-0.3322222222222222,-0.6088888888888889,-0.9607875258992986,0.30669606081030476,0.043601313063231735
1589988790.049551,-3.8130769380032987,-0.8038461239934026,8.798461628019792,0.3233333333333333,-0.3322222222222222,-0.6088888888888889,-0.12980741243814883,0.0625,0.04807654991753178
1589988790.059551,-3.818686224757271,-0.7913137752427286,8.850510201941828,0.3233333333333333,-0.3322222222222222,-0.6088888888888889,0.06568876213643132,0.054288904732946085,-0.08394452366473043
1589988790.069551,-3.81,-0.7996177998180698,8.920229320109158,0.323171959923185,-0.3322222222222222,-0.6088888888888889,0.5052552525015406,-0.0028665013644766572,0.18511124886293612
1589988790.079551,-3.81,-0.7688488511986854,8.938690689280788,0.3101806260616672,-0.3322222222222222,-0.6088888888888889,0.9283282960180756,-0.23363361600985944,-0.007194680008216214
1589988790.089551,-3.812887427809862,-0.7528874278098623,8.91246343847179,0.3022222222222222,-0.3322222222222222,-0.6088888888888889,1.1333607285650822,-0.4291392714349178,-0.10695357618836072
1589988790.099551,-3.82,-0.760605151840394,8.82605151840394,0.3022222222222222,-0.3322222222222222,-0.6088888888888889,0.9659602089778395,-0.5511534029926132,-0.06628219900246228
1589988790.109551,-3.822436594927594,-0.7748731898551884,8.929746379710377,0.3022222222222222,-0.3322222222222222,-0.6088888888888889,0.20906922553804302,-0.2683989719177534,-0.10977128170253621
1589988790.119551,-3.8313668564618646,-0.7913668564618644,8.965467425847459,0.3031334598634652,-0.3322222222222222,-0.607066413606403,-0.5512571173199152,0.036871441340042374,-0.07104285288665255
1589988790.129551,-3.8333887603925736,-0.8033056198037133,8.983471900981433,0.3088888888888889,-0.3322222222222222,-0.5955555555555555,-0.7303791335875477,-0.2283006188660374,-0.14566012377320747
1589988790.139551,-3.82,-0.8080700340142742,8.932630306128468,0.3088888888888889,-0.3322222222222222,-0.5955555555555555,-0.3530639881244962,-0.4736868622323588,-0.17543771258921373
1589988790.149551,-3.8205981283511505,-0.8,8.859102807473274,0.3088888888888889,-0.3322222222222222,-0.5955555555555555,0.020560662070802944,-0.6231308489026542,-0.11939254670796283
1589988790.159551,-3.836194294709018,-0.7885828841270549,8.841417115872945,0.3088888888888889,-0.3322222222222222,-0.5955555555555555,0.7350713161372715,-0.5149286838627285,0.050607170965682124
1589988790.169551,-3.8237373962370618,-0.7512121887111863,8.878787811288815,0.3088888888888889,-0.3322222222222222,-0.5955555555555555,0.8907825470367235,-0.35921745296327645,0.011679363240819113
1589988790.179551,-3.82,-0.7425980606938067,8.963464080925077,0.3233333333333333,-0.34444444444444444,-0.5955555555555555,0.7746116148819843,-0.17667474710913836,0.10334949421827672
1589988790.1895509,-3.82,-0.7665686853485226,8.99542491379803,0.3233333333333333,-0.34444444444444444,-0.5955555555555555,0.4250400053340445,-0.07679714438115559,-0.09640571123768882
1589988790.1995509,-3.824234227002729,-0.7663513405040938,8.934819794509552,0.3233333333333333,-0.34444444444444444,-0.5955555555555555,0.28237628431529943,0.07573195938352865,-0.21030412184941402
1589988790.2095509,-3.84064446597239,-0.7906444659723905,8.99,0.3233333333333333,-0.34444444444444444,-0.5955555555555555,-0.07458373698232018,0.12902791232744007,-0.06652791232744006
1589988790.2195508,-3.8481354263369623,-0.8027968604945566,8.99,0.3219866967989172,-0.34444444444444444,-0.5961770801099014,-0.209212451121051,0.146712451121051,-0.13665358539398542
1589988790.2295508,-3.8276674914122366,-0.8183374570611833,8.966674914122367,0.3088888888888889,-0.34444444444444444,-0.6022222222222222,0.28954725071464604,-0.26457817867352085,-0.22084364265295828
1589988790.2395508,-3.8217590594015967,-0.7747228217952092,8.877686584188822,0.3088888888888889,-0.34444444444444444,-0.6022222222222222,0.5700293937000965,-0.23554115118013513,-0.0700293937000965
1589988790.2495508,-3.8291194173905416,-0.7526417478283759,8.82616407826621,0.3088888888888889,-0.34444444444444444,-0.6022222222222222,0.3400182065455822,0.08647451083618496,0.15998179345441782
1589988790.2595508,-3.842356222066265,-0.7570686661987959,8.87942488826506,0.3088888888888889,-0.34444444444444444,-0.6022222222222222,0.14332083625752595,0.36027361208584197,0.0625
1589988790.2695508,-3.8501793446649004,-0.7803586893298003,8.910717378659601,0.3090084519988223,-0.34444444444444444,-0.6021026591122888,0.001120904155625929,0.30801638337749626,0.06137909584437407
1589988790.2795508,-3.8573285849732906,-0.7973285849732905,8.955342830053418,0.31555555555555553,-0.34444444444444444,-0.5955555555555555,0.0625,0.0625,0.0
1589988790.2895508,-3.848237094610861,-0.7917629053891392,8.959422567665165,0.31555555555555553,-0.34444444444444444,-0.5955555555555555,0.11759079341059944,0.04046368263576022,0.044072634728479554
1589988790.2995508,-3.8410246930563674,-0.7989753069436325,8.916148158338206,0.31555555555555553,-0.34444444444444444,-0.5955555555555555,0.3429783419885133,-0.0496913367954053,0.2243826735908106
1589988790.3095508,-3.781533412277239,-0.76,9.0,0.31555555555555553,-0.34444444444444444,-0.5955555555555555,-0.3508353069309825,0.2787514801982369,1.0049970396035262
1589988790.3195508,-3.7876651608847567,-0.76,9.0,0.31555555555555553,-0.34444444444444444,-0.5955555555555555,-0.504129022118913,0.3937217665891847,0.7750564668216307
1589988790.3295507,-3.850209714971074,-0.7902097149710738,9.029370855086778,0.31555555555555553,-0.34444444444444444,-0.6088888888888889,-0.6822571257231551,0.24868928143078878,0.5716750299844786
1589988790.3395507,-3.85760759136447,-0.7976075913644702,9.00717722590659,0.31555555555555553,-0.34444444444444444,-0.6088888888888889,-0.4973102158882461,0.20245255397206152,0.8953321221955693
1589988790.3495507,-3.838921100917431,-0.814605504587156,8.821078899082568,0.31555555555555553,-0.34444444444444444,-0.6088888888888889,-0.3615137614678899,0.013486238532110091,1.0269724770642201
1589988790.3595507,-3.8321569901364363,-0.7689215049317819,8.834313980272873,0.31555555555555553,-0.34444444444444444,-0.6088888888888889,-0.24325940582363711,0.11825940582363711,1.2028158407654599
1589988790.3695507,-3.8486722579883055,-0.7606638710058473,8.86734451597661,0.31555555555555553,-0.34444444444444444,-0.6088888888888889,-0.19164919378654538,0.0666491937865454,0.8415443565058177
1589988790.3795507,-3.85,-0.7765537220231326,8.936214888092529,0.31555555555555553,-0.33892653710340026,-0.5914155156422489,-0.03230885603313233,-0.3513430505783138,0.8125
1589988790.3895507,-3.810916113985861,-0.7490838860141389,8.93267108811311,0.31555555555555553,-0.3377777777777778,-0.5877777777777777,0.34064572553020916,-0.6078228627651046,0.9203228627651046
1589988790.3995507,-3.818558231907295,-0.7414417680927046,8.871534144741636,0.31555555555555553,-0.3377777777777778,-0.5877777777777777,0.054066303476422994,-0.4645331517382115,0.7770331517382115
1589988790.4095507,-3.85890764782364,-0.7532770565290796,8.93873881741088,0.31555555555555553,-0.3377777777777778,-0.5877777777777777,-0.30567279889775084,-0.125,0.5556727988977509
1589988790.4195507,-3.8507682754070367,-0.7776951737788904,9.003853796743707,0.31555555555555553,-0.3377777777777778,-0.5877777777777777,-0.2548017212939784,-0.125,0.5048017212939784
1589988790.4295506,-3.84,-0.7711454247554739,9.027709150489052,0.3288888888888889,-0.3388888888888889,-0.6022222222222222,-0.4375,0.10352328583486421,0.13215890472171193
1589988790.4395506,-3.836885546952551,-0.7737710939051022,8.977298243001787,0.3288888888888889,-0.3388888888888889,-0.6022222222222222,-0.3693713395870558,-0.08196533154655548,0.17776733422672225
1589988790.4495506,-3.8236366975004015,-0.7436366975004016,8.805455046250604,0.3288888888888889,-0.3388888888888889,-0.6022222222222222,-0.03409403906626575,-0.17613532031124474,0.09090596093373425
1589988790.4595506,-3.8418231292517007,-0.76,8.836380952380953,0.3288888888888889,-0.3388888888888889,-0.6022222222222222,-0.19319727891156463,-0.13069727891156463,-0.06819727891156463
1589988790.4695506,-3.8539646837458386,-0.76,8.878876393110437,0.3288888888888889,-0.3388888888888889,-0.6022222222222222,-0.23113963670574614,-0.16863963670574614,-0.10613963670574614
1589988790.4795506,-3.8346892248620112,-0.7684369250459964,8.933747700183986,0.3242017083077798,-0.33326427219155796,-0.5900355527113386,0.06638468922486201,-0.34569234461243104,-0.230461563074954
1589988790.4895506,-3.829241282490658,-0.76,8.916965129962632,0.3233333333333333,-0.3322222222222222,-0.5877777777777777,0.2452580155666123,-0.5,-0.0672419844333877
1589988790.4995506,-3.8205819931044447,-0.76,8.88232797241778,0.3233333333333333,-0.3322222222222222,-0.5877777777777777,0.19113745690278094,-0.5,-0.12136254309721907
1589988790.5095506,-3.848412490922295,-0.7694708303074317,8.93682498184459,0.3233333333333333,-0.3322222222222222,-0.5877777777777777,-0.10846344710723793,-0.14484386347131445,-0.06580731057855241
1589988790.5195506,-3.8591792113040264,-0.7883584226080532,9.022612901736238,0.3233333333333333,-0.3322222222222222,-0.5877777777777777,-0.010259858699667529,-0.06762992934983376,-0.0051299293498337645
1589988790.5295506,-3.844785081548126,-0.7519627038703157,9.03,0.3072731416341333,-0.35081823366340126,-0.5987663299930199,-0.14263986048631616,-0.0625,-0.09509324032421078
1589988790.5395505,-3.841326992606104,-0.77,8.971374548060323,0.3022222222222222,-0.3566666666666667,-0.6022222222222222,-0.26244055568222535,0.1875,-0.004146851894075112
1589988790.5495505,-3.8549887625810233,-0.77,8.882573043223347,0.3022222222222222,-0.3566666666666667,-0.6022222222222222,-0.3905196491970946,0.1875,-0.04683988306569818
1589988790.5595505,-3.8408002891740467,-0.7891997108259534,8.897999277064883,0.3022222222222222,-0.3566666666666667,-0.6022222222222222,-0.1975036146755829,0.12750090366889572,-0.0025009036688957223
1589988790.5695505,-3.84,-0.7820722189866046,8.868288875946417,0.3022222222222222,-0.3566666666666667,-0.6022222222222222,0.10979178800232964,-0.07319452533488643,-0.14864589400116482
1589988790.5795505,-3.8393447432762833,-0.7406552567237163,8.874586797066014,0.3288888888888889,-0.3377777777777778,-0.5955555555555555,0.21723716381418093,-0.18340464547677263,-0.17930929095354523
1589988790.5895505,-3.8311407334963326,-0.7488592665036675,8.932014865525671,0.3288888888888889,-0.3377777777777778,-0.5955555555555555,-0.19296332518337406,-0.13212958435207825,-0.07675916870415649
1589988790.5995505,-3.831208408742865,-0.7424168174857302,8.897250452457191,0.3288888888888889,-0.3377777777777778,-0.5955555555555555,-0.4526051092858137,0.375,-0.05494744535709314
1589988790.6095505,-3.84,-0.7612508487130424,8.953127121782606,0.3288888888888889,-0.3377777777777778,-0.5955555555555555,-0.5507732933152275,0.375,0.003908902228257515
1589988790.6195505,-3.84,-0.7741954200358003,8.985488550089501,0.3288888888888889,-0.3377777777777778,-0.5955555555555555,-0.4294179371643726,0.375,0.04436068761187581
1589988790.6295505,-3.84,-0.7965126155383463,9.02476892330752,0.31237627335054263,-0.3267693674188803,-0.6184897438032586,-0.11699038221333996,0.11699038221333996,0.217305770671996
1589988790.6395504,-3.8089929310309087,-0.81,9.003957586185452,0.3088888888888889,-0.3244444444444444,-0.6233333333333333,0.25,-0.12185290947158937,0.7720296336988743
1589988790.6495504,-3.791603267066067,-0.81,8.899619602396402,0.3088888888888889,-0.3244444444444444,-0.6233333333333333,0.25,-0.06751020958145898,1.152428532929787
1589988790.6595504,-3.85,-0.7969524435048542,8.840761889123787,0.3088888888888889,-0.3244444444444444,-0.6233333333333333,0.06488090351183268,-0.06011909648816732,1.9202371667248208
1589988790.6695504,-3.85,-0.7280819359208555,8.857979516019785,0.3088888888888889,-0.3244444444444444,-0.6233333333333333,0.11868598756183166,-0.00631401243816835,2.9425337636748017
1589988790.6795504,-3.828541867923799,-0.72,8.9029162641524,0.3192205821107633,-0.333981392033867,-0.6034646925220363,-0.18793109277792802,-0.17881776730167318,3.9565888365083657
1589988790.6895504,-3.810359319631467,-0.7392813607370659,8.939281360737066,0.3233333333333333,-0.3377777777777778,-0.5955555555555555,-0.43300850460666196,-0.4307627569099929,5.095805279943303
1589988790.6995504,-3.7956169943598126,-0.7615745084602815,8.896850983079437,0.3233333333333333,-0.3377777777777778,-0.5955555555555555,-0.5273937852511729,-0.48244689262558643,5.304787570502346
1589988790.7095504,-3.7394171800616074,-0.7797085900308037,8.932914099691963,0.3233333333333333,-0.3377777777777778,-0.5955555555555555,-0.5588573753850462,-0.4411426246149538,5.683857375385046
1589988790.7195504,-3.7247353682441897,-0.7723676841220947,9.006323158779052,0.3233333333333333,-0.3377777777777778,-0.5955555555555555,-0.46709605152618316,-0.5329039484738168,5.592096051526183
1589988790.7295504,-3.6465887091535114,-0.6973039693367115,9.087936724485155,0.3233333333333333,-0.3388888888888889,-0.6088888888888889,-0.2802613200805561,-0.870529623854999,5.480656792048333
1589988790.7395504,-3.5580323848502564,-0.5474394205158188,9.074312674592347,0.3233333333333333,-0.3388888888888889,-0.6088888888888889,-0.06738554050542456,-1.2537060270902358,5.352931324303254
1589988790.7495503,-3.389518467562705,-0.5721642501852048,8.904583553815218,0.3233333333333333,-0.3388888888888889,-0.6088888888888889,-0.42638109852894485,-1.2826489575616467,5.847556619748121
1589988790.7595503,-2.7236861043496665,-1.2601910255053443,9.096935125410097,0.3233333333333333,-0.3388888888888889,-0.6088888888888889,0.5446244311567361,1.5841292729389354,6.309940205312731
1589988790.7695503,-2.7631662737654223,-0.9385772892875731,8.60138291032667,0.3233333333333333,-0.3388888888888889,-0.6088888888888889,2.8465675994244255,2.839929737011297,3.0667594066680954
1589988790.7795503,-2.761648115150533,-0.8357684030268668,8.633407539397867,0.31619648922520743,-0.3327715939390667,-0.581361061614689,1.0501122347441743,-0.27923020850207125,-2.406317254067063
1589988790.7895503,-2.617053488316586,-0.7610499558440939,8.854699381817314,0.31555555555555553,-0.3322222222222222,-0.5788888888888889,-2.6809377759744133,2.193744480511731,-8.807789042174857
1589988790.7995503,-1.8996430402162263,-0.7648215201081131,8.958250384454075,0.31555555555555553,-0.3322222222222222,-0.5788888888888889,-2.1977754089193344,3.2154035020271214,-14.0156169905401
1589988790.8095503,-1.8205060250691318,-0.72,8.777004016712754,0.31555555555555553,-0.3322222222222222,-0.5788888888888889,1.5481526149001876,2.383755020890943,-18.169508053609995
1589988790.8195503,-1.9474957107966817,-0.72,8.861663807197788,0.31555555555555553,-0.3322222222222222,-0.5788888888888889,2.130188674484791,2.489579758997235,-20.97386361342672
1589988790.8295503,-2.03477210258844,-0.749908841035376,8.989635364141503,0.31057074871632623,-0.3322222222222222,-0.5855352980078613,0.9724533329378497,1.8924766664689248,-24.147418975302053
1589988790.8395503,-2.126818759092064,-0.8034093795460319,9.137726233634286,0.3088888888888889,-0.3322222222222222,-0.5877777777777777,0.4261406931904773,1.680402417623017,-28.94603932389683
1589988790.8495502,-2.2206601853005945,-0.850330092650297,8.968019444098218,0.3088888888888889,-0.3322222222222222,-0.5877777777777777,1.1394415534504965,2.4643200278366364,-31.736406269475257
1589988790.8595502,-2.238086335119864,-0.8590431675599318,8.915740994640409,0.3088888888888889,-0.3322222222222222,-0.5877777777777777,1.5206385807470189,3.172257364244464,-34.677069051477005
1589988790.8695502,-2.24,-0.8770543095966747,8.870206610941093,0.3088888888888889,-0.3322222222222222,-0.5877777777777777,1.5269701883402609,3.143410565020783,-36.634371336347996
1589988790.8795502,-2.2745165500489435,-0.9097237428851104,8.874516550048943,0.3088888888888889,-0.33550951270307394,-0.5949002404862899,1.37672660696806,3.12413669651597,-39.200188975093354
1589988790.8895502,-2.31,-0.9238502650273825,8.873101590164294,0.3088888888888889,-0.3388888888888889,-0.6022222222222222,1.3653075307365783,3.1875,-42.44585633536411
1589988790.8995502,-2.3440443020339927,-0.92,8.747867093898021,0.3088888888888889,-0.3388888888888889,-0.6022222222222222,1.4906942219281136,3.4002768877124545,-46.07193420869323
1589988790.9095502,-2.3772418593718925,-0.9404313945289193,8.770862789057839,0.3088888888888889,-0.3388888888888889,-0.6022222222222222,1.414869189462836,3.394934594731418,-48.45800864235477
1589988790.9195502,-2.3970287780187998,-0.9921726681127983,8.916518004338394,0.3088888888888889,-0.3388888888888889,-0.6022222222222222,1.5067895878524946,3.418929862617498,-51.30791395516992
1589988790.9295502,-2.4201369166207454,-1.0032876944597515,9.01027383324149,0.32678837032955127,-0.3247184660816978,-0.5977473518620566,1.6883557288796576,3.689211457759315,-53.8030763850621
1589988790.9395502,-2.4726416494579246,-1.008528329891585,9.06411331956634,0.33555555555555555,-0.31777777777777777,-0.5955555555555555,2.0698123709344345,3.9191041236448116,-56.75708247289623
1589988790.9495502,-2.460986724988556,-1.067039825034332,8.92740043741417,0.33555555555555555,-0.31777777777777777,-0.5955555555555555,2.0655835155892377,4.115749453232287,-59.501659376430496
1589988790.9595501,-2.424195923116511,-1.0879020384417446,8.92,0.33555555555555555,-0.31777777777777777,-0.5955555555555555,1.894668389608646,4.404719350652257,-61.86275480521805
1589988790.9695501,-2.397233097716486,-1.1051779348556763,8.889644130288648,0.33555555555555555,-0.31777777777777777,-0.5955555555555555,1.8275689535760118,4.390068953576012,-63.97481081053554
1589988790.9795501,-2.4102328097074595,-1.1216296679522153,8.878603141755244,0.37666666666666665,-0.2977777777777777,-0.5955555555555555,1.7529101213432414,4.629365182014862,-66.48260688082024
1589988790.98955,-2.4202529323246273,-1.1902529323246274,8.819578446125622,0.37666666666666665,-0.2977777777777777,-0.5955555555555555,1.8765808270289213,4.813026942342974,-68.39028132794624
1589988790.99955,-2.4461911731359898,-1.2161911731359898,8.77634804477335,0.37666666666666665,-0.2977777777777777,-0.5955555555555555,2.038694832099936,4.867064944033312,-69.95738337696605
1589988791.00955,-2.547204588670414,-1.2424318281547109,8.799909104206282,0.37666666666666665,-0.2977777777777777,-0.5955555555555555,2.0625,5.015198925966943,-71.4960233090248
1589988791.01955,-2.604267190952814,-1.2597068763811257,8.834267190952815,0.37666666666666665,-0.2977777777777777,-0.5955555555555555,2.183835954764071,5.092833988691018,-72.72618370596646
1589988791.02955,-2.63,-1.3126311856526072,8.898368067087345,0.38187714491309643,-0.3039356157053765,-0.6012397136425698,2.3924334730986385,5.231577964131517,-74.22861227582199
1589988791.03955,-2.652646401610468,-1.37,8.983969602415701,0.3888888888888889,-0.31222222222222223,-0.6088888888888889,2.5353850025163562,5.339614997483643,-76.00962506290891
1589988791.04955,-2.678171181279051,-1.4108559063952557,8.928288187209489,0.3888888888888889,-0.31222222222222223,-0.6088888888888889,2.664639765988139,5.414639765988139,-77.81103742586953
1589988791.05955,-2.6673841065190613,-1.4578476804428169,8.91,0.3888888888888889,-0.31222222222222223,-0.6088888888888889,2.648075332872066,5.4375,-78.89041800968661
1589988791.06955,-2.653861661771904,-1.473861661771904,8.91,0.3888888888888889,-0.31222222222222223,-0.6088888888888889,2.433176930372002,5.4375,-80.25738612028879
1589988791.07955,-2.64438292654891,-1.4868512203532702,8.89876585309782,0.4069883477868458,-0.2853850935114585,-0.6170024394293523,2.242286581861374,5.472606709069313,-81.51463418138626
1589988791.08955,-2.5973474029605876,-1.535543830866177,8.854456169133822,0.4211111111111111,-0.2644444444444444,-0.6233333333333333,2.1875,5.544429788582721,-83.17324471456803
1589988791.09955,-2.59346288639496,-1.5836572159873992,8.786148454420161,0.4211111111111111,-0.2644444444444444,-0.6233333333333333,2.145428480015751,5.5625,-84.59264495963772
1589988791.10955,-2.6,-1.6335444587842085,8.810316688176313,0.4211111111111111,-0.2644444444444444,-0.6233333333333333,2.3870660842516296,5.614913216850326,-86.00593790330586
1589988791.11955,-2.6067493353727373,-1.6872453476091627,8.84699734149095,0.4211111111111111,-0.2644444444444444,-0.6233333333333333,2.8171501147164864,5.835916730398048,-86.82025019119415
1589988791.12955,-2.6015247141600706,-1.760851715039578,8.910851715039577,0.4559539528974885,-0.26632784129776216,-0.6299252223199452,3.3178232189973613,6.255323218997361,-87.97252858399297
1589988791.13955,-2.574942367912586,-1.8201152641748286,8.894942367912586,0.4622222222222222,-0.26666666666666666,-0.6311111111111111,3.479406800364226,6.364703400182113,-88.75144080218536
1589988791.14955,-2.5959964359218914,-1.847330957281261,8.846672606796847,0.4622222222222222,-0.26666666666666666,-0.6311111111111111,3.2833630339842377,6.212522275488178,-89.90402558857487
1589988791.15955,-2.572236729898236,-1.8777632701017644,8.860822452576322,0.4622222222222222,-0.26666666666666666,-0.6311111111111111,3.11985967139798,6.1875,-90.7132016430101
1589988791.16955,-2.5683551928495096,-1.9317759642475467,8.882532789274263,0.4622222222222222,-0.26666666666666666,-0.6311111111111111,3.010280044690566,6.213609977654717,-91.41775964247547
1589988791.17955,-2.58,-1.987746865941347,8.893240597824041,0.46622779388204977,-0.2533982105434878,-0.6331138969410248,2.9093358242668375,6.292246263599744,-92.22531340586531
1589988791.18955,-2.5663778372864066,-1.9890814418090623,8.879081441809062,0.48,-0.20777777777777776,-0.64,2.7557409886933604,6.465879505653319,-93.31217456218651
1589988791.19955,-2.5041697208908937,-2.0523774618389785,8.759056345402554,0.48,-0.20777777777777776,-0.64,2.6875,6.5,-94.21945859680213
1589988791.20955,-2.4914445435215034,-2.0742777282392484,8.730055902325262,0.48,-0.20777777777777776,-0.64,2.8305567940187943,6.428471602990603,-95.03646297757048
1589988791.21955,-2.4951321705759373,-2.1040748059684393,8.833017441360942,0.48,-0.20777777777777776,-0.64,2.7853803304980382,6.435847867800785,-95.89385900850588
1589988791.22955,-2.49,-2.1755994241801977,8.879486207845545,0.4997774578778876,-0.19026060080022017,-0.6354794381993399,2.911066801448017,6.817852001608908,-96.75642240193069
1589988791.2395499,-2.504300767380598,-2.2815038369029894,8.814248081548506,0.5188888888888888,-0.17333333333333334,-0.6311111111111111,3.679088878708052,7.125,-97.75065857290116
1589988791.2495499,-2.5020285298129608,-2.341885880748156,8.80797147018704,0.5188888888888888,-0.17333333333333334,-0.6311111111111111,3.3269614246410653,6.826069867986035,-98.54803857535893
1589988791.2595499,-2.4760604821248138,-2.3819193571669155,8.833939517875187,0.5188888888888888,-0.17333333333333334,-0.6311111111111111,3.4867439734398307,6.799873995573305,-99.38573593802627
1589988791.2695498,-2.464033827164885,-2.419830864175574,8.845966172835114,0.5188888888888888,-0.17333333333333334,-0.6311111111111111,3.487922839561065,6.998942901097338,-99.97267438241414
1589988791.2795498,-2.4136989703938143,-2.4708673530707905,8.865433676535394,0.5446116831145476,-0.1501828185302405,-0.6594061847593357,3.2445790433075596,7.07676976082689,-100.87699310925044
1589988791.2895498,-2.3622320637732503,-2.4925893120755833,8.844821375848834,0.5522222222222222,-0.14333333333333334,-0.6677777777777778,2.990791998819014,7.180524800708592,-101.57394080307057
1589988791.2995498,-2.346497461928934,-2.519492385786802,8.745532994923858,0.5522222222222222,-0.14333333333333334,-0.6677777777777778,2.9968274111675126,7.331218274111675,-102.44352791878173
1589988791.3095498,-2.3106926443717333,-2.5758585815663113,8.772063485318489,0.5522222222222222,-0.14333333333333334,-0.6677777777777778,2.898719351548889,7.252164513661667,-103.28228710746612
1589988791.3195498,-2.2779124616059674,-2.6120875383940323,8.793883282141291,0.5522222222222222,-0.14333333333333334,-0.6677777777777778,3.0139589732338745,7.313411858271172,-103.91505320315927
1589988791.3295498,-2.2534643191290296,-2.638169601088713,8.77653568087097,0.5554900626577074,-0.13262207857257616,-0.6748580987213292,3.3227120013608915,7.520424002721783,-104.61110402313516
1589988791.3395498,-2.2076515760583297,-2.7046968478833415,8.803825788029165,0.5722222222222222,-0.07777777777777778,-0.7111111111111111,3.4521776496354413,7.740766474453162,-106.2717764963544
1589988791.3495498,-2.173838717174065,-2.759241924238903,8.74767743434813,0.5722222222222222,-0.07777777777777778,-0.7111111111111111,3.459122995584476,7.935131013246572,-107.52666308389496
1589988791.3595498,-2.155225776852358,-2.80864533888585,8.753419562033491,0.5722222222222222,-0.07777777777777778,-0.7111111111111111,3.40766110532724,8.0,-108.44476120943692
1589988791.3695498,-2.132607836913201,-2.848696081543399,8.7986960815434,0.5722222222222222,-0.07777777777777778,-0.7111111111111111,3.4021752548231228,8.054350509646245,-109.43480407716996
1589988791.3795497,-2.0957203724449505,-2.912358634368515,8.81,0.568520096559802,-0.059267149465676586,-0.7100533609218482,3.1400077592698024,8.125,-110.38673991294925
1589988791.3895497,-2.064174501396483,-2.97,8.804724833798828,0.5644444444444444,-0.03888888888888889,-0.7088888888888889,2.8125,8.32281873254396,-111.24110725384524
1589988791.3995497,-2.0445624648028047,-2.9917501407887803,8.734749577633659,0.5644444444444444,-0.03888888888888889,-0.7088888888888889,2.948438379929878,8.398046215052592,-111.72695378494741
1589988791.4095497,-2.026963628616803,-3.023036371383197,8.686518185691599,0.5644444444444444,-0.03888888888888889,-0.7088888888888889,2.899545357710036,8.475454642289964,-112.3013639268699
1589988791.4195497,-1.98090479485912,-3.04303173504696,8.71606347009392,0.5644444444444444,-0.03888888888888889,-0.7088888888888889,2.8939483440435,8.6439483440435,-112.52177582797825
1589988791.4295497,-1.9373474899878922,-3.0877541833535127,8.752652510012108,0.5703173174105464,-0.010363505910679239,-0.7088888888888889,3.126270916767564,8.6875,-112.5
1589988791.4395497,-1.9189497850247423,-3.1442008599010305,8.765525107487628,0.5722222222222222,-0.0011111111111111113,-0.7088888888888889,3.1875,8.75656384359536,-112.36187231280928
1589988791.4495497,-1.90431320530588,-3.21412076816472,8.7131320530588,0.5722222222222222,-0.0011111111111111113,-0.7088888888888889,3.15195753316175,8.8125,-111.85903286477925
1589988791.4595497,-1.8542754761437268,-3.270483015904182,8.73858678578441,0.5722222222222222,-0.0011111111111111113,-0.7088888888888889,2.839221725898292,8.8125,-110.70516517769488
1589988791.4695497,-1.8524489480795214,-3.3048978961590425,8.76622447403976,0.5722222222222222,-0.0011111111111111113,-0.7088888888888889,2.7110970372514958,8.890305925497008,-109.58163481953291
1589988791.4795496,-1.8422477791878173,-3.337752220812183,8.76112388959391,0.5776465119148336,0.010230585518894528,-0.7350241028623802,2.632024309961929,8.854286464942893,-108.42452956456218
1589988791.4895496,-1.7835951523092042,-3.369101211922699,8.736348182115952,0.5844444444444444,0.024444444444444446,-0.7677777777777778,2.4487348509662628,8.69311742548313,-106.99929168031444
1589988791.4995496,-1.7276730478834819,-3.367673047883482,8.65220176335915,0.5844444444444444,0.024444444444444446,-0.7677777777777778,1.9272827463588096,8.586478274635882,-105.0558265137123
1589988791.5095496,-1.693161750892354,-3.355526958482059,8.641311290625586,0.5844444444444444,0.024444444444444446,-0.7677777777777778,1.5477174525643433,8.506586981025738,-103.47380471538607
1589988791.5195496,-1.6476981350110744,-3.3530754662472315,8.676924533752768,0.5844444444444444,0.024444444444444446,-0.7677777777777778,1.3365566719096074,8.495164992135589,-101.9185150707797
1589988791.5295496,-1.6125383685579284,-3.3711924471631076,8.681192447163108,0.5935642162069765,0.02651711984501992,-0.764461497136857,1.25,8.694952794769423,-99.91056646276694
1589988791.5395496,-1.597203973605975,-3.4039801319701257,8.7,0.6088888888888889,0.03,-0.7588888888888888,1.25,8.637748350373432,-97.80099340149373
1589988791.5495496,-1.59,-3.471226834168011,8.662527798998386,0.6088888888888889,0.03,-0.7588888888888888,1.0157987437399203,7.914265201029907,-94.59479246243953
1589988791.5595496,-1.5767122367171027,-3.569726579697384,8.713082698055935,0.6088888888888889,0.03,-0.7588888888888888,0.7919514794818917,7.459330178186621,-91.92293254860162
1589988791.5695496,-1.5515658828860581,-3.6053914707215147,8.76843411711394,0.6088888888888889,0.03,-0.7588888888888888,0.9516231559337395,6.909253688132521,-89.9054742963597
1589988791.5795496,-1.5258138642564802,-3.641861357435198,8.756510914051841,0.6060981317265424,0.018836971350613914,-0.7802846938002123,1.2921533935879945,6.3851733032060025,-87.42148597373806
1589988791.5895495,-1.507516923551851,-3.6875169235518515,8.76617384401667,0.6022222222222222,0.0033333333333333327,-0.81,1.3984903860995348,5.922403860995347,-83.99456737447906
1589988791.5995495,-1.4747003683475168,-3.692649815826242,8.679826749650704,0.6022222222222222,0.0033333333333333327,-0.81,1.5726533722850249,5.568907976628985,-80.96096627714975
1589988791.6095495,-1.4071653486527413,-3.6207480229791122,8.676043314184074,0.6022222222222222,0.0033333333333333327,-0.81,1.3572834290796336,5.458722928634955,-77.87247764584285
1589988791.6195495,-1.3691105543376136,-3.601778891324773,8.699110554337613,0.6022222222222222,0.0033333333333333327,-0.81,1.3236180707798308,5.199293376135296,-75.07143556216724
1589988791.6295495,-1.3714060845483425,-3.66562433819337,8.712812169096685,0.5718059967599758,0.00882515181957228,-0.7521246821065588,1.2949239431457196,4.92871197157286,-72.2555528121691
1589988791.6395495,-1.3857620626151013,-3.7611896869244936,8.707620626151012,0.5222222222222223,0.017777777777777778,-0.6577777777777778,1.2214226519337017,4.627090239410681,-68.64172191528544
1589988791.6495495,-1.3702887633396108,-3.775433145009416,8.630577526679222,0.5222222222222223,0.017777777777777778,-0.6577777777777778,1.4375,4.253609541745135,-65.01657642812305
1589988791.6595495,-1.3534987879487477,-3.7730024241025046,8.655508484358768,0.5222222222222223,0.017777777777777778,-0.6577777777777778,1.457816287660164,4.084367424679672,-62.17478789103082
1589988791.6695495,-1.3090936604874885,-3.8068680754472246,8.770604226341675,0.5222222222222223,0.017777777777777778,-0.6577777777777778,1.650239150408042,4.021462735772578,-58.54619858941793
1589988791.6795495,-1.2556895495437397,-3.8484477477186987,8.82137909908748,0.5336013213097017,0.07846630624433482,-0.6293300300590792,1.261865991680908,3.493545045626028,-54.24033671363622
1589988791.6895494,-1.266073455333801,-3.888220366001403,8.744971625326787,0.5422222222222223,0.12444444444444445,-0.6077777777777778,1.2434682458713255,3.1004590958362557,-50.53495424982465
1589988791.6995494,-1.3145597808397527,-3.912731365954215,9.708509276337203,0.5422222222222223,0.12444444444444445,-0.6077777777777778,1.36357240696539,2.965857925572312,-46.595797846370836
1589988791.7095494,-0.8058448975623982,-2.8308785573674875,8.077071718472792,0.5422222222222223,0.12444444444444445,-0.6077777777777778,1.3367134906554548,4.175702359831822,-42.36931155369772
1589988791.7195494,-0.9111953102659421,-3.2281584215041463,8.090025736345439,0.5422222222222223,0.12444444444444445,-0.6077777777777778,4.975729196454104,8.700314555333144,-37.97873177008865
1589988791.7295494,-0.984357670221493,-3.5235668580803936,8.185251845775225,0.5376457934554736,0.16277203536596482,-0.6003410810318112,5.560038966365873,0.5180168170631667,-36.272272354388846
1589988791.7395494,-0.8799284416799692,-3.3276187592888204,7.926320801453184,0.5333333333333333,0.1988888888888889,-0.5933333333333334,-3.6117445092750593,-5.851048604612759,-35.64010637419497
1589988791.7495494,-1.005957936979786,-3.606242196789536,8.349431480380499,0.5333333333333333,0.1988888888888889,-0.5933333333333334,-4.217486623067776,1.3657267204221166,-31.260587748959573
1589988791.7595494,-1.0561379414656282,-3.7324483097632912,8.467689782953943,0.5333333333333333,0.1988888888888889,-0.5933333333333334,4.570472850336534,3.1821116614989036,-26.76659419193829
1589988791.7695494,-1.0720888502430734,-3.7783554009722935,8.731322082131141,0.5333333333333333,0.1988888888888889,-0.5933333333333334,1.223261926406071,1.8668036836488677,-25.219791213786017
1589988791.7795494,-1.013007202065498,-3.5680432123929884,8.448321329890836,0.5338150815579814,0.21671357320086768,-0.5841801170650199,-0.3509280019930241,-0.1887881052679259,-22.749099741812746
1589988791.7895494,-1.1061124928830421,-3.8222249857660846,8.825933295376226,0.5344444444444445,0.24,-0.5722222222222222,1.5187344550657755,1.2752239968835215,-19.546739684156904
1589988791.7995493,-1.1055830917081533,-3.8630256943304704,8.736290096102996,0.5344444444444445,0.24,-0.5722222222222222,0.6875,0.7005853711909842,-17.3663049127414
1589988791.8095493,-1.0668857944367458,-3.8295092439246967,8.397379592388548,0.5344444444444445,0.24,-0.5722222222222222,1.2469327745293541,0.2868827525602461,-14.890355139081354
1589988791.8195493,-1.113664616592515,-3.9540838458518714,8.685916154148128,0.5344444444444445,0.24,-0.5722222222222222,1.770283670832243,0.05104807314839047,-12.13839431758702
1589988791.8295493,-1.1060363434375495,-4.012690842723377,8.746436279955562,0.53622626038195,0.24229090620536423,-0.5755313089633038,1.3802273448658944,0.06772734486589431,-9.707273647040152
1589988791.8395493,-1.0774627034039312,-3.948737133026876,8.487474266053752,0.5422222222222223,0.25,-0.5866666666666667,0.989093037028681,0.07340696297131899,-5.2262489776925465
1589988791.8495493,-1.031461609280059,-3.810974406186706,8.20805118762659,0.5422222222222223,0.25,-0.5866666666666667,0.8567298839992635,0.15095976799852698,-3.891978917326459
1589988791.8595493,-1.0991542621058388,-3.9148342345626506,8.457131255442818,0.5422222222222223,0.25,-0.5866666666666667,0.43882146545962697,-0.521714310306418,0.681463535654252
1589988791.8695493,-1.1707382765245855,-4.077651035366114,8.980537073934391,0.5422222222222223,0.25,-0.5866666666666667,0.32214762862022345,-0.49538577172134063,3.713086173770725
1589988791.8795493,-1.1259688322778056,-4.017958443037074,8.644766242083541,0.5422222222222223,0.25,-0.5866666666666667,0.368782466377286,-0.775194798263716,5.951558386109728
1589988791.8895493,-1.1417610859370362,-4.021032312958822,8.892064625917644,0.5288888888888889,0.2766666666666667,-0.6077777777777778,0.10273289866830243,-1.0759109662227675,9.23469190889843
1589988791.8995492,-1.0006702020301956,-3.7969467914597224,8.443893582919445,0.5288888888888889,0.2766666666666667,-0.6077777777777778,0.4139627896392742,-1.1796542632130913,11.0501996062291
1589988791.9095492,-1.1686529485570891,-4.142562107904642,8.891595483061481,0.5288888888888889,0.2766666666666667,-0.6077777777777778,0.014824341279799246,-1.375,13.043284190715182
1589988791.9195492,-1.1055016311166876,-4.002225846925972,8.393401756587203,0.5288888888888889,0.2766666666666667,-0.6077777777777778,0.05867942283563362,-1.375,14.095806148055207
1589988791.9295492,-1.0850492258832871,-3.8723769352917823,8.67722925764192,0.5374152220898946,0.2750164086277624,-0.6077777777777778,-0.1571729853116316,-1.6101441544263597,15.123154029376737
1589988791.9395492,-1.0758139367298407,-3.9216278734596814,8.76581393672984,0.5633333333333334,0.27,-0.6077777777777778,0.07957861929811919,-1.3931685522807524,15.751089932982634
1589988791.9495492,-1.0970308163120064,-3.9932422959219984,8.754607857092022,0.5633333333333334,0.27,-0.6077777777777778,-0.1672356504875098,-1.5405286990249805,16.28711479609992
1589988791.9595492,-1.0716086727029113,-3.969435218644687,8.651956636485444,0.5633333333333334,0.27,-0.6077777777777778,-0.09483738682041495,-1.58478318242722,16.72554204393195
1589988791.9695492,-1.1052474190103239,-3.87311854752581,8.732029191883232,0.5633333333333334,0.27,-0.6077777777777778,-0.12159576361694555,-1.4275987896048417,17.407796368814523
1589988791.9795492,-1.127720393247526,-3.923161179742578,8.801763145980209,0.5851637453377315,0.2772768040014661,-0.6141449812790606,-0.4261650281353082,-1.474417485932346,17.855242626608888
1589988791.9895492,-1.1144453205669766,-3.9055625645358116,8.700007885102789,0.6166666666666667,0.2877777777777778,-0.6233333333333333,-0.41665023936919177,-1.4930665070872056,18.38198277480522
1589988791.9995492,-1.1131950984441692,-3.95,8.688755885997521,0.6166666666666667,0.2877777777777778,-0.6233333333333333,-0.4188265868098582,-1.6262959520859148,18.75259190417183
1589988792.0095491,-1.136024738963868,-3.9905278313343517,8.651055662668703,0.6166666666666667,0.2877777777777778,-0.6233333333333333,-0.625,-1.6092783634223902,19.197010291208652
1589988792.0195491,-1.1762188132483402,-3.994625758980082,8.697063385476762,0.6166666666666667,0.2877777777777778,-0.6233333333333333,-0.7667945031872434,-1.6974565891766131,19.74472142357236
1589988792.0295491,-1.1812686443486906,-3.9575621478289693,8.653196470003314,0.6536027786984864,0.29549888594262147,-0.6289676555076786,-0.9413091440172356,-2.0780473152137886,20.343905369572422
1589988792.039549,-1.2261359740233548,-4.113375955468609,8.825647903515318,0.8133333333333334,0.3288888888888889,-0.6533333333333333,-0.6978500695802997,-1.8784500231934331,20.8017503479015
1589988792.049549,-1.1669219288869168,-4.011866163806143,8.605710021579977,0.8133333333333334,0.3288888888888889,-0.6533333333333333,-0.8564591190529012,-1.931319706350967,21.594795595264507
1589988792.059549,-1.21,-4.000361290683682,8.627305571880335,0.8133333333333334,0.3288888888888889,-0.6533333333333333,-0.7597214059832648,-1.9760410544874485,23.421004393697704
1589988792.069549,-1.220023627695034,-3.93670604615839,8.706871440023628,0.8133333333333334,0.3288888888888889,-0.6533333333333333,-0.9997046538120754,-2.1873523269060375,25.251624404033585
1589988792.079549,-1.2279252175531667,-3.928945739680767,8.809966261808368,0.9791603456031768,0.3361337583569889,-0.7840093122579511,-0.855654346409791,-2.1077804341756248,27.228739122341665
1589988792.089549,-1.2038143110585453,-3.8303914843287994,8.642494382022472,1.5,0.3588888888888889,-1.1944444444444444,-1.222035777646363,-2.2672678888231816,29.729376108811355
1589988792.099549,-1.243130960063096,-3.9444405606940562,8.679809277980928,1.5,0.3588888888888889,-1.1944444444444444,-1.3125,-2.3516370007887,31.87998651143615
1589988792.109549,-1.255295321637427,-4.030590643274853,8.499714912280702,1.5,0.3588888888888889,-1.1944444444444444,-1.262856359649123,-2.470595760233918,33.30702668128655
1589988792.119549,-1.3040146266358739,-4.105605850654349,8.726364896073903,1.5,0.3588888888888889,-1.1944444444444444,-1.0776462663587374,-2.705018283294842,34.69270111624326
1589988792.129549,-1.3363033102386452,-4.118521324095458,8.648872055427253,1.5,0.3588888888888889,-1.1944444444444444,-1.4005331023864511,-2.7453791377983063,35.13667051578137
1589988792.139549,-1.435758641138597,-3.97101152151813,8.795408124364622,0.9666666666666668,-0.18777777777777774,-0.8755555555555555,-1.1101652511860387,-2.8601652511860385,35.26799575355812
1589988792.149549,-1.400826162313376,-3.915413081156688,8.629021801927813,0.9666666666666668,-0.18777777777777774,-0.8755555555555555,-1.0399454951804665,-2.8463317572293003,35.012227475902336
1589988792.159549,-1.4361671203801964,-3.9538328796198035,8.656167120380196,0.9666666666666668,-0.18777777777777774,-0.8755555555555555,-0.9158861255940571,-2.978386125594057,34.240633507128685
1589988792.169549,-1.4272844270115552,-3.9598348351531856,8.699137708046221,0.9666666666666668,-0.18777777777777774,-0.8755555555555555,-0.8389907770592601,-2.84747694264815,33.64197233117778
1589988792.179549,-1.4681280490533948,-3.9081280490533947,8.8344329320145,0.9107161328181336,-0.13016328753226214,-0.8416524439670391,-0.7383003065837175,-2.57820122633487,33.316501532918586
1589988792.189549,-1.470643359732433,-3.8964522134225223,8.701286719464866,0.6677777777777778,0.12,-0.6944444444444444,-0.6875,-2.375,33.0625
1589988792.199549,-1.5355596402225327,-3.860550449721834,8.706642158664804,0.6677777777777778,0.12,-0.6944444444444444,-0.9792432541724874,-2.4965596892385364,33.13543581354312
1589988792.209549,-1.5718586332690476,-3.8418586332690476,8.66277482166508,0.6677777777777778,0.12,-0.6944444444444444,-1.2892670841369054,-2.563972570114088,33.3982329158631
1589988792.219549,-1.5651412341148223,-3.863107345735647,8.757853085287056,0.6677777777777778,0.12,-0.6944444444444444,-0.9071327132176391,-2.4721045542389755,33.81920910847795
1589988792.229549,-1.51,-3.8766668899906205,8.655556746616641,0.6527155448360058,0.14098835737787901,-0.6944444444444444,-0.7708403122068873,-2.743057416588503,34.31944677073563
1589988792.239549,-1.5260316780821919,-3.8839683219178083,8.715873287671233,0.6,0.21444444444444444,-0.6944444444444444,-1.2996040239726028,-2.8874010059931505,34.6626979880137
1589988792.249549,-1.5548450743365292,-3.855154925663471,8.656338057523968,0.6,0.21444444444444444,-0.6944444444444444,-1.060563429206614,-2.8427817146033068,34.73679571349173
1589988792.259549,-1.5694146866750036,-3.8405853133249965,8.765610150062525,0.6,0.21444444444444444,-0.6944444444444444,-1.2426835834375434,-2.9338417917187716,34.50914552070307
1589988792.269549,-1.5470763979520128,-3.8694351972693504,8.600763979520128,0.6,0.21444444444444444,-0.6944444444444444,-1.0843025298664792,-2.6875,33.032392581066155
1589988792.279549,-1.5660699838187704,-3.9039300161812296,8.823449973031284,0.6010188930840226,0.21444444444444444,-0.699102241399976,-0.7827501348435815,-2.6547498651564188,31.822061252696873
1589988792.2895489,-1.5291507639991946,-3.9263835879997315,8.783616412000267,0.6077777777777778,0.21444444444444444,-0.73,-0.796576824984899,-2.3244871249916104,28.885794424931206
1589988792.2995489,-1.5034005955164014,-3.9101008932746018,8.727305657405811,0.6077777777777778,0.21444444444444444,-0.73,-0.5406156950562295,-2.125,26.03323479833649
1589988792.3095489,-1.4732104878827985,-3.9067895121172014,8.60671580484688,0.6077777777777778,0.21444444444444444,-0.73,-0.6030917689744877,-1.9151310985349825,22.156378360184384
1589988792.3195488,-1.4426241975712475,-3.945248395142495,8.646241975712474,0.6077777777777778,0.21444444444444444,-0.73,-0.36170370446089056,-1.4507962955391094,18.01369750991536
1589988792.3295488,-1.452714335300243,-3.949142658799028,8.72814300590073,0.6050634424775347,0.2070554205715608,-0.7310555748389833,-0.4321416174939257,-1.2361593196806664,13.415610898993405
1589988792.3395488,-1.4763194826637314,-3.894218835993396,8.7752603880022,0.5877777777777777,0.16,-0.7377777777777778,0.019748383324160703,-0.7105032333516786,7.5619517921023665
1589988792.3495488,-1.48319886874356,-3.9661712669633657,8.715541402670292,0.5877777777777777,0.16,-0.7377777777777778,0.31643665183171465,-0.21284502225242802,0.24133059654046018
1589988792.3595488,-1.404980959634425,-3.944082254379284,8.669550647372429,0.5877777777777777,0.16,-0.7377777777777778,0.7841774562071592,0.3892802741812643,-5.52951256664128
1589988792.3695488,-1.313703346978088,-3.8882711293041177,8.69543221767397,0.5877777777777777,0.16,-0.7377777777777778,1.0740729593065255,0.7554027209246328,-11.572568023115819
1589988792.3795488,-1.9664686270587453,-3.766421951056878,4.227747549509902,0.57236491742793,0.16770643017492387,-0.6979612218740044,-18.60552527172101,32.3833475028339,-60.48513869440554
1589988792.3895488,-3.68,-3.61,-6.8,0.5344444444444445,0.18666666666666668,-0.6,-66.6875,109.75,-169.625
1589988792.3995488,-0.9193472806905643,-3.513810009780159,0.8182472254114037,0.5344444444444445,0.18666666666666668,-0.6,-36.4477718246375,-104.15249075137135,-506.41020325721814
1589988792.4095488,-0.147182184614505,-2.434693119121809,-0.09124210285583603,0.5344444444444445,0.18666666666666668,-0.6,-34.878866384608784,-54.53289464280609,-520.1715788570939
1589988792.4195487,-0.12418100200904061,-3.2908450527373176,2.254399171270718,0.5344444444444445,0.18666666666666668,-0.6,-31.163727005901556,-32.126228183073835,-498.62179416750377
1589988792.4295487,-1.3289099384731289,-5.423807759919638,9.930431629834255,0.5344444444444445,0.18666666666666668,-0.6,-25.691426850514816,-15.750472830863888,-482.73978018269713
1589988792.4395487,-0.37342812900151867,-1.803577320508621,0.7629153390309995,0.5255555555555556,0.3377777777777778,-0.6522222222222223,57.123795822042226,104.0986793127066,-427.5892189779935
1589988792.4495487,-0.07571916611669705,-2.660603284288986,7.234241624286657,0.5255555555555556,0.3377777777777778,-0.6522222222222223,89.58447290267479,151.4672905586397,-395.30449066345744
1589988792.4595487,0.5593207020495565,-1.3798476215968185,9.10720136127256,0.5255555555555556,0.3377777777777778,-0.6522222222222223,85.7247079573264,167.61970762274396,-368.69225465547567
1589988792.4695487,-2.608216197613949,-1.2595614102171917,4.792935913123279,0.5255555555555556,0.3377777777777778,-0.6522222222222223,9.844156278678497,107.52672118767207,-336.265096837718
1589988792.4795487,-1.4054601345323914,-0.24772524531668152,3.700737758275671,0.508468307736818,0.35380443780086956,-0.6513973206033866,18.036007907997202,12.127025218795959,-301.44132440870845
1589988792.4895487,1.0687110101218757,-1.4754472216484198,12.537172071885974,0.3644444444444445,0.4888888888888889,-0.6444444444444445,5.511748605659988,-50.39324261516216,-280.70016525511255
1589988792.4995487,-0.15707091842910753,-2.616338042782783,7.148682276445259,0.3644444444444445,0.4888888888888889,-0.6444444444444445,5.205329041797085,-23.23449902294776,-256.5027755200858
1589988792.5095487,0.923653829526,-1.760462067892161,6.365338163833503,0.3644444444444445,0.4888888888888889,-0.6444444444444445,28.188862901412836,31.39105975582339,-233.38324441869713
1589988792.5195487,0.49373994913029207,-1.4118645388907123,8.108925787659993,0.3644444444444445,0.4888888888888889,-0.6444444444444445,-2.0663011261076467,56.44639835288808,-197.2423977477847
1589988792.5295486,-1.0050191210582409,-1.8213303241176102,10.810484609115415,0.3447375643463664,0.5040320704379384,-0.6365616924052132,-8.891629051470128,4.454227007711115,-180.14952040624414
1589988792.5395486,0.3386198841124064,-1.8938771957950669,6.871883058882807,0.2588888888888889,0.57,-0.6022222222222222,-4.325749204131645,-0.752101321485009,-159.95160805487484
1589988792.5495486,0.5894742894411644,-2.2972222985033643,8.984117293697652,0.2588888888888889,0.57,-0.6022222222222222,6.422311590347384,23.021017480777154,-144.3438722882054
1589988792.5595486,1.0286001647672662,-2.7003542496224084,10.200711931896196,0.2588888888888889,0.57,-0.6022222222222222,19.96502557325278,13.167680729095153,-135.25540642592338
1589988792.5695486,0.6345937998699687,-2.330625332466458,8.320502393758495,0.2588888888888889,0.57,-0.6022222222222222,-1.9097741444529819,1.4611669942076952,-117.0388330057923
1589988792.5795486,0.6531866540575685,-2.454577693717123,9.212959394763283,0.2588888888888889,0.57,-0.6022222222222222,-5.086053401501271,14.205019135291684,-104.29498086470832
1589988792.5895486,14.741574288934562,-25.46228601737055,6.189165948418749,0.19666666666666666,0.6,-0.6311111111111111,-11.032646439700326,-12.13542564476563,-53.12541023006033
1589988792.5995486,-0.09167187625230411,-2.0236723571371322,8.318943656327642,0.19666666666666666,0.6,-0.6311111111111111,-11.116779874969946,-0.3446892281798508,60.82742746653843
1589988792.6095486,-1.9106046052754042,-1.1785554997114722,11.787786712831108,0.19666666666666666,0.6,-0.6311111111111111,39.484948856127026,9.261297956106551,78.64043158169059
1589988792.6195486,-0.5208586958545076,-0.3665691256678021,1.8956065598183205,0.19666666666666666,0.6,-0.6311111111111111,33.72687240557696,7.504596666108226,81.9098478714097
1589988792.6295485,-0.2985465921045346,-1.6568451359282432,8.331418526105974,0.19666666666666666,0.6,-0.6311111111111111,-26.96298308510049,-21.240147970765737,78.57484358562648
1589988792.6395485,0.44730028411464856,-2.099451825854433,9.228608047129606,0.17614156523030927,0.6186591831239613,-0.6311111111111111,-26.431431227542408,-9.567761865964737,85.30222173477063
1589988792.6495485,0.157512026069415,-2.395173537474784,8.06079553095743,0.17222222222222222,0.6222222222222222,-0.6311111111111111,10.417944705943206,-3.8830755702684527,94.92939210158796
1589988792.6595485,0.27321884860083795,-2.5615020948637044,8.198197382713495,0.17222222222222222,0.6222222222222222,-0.6311111111111111,0.7907754875084052,-6.41416231314333,101.48309884653183
1589988792.6695485,1.3550897642015005,-4.14989281886388,9.631663987138264,0.17222222222222222,0.6222222222222222,-0.6311111111111111,-12.21310624330118,-11.189233319935692,115.93665427384781
1589988792.6795485,0.287408896034298,-3.6361215740315416,8.620176848874598,0.17222222222222222,0.6222222222222222,-0.6311111111111111,-3.884392704026949,-10.135600884244372,139.9695084022355
1589988792.6895485,-0.6804167636786962,-2.411477997671711,8.62755250291036,0.18444444444444444,0.6166666666666667,-0.6233333333333333,-1.0336612339930151,-10.545558789289872,170.61140279394644
1589988792.6995485,0.018526926263463132,-2.91205988874423,9.262682921055745,0.18444444444444444,0.6166666666666667,-0.6233333333333333,-7.580988874423008,-13.46691620310096,177.27918984495207
1589988792.7095485,0.08640812940688511,-2.9166632102861882,8.561020323517212,0.18444444444444444,0.6166666666666667,-0.6233333333333333,-5.131441829116549,-13.362181148900872,183.0286965989216
1589988792.7195485,0.14966818747407712,-3.0194608046453753,8.719170468685194,0.18444444444444444,0.6166666666666667,-0.6233333333333333,-4.192425342181667,-13.312759228535878,187.47666943177106
1589988792.7295485,0.26740355121614034,-3.119480710243228,9.186238821445542,0.1863773563168733,0.6159742803243041,-0.623881472521037,-7.928597658443858,-14.309254439020176,192.36684019527368
1589988792.7395484,0.17680217738799847,-3.1013604354776,8.706051540156391,0.25382504572226783,0.5918139139701329,-0.6430084292180892,-5.437059878169958,-14.196002721734999,196.44390201754007
1589988792.7495484,0.10577815473405085,-6.519417602558104,8.718443690531897,0.2588888888888889,0.59,-0.6444444444444445,-8.15732237560443,-15.28661187802215,204.26306470324442
1589988792.7595484,0.015820854780845425,-5.69344603026049,8.89835829043831,0.2588888888888889,0.59,-0.6444444444444445,-8.361770784588987,-16.308853922944937,220.15892850179378
1589988792.7695484,-0.04732091324200913,-3.870216803652968,8.630560547945205,0.2588888888888889,0.59,-0.6444444444444445,-5.419390410958904,-16.957165525114156,236.77162328767122
1589988792.7795484,0.13713196461579086,-3.5464209796672828,8.277233628201742,0.26076926180207144,0.5887860883725023,-0.6446110597658657,-7.457583096778452,-17.888388731185636,246.36295014193294
1589988792.7895484,9.743373078580664,-15.09092905370739,6.732286206825785,0.3466666666666667,0.5333333333333333,-0.6522222222222223,-13.327264658197713,-20.171783610729165,200.37468318386112
1589988792.7995484,1.4247924426994194,-13.428371757441525,10.21993858854324,0.3466666666666667,0.5333333333333333,-0.6522222222222223,-26.312124567938522,-21.535374509211717,48.85968488875466
1589988792.8095484,-3.3326604919628178,-4.58908050605725,6.947430282895399,0.3466666666666667,0.5333333333333333,-0.6522222222222223,-13.468409174804524,5.779513364542435,-79.66543969596296
1589988792.8195484,-1.699001523885245,-0.4800761942622407,5.150997150997151,0.3466666666666667,0.5333333333333333,-0.6522222222222223,51.642284502749625,22.695815112966276,-62.825109322202344
1589988792.8295484,-1.5318170077203457,-1.2094506787590045,5.733775507275493,0.3503117157280117,0.5305995465373246,-0.6529626228128079,24.876205407111904,7.796768719685446,-19.611243650087534
1589988792.8395483,-0.6616462928514484,-2.8728487908583578,9.026700770661707,0.4177777777777778,0.48,-0.6666666666666666,-24.031872840818497,-5.2555059128355035,11.234885729471166
1589988792.8495483,-0.752841401417445,-3.5989098695249306,10.516135333450201,0.4177777777777778,0.48,-0.6666666666666666,-21.104362838396234,-8.793093085572613,31.513479502141195
1589988792.8595483,-0.4826610067747192,-3.3908043907040564,8.380055741360088,0.4177777777777778,0.48,-0.6666666666666666,4.54351041934654,-1.2360378612468914,58.254330674899236
1589988792.8695483,1.0855705342594972,-4.268438555869994,7.725426978818283,0.4177777777777778,0.48,-0.6666666666666666,1.7109821198868018,-3.888723094074265,71.92240373895892
1589988792.8795483,4.666906087007196,-13.939616247559659,8.646555843701739,0.4177777777777778,0.48,-0.6666666666666666,-11.233795419446954,-8.435933812174014,37.43128441970919
1589988792.8895483,-1.7650679725186373,-2.3752653120888745,8.052394386785558,0.4177777777777778,0.4844275528269097,-0.6589184492195748,8.361250182721825,6.567278175705306,-27.75581055401257
1589988792.8995483,0.028943033334770774,-3.4288298331105262,7.724358316443141,0.4177777777777778,0.4844444444444445,-0.6588888888888889,7.641226713096727,1.8751307193065676,1.250315343481823
1589988792.9095483,1.1383483695652175,-5.559453804347826,9.18,0.4177777777777778,0.4844444444444445,-0.6588888888888889,-10.846759510869566,-3.4588315217391306,11.635625
1589988792.9195483,-0.05887276055969662,-5.944146070354388,9.116018373218255,0.4177777777777778,0.4844444444444445,-0.6588888888888889,-1.023070730351772,-0.796307988426834,0.796307988426834
1589988792.9295483,-0.004023800183078338,-4.929440303386949,8.800636851052701,0.4177777777777778,0.4844444444444445,-0.6588888888888889,3.176302798483065,1.1319757748136525,-1.1319757748136525
1589988792.9395483,-0.022016839046072316,-4.581848448585349,8.727898965723567,0.4177777777777778,0.4777777777777778,-0.6444444444444445,-0.6370790238481921,-0.6118685357722882,0.0
1589988792.9495482,-0.03994273014787589,-4.420515428669117,8.620343619112743,0.4177777777777778,0.4777777777777778,-0.6444444444444445,-0.18893174630310283,0.06035238054534575,0.0
1589988792.9595482,0.02110656728887716,-4.599327880746653,8.72687707495108,0.4177777777777778,0.4777777777777778,-0.6444444444444445,-0.4375,-0.23888320911109645,-0.21664962733328935
1589988792.9695482,-0.02,-4.551513387660069,8.620756693830034,0.4177777777777778,0.4777777777777778,-0.6444444444444445,-0.39966530849825377,-0.17804132712456344,-0.05777066356228172
1589988792.9795482,-0.02,-4.565464160984534,8.627732080492267,0.4177777777777778,0.4777777777777778,-0.6444444444444445,-0.050895975386662184,-0.09084899384666555,-0.014174496923332773
1589988792.9895482,-0.05787531086527742,-4.5305311722836805,8.747344138581596,0.4311111111111111,0.4777777777777778,-0.6755555555555556,0.4375,-0.059180173226995966,-0.11836034645399193
1589988792.9995482,-0.029100420204099135,-4.537724894948975,8.711375525255123,0.4311111111111111,0.4777777777777778,-0.6755555555555556,0.4375,-0.0142194065689049,-0.0284388131378098
1589988793.0095482,-0.0492169689761126,-4.532349093071662,8.618433937952224,0.4311111111111111,0.4777777777777778,-0.6755555555555556,-0.43260605610070374,0.0,-0.0625
1589988793.0195482,-0.04228813559322034,-4.553135593220339,8.60457627118644,0.4311111111111111,0.4777777777777778,-0.6755555555555556,-0.3893008474576271,0.0,-0.0625
1589988793.0295482,-0.015939703657178752,-4.592080395123761,8.61604019756188,0.4311111111111111,0.4777777777777778,-0.6755555555555556,-0.3248743826191224,0.0,0.03775123476175522
1589988793.0395482,-0.01727061266874351,-4.5418350986500515,8.714517964693666,0.4311111111111111,0.4737385485173647,-0.6755555555555556,0.0964719626168224,-0.09088265835929388,0.01705867082035306
1589988793.0495481,-0.039426512214267025,-4.556559073285602,8.696559073285602,0.4311111111111111,0.4722222222222222,-0.6755555555555556,-0.0035842986608310935,-0.1803314026783378,-0.05891570133916891
1589988793.0595481,-0.02948724201378882,-4.505127579862112,8.6353851781241,0.4311111111111111,0.4722222222222222,-0.6755555555555556,-0.07852368706909929,-0.06570473741381985,0.0
1589988793.0695481,-0.020189097519342038,-4.598109024806579,8.551701877674079,0.4311111111111111,0.4722222222222222,-0.6755555555555556,-0.3690907025205613,-0.12381814050411227,0.0
1589988793.0795481,-0.011726234822705033,-4.53380987858164,8.674106477659423,0.4311111111111111,0.4722222222222222,-0.6755555555555556,-0.2715779352838129,-0.17671103235809354,0.0
1589988793.089548,-0.03,-4.609168021895205,8.631830351830551,0.4244444444444445,0.4722222222222222,-0.6677777777777778,0.19165989052397764,0.125,-0.18334010947602236
1589988793.099548,-0.03,-4.56757605806989,8.723332672246242,0.4244444444444445,0.4722222222222222,-0.6677777777777778,0.3996197096505494,0.125,0.024619709650549382
1589988793.109548,-0.010218691335565404,-4.589234580325521,8.58120280234561,0.4244444444444445,0.4722222222222222,-0.6677777777777778,0.24658294788179055,-0.06181658957635811,-0.000683410423641888
1589988793.119548,-0.026453329720733096,-4.532413345977433,8.670493313464032,0.4244444444444445,0.4722222222222222,-0.6677777777777778,-0.007083276886454715,-0.011083344622709067,-0.05141665537729093
1589988793.129548,-0.040396777569856324,-4.545991943924641,8.679603222430144,0.4244444444444445,0.4722222222222222,-0.6677777777777778,-0.19245971962320405,0.0,-0.0625
1589988793.139548,-0.03627539414856067,-4.556275394148561,8.683724605851438,0.4152947072101516,0.4778137283098457,-0.6606613154844388,-0.16953535571417366,-0.05718585771433053,-0.033907071142834734
1589988793.149548,-0.026355558570168892,-4.54,8.69364444142983,0.4044444444444445,0.4844444444444445,-0.6522222222222223,-0.15888896425422233,-0.125,0.0
1589988793.159548,-0.03,-4.54,8.63012520287503,0.4044444444444445,0.4844444444444445,-0.6522222222222223,0.06184790169255738,-0.125,-0.06236958033851147
1589988793.169548,-0.022828699582277616,-4.547171300417722,8.615657399164554,0.4044444444444445,0.4844444444444445,-0.6522222222222223,-0.16160313805382456,-0.08017937238923509,-0.017679372389235087
1589988793.179548,-0.027109892876122282,-4.564219785752245,8.645549464380611,0.4044444444444445,0.4844444444444445,-0.6522222222222223,-0.20556316952423573,-0.0625,-0.04443683047576427
1589988793.189548,-0.023140488694067096,-4.549421466082201,8.673719022611866,0.4181634670563103,0.4798714369071559,-0.6773737636773095,-0.27324389132416127,-0.0625,-0.019628054337919365
1589988793.199548,-0.038323161580790396,-4.576646323161581,8.725807903951976,0.4244444444444445,0.4777777777777778,-0.6888888888888889,0.14557903951975992,-0.11975987993996999,0.0
1589988793.209548,-0.04930609643843376,-4.5334695178078315,8.609020746300361,0.4244444444444445,0.4777777777777778,-0.6888888888888889,0.420152410960844,0.04948930822063302,-0.17448930822063302
1589988793.219548,-0.03013446405378562,-4.589596607838643,8.66952937581175,0.4244444444444445,0.4777777777777778,-0.6888888888888889,0.18918080067232027,0.0625,0.060819199327679735
1589988793.229548,-0.03,-4.551701247863562,8.677659750427287,0.4244444444444445,0.4777777777777778,-0.6888888888888889,-0.14761408119383235,-0.03324688034109495,-0.03324688034109495
1589988793.239548,-0.039222341500378885,-4.567667024501137,8.698444683000757,0.4357161951671297,0.4839260054446971,-0.6612218643877522,-0.36527926875473604,-0.004860365622631972,-0.17777926875473604
1589988793.249548,-0.024461586901763227,-4.546692380352645,8.661153967254409,0.43666666666666665,0.4844444444444445,-0.6588888888888889,-0.22932737720403024,-0.09711508186397985,-0.13894245906801006
1589988793.259548,-0.01176810736666577,-4.5564637852666685,8.617072429466663,0.43666666666666665,0.4844444444444445,-0.6588888888888889,0.1211959737500336,-0.125,-0.125
1589988793.269548,-0.03203035462170916,-4.56,8.62468690308114,0.43666666666666665,0.4844444444444445,-0.6588888888888889,0.003913711485757004,0.058586288514242996,-0.0332068557428785
1589988793.279548,-0.030791394180646386,-4.541582788361293,8.64381290872903,0.43666666666666665,0.4844444444444445,-0.6588888888888889,-0.1200537863709601,0.03866932044355985,0.028776893185480053
1589988793.289548,-0.02,-4.5356155975448305,8.669369358526898,0.4307674409275083,0.4806272983779303,-0.6640940880704992,-0.16798050306896137,-0.04298050306896137,-0.01557798772415453
1589988793.299548,-0.02505245788090533,-4.55989508423819,8.69,0.4177777777777778,0.4722222222222222,-0.6755555555555556,-0.06184427648868336,0.0,-0.12434427648868336
1589988793.309548,-0.037257892140743175,-4.5572578921407425,8.624678970733312,0.4177777777777778,0.4722222222222222,-0.6755555555555556,0.13608547763893455,0.0,-0.10786182587964485
1589988793.319548,-0.027727636477506003,-4.547727636477505,8.66136181761247,0.4177777777777778,0.4722222222222222,-0.6755555555555556,0.22585113600779375,-0.038351136007793746,-0.009946591976618763
1589988793.329548,-0.03228475378198344,-4.552284753781983,8.681572869327024,0.4177777777777778,0.4722222222222222,-0.6755555555555556,0.019660866587810494,-0.10088985556869826,-0.014279711137396511
1589988793.3395479,-0.03461365997703286,-4.549227319954065,8.675386340022968,0.42495956447506733,0.4686313288735775,-0.6713661799821367,-0.2259938754306338,-0.0913353748564554,-0.0961646251435446
1589988793.3495479,-0.036462291642382565,-4.559386874927148,8.673537708357618,0.4311111111111111,0.4655555555555556,-0.6677777777777778,-0.3125,-0.10288932276489102,-0.125
1589988793.3595479,-0.02662103526248243,-4.563310517631241,8.623173623418689,0.4311111111111111,0.4655555555555556,-0.6677777777777778,-0.22888147039051518,-0.08319073519525759,-0.04138147039051518
1589988793.3695478,-0.016827756513149772,-4.5536555130263,8.628550191381652,0.4311111111111111,0.4655555555555556,-0.6677777777777778,-0.1875,-0.042673478207186075,0.01982652179281393
1589988793.3795478,-0.01164896900851957,-4.543297938017039,8.675159278923324,0.4311111111111111,0.4655555555555556,-0.6677777777777778,-0.1875,-0.01030605630324731,0.05219394369675269
1589988793.3895478,-0.028395804510794376,-4.567593706766192,8.699197902255397,0.4249791762741797,0.48292937092686145,-0.6749317017541978,-0.07252622180753515,-0.11497377819246485,-0.05247377819246485
1589988793.3995478,-0.02160155834202627,-4.5532031166840525,8.658007791710132,0.4244444444444445,0.4844444444444445,-0.6755555555555556,-0.11499026036233581,-0.07250973963766419,-0.11499026036233581
1589988793.4095478,-0.010887912320643829,-4.559112087679356,8.595327473923863,0.4244444444444445,0.4844444444444445,-0.6755555555555556,0.04585164398792821,0.05140109599195214,-0.06804945200402393
1589988793.4195478,-0.018632306556606942,-4.551367693443392,8.624529226226429,0.4244444444444445,0.4844444444444445,-0.6755555555555556,0.11645191597879337,0.008548084021206631,-0.008548084021206631
1589988793.4295478,-0.03431699666340333,-4.5356830033365965,8.672950989990209,0.4244444444444445,0.4844444444444445,-0.6755555555555556,0.125,-0.0894812291462708,0.0
1589988793.4395478,-0.026830878859857483,-4.5497536817102135,8.69658456057007,0.4200547373977303,0.472006941145421,-0.660923198733175,0.0015394893111638913,0.03961401425178146,-0.08230700712589073
1589988793.4495478,-0.013517708480316071,-4.56,8.712964583039367,0.4177777777777778,0.4655555555555556,-0.6533333333333333,-0.3055859319881473,-0.03705728799209823,-0.125
1589988793.4595478,-0.01,-4.56,8.61814098329716,0.4177777777777778,0.4655555555555556,-0.6533333333333333,-0.22529371520241578,-0.17805157119939605,-0.17805157119939605
1589988793.4695477,-0.01,-4.54869704163623,8.633908875091308,0.4177777777777778,0.4655555555555556,-0.6533333333333333,-0.11685651022644267,-0.15217825511322133,-0.08153476533966399
1589988793.4795477,-0.023431126293579824,-4.54895408419572,8.66447704209786,0.4177777777777778,0.4655555555555556,-0.6533333333333333,-0.03451848688837536,-0.09701848688837536,0.027981513111624636
1589988793.4895477,-0.03542846879209699,-4.546285406376291,8.692857656039516,0.42082546524971315,0.4686032430274909,-0.6634922915731178,0.0,-0.005355859901212394,-0.05178828019757521
1589988793.4995477,-0.03,-4.542381589604536,8.674600838116703,0.4244444444444445,0.4722222222222222,-0.6755555555555556,-0.07738493502834806,0.010910043314434625,-0.1617050216572173
1589988793.5095477,-0.03,-4.553135917846179,8.596271835692358,0.4244444444444445,0.4722222222222222,-0.6755555555555556,-0.14459948653861826,0.02330102692276345,-0.03919897307723655
1589988793.5195477,-0.03,-4.534554415201708,8.636336754394879,0.4244444444444445,0.4722222222222222,-0.6755555555555556,0.1163372624733259,-0.034034904989330345,-0.09653490498933034
1589988793.5295477,-0.02348369887374037,-4.543032602252519,8.682581505631298,0.4244444444444445,0.4722222222222222,-0.6755555555555556,0.0653193538826319,0.018953764078245408,-0.125
1589988793.5395477,-0.036179954745108475,-4.558089977372554,8.732359909490217,0.4244444444444445,0.4722222222222222,-0.6755555555555556,0.0,0.011937641421536,-0.276687075735392
1589988793.5495477,-0.04,-4.552552049045424,8.695312294272547,0.4244444444444445,0.4722222222222222,-0.6755555555555556,-0.09309938693219223,0.0,-0.03320183920342329
1589988793.5595477,-0.03183807681680022,-4.558161923183199,8.598380768168003,0.4244444444444445,0.4722222222222222,-0.6755555555555556,-0.27803605968499584,-0.051012019894998616,-0.14154807957999446
