time,acc_x,acc_y,acc_z,mag_x,mag_y,mag_z,gyr_x,gyr_y,gyr_z
1589988807.8143542,-3.93,-0.84,9.03,0.3333333333333333,-0.3244444444444444,-0.6088888888888889,0.375,-2.3125,8.0625
1589988807.8243542,-3.9882634148277503,-0.7650898952214638,8.930119860295285,0.3333333333333333,-0.3244444444444444,-0.6088888888888889,0.6351045304810288,-3.1968554036354977,7.3862282207493255
1589988807.8343542,-3.8504502038324437,-0.7830076609488549,8.93,0.3333333333333333,-0.3244444444444444,-0.6088888888888889,0.7218031786044863,-2.7213243693010614,8.394276690233767
1589988807.8443542,-3.7430671366957484,-0.7995281328160389,8.93,0.3333333333333333,-0.3244444444444444,-0.6088888888888889,0.5669237548496366,-1.5339154538472144,9.530059131102664
1589988807.8543541,-3.6459603629518393,-0.8163795765561878,8.925320120983946,0.3333333333333333,-0.3111111111111111,-0.5955555555555555,-0.24199697540134096,0.07574319465301721,9.736756805346984
1589988807.8643541,-3.602457307131211,-0.8749146142624217,8.908771346434396,0.3333333333333333,-0.3111111111111111,-0.5955555555555555,-0.6710745087102034,1.014290847850339,8.583194778168712
1589988807.8743541,-3.622353202846975,-0.9088233985765125,8.901764902135232,0.3333333333333333,-0.3111111111111111,-0.5955555555555555,-0.9889693616548043,1.5477924822064058,6.415431772686833
1589988807.884354,-3.7103027994667683,-0.8669091601599695,8.968242239573415,0.3333333333333333,-0.3111111111111111,-0.5955555555555555,-0.5799252523328889,0.9723505046657779,3.3287945153304133
1589988807.894354,-3.7717460410471264,-0.848476187685862,9.0173968328377,0.3333333333333333,-0.3111111111111111,-0.5955555555555555,-0.3111110704188213,0.4347221408376426,1.5623013198951115
1589988807.904354,-3.8759599346213487,-0.7925250408616571,9.021010016344663,0.34071832697707555,-0.3290460956744851,-0.6018855501073346,0.04987479569171452,-0.28724959138342904,-0.5555613763044298
1589988807.914354,-3.8851797461625357,-0.7617265820541785,8.981007597404036,0.3411111111111111,-0.33,-0.6022222222222222,0.2801265864841518,-0.7823734135158482,-0.8210443108069196
1589988807.924354,-3.898569934770702,-0.7722860130458598,8.89457202609172,0.3411111111111111,-0.33,-0.6022222222222222,0.09642483692675397,-0.8732058830851964,-0.4767745107802619
1589988807.934354,-3.8049540412044376,-0.793784469096672,8.935045958795563,0.3411111111111111,-0.33,-0.6022222222222222,-0.125,-0.2882725832012678,0.2505744849445325
1589988807.944354,-3.771718700475436,-0.8187109746434231,8.968281299524564,0.3411111111111111,-0.33,-0.6022222222222222,-0.125,0.28295983557844695,0.6660162440570523
1589988807.954354,-3.761671587411269,-0.8533136503549218,9.011642062943652,0.3244542859336502,-0.33,-0.5827892595151846,-0.1770525786795653,0.6768680507569571,0.7395525786795653
1589988807.964354,-3.79289290298918,-0.8482809462681092,8.996561892536219,0.3211111111111111,-0.33,-0.5788888888888889,0.04297634329726756,0.7480354850540987,-0.159196772418852
1589988807.974354,-3.9082688428388046,-0.8328974876214927,8.965794975242986,0.3211111111111111,-0.33,-0.5788888888888889,0.4275628094626811,0.17115578580597834,-1.0245163212910324
1589988807.984354,-3.8878850240025185,-0.8389425120012591,9.04,0.3211111111111111,-0.33,-0.5788888888888889,1.3293115999055638,-1.724716199732431,-1.4933907000078697
1589988807.994354,-3.871381128511844,-0.8306905642559219,9.04,0.3211111111111111,-0.33,-0.5788888888888889,1.948207680805855,-3.478255095616589,-1.4418160265995121
1589988808.004354,-3.7843480983953524,-0.8,8.998696196790705,0.3288888888888889,-0.3244444444444444,-0.6088888888888889,2.5625,-5.0625,-2.1875
1589988808.014354,-3.7404642145797373,-0.7993036781303944,8.907446819811446,0.3288888888888889,-0.3244444444444444,-0.6088888888888889,2.5363879298897887,-5.000121165847829,-2.225217434603638
1589988808.024354,-3.7589001576682146,-0.7656006306728598,8.803299526995357,0.3288888888888889,-0.3244444444444444,-0.6088888888888889,1.3206417522478373,-2.1825275919376144,-3.778129927131717
1589988808.034354,-3.7501731762481856,-0.7301154508321237,8.83060611686865,0.3288888888888889,-0.3244444444444444,-0.6088888888888889,0.3739176484488404,-0.622294121122101,-3.4981960807480674
1589988808.044354,-3.7926499679303243,-0.7584333119535496,8.979274887756135,0.3288888888888889,-0.3244444444444444,-0.6088888888888889,0.1084377004354724,0.041405748911318985,-3.0557295007257874
1589988808.054354,-3.8668260769760505,-0.7962970898053919,9.038942025658683,0.3211111111111111,-0.31777777777777777,-0.5788888888888889,0.13491850944984313,0.00629511311755554,-2.1541210753181828
1589988808.064354,-3.797479886417416,-0.7391055371509702,9.005203502129673,0.3211111111111111,-0.31777777777777777,-0.5788888888888889,0.30538629910080456,-0.9786588973024136,-0.35924929010885
1589988808.074354,-3.7071466551536085,-0.8079580985275405,8.897146655153609,0.3211111111111111,-0.31777777777777777,-0.5788888888888889,0.2244762315942556,-0.7678334052899473,0.2372381157971278
1589988808.084354,-3.771013524795458,-0.7910135247954584,8.964054099181833,0.3211111111111111,-0.31777777777777777,-0.5788888888888889,-0.0031672649858073137,-0.3496618801135415,0.11549820504257806
1589988808.094354,-3.78852187343463,-0.8085218734346302,9.03408749373852,0.3211111111111111,-0.31777777777777777,-0.5788888888888889,-0.05788085448321924,0.0880468358657539,-0.0486425634496577
1589988808.104354,-3.79,-0.8024775710088149,9.047522428991185,0.3160961584503211,-0.3219569049951028,-0.591426270540864,-0.20354554358472085,0.31306072477962776,0.07854554358472085
1589988808.114354,-3.8076951350247588,-0.7907682883250804,8.992317116749197,0.3144444444444445,-0.3233333333333333,-0.5955555555555555,-0.29809459390474247,0.42309459390474247,-0.004801802031752514
1589988808.124354,-3.7862836285670527,-0.7979054571443157,8.920945428556843,0.3144444444444445,-0.3233333333333333,-0.5955555555555555,-0.16427267854408087,0.2892726785440809,-0.049409107151973046
1589988808.1343539,-3.811960359579768,-0.809346546806744,8.913267265966281,0.3144444444444445,-0.3233333333333333,-0.5955555555555555,0.13316816491570094,-0.14133632983140185,-0.11683183508429908
1589988808.1443539,-3.8346739954510993,-0.8017753348496336,8.951123325751833,0.3144444444444445,-0.3233333333333333,-0.5955555555555555,0.2278083143795805,-0.330616628759161,-0.022191685620419496
1589988808.1543539,-3.79,-0.8,8.992315198553236,0.3288888888888889,-0.31777777777777777,-0.6022222222222222,0.27893998191545477,-1.5723499547886368,-0.1322349954788637
1589988808.1643538,-3.79,-0.8,9.008117700248663,0.3288888888888889,-0.31777777777777777,-0.6022222222222222,0.4764712531082812,-2.066178132770703,-0.1816178132770703
1589988808.1743538,-3.797147345031032,-0.801426327484484,8.91713163742242,0.3288888888888889,-0.31777777777777777,-0.6022222222222222,0.8125,-2.401743640334074,-0.1875
1589988808.1843538,-3.765009577810129,-0.8174952110949352,8.997476055474676,0.3288888888888889,-0.31777777777777777,-0.6022222222222222,0.8125,-2.703035208030036,-0.1875
1589988808.1943538,-3.76,-0.8334053992654575,9.050216197796372,0.3288888888888889,-0.31777777777777777,-0.6022222222222222,0.9800674908182196,-2.708108127295445,-0.0199325091817803
1589988808.2043538,-3.720433392539965,-0.7904333925399645,8.989566607460036,0.3211111111111111,-0.31777777777777777,-0.5955555555555555,0.9783303730017762,-2.1116563055062167,0.0
1589988808.2143538,-3.7316783034823713,-0.8003356606964743,8.976979053731732,0.3211111111111111,-0.31777777777777777,-0.5955555555555555,0.5,-0.42910848258814344,0.0020978793529641353
1589988808.2243538,-3.777151871286699,-0.8094303742573399,8.895126631683942,0.3211111111111111,-0.31777777777777777,-0.5955555555555555,0.5,-0.20174064356650334,0.058939839108374165
1589988808.2343538,-3.789328459965154,-0.7993284599651542,8.941343080069691,0.3211111111111111,-0.31777777777777777,-0.5955555555555555,0.7479014373911067,-0.1875,-0.07718993826225286
1589988808.2443538,-3.773442163472464,-0.7834421634724642,8.973115673055071,0.3211111111111111,-0.31777777777777777,-0.5955555555555555,0.6982567608514506,-0.1875,-0.4247026740398454
1589988808.2543538,-3.7543379811703015,-0.7643379811703015,8.98,0.3211111111111111,-0.31777777777777777,-0.6120876865424595,0.5406685734715767,-0.13855619115719223,-0.3531685734715767
1589988808.2643538,-3.7604076129805417,-0.7804076129805418,8.967146709136207,0.3211111111111111,-0.31777777777777777,-0.6166666666666667,0.36480967548645493,0.05740483774322747,-0.0625
1589988808.2743537,-3.7670213504052477,-0.7870213504052478,8.920850547163266,0.3211111111111111,-0.31777777777777777,-0.6166666666666667,0.19946623986880696,-0.02526688006559652,-0.0625
1589988808.2843537,-3.77,-0.8074498523957309,8.926174778593596,0.3211111111111111,-0.31777777777777777,-0.6166666666666667,-0.03859236620997655,0.10109236620997655,-0.0625
1589988808.2943537,-3.7838312596364156,-0.7615905912725447,9.012987557818494,0.3211111111111111,-0.31777777777777777,-0.6166666666666667,-0.1489453727275987,0.08177731363620065,-0.019277313636200652
1589988808.3043537,-3.76358261550509,-0.7752231793265466,9.067611589663274,0.331873749238667,-0.31777777777777777,-0.5834003306360394,-0.24253621769772904,0.11753621769772905,0.11007243539545811
1589988808.3143537,-3.76885594290042,-0.78,9.07,0.3333333333333333,-0.31777777777777777,-0.5788888888888889,-0.13930071374475017,0.06965035687237509,-0.09639857251049963
1589988808.3243537,-3.7793229403158266,-0.7893229403158267,8.95812471621008,0.3333333333333333,-0.31777777777777777,-0.5788888888888889,0.1080735078956662,0.0625,-0.18326837697391654
1589988808.3343537,-3.7723974128081488,-0.7976025871918512,8.934794825616297,0.3333333333333333,-0.31777777777777777,-0.5788888888888889,0.029967660101861,0.157532339898139,-0.1399838300509305
1589988808.3443537,-3.77,-0.8111216447529297,8.946682467129396,0.3333333333333333,-0.31777777777777777,-0.5788888888888889,0.13902055941162086,0.1527448601470948,-0.09024486014709479
1589988808.3543537,-3.7770123862680633,-0.8129876137319367,8.974024772536128,0.3302167172141941,-0.3131028535990689,-0.5952511235143699,0.16234517164920864,0.037345171649208656,-0.018672585824604328
1589988808.3643537,-3.78,-0.7708062015503876,8.92120930232558,0.3288888888888889,-0.3111111111111111,-0.6022222222222222,0.06375968992248063,0.24496124031007752,0.06124031007751938
1589988808.3743536,-3.7889013835229113,-0.77,8.92,0.3288888888888889,-0.3111111111111111,-0.6022222222222222,-0.21566823509097582,0.25,0.006866352981804845
1589988808.3843536,-3.7537398533969597,-0.7790650366507601,8.956260146603041,0.3288888888888889,-0.3111111111111111,-0.6022222222222222,0.08993887440350273,-0.08993887440350273,0.0
1589988808.3943536,-3.765122811886684,-0.795122811886684,8.99780702971671,0.3288888888888889,-0.3111111111111111,-0.6022222222222222,0.07774121285411256,-0.125,-0.04725878714588744
1589988808.4043536,-3.77,-0.8235334903538254,9.057066980707651,0.3227876136119712,-0.3215704401572557,-0.5856616178991599,0.1605562098076058,-0.0759718950961971,0.03555620980760579
1589988808.4143536,-3.789653999360335,-0.8201730003198324,9.050346000639665,0.3211111111111111,-0.3244444444444444,-0.5811111111111111,0.0032437559968598317,0.060337496002093455,-0.060337496002093455
1589988808.4243536,-3.79,-0.82,8.981115368596418,0.3211111111111111,-0.3244444444444444,-0.5811111111111111,0.04305289462723865,-0.023605789254477302,-0.0625
1589988808.4343536,-3.761457430277255,-0.7914574302772552,8.959514189907582,0.3211111111111111,-0.3244444444444444,-0.5811111111111111,0.12196368692238488,-0.12196368692238488,-0.0030363130776151145
1589988808.4443536,-3.76,-0.7612096808375366,8.96,0.3211111111111111,-0.3244444444444444,-0.5811111111111111,0.0530242020938414,-0.1969757979061586,-0.10796369685923791
1589988808.4543536,-3.76,-0.7442073493593138,8.96,0.32952580982973867,-0.3188346452986927,-0.5899932930918846,-0.052591866991422216,-0.25,-0.10861219951286667
1589988808.4643536,-3.765806385591486,-0.7558063855914858,8.96,0.3411111111111111,-0.3111111111111111,-0.6022222222222222,-0.08871009005321326,-0.14113027015963978,-0.07257981989357347
1589988808.4743536,-3.7531557068625694,-0.8021107328435765,8.909467120587708,0.3411111111111111,-0.3111111111111111,-0.6022222222222222,-0.0625,0.09541524816341157,-0.07236158394552947
1589988808.4843535,-3.770434009507566,-0.7895659904924339,8.93405668251261,0.3411111111111111,-0.3111111111111111,-0.6022222222222222,-0.3179251188445767,0.125,-0.019929146859237218
1589988808.4943535,-3.767282642730404,-0.7927173572695961,8.981793393173989,0.3411111111111111,-0.3111111111111111,-0.6022222222222222,-0.39775825853251223,0.00577477559753678,0.03974174146748774
1589988808.5043535,-3.766082364446376,-0.8,9.018247093339129,0.32016074468470423,-0.319220930372946,-0.5934365846885677,-0.33698522221014887,-0.0625,-0.0515443333695534
1589988808.5143535,-3.77,-0.7819023836549376,9.020951191827468,0.30666666666666664,-0.3244444444444444,-0.5877777777777777,-0.2559449489216799,-0.1756101021566402,-0.011889897843359823
1589988808.5243535,-3.7607276062366246,-0.770727606236625,8.927276062366248,0.30666666666666664,-0.3244444444444444,-0.5877777777777777,-0.13409507795781106,-0.24545246102109447,0.05795246102109447
1589988808.5343535,-3.76,-0.7884249466445341,8.938424946644533,0.30666666666666664,-0.3244444444444444,-0.5877777777777777,-0.4128897913208442,-0.25,-0.05265591652833769
1589988808.5443535,-3.780704776540805,-0.8038031843605369,8.960704776540805,0.30666666666666664,-0.3244444444444444,-0.5877777777777777,-0.5669048533800325,-0.3794048533800325,0.11003980450671003
1589988808.5543535,-3.773680562464763,-0.7855208436971446,8.97,0.31845292710878226,-0.31356481942095316,-0.605003850731639,-0.523003515404769,-0.335503515404769,0.03450527310715351
1589988808.5643535,-3.7786321481938283,-0.7541035554185147,8.995896444581485,0.3211111111111111,-0.3111111111111111,-0.6088888888888889,-0.7158037048457105,-0.20459814757714473,0.16185277863428288
1589988808.5743535,-3.78,-0.7085375358166188,8.925367564469914,0.3211111111111111,-0.3111111111111111,-0.6088888888888889,-0.9573123209169054,-0.3429842406876791,-0.0716404011461318
1589988808.5843534,-3.78,-0.6380656359102244,8.97881596009975,0.3211111111111111,-0.3111111111111111,-0.6088888888888889,-0.7849501246882793,-0.24597007481296757,0.004029925187032435
1589988808.5943534,-3.7755842717371237,-0.6320786413143806,9.018831456525751,0.3211111111111111,-0.3111111111111111,-0.6088888888888889,-0.6599016983570242,-0.10470509507107255,-0.02029490492892745
1589988808.6043534,-3.7663904389106353,-0.6636095610893645,9.033609561089364,0.30948030315649205,-0.31351748517068745,-0.6040761407697361,-0.4670817023403015,0.02255975680852836,-0.05732072957441493
1589988808.6143534,-3.773798345049415,-0.7251933801976602,8.998604964851754,0.2888888888888889,-0.31777777777777777,-0.5955555555555555,-0.015020686882311729,0.14873965655884414,0.019380171720577932
1589988808.6243534,-3.739773306505701,-0.7660906773977196,8.931727967806841,0.2888888888888889,-0.31777777777777777,-0.5955555555555555,0.11278336686787391,0.4892002012072435,0.15085010060362175
1589988808.6343534,-3.7169627205356806,-0.7765186397321596,8.933037279464319,0.2888888888888889,-0.31777777777777777,-0.5955555555555555,0.04351700334800436,0.806948989955987,0.22824149832599783
1589988808.6443534,-3.71,-0.7924592604407582,8.927540739559241,0.2888888888888889,-0.31777777777777777,-0.5955555555555555,-0.3504166998963235,1.7940741553021242,0.21106481112263073
1589988808.6543534,-3.689314070679409,-0.8155144469904432,8.909657035339706,0.3055525541749205,-0.3212254326645429,-0.5915332915209962,-1.0473264684513497,3.5407270534100856,0.1551782354365767
1589988808.6643534,-3.67,-0.789811060485725,8.9,0.3211111111111111,-0.3244444444444444,-0.5877777777777777,-2.5047234878568743,6.864400890356561,0.16686347866070309
1589988808.6743534,-3.7562310030395136,-0.8164320785597381,8.880100537760113,0.3211111111111111,-0.3244444444444444,-0.5877777777777777,-4.20225917699322,10.134732288987609,0.22895721299976618
1589988808.6843534,-3.8379360733403063,-0.8020639266596936,9.097616440041838,0.3211111111111111,-0.3244444444444444,-0.5877777777777777,-5.28670091675383,12.056141558481512,0.202579908324617
1589988808.6943533,-3.836963835155593,-0.6270479394449118,9.202590412111018,0.3211111111111111,-0.3244444444444444,-0.5877777777777777,-5.1115958788898235,11.171835576114383,0.22823801513877207
1589988808.7043533,-3.6305372564004585,-0.4040026748184945,9.247199465036301,0.3211111111111111,-0.31235579331719954,-0.5817334522141553,-3.5775267481849444,6.765908005349637,1.5533076996560946
1589988808.7143533,-3.4033751813978603,-0.3033508825216834,9.203342782896291,0.3211111111111111,-0.3111111111111111,-0.5811111111111111,-1.4795632108264993,3.1256580945631263,3.2288544936046706
1589988808.7243533,-1.9044839431835725,-0.5168434460398332,8.734804693530956,0.3211111111111111,-0.3111111111111111,-0.5811111111111111,0.5701810251659718,0.21578276980083366,6.193871101590243
1589988808.7343533,-1.7475826097819975,-0.5659678930601536,8.803229433443688,0.3211111111111111,-0.3111111111111111,-0.5811111111111111,-0.5181772752826534,1.715769254794178,7.196588637641327
1589988808.7443533,-1.758951053402075,-1.052325122525619,9.038540194767997,0.3211111111111111,-0.3111111111111111,-0.5811111111111111,-0.926027146585195,2.361888167525937,7.143957657055566
1589988808.7543533,-1.7256433609387245,-1.5607902484485205,8.961195645267194,0.32800855225844106,-0.31487335173692743,-0.5930248730928629,2.6391195221655055,3.462195264016267,3.6541934954355795
1589988808.7643533,-1.6483450488997555,-1.3985844539527303,8.734676039119805,0.3333333333333333,-0.31777777777777777,-0.6022222222222222,4.34801917787286,5.197843444376528,-4.1651863029747345
1589988808.7743533,-1.6577324140902725,-1.12635678121297,8.692955402348378,0.3333333333333333,-0.31777777777777777,-0.6022222222222222,2.1305747064526552,2.7100344716147795,-13.527304615964667
1589988808.7843533,-1.7712163829262275,-1.07,8.867867188326107,0.3333333333333333,-0.31777777777777777,-0.6022222222222222,0.23262310105389306,0.934241831447605,-19.177130696838322
1589988808.7943532,-1.9348684724342362,-1.0200692250346126,9.044979232489617,0.3333333333333333,-0.31777777777777777,-0.6022222222222222,0.15499529624764818,1.311721218360609,-24.77757242003621
1589988808.8043532,-2.0810963597430407,-0.9444518201284796,9.06,0.32292481560789915,-0.31777777777777777,-0.6022222222222222,1.7012044967880087,2.7798313704496787,-32.121332976445395
1589988808.8143532,-2.135572233029589,-0.94,9.075190744343196,0.3211111111111111,-0.31777777777777777,-0.6022222222222222,1.432731391420088,2.795086771782533,-37.020012542234056
1589988808.8243532,-2.1856864320657956,-0.94,8.994352563042092,0.3211111111111111,-0.31777777777777777,-0.6022222222222222,1.4017160801644883,3.0176482404934655,-42.19339948715525
1589988808.8343532,-2.265533234066444,-0.947281470451827,8.850777943222594,0.3211111111111111,-0.31777777777777777,-0.6022222222222222,1.5740275709717577,3.6256010935631116,-47.34522603558962
1589988808.8443532,-2.29,-0.9562657120774518,8.791202863767644,0.3211111111111111,-0.31777777777777777,-0.6022222222222222,1.5858392995159256,4.047464202904446,-51.585391835821504
1589988808.8543532,-2.273029539812183,-1.0109113805634513,8.830911380563451,0.3437383913615339,-0.31212095771517206,-0.5899657787532432,1.6155326880869283,3.9753692476522864,-56.8656901018242
1589988808.8643532,-2.3378515484515483,-1.0576953046953048,8.832460939060939,0.3477777777777778,-0.3111111111111111,-0.5877777777777777,1.7192382617382618,4.314453046953047,-60.46850524475524
1589988808.8743532,-2.3310845960520212,-1.0772288509869947,8.801084596052021,0.3477777777777778,-0.3111111111111111,-0.5877777777777777,1.9307212746748652,4.527860637337432,-64.2386797574604
1589988808.8843532,-2.3272012808136933,-1.1016038424410803,8.869214088950628,0.3477777777777778,-0.3111111111111111,-0.5877777777777777,2.090016010171168,4.652516010171167,-67.96797230004944
1589988808.8943532,-2.3699544228797143,-1.1271233240913061,8.979908845759429,0.3477777777777778,-0.3111111111111111,-0.5877777777777777,2.267694367427551,4.758847183713776,-70.96204755212884
1589988808.9043531,-2.4040899574954007,-1.1522698724862017,9.0440899574954,0.355957692768579,-0.3029311961203099,-0.5964121324902902,2.553935640423777,5.0169978747700315,-73.79229842035146
1589988808.9143531,-2.3873851076207098,-1.1926148923792903,9.031908086096568,0.36777777777777776,-0.2911111111111111,-0.6088888888888889,2.8407686154741127,5.397305846422339,-77.13516215823152
1589988808.9243531,-2.364915440887281,-1.239661763549123,8.955930150239912,0.36777777777777776,-0.2911111111111111,-0.6088888888888889,2.7521139778179817,5.622886022182018,-80.28713226618422
1589988808.934353,-2.3885758549681495,-1.2723839033120994,8.875232193375801,0.36777777777777776,-0.2911111111111111,-0.6088888888888889,2.5863003021496893,5.8660990935509325,-82.60584380593137
1589988808.944353,-2.43,-1.3064916033800407,8.817836132206654,0.36777777777777776,-0.2911111111111111,-0.6088888888888889,2.527048347416836,6.179096694833672,-84.9024427746283
1589988808.954353,-2.4555813953488372,-1.3555813953488374,8.835581395348838,0.3798578811369509,-0.2818733850129199,-0.604625322997416,2.5050872093023258,6.335029069767442,-88.13154069767442
1589988808.964353,-2.488893517473477,-1.4140848741047793,8.868893517473477,0.38666666666666666,-0.2766666666666667,-0.6022222222222222,2.55558448420923,6.3518614947364105,-89.93776035788308
1589988808.974353,-2.5181368878996357,-1.470228146499393,8.807452448401458,0.38666666666666666,-0.2766666666666667,-0.6022222222222222,2.7005703662484826,6.488355549372724,-91.46934439498179
1589988808.984353,-2.536145957436868,-1.5145838297474712,8.833751489242413,0.38666666666666666,-0.2766666666666667,-0.6022222222222222,2.9036489359216953,6.485675532039153,-92.8691569135889
1589988808.994353,-2.549051938811811,-1.5481038776236216,8.920733724653148,0.38666666666666666,-0.2766666666666667,-0.6022222222222222,3.0565746175738173,6.4375,-93.79930963180362
1589988809.004353,-2.585532693187014,-1.5742554488645024,8.97,0.40368846212467613,-0.2714655624989416,-0.5960754627512743,3.257982777015699,6.570482777015699,-94.49867588782197
1589988809.014353,-2.610461194347795,-1.5990776113044096,8.955691791521692,0.4266666666666667,-0.2644444444444444,-0.5877777777777777,3.37788246467372,6.6009561616843,-94.95866137364197
1589988809.024353,-2.6044993329246746,-1.6379973316986984,8.899506003677928,0.4266666666666667,-0.2644444444444444,-0.5877777777777777,3.087533353766271,6.4093791692207835,-95.44058747701294
1589988809.034353,-2.5795495413262746,-1.6539099082652549,8.868270275204235,0.4266666666666667,-0.2644444444444444,-0.5877777777777777,2.736373853315686,6.375,-96.0164415133951
1589988809.044353,-2.5548571724709785,-1.696285447761194,8.864571517412935,0.4266666666666667,-0.2644444444444444,-0.5877777777777777,2.6553573279436153,6.471428016169154,-96.21964267205638
1589988809.054353,-2.55385562243559,-1.7592781121779517,8.85,0.444231168873245,-0.24645153974502274,-0.6014866575487657,2.6490976402224398,6.5625,-96.49097640222439
1589988809.064353,-2.5740238954012624,-1.7946746318004207,8.85934926360084,0.4722222222222222,-0.21777777777777774,-0.6233333333333333,2.62906710249474,6.62093289750526,-96.93343289750526
1589988809.074353,-2.577063126019101,-1.8323421849522479,8.785910319124156,0.4722222222222222,-0.21777777777777774,-0.6233333333333333,2.8454941183321685,6.727927731190309,-97.28299411833217
1589988809.084353,-2.557594033722438,-1.8872178988326849,8.82063878080415,0.4722222222222222,-0.21777777777777774,-0.6233333333333333,3.15507457846952,6.67246271076524,-97.6313432230869
1589988809.094353,-2.5344891227360113,-1.9203405848426591,8.875170292421329,0.4722222222222222,-0.21777777777777774,-0.6233333333333333,3.3146286552666195,6.5603713447333805,-97.97620029343317
1589988809.104353,-2.531772329132884,-1.965316987398652,8.90354465826577,0.4924967890621891,-0.20731348521521423,-0.6279114613294549,3.448577057080525,6.683942642701313,-98.22428852854026
1589988809.114353,-2.533741939616518,-2.0275483623008923,8.92,0.5066666666666667,-0.2,-0.6311111111111111,3.3435484904129478,6.773387122603237,-98.32822575479352
1589988809.124353,-2.524486044621082,-2.0830837322735074,8.881402312347575,0.5066666666666667,-0.2,-0.6311111111111111,3.215537778881763,6.818924442236474,-98.51284888447294
1589988809.134353,-2.48289423925375,-2.114638220093281,8.836085339720157,0.5066666666666667,-0.2,-0.6311111111111111,3.2744666267490232,7.019944377915039,-98.65398887558301
1589988809.144353,-2.447712393744423,-2.139280984361058,8.823856196872212,0.5066666666666667,-0.2,-0.6311111111111111,3.230392617292068,7.06699384774339,-98.78390492180529
1589988809.154353,-2.4097596077307606,-2.1850721176807717,8.85512019613462,0.5200641046051305,-0.17711271018845764,-0.637809830080343,2.8115985289903525,6.969200735504824,-99.00030049033654
1589988809.164353,-2.3642717768903605,-2.229902438232525,8.862912892438558,0.5333333333333333,-0.15444444444444444,-0.6444444444444445,2.7317944222590174,6.955705577740982,-99.00910278887049
1589988809.174353,-2.3672228480827804,-2.281108607668878,8.817782784662244,0.5333333333333333,-0.15444444444444444,-0.6444444444444445,2.9270715984478657,6.829857199482622,-98.95485719948262
1589988809.1843529,-2.35156770449994,-2.3605937730003594,8.78529688650018,0.5333333333333333,-0.15444444444444444,-0.6444444444444445,3.1942546171884363,6.980403693750749,-99.05270184687538
1589988809.1943529,-2.34,-2.4396886142144045,8.827266460660804,0.5333333333333333,-0.15444444444444444,-0.6444444444444445,3.375,7.0947230805799855,-99.07958462086998
1589988809.2043529,-2.3331701946446746,-2.487074513388313,8.86365961071065,0.5394042714269557,-0.13850823194868564,-0.6524125506923238,3.481715708676956,6.957313716529217,-98.85212743305844
1589988809.2143528,-2.31001267550702,-2.543303757150286,8.893329108164327,0.5511111111111111,-0.10777777777777778,-0.6677777777777778,3.6875,6.999841556162247,-98.66669307397297
1589988809.2243528,-2.2667246250815043,-2.636550749836992,8.853449250163008,0.5511111111111111,-0.10777777777777778,-0.6677777777777778,3.60021734405564,7.30818843729624,-98.50862312540752
1589988809.2343528,-2.2164630076779077,-2.708829593857674,8.818829593857673,0.5511111111111111,-0.10777777777777778,-0.6677777777777778,3.352893797986923,7.257315038389539,-98.375
1589988809.2443528,-2.1849667967873647,-2.7702656257010814,8.845033203212635,0.5511111111111111,-0.10777777777777778,-0.6677777777777778,3.0616699196841206,7.15645752007897,-98.34354247992103
1589988809.2543528,-2.141840778445037,-2.8290796107774816,8.818200648704197,0.5511111111111111,-0.07032520847383239,-0.6812041705471167,3.016998378239507,7.147750810880247,-98.2330016217605
1589988809.2643528,-2.0717691286045516,-2.9020111203655765,8.8,0.5511111111111111,-0.048888888888888885,-0.6888888888888889,2.9333101659050493,7.125,-98.2736265560633
1589988809.2743528,-2.008197953377776,-2.935971720946032,8.728339348647616,0.5511111111111111,-0.048888888888888885,-0.6888888888888889,2.875,7.0876767440873,-98.4991162795635
1589988809.2843528,-1.9845223469186848,-2.944522346918685,8.689044693837369,0.5511111111111111,-0.048888888888888885,-0.6888888888888889,3.072852677692459,7.09076466824178,-98.70979400472534
1589988809.2943528,-1.9867857061568226,-2.9628571753727098,8.741785819961306,0.5511111111111111,-0.048888888888888885,-0.6888888888888889,3.2321426539205644,7.104910663480141,-98.9129466825993
1589988809.3043528,-1.9675004293614535,-2.9691673822690894,8.821666952907636,0.5649995229317182,-0.036389318250342535,-0.6921295183136972,3.0625,7.270826177309106,-99.38540772163638
1589988809.3143528,-1.962739893834218,-2.965479787668436,8.797260106165782,0.5844444444444444,-0.01888888888888889,-0.6966666666666667,3.1155828909759085,7.5625,-99.90924867292773
1589988809.3243527,-1.977285661801543,-3.002714338198457,8.782714338198456,0.5844444444444444,-0.01888888888888889,-0.6966666666666667,2.9669600213753715,7.545535386259644,-100.24375229618249
1589988809.3343527,-1.9625799911530522,-3.0137100044234737,8.79,0.5844444444444444,-0.01888888888888889,-0.6966666666666667,2.375,7.430437417059864,-100.72481269352699
1589988809.3443527,-1.9349535229085308,-3.0178505032726473,8.794298993454705,0.5844444444444444,-0.01888888888888889,-0.6966666666666667,2.4824748363676363,7.406540481821682,-100.95969693636214
1589988809.3543527,-1.8828386481618815,-3.0327091852950523,8.812838648161883,0.5768747160127603,0.0016124589469223467,-0.7070750432602323,2.7685506939294418,7.696775346964721,-100.77701689797648
1589988809.3643527,-1.8719554702211718,-3.0839851567403906,8.792933205331758,0.5577777777777778,0.05333333333333334,-0.7333333333333333,2.3684253036960454,7.5625,-100.64990722962744
1589988809.3743527,-1.8156856929522547,-3.0795428713651636,8.682285643174183,0.5577777777777778,0.05333333333333334,-0.7333333333333333,2.211607365080682,7.592321473016137,-100.38357116190318
1589988809.3843527,-1.7956113296616838,-3.103166011014949,8.660720692368214,0.5577777777777778,0.05333333333333334,-0.7333333333333333,2.4298583792289534,7.762145948072384,-99.85834972462628
1589988809.3943527,-1.785873930679947,-3.124126069320053,8.708252138640105,0.5577777777777778,0.05333333333333334,-0.7333333333333333,2.422636200249006,7.9117120667496685,-99.15383273424635
1589988809.4043527,-1.7719518072289158,-3.154144578313253,8.744144578313254,0.577004016064257,0.049756358768406964,-0.7440642570281124,2.2873493975903614,8.025903614457832,-98.44819277108434
1589988809.4143527,-1.7551363588501632,-3.2240454880488576,8.789727282299674,0.6055555555555555,0.04444444444444445,-0.76,2.25,8.25,-97.48323812782984
1589988809.4243526,-1.732805926288723,-3.2557014815721805,8.74411926043835,0.6055555555555555,0.04444444444444445,-0.76,2.142537039304518,8.115671299130648,-96.53451389739195
1589988809.4343526,-1.6842342893210778,-3.2389575525661765,8.681042447433823,0.6055555555555555,0.04444444444444445,-0.76,1.7929541106158033,8.052525494102332,-95.654923517693
1589988809.4443526,-1.633237763669875,-3.23352447266025,8.695491842446582,0.6055555555555555,0.04444444444444445,-0.76,1.3952360229367193,8.278175984708854,-94.73847617584818
1589988809.4543526,-1.5974643061107938,-3.2975499714448886,8.692535693889207,0.6083412653087125,0.04110159274065614,-0.7547071514690018,1.1559822958309538,8.406339234723015,-93.24892918332381
1589988809.4643526,-1.56,-3.3531430825430038,8.75514466034403,0.6166666666666667,0.031111111111111114,-0.7388888888888889,0.5803360115934075,8.185691745699634,-91.65353761854945
1589988809.4743526,-1.5539153705930264,-3.3615211573517434,8.79174611177908,0.6166666666666667,0.031111111111111114,-0.7388888888888889,-0.014963832758018852,7.519014466896793,-90.45386979792887
1589988809.4843526,-1.4651022723535796,-3.374040908941432,8.599795455292842,0.6166666666666667,0.031111111111111114,-0.7388888888888889,0.6369886382321024,7.58240056397777,-87.76046873458516
1589988809.4943526,-1.4306198822716958,-3.3602479529086784,8.668760235456608,0.6166666666666667,0.031111111111111114,-0.7388888888888889,0.8094005886415206,7.194473675556579,-86.33807014370745
1589988809.5043526,-1.4432721576890022,-3.4229051038230156,8.727278423109977,0.6155759474369993,0.030747538034555308,-0.7650661504009069,0.7033628122314324,6.293196057774944,-83.05925466441185
1589988809.5143526,-1.427202961357891,-3.479118815456844,8.732950523654749,0.6133333333333333,0.03,-0.8188888888888889,1.164511105092091,5.754548122065728,-80.0991332611051
1589988809.5243526,-1.3965256510655313,-3.4795769531965943,8.792205208524251,0.6133333333333333,0.03,-0.8188888888888889,0.9322119149574287,5.355929361680857,-77.91955404302115
1589988809.5343525,-1.3868029768298296,-3.4610656743900567,8.728277581709376,0.6133333333333333,0.03,-0.8188888888888889,0.7740860441921129,5.4441604649378545,-75.81861861285867
1589988809.5443525,-1.341481077002502,-3.4737037845994996,8.689260553591994,0.6133333333333333,0.03,-0.8188888888888889,1.1296215400500378,5.222216155037528,-72.3240538501251
1589988809.5543525,-1.3197417184921945,-3.4929889579895925,8.786752760502601,0.5844689822453498,0.02747436927980144,-0.7698194920393169,0.7232477154461225,4.628228518847569,-69.81641864449803
1589988809.5643525,-1.3281369978372792,-3.5476803383796818,8.78,0.5244444444444445,0.022222222222222227,-0.6677777777777778,1.2369291756780034,4.350285412160998,-66.71341437156693
1589988809.5743525,-1.2974871608966225,-3.571230741344934,8.748717902241555,0.5244444444444445,0.022222222222222227,-0.6677777777777778,1.3516026221980546,4.3125,-63.95993444504864
1589988809.5843525,-1.2609444287196905,-3.5707500707613926,8.68,0.5244444444444445,0.022222222222222227,-0.6677777777777778,1.6072919615058023,4.340798660250967,-60.45416430795358
1589988809.5943525,-1.242748761993191,-3.5946206669761684,8.698128095017022,0.5244444444444445,0.022222222222222227,-0.6677777777777778,1.6538791686010523,4.148398812287217,-57.63417382389353
1589988809.6043525,-1.2202509380354394,-3.5480501876070876,8.759247185893683,0.5246610902658791,0.04388680436569044,-0.6562955492417396,1.3871863274557008,3.652509380354393,-54.94099729975925
1589988809.6143525,-1.1576629757539074,-3.521099441022537,8.677248549150853,0.5255555555555556,0.13333333333333333,-0.6088888888888889,1.6200622173959482,3.3573895396446756,-51.74140171609641
1589988809.6243525,-1.0730523393316196,-3.4568943958868896,7.665421491002571,0.5255555555555556,0.13333333333333333,-0.6088888888888889,6.005876606683804,2.0980488431876605,-47.3908059125964
1589988809.6343524,-1.1229077365746094,-3.5064538682873048,8.31024470917256,0.5255555555555556,0.13333333333333333,-0.6088888888888889,6.663588754134509,2.0735673756958075,-44.041894680936885
1589988809.6443524,-1.1059551924943383,-3.4420745713361374,9.52250727919767,0.5255555555555556,0.13333333333333333,-0.6088888888888889,-5.041698681656422,4.8236917664186345,-41.09971995308962
1589988809.6543524,-1.0105421168958744,-3.3126989194499017,8.81760130157171,0.5282878328967474,0.14699472003929273,-0.6048955604671469,-6.131995180500982,-1.2094870456777995,-39.8176917055501
1589988809.6643524,-0.977268743152293,-3.4281718578807325,7.9790749726091725,0.54,0.20555555555555555,-0.5877777777777777,0.7609465487556738,0.34044842698387856,-36.01169979652528
1589988809.6743524,-1.0726157007667334,-3.6229232575809904,8.554311666781791,0.54,0.20555555555555555,-0.5877777777777777,5.346111504455343,5.721111504455343,-29.95577035988119
1589988809.6843524,-1.121029102910291,-3.653087308730873,9.144854485448546,0.54,0.20555555555555555,-0.5877777777777777,-1.1479335433543354,-0.7086146114611461,-29.87415616561656
1589988809.6943524,-1.113353652904775,-3.6938719559126874,8.95573165850805,0.54,0.20555555555555555,-0.5877777777777777,-0.7902052353683693,-0.17168402296727314,-26.45636391274899
1589988809.7043524,-1.0746143899510483,-3.7261546750407932,8.619991379575753,0.54,0.20555555555555555,-0.5877777777777777,3.0433676610941784,2.774114097472369,-23.591272590129613
1589988809.7143524,-1.1346226167570403,-3.81462261675704,9.012027942977086,0.5333333333333333,0.23777777777777775,-0.6088888888888889,0.6055432263424874,0.19221729053699493,-20.806305481458807
1589988809.7243524,-1.1177153910216802,-3.8022846089783195,8.795430782043361,0.5333333333333333,0.23777777777777775,-0.6088888888888889,1.4051913467479784,0.6034608978319856,-18.15029014319104
1589988809.7343524,-1.1133241999949726,-3.8000274000150824,8.803269399964806,0.5333333333333333,0.23777777777777775,-0.6088888888888889,1.980765000879817,0.8555937507855509,-15.564041250848394
1589988809.7443523,-1.1107428502667362,-3.786171433155509,8.812971401066944,0.5333333333333333,0.23777777777777775,-0.6088888888888889,0.9860715574986965,-0.09107135694516867,-13.66607085556135
1589988809.7543523,-1.0948289465174934,-3.8024144732587466,8.75173025932872,0.5378940050442993,0.2471673960062371,-0.6088888888888889,1.3146381685313329,0.15518091573433357,-11.303700769578995
1589988809.7643523,-1.0967126734239092,-3.814429108858697,8.78899623798912,0.5522222222222222,0.2766666666666667,-0.6088888888888889,1.041954208899432,0.25,-8.20522278532576
1589988809.7743523,-1.0679794234272855,-3.8079794234272852,8.689897117136427,0.5522222222222222,0.2766666666666667,-0.6088888888888889,0.8373285285607116,0.1247856607008895,-5.810785285607116
1589988809.7843523,-1.0401264035025775,-3.7834176023350516,8.639494385989689,0.5522222222222222,0.2766666666666667,-0.6088888888888889,0.6875,-0.0625,-3.4074203210696044
1589988809.7943523,-1.0256651564640185,-3.7898280476240647,8.72,0.5522222222222222,0.2766666666666667,-0.6088888888888889,0.6166855441997682,-0.1687216837003477,-0.889762669897798
1589988809.8043523,-1.035079271508796,-3.835079271508796,8.727381092736806,0.5478482413411518,0.27967377852240255,-0.6056084032280862,0.4375,-0.48363182960503864,1.3814592317954764
1589988809.8143523,-1.0310788746546093,-3.8347718328728124,8.746307041781797,0.5344444444444445,0.2888888888888889,-0.5955555555555555,0.4144190111362304,-0.5788380222724608,3.9559155990957047
1589988809.8243523,-1.0438374458761543,-3.8476748917523085,8.72562070704436,0.5344444444444445,0.2888888888888889,-0.5955555555555555,0.375,-0.5385159632740362,5.837191559288434
1589988809.8343523,-1.0219568052584902,-3.80391361051698,8.674565878936477,0.5344444444444445,0.2888888888888889,-0.5955555555555555,0.375,-0.6752699671344358,7.478239605613229
1589988809.8443522,-1.030078172229055,-3.760078172229055,8.750078172229054,0.5344444444444445,0.2888888888888889,-0.5955555555555555,0.23449714410789851,-1.0155028558921015,9.840574253194639
1589988809.8543522,-1.0034248213504449,-3.7282875893247778,8.731986874726557,0.5403427478813216,0.287747281772074,-0.5991706447588028,0.1875,-1.09460770016042,11.35146930144378
1589988809.8643522,-1.0158180581743996,-3.7409097091280024,8.766999319959197,0.5688888888888889,0.2822222222222222,-0.6166666666666667,0.13522572717999443,-1.3022742728200056,13.089782773330036
1589988809.8743522,-1.0028530802757256,-3.8057345986213718,8.695691941516491,0.5688888888888889,0.2822222222222222,-0.6166666666666667,-0.026836496553429567,-1.4643364965534296,14.143187227597291
1589988809.8843522,-1.028083767038414,-3.867246096654275,8.666167534076827,0.5688888888888889,0.2822222222222222,-0.6166666666666667,-0.3458116480793061,-1.345811648079306,16.734293680297398
1589988809.8943522,-1.0180540890215146,-3.9205408902151455,8.661675465870912,0.5688888888888889,0.2822222222222222,-0.6166666666666667,-0.7013522255378644,-1.7135141691533984,18.566210534003883
1589988809.9043522,-1.0079391663074935,-3.847212917923773,8.71,0.5805669464797597,0.2849700004788977,-0.6173536112308355,-0.5257604211563327,-1.594700526445416,20.03600263222708
1589988809.9143522,-0.980466218395653,-3.929067563208694,8.706822072798552,0.6822222222222222,0.3088888888888889,-0.6233333333333333,-0.6904138649728309,-1.875,21.814878855172072
1589988809.9243522,-0.9651706182338731,-3.9906824729354926,8.70775592735081,0.6822222222222222,0.3088888888888889,-0.6233333333333333,-0.5948163639617071,-1.9234745459425606,22.883530911693658
1589988809.9343522,-0.9812699209436566,-4.0468251976408585,8.728730079056344,0.6822222222222222,0.3088888888888889,-0.6233333333333333,-0.6875,-2.0644842514744637,23.63492125737232
1589988809.9443521,-1.0621423216420482,-3.8414307134318078,8.677850181346626,0.6822222222222222,0.3088888888888889,-0.6233333333333333,-0.6607209794743987,-2.1875,24.330337061576802
1589988809.9543521,-1.076204393879953,-3.803795606120047,8.783102196939977,0.7177251427575083,0.3101527469014719,-0.6324101317873385,-0.6206661926245587,-2.174574179416765,24.5151305250425
1589988809.9643521,-1.1198993506493506,-3.7398993506493508,8.799899350649351,1.0255555555555556,0.3211111111111111,-0.7111111111111111,-1.125,-2.0625,23.5625
1589988809.9743521,-1.0949580498866214,-3.7275629251700684,8.744706349206348,1.0255555555555556,0.3211111111111111,-0.7111111111111111,-1.046219529478458,-2.0467439058956916,23.420695153061224
1589988809.984352,-1.0831957462148523,-3.751597873107426,8.645326243691422,1.0255555555555556,0.3211111111111111,-0.7111111111111111,-0.8324734138428262,-1.986684390771449,22.950066465392933
1589988809.994352,-1.139895908435472,-3.779947954217736,8.739826514059121,1.0255555555555556,0.3211111111111111,-0.7111111111111111,-1.1868494277217014,-1.750433714852199,22.064126430695747
1589988810.004352,-1.1543775541742505,-3.808755108348501,8.732811222912876,1.0255555555555556,0.3211111111111111,-0.7111111111111111,-1.007780572821869,-1.6601402864109345,22.017570143205468
1589988810.014352,-1.2173939899536732,-3.9217373400308846,8.751303005023164,1.4855555555555555,-0.13777777777777778,-1.1111111111111112,-0.6712124372104581,-1.622285406201743,21.9565021565878
1589988810.024352,-1.1727254654857202,-3.9515163563428533,8.77363726725714,1.4855555555555555,-0.13777777777777778,-1.1111111111111112,-0.3920341592857523,-1.575755693214292,22.282210147499956
1589988810.034352,-1.1401528535980148,-3.9004585607940445,8.730382133995038,1.4855555555555555,-0.13777777777777778,-1.1111111111111112,1.5481699751861042,0.11210297766749378,23.367357320099256
1589988810.044352,-1.0883026584867077,-3.7621404226312203,8.213026584867077,1.4855555555555555,-0.13777777777777778,-1.1111111111111112,-0.6454072937968642,-2.3521642808452623,23.159594410361283
1589988810.054352,-1.1570455038703609,-3.7914772480648193,8.860569340953484,1.3755826440634369,-0.1033086562653227,-1.050872217801249,-1.6470239817695145,-3.2187567821746366,23.508518411343413
1589988810.064352,-1.1546495754952555,-3.814649575495255,8.538741468286998,0.7411111111111112,0.09555555555555556,-0.7033333333333334,0.3265357083402697,-1.22979440652572,24.954220076577325
1589988810.074352,-1.2157504886547124,-3.8757504886547123,8.851754397892412,0.7411111111111112,0.09555555555555556,-0.7033333333333334,-1.3500244327356166,-2.6265838786436646,24.856237783632192
1589988810.084352,-1.2014926489334579,-3.861492648933458,8.723433840401123,0.7411111111111112,0.09555555555555556,-0.7033333333333334,-0.6371324466728988,-2.0028033908387863,25.21268377666355
1589988810.094352,-1.2720665100438908,-3.849667449780546,8.779334899561093,0.7411111111111112,0.09555555555555556,-0.7033333333333334,-0.911668624451365,-2.19833724890273,24.631680371159554
1589988810.104352,-1.2797051485184578,-3.811474257407711,8.702948514815422,0.7411111111111112,0.09555555555555556,-0.7033333333333334,-0.8161856435192774,-2.0073712870385547,23.963299504634943
1589988810.114352,-1.3021772494733674,-3.7847592536864276,8.786531748420101,0.6344444444444445,0.23555555555555555,-0.6966666666666667,-0.7172453355401746,-2.1980984802888957,22.007589151369245
1589988810.124352,-1.317752894082008,-3.7261235529589958,8.794494211835984,0.6344444444444445,0.23555555555555555,-0.6966666666666667,-0.45979727902196255,-1.6109555880125501,20.28774139889646
1589988810.134352,-1.348004976739154,-3.710997511630423,8.733990046521692,0.6344444444444445,0.23555555555555555,-0.6966666666666667,-0.7906794330844964,-1.8000311046197122,18.727868386887373
1589988810.144352,-1.3675159278385085,-3.631178324726712,8.686210180403728,0.6344444444444445,0.23555555555555555,-0.6966666666666667,-0.4293390785326269,-1.484076353027966,17.147093588625847
1589988810.154352,-1.3497876201233174,-3.687374599588942,8.713687299794472,0.6344444444444445,0.23555555555555555,-0.6966666666666667,-0.375,-1.2690635010276445,15.674226257707334
1589988810.164352,-1.34,-3.749785696791575,8.72007143440281,0.6024523997423826,0.2532063388394517,-0.7198333197267804,-0.25089293003510493,-1.0633929300351048,13.821429300351049
1589988810.174352,-1.391239293871336,-3.771324942900647,8.781410591929959,0.6022222222222222,0.2533333333333333,-0.72,-0.43803530643319377,-1.1487720665207461,12.383816199562238
1589988810.184352,-1.403445143491572,-3.7117225717457862,8.654306429364466,0.6022222222222222,0.2533333333333333,-0.72,-0.037681256939070755,-0.8857660734111631,11.460222302593952
1589988810.194352,-1.4316677320593478,-3.725833866029674,8.689584665074184,0.6022222222222222,0.2533333333333333,-0.72,-0.34636581939911854,-0.9739616626854625,10.622364204488107
1589988810.204352,-1.3327466437972095,-3.8470036613121352,8.71950061021869,0.6022222222222222,0.2533333333333333,-0.72,-0.010924151466174092,-0.7562423722663852,9.582787709865752
1589988810.214352,-1.3142786525431815,-3.826417978814772,8.759303368642046,0.5978551812619949,0.21752359745946917,-0.734847939264773,0.3439044756179025,-0.848258421605115,8.236011308330948
1589988810.224352,-1.2995745780534318,-3.714787289026716,8.777845978363542,0.5966666666666667,0.20777777777777776,-0.7388888888888889,0.027093469853321214,-0.6604065301466788,5.51114014685701
1589988810.2343519,-1.2397724072786898,-3.684886203639345,8.650766365467216,0.5966666666666667,0.20777777777777776,-0.7388888888888889,0.5410183749487604,-0.14648162505123963,3.7824836478996238
1589988810.2443519,-1.2076461002218097,-3.662138427413879,8.73,0.5966666666666667,0.20777777777777776,-0.7388888888888889,0.6530770449504323,-0.013365171336743469,-0.9850023765334299
1589988810.2543519,-1.4156154415392206,-4.353963369511593,8.177541317217564,0.5917223387052568,0.20777777777777776,-0.728627076138793,-4.96023988653182,9.852017297730637,-20.90812314997533
1589988810.2643518,-4.75,-12.58,2.15,0.5377777777777778,0.20777777777777776,-0.6166666666666667,-68.625,113.25,-191.0625
1589988810.2743518,-4.075138769090263,-11.421656096199706,1.8017773605966816,0.5377777777777778,0.20777777777777776,-0.6166666666666667,-69.58728880207012,91.75588563600385,-270.3479026079456
1589988810.2843518,-0.005028559535647376,-4.681645353005111,-0.1259369146451449,0.5377777777777778,0.20777777777777776,-0.6166666666666667,-76.29582533589252,-34.05172368938325,-738.7689524894203
1589988810.2943518,0.17233983116512377,-5.054356266057665,0.2790481627992333,0.5377777777777778,0.20777777777777776,-0.6166666666666667,-72.61567508462134,-11.712951398801028,-717.6821410729578
1589988810.3043518,-0.17831124342400398,-3.378073080216957,-1.0038216222829413,0.5377777777777778,0.20777777777777776,-0.6166666666666667,-24.668416867175075,70.23035612332286,-675.0801736266874
1589988810.3143518,-1.02,-4.36,3.92,0.4988888888888889,0.37333333333333335,-0.6233333333333333,11.25,126.0625,-631.625
1589988810.3243518,-0.8974875196120382,-4.30166072362478,3.750816098511862,0.4988888888888889,0.37333333333333335,-0.6233333333333333,34.22109007274283,158.47726043598155,-605.0441672015404
1589988810.3343518,-2.246582886416393,-3.65409429280397,5.828851356759785,0.4988888888888889,0.37333333333333335,-0.6233333333333333,111.94852117185624,209.5381963899784,-536.893740494677
1589988810.3443518,2.1835082935696435,0.9347648261758692,2.6816950693024313,0.4988888888888889,0.37333333333333335,-0.6233333333333333,211.13908770733923,25.1032577823222,-460.9437485798682
1589988810.3543518,-0.9745952168746286,-1.0168709150326798,-1.6880525846702317,0.4972611325675051,0.37488207235756255,-0.6230962814418697,39.25208774324123,-11.098264353089721,-397.0921450256239
1589988810.3643517,-0.3827079619726679,-0.6741993464052287,-0.37967023172905523,0.3190026903017099,0.5444871921832707,-0.5971363141216082,-1.5861858474450372,12.363056112596556,-359.271717635918
1589988810.3743517,3.1737272375048433,-2.707456496470866,16.118468237791216,0.27,0.5911111111111111,-0.59,-42.98196582888331,68.46926852584943,-303.5561260802183
1589988810.3843517,0.8986323130569547,-1.0753231811060762,6.968629954685577,0.27,0.5911111111111111,-0.59,-5.888026843319913,52.39522829877196,-277.59036879032396
1589988810.3943517,0.9925648522762044,-1.4697552102811682,7.800854044130147,0.27,0.5911111111111111,-0.59,13.304010981538775,-6.837219086798354,-240.77501019957162
1589988810.4043517,1.0496049365926632,-2.3538765171862783,9.376586373372318,0.27,0.5911111111111111,-0.59,7.555439984020671,2.3426694828817194,-223.2619218117839
1589988810.4143517,13.848093405330882,-24.544019990808824,10.871028262867647,0.10666666666666667,0.6233333333333333,-0.6111111111111112,-2.582943187040441,26.830767463235293,-181.7929364372702
1589988810.4243517,0.7328745404411787,-3.164526654411766,7.160537683823529,0.10666666666666667,0.6233333333333333,-0.6111111111111112,-14.730382582720589,15.586856617647058,-112.77339441636029
1589988810.4343517,0.6432924755561854,1.0635376222190733,12.836933895422984,0.10666666666666667,0.6233333333333333,-0.6111111111111112,31.85748636105994,-1.7049018262009352,-58.916810215034715
1589988810.4443517,0.6730097775258609,0.9149511123706957,6.581441830806293,0.10666666666666667,0.6233333333333333,-0.6111111111111112,29.442955576023806,7.163855480374098,-47.44778898611308
1589988810.4543517,2.471624081960131,-1.1986798740973894,11.09857773251867,0.10666666666666667,0.6233333333333333,-0.6111111111111112,-17.709700749861135,0.9600266925877925,-28.541246219835834
1589988810.4643517,10.224663474188286,-8.227971899173815,10.435015523864653,0.013333333333333334,0.6233333333333333,-0.6255555555555555,-26.67266023785718,-2.8583414460874597,-17.0996059832658
1589988810.4743516,2.8573367836363337,-3.166088576090719,9.261242438726903,0.013333333333333334,0.6233333333333333,-0.6255555555555555,9.928656194887179,2.3358678363633367,-12.693503692043976
1589988810.4843516,2.7190730332448783,-2.288113761104976,7.560598308912001,0.013333333333333334,0.6233333333333333,-0.6255555555555555,13.687701908654876,0.9532303324487812,-5.866731016465857
1589988810.4943516,4.378453818954769,-3.558193635416028,9.408193635416028,0.013333333333333334,0.6233333333333333,-0.6255555555555555,-7.195718877102622,-2.2762827784250006,2.9594472377215033
1589988810.5043516,2.586787254481166,-3.738217548592801,9.588217548592802,0.013333333333333334,0.6233333333333333,-0.6255555555555555,-8.74949669916406,5.38544924070554,3.4416541480164327
1589988810.5143516,2.770476963387205,-3.1649178009135808,8.596661256289563,0.012222222222222223,0.6322222222222222,-0.6044444444444445,2.822470552090338,-2.8810127646254085,4.0020042548751364
1589988810.5243516,2.7234663074426724,-3.34566711569666,8.957799191746012,0.012222222222222223,0.6322222222222222,-0.6044444444444445,-0.4375,1.035419473104124,2.55209736552062
1589988810.5343516,2.749148577901601,-3.3135642776229983,9.015584300278602,0.012222222222222223,0.6322222222222222,-0.6044444444444445,-0.4375,0.8347767351437406,1.5488836757187032
1589988810.5443516,3.0640408535889536,-3.088092738407699,8.496411807219749,0.012222222222222223,0.6322222222222222,-0.6044444444444445,1.1748378599414204,-0.9199213549393281,0.5491650500209213
1589988810.5543516,2.9028677665066245,-3.206750478322082,8.76668531821956,0.012222222222222223,0.6322222222222222,-0.6044444444444445,-0.3968809790260279,0.017109039384859637,0.2750814501281542
1589988810.5643516,2.9858950089064304,-3.090879640948622,8.627623554888057,-0.008888888888888889,0.6488888888888888,-0.6177777777777778,0.3033370734518529,-0.047839317522964615,0.23900448814222347
1589988810.5743515,2.883348468443296,-3.112853899619294,8.81806713003388,-0.008888888888888889,0.6488888888888888,-0.6177777777777778,0.07443854563235655,0.31839832698822956,-0.03567374524117212
1589988810.5843515,2.830447174009791,-3.189552825990209,8.739776412995106,-0.008888888888888889,0.6488888888888888,-0.6177777777777778,0.125,0.43260903426791275,0.12465064530485091
1589988810.5943515,2.890179083222074,-3.129820916777926,8.709910458388963,-0.008888888888888889,0.6488888888888888,-0.6177777777777778,0.125,-0.22070872274143294,0.07798509123275478
1589988810.6043515,2.862092652212314,-3.165891905752301,8.867675717256901,-0.008888888888888889,0.6488888888888888,-0.6177777777777778,-0.47384184734607826,0.06153487278839853,0.11240348727883985
1589988810.6143515,2.859123711340206,-3.18,8.827886597938145,-0.003820160366552118,0.6499026345933563,-0.6177777777777778,-0.3969072164948454,-0.49677835051546393,0.010953608247422683
1589988810.6243515,2.954229158221862,-3.17,8.676152772147908,-0.0033333333333333327,0.65,-0.6177777777777778,-0.09494353240553079,-0.5083983583299554,-0.03845482592442463
1589988810.6343515,2.898331333640978,-3.1679141670512228,8.64917766497462,-0.0033333333333333327,0.65,-0.6177777777777778,0.20053645592985694,0.007821873557914166,0.18228541762805722
1589988810.6443515,2.860404249041015,-3.119919150191797,8.859110652109766,-0.0033333333333333327,0.65,-0.6177777777777778,0.49747344349365596,0.18648937739746238,0.060478754794924754
1589988810.6543515,2.90165830628504,-3.1116683387429918,8.768351726172913,-0.0033333333333333327,0.65,-0.6177777777777778,0.23963558571850102,0.08335423428740041,-0.14579153142519918
1589988810.6643515,2.9002406159769007,-3.1490375360923966,8.828075072184793,-0.0011645813282001928,0.6434937439846006,-0.6177777777777778,-0.11748075072184794,0.12349615014436958,-0.004511549566891232
1589988810.6743515,2.9098630334140902,-3.1302739331718197,8.70178056561683,-0.0011111111111111113,0.6433333333333333,-0.6177777777777778,0.05993187651418841,0.125,0.0
1589988810.6843514,2.8812208129478054,-3.149186124701463,8.747965311753658,-0.0011111111111111113,0.6433333333333333,-0.6177777777777778,0.0625,0.4247831984603612,0.0
1589988810.6943514,2.88,-3.134395130758926,8.734395130758926,-0.0011111111111111113,0.6433333333333333,-0.6177777777777778,0.01373478362164366,0.24243913448657464,0.19506086551342536
1589988810.7043514,2.8900803159973667,-3.1350401579986835,8.770321263989468,-0.0011111111111111113,0.6433333333333333,-0.6177777777777778,-0.031500987491770896,-0.0015059249506254035,0.21849901250822912
1589988810.7143514,2.904540280715247,-3.144540280715247,8.79637915785426,-0.007669294366467988,0.6377841013480313,-0.6147509239676131,-0.20438377235147087,-0.3010070178811767,0.10236973658911748
1589988810.7243514,2.898106057358426,-3.1678409139623613,8.827575770566296,-0.015555555555555557,0.6311111111111111,-0.6111111111111112,-0.3378314292450808,-0.5118371415098384,0.0
1589988810.7343514,2.898531427089892,-3.1714685729101078,8.723497166561724,-0.015555555555555557,0.6311111111111111,-0.6111111111111112,0.06074993518278449,-0.34921432275269454,0.0
1589988810.7443514,2.8864473191185653,-3.1632236595592826,8.74743438308502,-0.015555555555555557,0.6311111111111111,-0.6111111111111112,0.20970425550896601,-0.016035105718618936,0.08470425550896601
1589988810.7543514,2.8942004936509353,-3.138699259523597,8.805501234127338,-0.015555555555555557,0.6311111111111111,-0.6111111111111112,0.25,0.34688271329586345,0.03624691468165463
1589988810.7643514,2.871126114862049,-3.1233783445861465,8.837184712844877,-0.008888888888888889,0.6444444444444445,-0.5966666666666667,-0.010557326831707929,0.0625,0.0625
1589988810.7743514,2.888606735017088,-3.175820205051263,8.79348316245728,-0.008888888888888889,0.6444444444444445,-0.5966666666666667,-0.17443814078519632,0.0625,0.0625
1589988810.7843513,2.9086541017276795,-3.1706729491361605,8.678075389633925,-0.008888888888888889,0.6444444444444445,-0.5966666666666667,-0.24579406789899721,0.23738220369699167,0.004205932101002778
