time,acc_x,acc_y,acc_z,mag_x,mag_y,mag_z,gyr_x,gyr_y,gyr_z
1589988815.9211829,-3.88,-0.83,8.85,0.31222222222222223,-0.3144444444444445,-0.5788888888888889,-0.0625,0.0,0.1875
1589988815.9311829,-3.8984178632591227,-0.8392089316295613,8.831582136740877,0.31222222222222223,-0.3144444444444445,-0.5788888888888889,0.28283493610854954,0.11511164536951654,0.01483253194572523
1589988815.9411829,-3.8984221961649883,-0.84,8.831044626845083,0.32666666666666666,-0.3144444444444445,-0.6166666666666667,0.20722254793764658,-0.09208382190646985,-0.15791617809353015
1589988815.9511828,-3.8967536472084645,-0.843376823604232,8.893376823604232,0.32666666666666666,-0.3144444444444445,-0.6166666666666667,0.2702897049470986,-0.2711051475264507,-0.021105147526450693
1589988815.9611828,-3.907713595895579,-0.8431407876867361,8.911432020522106,0.32666666666666666,-0.3144444444444445,-0.6166666666666667,0.30182020522106534,-0.3839501282631658,-0.04820997434736683
1589988815.9711828,-3.890534768626394,-0.8136898457509292,8.987860925494426,0.32666666666666666,-0.3144444444444445,-0.6166666666666667,0.5100269117448825,-0.6052807679716536,-0.03943846405669279
1589988815.9811828,-3.8725,-0.80625,9.06875,0.3248611111111111,-0.3152777777777779,-0.6140277777777778,0.0703125,-0.4921875,-0.109375
1589988815.9911828,-3.888889105970616,-0.8472227649265396,9.060555447014693,0.3130245345767775,-0.3207408131013164,-0.5967281659199055,-0.288199193107221,-0.031243894576430065,-0.00694308768365115
1589988816.0011828,-3.89,-0.8547027265507808,8.999432277419924,0.31222222222222223,-0.3211111111111111,-0.5955555555555555,-0.13969602047119034,-0.018411938586429012,0.07719602047119033
1589988816.0111828,-3.89,-0.8695065737227565,8.903207270802083,0.31222222222222223,-0.3211111111111111,-0.5955555555555555,-0.18595804288361423,0.12037412865084268,0.12345804288361423
1589988816.0211828,-3.884343901798608,-0.85,8.854343901798607,0.31222222222222223,-0.3211111111111111,-0.5955555555555555,0.040724079361953526,0.1875,-0.14677592063804648
1589988816.0311828,-3.8981101483523695,-0.85,8.868110148352368,0.31222222222222223,-0.3211111111111111,-0.5955555555555555,0.16978264080346592,0.1875,-0.017717359196534083
1589988816.0411828,-3.8972526578157587,-0.8317579734472761,8.902747342184242,0.3055555555555556,-0.3144444444444445,-0.6166666666666667,0.5061835546060328,-0.5343417773030165,-0.05151266595452464
1589988816.0511827,-3.883010593165196,-0.8169894068348039,8.913494703417403,0.3055555555555556,-0.3144444444444445,-0.6166666666666667,0.6875,-0.5376324145649515,-0.1219743109237136
1589988816.0611827,-3.8775165195795824,-0.8337582597897911,8.957582597897911,0.3055555555555556,-0.3144444444444445,-0.6166666666666667,0.6640108763138055,-0.3984891236861945,0.023489123686194508
1589988816.0711827,-3.89,-0.842551562124267,9.0276546863728,0.3055555555555556,-0.3144444444444445,-0.6166666666666667,0.5771582101699931,-0.4056054734466621,0.0625
1589988816.0811827,-3.8895339654645054,-0.8490679309290103,9.049067930929011,0.3062287165512703,-0.3144444444444445,-0.615993505670952,0.43167456830631484,-0.30376185245947224,0.05376185245947224
1589988816.0911827,-3.88,-0.8277246114066632,9.018623057033317,0.32,-0.3144444444444445,-0.6022222222222222,0.3267211787083544,-0.125,-0.08233646387493684
1589988816.1011827,-3.876625343769833,-0.82,8.932754812777661,0.32,-0.3144444444444445,-0.6022222222222222,0.41718320287708904,-0.16718320287708907,0.10468320287708907
1589988816.1111827,-3.867142127064393,-0.8257157458712141,8.842857872935607,0.32,-0.3144444444444445,-0.6022222222222222,0.41069147076227874,-0.19641488245736727,0.13391488245736727
1589988816.1211827,-3.8630235756385067,-0.8369764243614931,8.85907072691552,0.32,-0.3144444444444445,-0.6022222222222222,0.13080795677799606,0.013089390962671893,0.0
1589988816.1311827,-3.87,-0.8265231725442508,8.88347682745575,0.32212472788962454,-0.3144444444444445,-0.5997111801708478,0.043460343196865286,0.15490474260235104,-0.010865085799216322
1589988816.1411827,-3.873003116416649,-0.81,8.906006232833299,0.3322222222222222,-0.3144444444444445,-0.5877777777777777,0.25,0.0750779104162265,-0.006191567187830135
1589988816.1511827,-3.88,-0.8124078547494741,8.92,0.3322222222222222,-0.3144444444444445,-0.5877777777777777,0.2650490921842126,0.15970544689472455,0.07985272344736227
1589988816.1611826,-3.88,-0.8189445959635315,8.92,0.3322222222222222,-0.3144444444444445,-0.5877777777777777,0.305903724772072,-0.08542234863243203,-0.042711174316216016
1589988816.1711826,-3.87,-0.8386476841073398,9.01540926357064,0.3322222222222222,-0.3144444444444445,-0.5877777777777777,0.27024012835436834,0.0,-0.016903948658252666
1589988816.1811826,-3.87,-0.8322233794878078,9.04110648204877,0.3322222222222222,-0.3144444444444445,-0.5877777777777777,0.06948060899399586,0.0,-0.09720775640240166
1589988816.1911826,-3.8894215935645304,-0.8288431871290609,9.041323903467958,0.32666666666666666,-0.3144444444444445,-0.6166666666666667,-0.24276991955663088,-0.18026991955663088,0.0
1589988816.2011826,-3.8807479785760077,-0.8114959571520153,8.911219678640114,0.32666666666666666,-0.3144444444444445,-0.6166666666666667,-0.1343497322000951,-0.07184973220009512,0.0
1589988816.2111826,-3.89,-0.84,8.841602990224267,0.32666666666666666,-0.3144444444444445,-0.6166666666666667,-0.2237593444508338,-0.018129672225416907,0.1512406555491662
1589988816.2211826,-3.8838106145251396,-0.8379368715083798,8.88444189944134,0.32666666666666666,-0.3144444444444445,-0.6166666666666667,-0.2609217877094972,-0.0882891061452514,0.0367108938547486
1589988816.2311826,-3.8603787709497204,-0.8301262569832402,8.939116201117319,0.32666666666666666,-0.3144444444444445,-0.6166666666666667,-0.06565642458100557,-0.18592178770949722,-0.060921787709497216
1589988816.2411826,-3.88,-0.8496180790960451,8.960381920903956,0.32666666666666666,-0.3144444444444445,-0.6088888888888889,0.0,0.1875,0.0023870056497175144
1589988816.2511826,-3.876933346793529,-0.84,8.951600080761175,0.32666666666666666,-0.3144444444444445,-0.6088888888888889,0.07666633016177472,0.16833341745955632,0.0625
1589988816.2611825,-3.87611816932671,-0.8369409153366452,8.92835450798013,0.32666666666666666,-0.3144444444444445,-0.6088888888888889,0.26911927914596767,0.04852288341612937,0.0625
1589988816.2711825,-3.8863972551268615,-0.83,8.977205489746277,0.32666666666666666,-0.3144444444444445,-0.6088888888888889,0.2899828445428837,-0.1024828445428837,0.0625
1589988816.2811825,-3.8701372149606748,-0.8298627850393255,9.010137214960674,0.3267428972003747,-0.31461215161860223,-0.6087059356079896,0.18664240649578454,0.0,0.0625
1589988816.2911825,-3.8780944949685194,-0.8180944949685196,9.012377979874078,0.3322222222222222,-0.32666666666666666,-0.5955555555555555,0.08927178065974278,0.035728219340257224,0.03868118710649518
1589988816.3011825,-3.875412596987677,-0.8127062984938385,8.931286627110909,0.3322222222222222,-0.32666666666666666,-0.5955555555555555,-0.07941436558649019,0.20441436558649018,-0.028671268827019626
1589988816.3111825,-3.886090166663403,-0.8219549166682987,8.807819666673195,0.3322222222222222,-0.32666666666666666,-0.5955555555555555,-0.11278177082313312,0.23778177082313312,0.0625
1589988816.3211825,-3.870296749154231,-0.8297032508457693,8.841335371194038,0.3322222222222222,-0.32666666666666666,-0.5955555555555555,-0.06342734110697051,0.18471797667908846,0.0625
1589988816.3311825,-3.884702478061514,-0.8152975219384864,8.90616115127681,0.3322222222222222,-0.32666666666666666,-0.5955555555555555,-0.10844524394223008,0.04966426817330977,0.0625
1589988816.3411825,-3.8795696046762034,-0.8208607906475927,8.97870881402861,0.31222222222222223,-0.3144444444444445,-0.5955555555555555,-0.11693008767881864,-0.0625,0.12231002922627288
1589988816.3511825,-3.87,-0.84,8.92883765839264,0.31222222222222223,-0.3144444444444445,-0.5955555555555555,0.0918921411213331,-0.0918921411213331,0.03310785887866689
1589988816.3611825,-3.8712032292284735,-0.84,8.866016146142366,0.31222222222222223,-0.3144444444444445,-0.5955555555555555,0.20254036535591635,-0.16493945196612547,-0.04745963464408365
1589988816.3711824,-3.8787446284409444,-0.84,8.903723142204722,0.31222222222222223,-0.3144444444444445,-0.5955555555555555,0.29680785551180394,-0.023538216732294087,0.04680785551180394
1589988816.3811824,-3.88,-0.830886791961004,8.992018872350963,0.31222222222222223,-0.3144444444444445,-0.5955555555555555,0.027712248781377846,0.11391510048744884,0.0625
1589988816.3911824,-3.88,-0.83,9.0,0.3350501730018411,-0.32015143213934916,-0.6012625432504602,0.0,0.07149699036026831,0.0625
1589988816.4011824,-3.873692521325134,-0.828153739337433,8.962306090061496,0.3388888888888889,-0.3211111111111111,-0.6022222222222222,-0.15961738742313034,0.125,-0.07884348343582623
1589988816.4111824,-3.890256935735479,-0.8197430642645214,8.841541614412872,0.3388888888888889,-0.3211111111111111,-0.6022222222222222,-0.3125,0.125,0.12178830330651821
1589988816.4211824,-3.896285798424501,-0.8137142015754988,8.90557130236325,0.3388888888888889,-0.3211111111111111,-0.6022222222222222,-0.3241068799234337,0.1133931200765663,-0.023213759846867407
1589988816.4311824,-3.8808462784362807,-0.8291537215637194,8.92873058234558,0.3388888888888889,-0.3211111111111111,-0.6022222222222222,-0.372355379886623,0.06514462011337702,-0.11971075977324597
1589988816.4411824,-3.88,-0.8330406556243983,8.9884796721878,0.31222222222222223,-0.30666666666666664,-0.5877777777777777,-0.07200204882624472,-0.125,-0.052997951173755276
1589988816.4511824,-3.88,-0.8462384480067392,8.957430688040436,0.31222222222222223,-0.30666666666666664,-0.5877777777777777,-0.0897354500631798,-0.11324515002105993,0.0352645499368202
1589988816.4611824,-3.882087429455671,-0.8320874294556708,8.870437147278354,0.31222222222222223,-0.30666666666666664,-0.5877777777777777,0.036407131804114326,-0.04945356590205716,0.16140713180411434
1589988816.4711823,-3.8880641852681586,-0.8390320926340792,8.915807444195526,0.31222222222222223,-0.30666666666666664,-0.5877777777777777,-0.050401157925989905,-0.006049421037005048,0.06854942103700505
1589988816.4811823,-3.876743231936085,-0.8333716159680423,8.949770304191746,0.31222222222222223,-0.30666666666666664,-0.5877777777777777,0.020354800399470963,-0.04142740019973548,0.10392740019973548
1589988816.4911823,-3.87,-0.8161692150866463,8.976915392456677,0.33066326877336055,-0.312045305244082,-0.6023769396307622,-0.02394240570846075,0.1103848114169215,0.03855759429153925
1589988816.5011823,-3.89,-0.832066336703338,8.979336632966621,0.3388888888888889,-0.3144444444444445,-0.6088888888888889,-0.3512438131875865,-0.049585395604137834,-0.0387438131875865
1589988816.5111823,-3.88761378661887,-0.8423862133811301,8.907158640143392,0.3388888888888889,-0.3144444444444445,-0.6088888888888889,-0.455258499103811,0.0,-0.157672332735874
1589988816.5211823,-3.8752895718861105,-0.8547104281138894,8.944131284341669,0.3388888888888889,-0.3144444444444445,-0.6088888888888889,-0.22417947286457263,0.0,-0.003619648576381751
1589988816.5311823,-3.8876477959604894,-0.8423522040395105,8.94235220403951,0.3388888888888889,-0.3144444444444445,-0.6088888888888889,-0.23529872475305913,0.05514936237652956,-0.1029480871295887
1589988816.5411823,-3.882363987467733,-0.8323639874677333,8.9629080375968,0.3388888888888889,-0.3195351194659556,-0.6037982138673778,-0.15454984334666694,0.15795015665333306,0.06590031330666615
1589988816.5511823,-3.88,-0.83,8.989252924820313,0.3388888888888889,-0.3211111111111111,-0.6022222222222222,0.05354410401692811,0.125,0.05354410401692811
1589988816.5611823,-3.88,-0.83,8.879229841036672,0.3388888888888889,-0.3211111111111111,-0.6022222222222222,-0.038141799136106894,0.125,-0.038141799136106894
1589988816.5711823,-3.8718844020665553,-0.84,8.920628134022184,0.3388888888888889,-0.3211111111111111,-0.6022222222222222,0.0,0.10537081180671631,-0.05857416236134326
1589988816.5811822,-3.895784455249962,-0.84,8.928594818416654,0.3388888888888889,-0.3211111111111111,-0.6022222222222222,0.0,-0.14358807552043762,-0.008782384895912473
1589988816.5911822,-3.8767116496832825,-0.8450674745249243,8.963423299366566,0.32666666666666666,-0.3211111111111111,-0.5955555555555555,0.052223905260258885,-0.10444781052051777,-0.0625
1589988816.6011822,-3.86257017482761,-0.8238552622414153,8.921004388103364,0.32666666666666666,-0.3211111111111111,-0.5955555555555555,-0.03212718534512781,-0.016063592672563905,-0.07053179633628195
1589988816.6111822,-3.8810400736335313,-0.8489599263664684,8.863120220900594,0.32666666666666666,-0.3211111111111111,-0.5955555555555555,-0.25,-0.11199907958085528,-0.11199907958085528
1589988816.6211822,-3.8892116840394753,-0.8407883159605247,8.8931532638421,0.32666666666666666,-0.3211111111111111,-0.5955555555555555,-0.25,0.004926974753279695,-0.004926974753279695
1589988816.6311822,-3.8808998850620267,-0.8491001149379731,8.926400459751893,0.32666666666666666,-0.3211111111111111,-0.5955555555555555,-0.25,0.05687571836233205,-0.05687571836233205
1589988816.6411822,-3.878544358937128,-0.84,8.98,0.32,-0.3144444444444445,-0.6088888888888889,-0.07159775664295048,0.08979326992885146,0.018195513285900973
1589988816.6511822,-3.87,-0.84,8.969486454066043,0.32,-0.3144444444444445,-0.6088888888888889,-0.125,0.25938709458388975,0.125
1589988816.6611822,-3.87,-0.84,8.914373259052924,0.32,-0.3144444444444445,-0.6088888888888889,-0.11816678272980502,0.3125,0.11133356545961003
1589988816.6711822,-3.8722974162966293,-0.84,8.952297416296629,0.32,-0.3144444444444445,-0.6088888888888889,-0.05532057407303318,0.3125,0.007179425926966818
1589988816.6811821,-3.88801435182583,-0.84,8.96801435182583,0.32,-0.3144444444444445,-0.6088888888888889,-0.006205150544282695,0.3125,0.056294849455717305
1589988816.6911821,-3.877840431666529,-0.8289202158332647,8.973521294999589,0.3322222222222222,-0.32666666666666666,-0.6022222222222222,0.0,0.0,-0.006748651042095724
1589988816.7011821,-3.8605642968943075,-0.8202821484471537,8.921692890682923,0.3322222222222222,-0.32666666666666666,-0.6022222222222222,0.0,0.0,-0.06073657220528874
1589988816.711182,-3.897978469882488,-0.8393261566274961,8.841347686745008,0.3322222222222222,-0.32666666666666666,-0.6022222222222222,-0.1832884789218506,-0.0709230421562988,-0.004211521078149396
1589988816.721182,-3.8721281535048075,-0.8307093845016024,8.858581230996794,0.3322222222222222,-0.32666666666666666,-0.6022222222222222,-0.1294336531350152,-0.1786326937299696,-0.0580663468649848
1589988816.731182,-3.8779536296571817,-0.83,8.923629037257454,0.3322222222222222,-0.32666666666666666,-0.6022222222222222,-0.2244203707147728,-0.13778981464261358,0.08663055607215922
1589988816.741182,-3.871118859078911,-0.83,8.96,0.3322222222222222,-0.3322222222222222,-0.6233333333333333,-0.07648573848638852,0.006992869243194264,0.05550713075680574
1589988816.751182,-3.879380884844187,-0.83,8.96,0.3322222222222222,-0.3322222222222222,-0.6233333333333333,-0.17976106055233818,0.05863053027616909,0.0038694697238309123
1589988816.761182,-3.9076464456251263,-0.84,8.91784518124958,0.3322222222222222,-0.3322222222222222,-0.6233333333333333,0.0,0.0674032382809873,-0.11519352343802541
1589988816.771182,-3.8864901809133094,-0.84,8.988366063622301,0.3322222222222222,-0.3322222222222222,-0.6233333333333333,0.0,0.11147878976393841,-0.0270424204721232
1589988816.781182,-3.88,-0.84,9.01,0.3322222222222222,-0.3322222222222222,-0.6233333333333333,-0.05112245759135792,-0.02836737277407375,0.0
1589988816.791182,-3.8966445346409215,-0.8316777326795392,9.00167773267954,0.3220505621638813,-0.3229752585328214,-0.6002159241098312,0.041528341505759805,-0.1145141707528799,-0.0520141707528799
1589988816.801182,-3.88,-0.8308475121861492,8.958982341580061,0.32,-0.3211111111111111,-0.5955555555555555,-0.0625,-0.05720304883656764,-0.11440609767313528
1589988816.811182,-3.88,-0.8389245363730152,8.841613195440477,0.32,-0.3211111111111111,-0.5955555555555555,-0.06586082383432727,0.0,0.003360823834327269
1589988816.821182,-3.8783588327628267,-0.8224617508557596,8.874102918092932,0.32,-0.3211111111111111,-0.5955555555555555,-0.13012864761616583,0.010257295232331638,0.05224270476766836
1589988816.831182,-3.862494468294343,-0.8462582975584848,8.913763829264141,0.32,-0.3211111111111111,-0.5955555555555555,-0.17970478658017663,0.10940957316035328,-0.04690957316035328
1589988816.841182,-3.8700020891655873,-0.8300041783311745,8.989995821668826,0.32,-0.3144444444444445,-0.5877777777777777,1.305728492040279e-05,0.0,-1.305728492040279e-05
1589988816.851182,-3.8787646763882506,-0.847529352776501,8.9724706472235,0.32,-0.3144444444444445,-0.5877777777777777,0.054779227426565824,0.0,-0.054779227426565824
1589988816.861182,-3.8898812494857804,-0.8401187505142199,8.89095000411376,0.32,-0.3144444444444445,-0.5877777777777777,0.247773427858377,0.06175780928612566,-0.0625
1589988816.871182,-3.881633409924618,-0.831633409924618,8.923466360301529,0.32,-0.3144444444444445,-0.5877777777777777,0.09312643608658847,-0.09437356391341153,-0.0625
1589988816.881182,-3.88,-0.8146989667879994,8.960602066424002,0.32,-0.3144444444444445,-0.5877777777777777,0.0625,-0.07718427121249802,-0.11031572878750198
1589988816.891182,-3.8609169864673802,-0.82,8.998624520298929,0.32,-0.3144444444444445,-0.5788888888888889,0.11353766915774591,0.05963441728943648,-0.11926883457887295
1589988816.901182,-3.875036356291658,-0.82,8.977445465562512,0.32,-0.3144444444444445,-0.5788888888888889,-0.06295445364572813,0.015511386588567967,-0.031022773177135934
1589988816.911182,-3.890501497761772,-0.8294985022382282,8.821002995523544,0.32,-0.3144444444444445,-0.5788888888888889,-0.125,0.05936563898892666,-0.18279845848339
1589988816.921182,-3.9046184914678066,-0.8153815085321935,8.849236982935613,0.32,-0.3144444444444445,-0.5788888888888889,-0.125,-0.02886557167379085,-0.05045164248931372
1589988816.931182,-3.9029151311658885,-0.8241697376682227,8.91667895067289,0.32,-0.3144444444444445,-0.5788888888888889,-0.2135608604263915,-0.0625,-0.0885608604263915
1589988816.941182,-3.8743616868606106,-0.83,8.946409578284847,0.3321069812047117,-0.31871749663434273,-0.5895715193636345,-0.16988027143940793,-0.22273945712118418,-0.08494013571970396
1589988816.951182,-3.8690091086772136,-0.8390091086772136,8.95,0.3388888888888889,-0.3211111111111111,-0.5955555555555555,-0.23761385846516947,-0.14357921230224582,0.050113858465169456
1589988816.9611819,-3.879547853581418,-0.830452146418582,8.892712878511492,0.3388888888888889,-0.3211111111111111,-0.5955555555555555,0.108044509303174,-0.24434816976772467,-0.05684816976772468
1589988816.9711819,-3.8897254123453124,-0.8202745876546874,8.960823762964063,0.3388888888888889,-0.3211111111111111,-0.5955555555555555,0.1857838271582033,-0.12328382715820331,-0.061641913579101655
1589988816.9811819,-3.8741618582905066,-0.8358381417094937,9.00751442512848,0.3388888888888889,-0.3211111111111111,-0.5955555555555555,0.08851161431566448,-0.026011614315664483,-0.013005807157832242
1589988816.9911819,-3.8797487229924807,-0.8302512770075192,9.02974872299248,0.33238974022723505,-0.3070296223441945,-0.5793076839014211,0.0625,-0.06092951870300454,0.0
1589988817.0011818,-3.88,-0.8114647658941964,8.97439429768259,0.3322222222222222,-0.30666666666666664,-0.5788888888888889,-0.053345213161272886,-0.0625,-0.23169042632254577
1589988817.0111818,-3.88,-0.81,8.866676215678181,0.3322222222222222,-0.30666666666666664,-0.5788888888888889,-0.17991339127479303,-0.29732678254958606,0.04353347818698261
1589988817.0211818,-3.88,-0.826030807372635,8.851984596313683,0.3322222222222222,-0.30666666666666664,-0.5788888888888889,-0.1875,-0.36259627303948466,0.0625
1589988817.0311818,-3.8699561437735084,-0.83,8.860043856226492,0.3322222222222222,-0.30666666666666664,-0.5788888888888889,-0.2502741014155728,-0.375,-0.0002741014155728527
1589988817.0411818,-3.863690222581356,-0.83,8.888451112906779,0.3322222222222222,-0.31199698817306987,-0.5788888888888889,-0.3125,-0.35193610886652466,-0.08556389113347536
1589988817.0511818,-3.886235494656789,-0.8408236631045258,8.963294652418103,0.3322222222222222,-0.3211111111111111,-0.5788888888888889,-0.21102815839506983,-0.3463239472016434,-0.09117605279835661
1589988817.0611818,-3.8597772657450076,-0.8419554531490016,8.927599078341014,0.3322222222222222,-0.3211111111111111,-0.5788888888888889,0.12639208909370198,-0.4755568356374808,0.0380568356374808
1589988817.0711818,-3.9228071341331994,-0.873094151878727,9.068851929017889,0.3322222222222222,-0.3211111111111111,-0.5788888888888889,0.35297075939363465,-0.33452924060636535,0.0625
1589988817.0811818,-3.853814089682494,-0.7506309927082735,8.897808462995924,0.3322222222222222,-0.3211111111111111,-0.5788888888888889,0.8522887121777574,-0.25,0.10397887121777574
1589988817.0911818,-3.8611369874888037,-0.776072408910977,8.95341096246641,0.3215475101210026,-0.33081539483949257,-0.5934453144814611,-0.3567514952757953,-0.08624021208356208,0.07041340402785402
1589988817.1011817,-3.87,-0.7800729444723419,8.950218833417026,0.32,-0.3322222222222222,-0.5955555555555555,-0.3143236118085472,-0.0625,0.1245440970478632
1589988817.1111817,-3.87,-0.8153117650797685,8.897032352380348,0.32,-0.3322222222222222,-0.5955555555555555,-0.5883731646856925,0.158198531748554,0.1801746329371385
1589988817.1211817,-3.824281660430426,-0.8108563320860853,8.825994324602597,0.32,-0.3322222222222222,-0.5955555555555555,-0.9107396223098365,0.4732396223098365,0.0732041510760654
1589988817.1311817,-4.1522526406553135,-0.9912287130847166,9.144701444276784,0.32,-0.3322222222222222,-0.5955555555555555,-2.353349320974348,3.0013338003880143,0.34566986419486956
1589988817.1411817,-3.885819762581508,-0.9416846681156996,9.092450426350108,0.3462582622749819,-0.3070580542086979,-0.5878968957253524,-4.104898846346765,3.5663287911720447,0.25287159337903364
1589988817.1511817,-3.81222097416522,-0.6773562748902278,8.827356274890228,0.3466666666666667,-0.30666666666666664,-0.5877777777777777,0.0052843868069025746,0.014691616460737134,0.14409527213315634
1589988817.1611817,-3.8845137083721615,-0.8328329000931876,8.940576045907108,0.3466666666666667,-0.30666666666666664,-0.5877777777777777,-0.9402741674432291,0.11449494825641282,0.01935786453479818
1589988817.1711817,-3.8513323012476093,-0.8213323012476096,8.978111283125399,0.3466666666666667,-0.30666666666666664,-0.5877777777777777,-0.8444358437300792,0.1993044804662599,-0.15208655860122028
1589988817.1811817,-3.821674246344054,-0.81,8.99374431524196,0.3466666666666667,-0.30666666666666664,-0.5877777777777777,-0.6640980297377522,0.13023201982516816,-0.3020359603496637
1589988817.1911817,-3.787919463087248,-0.81,9.01241610738255,0.34505592841163313,-0.30729306487695746,-0.5901043997017151,-0.5826342281879194,0.08263422818791946,-0.4375
1589988817.2011817,-3.0682778881514983,-0.9130899945047978,8.995818573783657,0.32666666666666666,-0.3144444444444445,-0.6166666666666667,-0.3062544912710826,0.4735781164137465,-0.25341072409857546
1589988817.2111816,-1.9659342846413819,-1.0266556515208412,8.779737514081862,0.32666666666666666,-0.3144444444444445,-0.6166666666666667,1.976436349981224,1.1741809049943672,0.2887298159969959
1589988817.2211816,-1.7636409302325582,-0.9415156589147287,8.67787472868217,0.32666666666666666,-0.3144444444444445,-0.6166666666666667,2.5739302325581397,2.2177713178294574,-0.657124031007752
1589988817.2311816,-1.7741117907339927,-0.9239254728440048,8.786447162935971,0.32666666666666666,-0.3144444444444445,-0.6166666666666667,0.5163827975880617,0.7050472844004858,-3.035014586586847
1589988817.2411816,-1.9618196070840994,-0.8987002806542147,8.948700280654213,0.3322222222222222,-0.3144444444444445,-0.6166666666666667,-0.5348809639020613,-0.23212885899545146,-6.245987370560341
1589988817.2511816,-2.0186474402400076,-0.8581089712571373,8.908108971257137,0.3322222222222222,-0.3144444444444445,-0.6166666666666667,0.32768436078583185,0.3260016452143618,-8.07259629342882
1589988817.2611816,-2.0813869060149655,-0.8628467265037414,8.9,0.3322222222222222,-0.3144444444444445,-0.6166666666666667,0.5401460203241919,0.6783761219451514,-9.88275673167091
1589988817.2711816,-2.1973089077312973,-0.8845514846218829,9.030963361596946,0.3322222222222222,-0.3144444444444445,-0.6166666666666667,0.42607983166984764,0.5851330527830794,-12.506435577735365
1589988817.2811816,-2.247566596194503,-0.8958555320648344,9.056577871740663,0.3322222222222222,-0.3144444444444445,-0.6166666666666667,0.4481941508104299,0.8293736786469345,-14.651383016208598
1589988817.2911816,-2.2883773061664674,-0.8858113469167662,9.04,0.3235513786713571,-0.3089266349120757,-0.59617194554644,0.81037678619574,1.4172163270808458,-17.2393839309787
1589988817.3011816,-2.3328697355533787,-0.8964348677766896,9.02356513222331,0.32,-0.30666666666666664,-0.5877777777777777,0.7834231145935358,1.5625,-19.82664054848188
1589988817.3111815,-2.4199800519576917,-0.9,8.860039896084617,0.32,-0.30666666666666664,-0.5877777777777777,0.8999625974206718,1.6624750649471145,-22.449451428836518
1589988817.3211815,-2.44,-0.9252746585735964,8.862124430955994,0.32,-0.30666666666666664,-0.5877777777777777,0.7268778452200304,2.0034332321699546,-24.842943854324734
1589988817.3311815,-2.446943040435459,-0.93,8.849170878693624,0.32,-0.30666666666666664,-0.5877777777777777,0.6875,1.845529986391913,-26.923260108864696
1589988817.3411815,-2.4661653239066097,-0.9461653239066097,8.87233064781322,0.33017816690416163,-0.30666666666666664,-0.5955610818809601,0.7885332744163104,2.086777581387701,-29.000932567412036
1589988817.3511815,-2.48,-0.9645067005545286,8.886479898336415,0.3388888888888889,-0.30666666666666664,-0.6022222222222222,1.0440012707948243,2.262332486136784,-31.251675138632162
1589988817.3611815,-2.4732721078358764,-0.97,8.843088431343505,0.3388888888888889,-0.30666666666666664,-0.6022222222222222,1.25,2.209098652051548,-34.13877573692786
1589988817.3711815,-2.475092992846704,-0.9903719713868164,8.870743942773633,0.3388888888888889,-0.30666666666666664,-0.6022222222222222,1.3773248211676026,2.4091560264595033,-36.24374182755173
1589988817.3811815,-2.516981812826743,-1.01,8.954378175392092,0.3388888888888889,-0.30666666666666664,-0.6022222222222222,1.5,2.5625,-38.5101589536853
1589988817.3911815,-2.58,-1.0264847277556441,9.005272908366534,0.35537361664453304,-0.30666666666666664,-0.6141278589346318,1.6030295484727755,3.1291625166002657,-42.39165006640106
1589988817.4011815,-2.5155196833076756,-1.0622401583461623,8.99193996041346,0.3588888888888889,-0.30666666666666664,-0.6166666666666667,1.6753752474158785,3.4011257422476358,-45.04113563888278
1589988817.4111814,-2.4640009564385705,-1.0843996174245718,8.910802104164857,0.3588888888888889,-0.30666666666666664,-0.6166666666666667,1.3275095643857056,3.2575047821928527,-47.36245217807147
1589988817.4211814,-2.5434913273102597,-1.1055818878850434,8.872209056057478,0.3588888888888889,-0.30666666666666664,-0.6166666666666667,1.3822735985630412,3.6257405967668426,-50.253702983834216
1589988817.4311814,-2.537580800307811,-1.1359353597537514,8.844064640246248,0.3588888888888889,-0.30666666666666664,-0.6166666666666667,1.5995959984609465,3.7905239996152367,-52.374387985763754
1589988817.4411814,-2.5717370393504058,-1.1573910056214864,8.866955028107434,0.378598237212853,-0.29763321535151643,-0.6166666666666667,1.5489186445971268,3.766306214865709,-54.85047626483448
1589988817.4511814,-2.6061898105750227,-1.1815864141000305,8.869206792949985,0.3855555555555555,-0.29444444444444445,-0.6166666666666667,1.5337287720312978,3.8849150881251906,-56.78665088125191
1589988817.4611814,-2.644226240384966,-1.2193809923079728,8.83092851153804,0.3855555555555555,-0.29444444444444445,-0.6166666666666667,1.7441968028872443,4.090848401443623,-58.90654961539864
1589988817.4711814,-2.67,-1.2543480841181782,8.864566378531803,0.3855555555555555,-0.29444444444444445,-0.6166666666666667,2.0720132886079217,4.322013288607922,-61.23779512320991
1589988817.4811814,-2.6509504978896037,-1.2663498340367987,8.934448838257593,0.3855555555555555,-0.29444444444444445,-0.6166666666666667,2.164686462729992,4.414686462729993,-63.17871265827972
1589988817.4911814,-2.6931254816478414,-1.2859376444943524,8.981250192659138,0.3890972543320783,-0.2867707637619785,-0.6125346847607235,2.2539068520598016,4.470703426029901,-64.99610278089702
1589988817.5011814,-2.7016132329709137,-1.2936022054951524,8.968011027475761,0.3922222222222223,-0.28,-0.6088888888888889,2.3125,4.739917293931791,-66.71471052876127
1589988817.5111814,-2.686789401778315,-1.310368205334946,8.88889538399516,0.3922222222222223,-0.28,-0.6088888888888889,2.1427649555421175,4.662831194427647,-68.37564531120518
1589988817.5211813,-2.6690329603564376,-1.3689230925016453,8.86698901321452,0.3922222222222223,-0.28,-0.6088888888888889,1.7567306718647158,4.5625,-69.94217064958737
1589988817.5311813,-2.647784214484623,-1.3838921072423114,8.888323678273066,0.3922222222222223,-0.28,-0.6088888888888889,1.586825670264447,4.600674329735553,-71.21483525418216
1589988817.5411813,-2.653607330468004,-1.4208219914040114,8.886392669531997,0.414145143531784,-0.2671486323357742,-0.6141806285153348,1.8176374462750715,4.837614538562559,-72.72802687738778
1589988817.5511813,-2.672523656776263,-1.465047313552526,8.88,0.4244444444444445,-0.2611111111111111,-0.6166666666666667,2.13318213712911,5.211454991980753,-73.8919556936648
1589988817.5611813,-2.688458256939024,-1.4884582569390237,8.850396100713418,0.4244444444444445,-0.2611111111111111,-0.6166666666666667,2.3292961588033476,5.295703841196652,-74.81470900575454
1589988817.5711813,-2.6888847936357334,-1.5111152063642668,8.832230412728533,0.4244444444444445,-0.2611111111111111,-0.6166666666666667,2.5069700397766668,5.210656679925556,-75.91682023866
1589988817.5811813,-2.662379174125054,-1.552862477624838,8.881431238812418,0.4244444444444445,-0.2611111111111111,-0.6166666666666667,2.6726301617184123,5.273815080859206,-77.02985637460651
1589988817.5911813,-2.651435455435847,-1.593588638589618,8.905741821743389,0.4272356077919252,-0.2596756556752639,-0.6161084339971705,2.7634573947110677,5.308014201762978,-77.75927277179235
1589988817.6011813,-2.67,-1.6511839686236058,8.957632062752788,0.4633333333333333,-0.2411111111111111,-0.6088888888888889,2.8676001961024635,5.343199738530049,-79.01369908485518
1589988817.6111813,-2.674531124012256,-1.6835933720367682,8.870157635865183,0.4633333333333333,-0.2411111111111111,-0.6088888888888889,2.75,5.584958575229802,-80.0722514513788
1589988817.6211812,-2.693069890616005,-1.7130698906160047,8.842674726540011,0.4633333333333333,-0.2411111111111111,-0.6088888888888889,2.5049395509499135,5.483282959124928,-81.21846430627518
1589988817.6311812,-2.6788407906382146,-1.767608221064018,8.865289802340445,0.4633333333333333,-0.2411111111111111,-0.6088888888888889,2.2427549414888386,5.40806126462779,-81.73142885239453
1589988817.6411812,-2.676399553418852,-1.8345993301282781,8.865900111645287,0.4683443079890937,-0.23336687755220872,-0.6207330108025043,2.304370115518695,5.488748604433913,-82.29624023103739
1589988817.6511812,-2.676101265822785,-1.8759746835443039,8.871949367088607,0.4755555555555556,-0.2222222222222222,-0.6377777777777778,2.6371835443037974,5.749208860759493,-83.22325949367088
1589988817.6611812,-2.6548436413025476,-1.9109381521847153,8.812967336933117,0.4755555555555556,-0.2222222222222222,-0.6377777777777778,2.6552727581409217,5.842772758140922,-83.98340862788618
1589988817.6711812,-2.6455114158478827,-1.9714200890648192,8.772442920760586,0.4755555555555556,-0.2222222222222222,-0.6377777777777778,2.7091609528521947,5.896660952852195,-84.60582190570439
1589988817.6811812,-2.634443366583015,-2.0155566334169848,8.833339800501909,0.4755555555555556,-0.2222222222222222,-0.6377777777777778,3.0903316708492374,6.034728958856155,-85.12506062970539
1589988817.6911812,-2.6233929475816664,-2.0794634717650036,8.912856419346669,0.5144637531301878,-0.19579401254888723,-0.6392460116485186,3.0647355343124842,5.814735534312484,-85.95311708660421
1589988817.7011812,-2.584295842290628,-2.145704157709372,8.882873347665004,0.5344444444444445,-0.18222222222222226,-0.64,2.982130197136715,5.77676039427343,-86.8301925627773
1589988817.7111812,-2.544373503938721,-2.204846368107238,8.827966879923402,0.5344444444444445,-0.18222222222222226,-0.64,3.0,6.092789800670236,-87.54299680114897
1589988817.7211812,-2.5239372988437236,-2.2421254023125523,8.834250804625105,0.5344444444444445,-0.18222222222222226,-0.64,2.8863243533198237,6.212108117773274,-88.19141882226725
1589988817.7311811,-2.5147315860354293,-2.25,8.86053682792914,0.5344444444444445,-0.18222222222222226,-0.64,2.7466448254428677,6.2862827618356985,-89.03019657101419
1589988817.7411811,-2.474470478847048,-2.332902216023555,8.828548891988223,0.5390501231124197,-0.14800860926012022,-0.6650022556261515,2.835539671470634,6.560049589338292,-90.4507380288238
1589988817.7511811,-2.4310178880553956,-2.3852544720138487,8.823727639930755,0.5422222222222223,-0.12444444444444445,-0.6822222222222222,2.907840450086555,6.6875,-91.74466964800924
1589988817.761181,-2.413759331143625,-2.4025559868617496,8.816166019707374,0.5422222222222223,-0.12444444444444445,-0.6822222222222222,2.804512541057032,6.593516721409376,-93.11089131083905
1589988817.771181,-2.3975930992822114,-2.4624069007177884,8.764481380143557,0.5422222222222223,-0.12444444444444445,-0.6822222222222222,2.855551755383413,6.633560381280648,-94.96525877691707
1589988817.781181,-2.373202472042378,-2.515619776339023,8.789214832254267,0.5422222222222223,-0.12444444444444445,-0.6822222222222222,3.1625772513243082,6.955061801059447,-96.58044805768098
1589988817.791181,-2.368920137187653,-2.57,8.852159725624695,0.5422222222222223,-0.1104920246066743,-0.6822222222222222,3.2826678098971094,7.101916952474277,-98.45882533072023
1589988817.801181,-2.345682381036618,-2.57,8.872729524146472,0.5422222222222223,-0.08666666666666667,-0.6822222222222222,3.1789702370422783,7.224410711126835,-100.4530089111976
1589988817.811181,-2.3091813906190417,-2.6378009406381087,8.825345112495233,0.5422222222222223,-0.08666666666666667,-0.6822222222222222,3.095906953095208,7.63011630863099,-102.66512806660735
1589988817.821181,-2.2720415902755104,-2.69197227314966,8.79204159027551,0.5422222222222223,-0.08666666666666667,-0.6822222222222222,3.0,7.75,-104.1355937790391
1589988817.831181,-2.265053137651822,-2.694946862348178,8.795159412955465,0.5422222222222223,-0.08666666666666667,-0.6822222222222222,3.0315821103238867,7.93949266194332,-105.35072431680162
1589988817.841181,-2.2398284045272,-2.7503431909456006,8.820057198490934,0.5455746217192,-0.05984747069084419,-0.7079239516990521,2.936785018863332,8.156428745284167,-106.62857490568334
1589988817.851181,-2.2050801306687164,-2.834599346656418,8.810320522674866,0.5488888888888889,-0.03333333333333333,-0.7333333333333333,2.8432491833205225,8.06450326671791,-107.58824101652574
1589988817.861181,-2.1746791208073417,-2.8498716483229365,8.744422417453215,0.5488888888888889,-0.03333333333333333,-0.7333333333333333,2.9066510989908227,8.064104395963291,-108.15905769293576
1589988817.871181,-2.1627413035735485,-2.859111955360323,8.706370651786775,0.5488888888888889,-0.03333333333333333,-0.7333333333333333,2.857866852665321,8.1875,-108.77316573667339
1589988817.881181,-2.161392732027832,-2.9173399738469237,8.748732705874756,0.5488888888888889,-0.03333333333333333,-0.7333333333333333,2.8125,8.268193137239075,-109.13448856206513
1589988817.891181,-2.15,-2.9899165921954127,8.802479148048853,0.5585300201899844,-0.029752341707212127,-0.7388425512196736,2.7815106493893356,8.436978701221328,-109.37447870122134
1589988817.901181,-2.1552036469799942,-3.046018234899971,8.820407293959988,0.5877777777777777,-0.01888888888888889,-0.7555555555555555,2.6875,8.625,-109.5625
1589988817.911181,-2.1473573614024284,-3.0826426385975716,8.78364365847557,0.5877777777777777,-0.01888888888888889,-0.7555555555555555,2.6611611695883925,8.73035532164643,-109.48348350876518
1589988817.921181,-2.0827810308682135,-3.09141473288513,8.698536832212826,0.5877777777777777,-0.01888888888888889,-0.7555555555555555,2.3835393623942744,8.740855201330152,-108.99939456372442
1589988817.931181,-1.9951056579348156,-3.0949366052391105,8.729746420956442,0.5877777777777777,-0.01888888888888889,-0.7555555555555555,2.0625,8.5625,-108.5
1589988817.941181,-1.963903747503622,-3.100855621255433,8.802192504992755,0.5921806268029395,-0.023969099302537062,-0.7447177733397727,1.910093687590555,8.86731262481889,-107.96657790656694
1589988817.951181,-1.932589258114374,-3.097410741885626,8.792691267387944,0.6022222222222222,-0.03555555555555556,-0.72,1.6091359157650695,9.546954694744977,-106.47018450540958
1589988817.961181,-1.86066844230604,-3.15,8.672267376922417,0.6022222222222222,-0.03555555555555556,-0.72,1.5083555288255004,9.42750665864765,-105.26253329323825
1589988817.971181,-1.8275268178759452,-3.1598927284962195,8.640214543007561,0.6022222222222222,-0.03555555555555556,-0.72,1.1559147765506868,9.018809622768476,-104.39380962276847
1589988817.981181,-1.8153588923525363,-3.2085644305898544,8.668181045301809,0.6022222222222222,-0.03555555555555556,-0.72,1.0469515404234646,7.921951540423465,-102.7748269300838
1589988817.991181,-1.787386486565506,-3.2616589188082914,8.774522702686898,0.59820204205609,-0.029022762785590614,-0.7380908107475952,1.2365033768967635,7.602699324620647,-101.1460270297927
1589988818.001181,-1.7541584656817095,-3.3233661372731618,8.750792328408547,0.5933333333333334,-0.021111111111111112,-0.76,1.7865095894893157,7.280942463064106,-99.12872190480985
1589988818.0111809,-1.7336828704694254,-3.3508780863537164,8.713682870469425,0.5933333333333334,-0.021111111111111112,-0.76,1.6425299007231802,7.158994019855364,-97.28719136462836
1589988818.0211809,-1.6950466780925495,-3.3724766609537253,8.712476660953724,0.5933333333333334,-0.021111111111111112,-0.76,1.707944349228753,6.979555650771247,-95.43925042847061
1589988818.0311809,-1.6668882399787628,-3.380815680028316,8.736888239978763,0.5933333333333334,-0.021111111111111112,-0.76,1.9712990000884878,6.730551499867269,-93.56533050172551
1589988818.0411808,-1.6891568887709052,-3.35112414830546,8.759156888770905,0.5933333333333334,-0.021111111111111112,-0.76,1.8785129634545616,6.869730554818157,-91.75600278736395
1589988818.0511808,-1.6391831014115528,-3.4463943671371844,8.74523943003971,0.5244444444444445,-0.03555555555555556,-0.7033333333333334,1.7100352053925985,6.064612740681416,-88.15088055194047
1589988818.0611808,-1.6146245870693725,-3.4883787163756486,8.703993393109958,0.5244444444444445,-0.03555555555555556,-0.7033333333333334,1.8171926616328458,5.792981654082114,-84.8342614440774
1589988818.0711808,-1.5998172537939208,-3.5401827462060793,8.63,0.5244444444444445,-0.03555555555555556,-0.7033333333333334,2.0022843275759925,5.714752426742013,-82.03508806908809
1589988818.0811808,-1.5858307447069404,-3.5708462764652986,8.667523297637539,0.5244444444444445,-0.03555555555555556,-0.7033333333333334,1.9165372353470123,5.291537235347012,-79.10326064742908
1589988818.0911808,-1.5151404212637913,-3.5255315947843533,8.66715145436309,0.5268466510643041,-0.014736431516772543,-0.6841156803744567,1.955303410230692,5.105096539618857,-76.14665872617853
1589988818.1011808,-1.3123067416535321,-3.292648481157759,8.501879567273248,0.5343590095683878,0.05037067551861936,-0.6240168123417872,2.988252704542198,5.433762224172518,-73.28257204649664
1589988818.1111808,-1.5118459651181397,-3.6418459651181396,9.224010880580297,0.5344444444444445,0.05111111111111112,-0.6233333333333333,2.431026321403808,2.952107445730439,-69.50813376713425
1589988818.1211808,-1.55616936156026,-3.6663660610101685,10.266584430738456,0.5344444444444445,0.05111111111111112,-0.6233333333333333,5.253552675445908,-1.263012585430905,-67.28524545757627
1589988818.1311808,-1.2866788522132828,-3.185822753831564,8.31589586711126,0.5344444444444445,0.05111111111111112,-0.6233333333333333,5.108034239346569,3.641965760653431,-60.81227152100095
1589988818.1411808,-1.5112199822570285,-3.429610266450488,9.906930159992658,0.5344444444444445,0.05111111111111112,-0.6233333333333333,-11.37168084064976,20.12168084064976,-56.60212533268072
1589988818.1511807,-1.4149075745316486,-3.7348459575527477,10.208706043443081,0.5255555555555556,0.13333333333333333,-0.5955555555555555,0.0008246716873099302,-0.33354468786954605,-54.20587617476816
1589988818.1611807,-1.2701741654571843,-3.5122089985486213,8.405462989840348,0.5255555555555556,0.13333333333333333,-0.5955555555555555,11.507486695694244,9.142549588776003,-46.504964925012096
1589988818.1711807,-1.3661607005684437,-3.7530526962667072,9.217640190505454,0.5255555555555556,0.13333333333333333,-0.5955555555555555,-2.518906514057459,-0.0007969734214166024,-45.96932132432017
1589988818.1811807,-1.3032701285347044,-3.6228326992287916,9.336937994858612,0.5255555555555556,0.13333333333333333,-0.5955555555555555,-1.2152802056555263,0.2484511568123393,-42.98873907455013
1589988818.1911807,-1.0380175779371887,-3.1715225878416065,7.676703463661365,0.5298271908849442,0.1583059706436055,-0.5975270795537349,4.210568638575302,4.0960428005461855,-38.75362761313153
1589988818.2011807,-1.2147661884758658,-3.5989850994689703,8.598517476420703,0.54,0.21777777777777774,-0.6022222222222222,0.7914792541808671,2.1469520290084807,-36.65037251327574
1589988818.2111807,-1.2371735783461635,-3.631702508070524,8.730760367519245,0.54,0.21777777777777774,-0.6022222222222222,1.4524770300471816,1.014048919791408,-32.41301837596225
1589988818.2211807,-1.21,-3.6,8.69,0.54,0.21777777777777774,-0.6022222222222222,4.0,1.75,-30.375
1589988818.2311807,-1.1084595733810194,-3.4707651041001406,8.25767914165283,0.54,0.21777777777777774,-0.6022222222222222,1.507220749776472,1.9303111827819646,-26.579348416145102
1589988818.2411807,-1.2692051954242136,-3.806820781696854,9.292311725452812,0.541589609151573,0.22051543798326445,-0.6016923525050313,0.8592856291706387,0.13701292897998094,-24.529350869876072
1589988818.2511806,-1.2608752383222117,-3.7735009532888464,8.792514299332698,0.5582495233555768,0.2492075124457155,-0.5961390477703633,2.0046547306959006,0.9179464072926597,-21.561803652287892
1589988818.2611806,-1.256563223565732,-3.813064381270903,8.652878183689221,0.56,0.25222222222222224,-0.5955555555555555,1.3128879116285053,0.7925717937998457,-16.881206586056084
1589988818.2711806,-1.280833315272751,-3.8816666305455017,8.795416657636375,0.56,0.25222222222222224,-0.5955555555555555,1.1302082204546933,0.47135411022734663,-13.35676784204937
1589988818.2811806,-1.2640608630144186,-3.86,8.79,0.56,0.25222222222222224,-0.5955555555555555,0.9882607876802326,0.4003803938401163,-10.597390239843024
1589988818.2911806,-1.243908407841162,-3.852385509801452,8.77096377450363,0.5575464420471347,0.2535759093686307,-0.5960631882354587,0.8172590563740922,0.27918660538135415,-8.088824350417664
1589988818.3011806,-1.2368492476916542,-3.8669587963066467,8.736091126562185,0.5277777777777778,0.27,-0.6022222222222222,0.7078768807708645,-0.09714614679514409,-4.177284312191196
1589988818.3111806,-1.3032256486757479,-3.991612824337874,8.942257709520433,0.5277777777777778,0.27,-0.6022222222222222,0.5524198478882884,-0.21975954366486514,-1.5342633464576558
1589988818.3211806,-1.2594605574991535,-3.955352668998984,8.7831948989956,0.5277777777777778,0.27,-0.6022222222222222,0.599325696873942,-0.4375,1.1664950344204943
1589988818.3311806,-1.2332123154307966,-3.93927389258478,8.694246308615934,0.5277777777777778,0.27,-0.6022222222222222,0.5223460571150413,-0.5579618286548759,3.5129249148142137
1589988818.3411806,-1.24,-3.97149987967271,8.807899687149046,0.536277898105068,0.27113334937697203,-0.6010888728452501,0.4162496991817744,-0.8337503008182255,5.50750541472806
1589988818.3511806,-1.239080687830688,-3.93,8.700229828042328,0.5777777777777777,0.2766666666666667,-0.5955555555555555,0.3110635747354497,-0.9446821263227513,7.422402033730159
1589988818.3611805,-1.2,-3.93,8.717128061363548,0.5777777777777777,0.2766666666666667,-0.5955555555555555,0.09407365767239029,-1.3391007670443484,10.19485651987696
1589988818.3711805,-1.1869736070381232,-3.922184164222874,8.683104985337243,0.5777777777777777,0.2766666666666667,-0.5955555555555555,-0.13865102639296187,-1.5,12.116121700879765
1589988818.3811805,-1.189718226250074,-3.9661970437501237,8.70556305281279,0.5777777777777777,0.2766666666666667,-0.5955555555555555,-0.3309852187506183,-1.4586268476561728,14.225350980469756
1589988818.3911805,-1.2468970741407064,-4.07946406590285,8.894217403654956,0.5926092857368305,0.2795188797357153,-0.5972668833969846,-0.7593445222990247,-1.375,15.761723558375154
1589988818.4011805,-1.1916561397579162,-4.058853799193054,8.66598829717569,0.6355555555555555,0.2877777777777778,-0.6022222222222222,-0.3781871184435666,-1.4721344979826358,17.572456114408837
1589988818.4111805,-1.21,-4.103068886457193,8.764868427908915,0.6355555555555555,0.2877777777777778,-0.6022222222222222,-0.7056888645719348,-1.5615083242144756,18.84060562242718
1589988818.4211805,-1.235957555211538,-4.099202249612981,8.666543081656247,0.6355555555555555,0.2877777777777778,-0.6022222222222222,-0.6183520801081696,-1.5186173600360564,20.033910760126197
1589988818.4311805,-1.2767178533904469,-4.1273983674129155,8.872041542067404,0.6355555555555555,0.2877777777777778,-0.6022222222222222,-1.0268932352703468,-1.7176866968398934,20.7382001131496
1589988818.4411805,-1.2021404671462055,-3.944344782995232,8.546612947547077,0.6355555555555555,0.2877777777777778,-0.6022222222222222,-0.47603754142083565,-1.8871807564858967,21.37380283682211
1589988818.4511805,-1.28,-4.025594190300264,8.872463689376653,0.8211111111111111,0.22,-0.6166666666666667,-0.7987318446883263,-2.0068840776558368,22.679529320149225
1589988818.4611804,-1.28,-3.995210619725452,8.682566373284075,0.8211111111111111,0.22,-0.6166666666666667,-0.703783186642037,-2.0543584066789813,23.486592913542687
1589988818.4711804,-1.273745319049837,-4.003745319049837,8.644363297624592,0.8211111111111111,0.22,-0.6166666666666667,-0.9511353050768514,-2.1386353050768516,24.685685840707965
1589988818.4811804,-1.242488309268747,-3.9724883092687473,8.566220773171867,0.8211111111111111,0.22,-0.6166666666666667,-0.7069399161620866,-1.8944399161620866,25.61362831858407
1589988818.4911804,-1.2810697188786668,-4.0835816867279995,8.837535903547998,0.893733137207261,0.19848676477348096,-0.6281958590256299,-1.0625,-2.0625,27.325572289750006
1589988818.5011804,-1.2893325584602353,-4.034004649238589,8.664016272335061,1.45468813546708,0.032311879855269454,-0.7172509078492018,-1.0625,-2.0625,28.874854711294105
1589988818.5111804,-1.3557741273100616,-4.004016427104723,8.768032854209446,1.5,0.01888888888888889,-0.7244444444444444,-1.4097792607802875,-2.473588295687885,31.56773613963039
1589988818.5211804,-1.3732559651701912,-3.9302321044894266,8.646511930340383,1.5,0.01888888888888889,-0.7244444444444444,-1.1807167392287685,-2.5692832607712317,32.98208151928079
1589988818.5311804,-1.4,-3.872897992851251,8.694275501787187,1.5,0.01888888888888889,-0.7244444444444444,-1.0892218861699203,-2.64885207588672,34.53003849326368
1589988818.5411804,-1.4,-3.9651564476216663,8.671210888094583,1.5,0.01888888888888889,-0.7244444444444444,-0.9450680505911466,-2.7449546329392356,35.154705114105035
1589988818.5511804,-1.4239528741798373,-3.878743449015805,8.846557586761852,1.05,0.02666666666666667,-0.7244444444444444,-1.0273232781743904,-2.9837205463623984,35.72267672182561
1589988818.5611804,-1.3339695208066478,-3.7619466614116335,8.814064768285872,1.05,0.02666666666666667,-0.7244444444444444,-0.7875714356094197,-2.912452376260387,35.92485712878116
1589988818.5711803,-1.27,-3.62934139469359,8.747545667997182,1.05,0.02666666666666667,-0.7244444444444444,-0.5243278938718008,-2.4509744071378257,35.59917674336699
1589988818.5811803,-1.322473734109862,-3.678710601164793,8.597743552038388,1.05,0.02666666666666667,-0.7244444444444444,-0.5524265715999459,-2.6139192287599404,35.05006119033338
1589988818.5911803,-1.4283786093370514,-3.8335144373482053,8.888106953314743,0.9943322539054301,0.05459061697300431,-0.7199405814918094,-1.6604946253485653,-3.7466577089142756,33.96959892506971
1589988818.6011803,-1.4146793106385394,-3.8,8.93,0.7066666666666667,0.1988888888888889,-0.6966666666666667,-0.8583728457454359,-2.4873814627636923,33.70442349734533
1589988818.6111803,-1.3855816798375455,-3.797209160081227,8.818366403249088,0.7066666666666667,0.1988888888888889,-0.6966666666666667,-0.9069847454309691,-2.77761450101534,32.6511450101534
1589988818.6211803,-1.3800937319266897,-3.7601405978900346,8.599671938256586,0.7066666666666667,0.1988888888888889,-0.6966666666666667,-1.1725340526095367,-2.7030517719322735,31.4545163332868
1589988818.6311803,-1.332985729967069,-3.656015367727772,8.813995609220637,0.7066666666666667,0.1988888888888889,-0.6966666666666667,-0.7687294182217344,-2.6875686059275523,30.450123490669593
1589988818.6411803,-1.4390820389906958,-3.5274310679978105,8.848715533998906,0.7022423948851185,0.20138646166879506,-0.6957389967769873,-0.9214441749863174,-2.137041868760262,29.36926274369185
1589988818.6511803,-1.3045148810085494,-3.4957682072961296,8.832884103648064,0.6477119125655559,0.23216979846209657,-0.6843051859680467,-0.7235512956008078,-2.285461528299394,28.528218006303433
1589988818.6611803,-1.412464119808639,-3.554976079872426,8.67803230950565,0.6377777777777778,0.23777777777777775,-0.6822222222222222,-0.5194004368023296,-2.1680995631976705,26.449798065589682
1589988818.6711802,-1.51,-3.6053146170939248,8.904300579914368,0.6377777777777778,0.23777777777777775,-0.6822222222222222,-0.7373245352555418,-1.8010270446046284,24.530811338138854
1589988818.6811802,-1.5031888931591084,-3.542270368946964,8.799081475787855,0.6377777777777778,0.23777777777777775,-0.6822222222222222,-0.35203689469638744,-1.8067592236740968,22.474977181014605
1589988818.6911802,-1.4805531407965484,-3.5516594223896454,8.821702888051773,0.6371631768927238,0.23617981547663763,-0.6833899639038246,-1.055857400431437,-1.9585144402588621,20.601071750539298
1589988818.7011802,-1.4872978536355255,-3.5827021463644746,8.682702146364473,0.6266666666666667,0.2088888888888889,-0.7033333333333334,0.125,-1.266888414777966,18.550793897549156
1589988818.7111802,-1.4948937071827106,-3.599308566989194,8.688138286602161,0.6266666666666667,0.2088888888888889,-0.7033333333333334,0.008642912635073094,-1.3590428349459707,16.604385902959248
1589988818.7211802,-1.5428297453483204,-3.6228297453483203,8.68,0.6266666666666667,0.2088888888888889,-0.7033333333333334,-0.4414650409601829,-1.4942092144535466,14.601836857814186
1589988818.7311802,-1.4504910819889294,-3.5295089180110706,8.686384065856082,0.6266666666666667,0.2088888888888889,-0.7033333333333334,-0.12806926243080854,-1.131138524861617,13.029852864644935
1589988818.7411802,-1.46,-3.521499462943072,8.80850053705693,0.6238759995226161,0.2074310776942356,-0.703624895572264,-0.1710996240601504,-1.2382854457572503,11.091440655209452
1589988818.7511802,-1.46,-3.557540708915145,8.772459291084855,0.5567992361857023,0.17239097744360904,-0.7106329156223893,0.22310150375939847,-0.9567132116004297,8.782548335123522
1589988818.7611802,-1.4367795838128117,-3.4650505849635596,8.762067750287686,0.5522222222222222,0.17,-0.7111111111111111,0.20042343929804374,-0.6544489595320292,4.604019826428845
1589988818.7711802,-1.74920744314266,-3.0295933838731908,4.694367103147255,0.5522222222222222,0.17,-0.7111111111111111,-10.607727429359063,30.720666781529978,-8.247717091660924
1589988818.7811801,-2.452495492629123,-2.4805913670590733,-5.1519045497931915,0.5522222222222222,0.17,-0.7111111111111111,-44.252309364725846,77.15990561035105,-118.67418337045287
1589988818.7911801,-1.3106265783297186,-3.5529320538340414,1.3357390296800262,0.5514842653937695,0.18136453515817133,-0.7052074564834897,-53.63439570397219,-86.0491807540331,-444.5993233607653
1589988818.8011801,-1.032561550550026,-2.175189104243059,-0.28213829229963333,0.5466666666666666,0.25555555555555554,-0.6666666666666666,-40.04760345730749,-53.263089313776845,-514.9184324253536
1589988818.81118,-0.08569937881429818,-2.5730269180470793,0.223715943766347,0.5466666666666666,0.25555555555555554,-0.6666666666666666,-46.74569358925458,-37.458245354729726,-502.5379658892764
1589988818.82118,-0.5582432792667172,-2.809638485041114,2.54237906781225,0.5466666666666666,0.25555555555555554,-0.6666666666666666,-42.68521618102405,-28.10166711095618,-478.0208170996781
1589988818.83118,-1.7379687313114054,-6.139715847928236,10.163305083297736,0.5466666666666666,0.25555555555555554,-0.6666666666666666,-30.875221059376337,-3.2032069628363953,-455.0964406236651
1589988818.84118,-0.47663289192652725,-2.0117076463049983,0.9254533959846203,0.5466666666666666,0.25555555555555554,-0.6666666666666666,28.966564502349428,82.30425459205468,-423.2495023494233
1589988818.85118,-0.5909631801168943,-3.0091432048232756,8.693883142504195,0.4866666666666667,0.4211111111111111,-0.6588888888888889,86.02724616037023,152.0763201320132,-384.1778456127736
1589988818.86118,2.2780843335730223,1.584426129763814,14.710376311374155,0.4866666666666667,0.4211111111111111,-0.6588888888888889,119.28035750502424,186.68275577557756,-361.75132865940225
1589988818.87118,-0.21697068403908798,-0.6976673321424819,-2.0542544919617525,0.4866666666666667,0.4211111111111111,-0.6588888888888889,80.9202808132815,61.33023799516654,-316.9546732163497
1589988818.88118,0.5764948171035582,-0.4517290441542908,0.14168369381042556,0.4866666666666667,0.4211111111111111,-0.6588888888888889,38.477236058506925,-4.856352162862554,-295.329996947573
1589988818.89118,-0.23683037896524223,-2.2495544006792048,18.336097918649823,0.4796935003901996,0.42787296931859436,-0.657198424337018,-43.093911600504256,25.925506187450154,-267.96837293215674
1589988818.90118,-0.05565460534715663,-0.8560662393708026,1.6286123949848061,0.37666666666666665,0.5277777777777778,-0.6322222222222222,-47.130558782972855,16.412232514491457,-235.5075266208728
1589988818.91118,0.7732910381341427,-2.877217645313677,12.362407403181269,0.37666666666666665,0.5277777777777778,-0.6322222222222222,12.310063842168923,15.776856215340377,-210.9327845797485
1589988818.92118,0.9166277222398748,-1.6071033656783908,10.610561190819544,0.37666666666666665,0.5277777777777778,-0.6322222222222222,43.80847774545988,31.818660939065822,-191.0680544692396
1589988818.93118,1.2369777648355762,-2.116261829981072,8.0190386255382,0.37666666666666665,0.5277777777777778,-0.6322222222222222,16.211822961083264,-7.799939420096928,-175.8755914990536
1589988818.94118,0.44967642526964563,-1.7880662557781202,6.847524763372221,0.3723242106292954,0.5297851395309022,-0.6327547875852961,-25.838363966541934,4.58676810477658,-157.8297105436936
1589988818.95118,0.25683321799307957,-2.2407916955017297,10.057205931784479,0.2588888888888889,0.5822222222222222,-0.6466666666666666,-5.51405091448344,22.917394957983195,-136.70664359861593
1589988818.96118,0.7212539792387545,-2.1246865051903114,7.743395353435492,0.2588888888888889,0.5822222222222222,-0.6466666666666666,22.7347565496787,11.462373949579833,-124.73329584775087
1589988818.97118,0.7663262380849997,-2.7773456126519984,10.365503475954991,0.2588888888888889,0.5822222222222222,-0.6466666666666666,-4.867340356912492,6.033173869418762,-104.09307884803746
1589988818.98118,0.6910329759312,-2.3241240855531355,7.989143630982298,0.2588888888888889,0.5822222222222222,-0.6466666666666666,-0.7112634025799967,9.629541694588708,-88.88494286452226
1589988818.99118,0.8725587758976936,-2.652041659686156,9.312525269447702,0.2588888888888889,0.5822222222222222,-0.6466666666666666,6.095954096163512,6.884695928966326,-80.35762201932205
1589988819.00118,0.7600304263223067,-2.5177367769326024,9.08090146824695,0.20846921005562435,0.6087139178803782,-0.6466666666666666,1.9722802052007786,4.312690164514417,-63.79997125420131
1589988819.01118,0.8041917249784614,-2.623498917817143,9.065594780306373,0.19333333333333333,0.6166666666666667,-0.6466666666666666,1.0523965622307676,3.611900859442308,-47.96881763642859
1589988819.02118,1.2988789649963879,-2.9297000394036905,7.197008931503251,0.19333333333333333,0.6166666666666667,-0.6466666666666666,-0.4632847901753464,-0.47292330235765423,-25.277034625993302
1589988819.03118,6.119280225914493,-7.536626387338281,2.858647796676956,0.19333333333333333,0.6166666666666667,-0.6466666666666666,-4.767214487423655,-11.706179812175742,-10.385437873514153
1589988819.04118,-2.013822297018822,-0.2532415166918547,12.761010097540872,0.19333333333333333,0.6166666666666667,-0.6466666666666666,-36.385640627146586,-6.8682339607088885,67.52969157851352
1589988819.05118,-1.8395515695067264,-1.1906988041853515,13.230448430493272,0.165546282455849,0.6348719758622599,-0.6524157116758014,5.496878114100646,-5.672054060787245,94.91827821375188
1589988819.0611799,-1.1846803407699804,-0.9052989232268218,4.036556824143703,0.16111111111111112,0.6377777777777778,-0.6533333333333333,43.54216841132236,19.339995503035453,111.92438229195294
1589988819.0711799,0.2578336082391278,-2.559827815102386,11.267668463611859,0.16111111111111112,0.6377777777777778,-0.6533333333333333,-12.513990022931166,-15.698305557790562,105.89961454519853
1589988819.0811799,0.7809188558554936,-2.2898483324616805,9.571859838274932,0.16111111111111112,0.6377777777777778,-0.6533333333333333,-34.44982298748843,-20.391308283380937,107.74517741481273
1589988819.0911798,0.0974910186580138,-2.7389725344767646,9.48189964074632,0.16111111111111112,0.6377777777777778,-0.6533333333333333,0.10961872754664626,-7.2733717696140925,114.60342015297253
1589988819.1011798,-0.17,-2.21,6.67,0.19333333333333333,0.6533333333333333,-0.6755555555555556,9.75,-5.5625,122.5
1589988819.1111798,0.12143565544269372,-2.4324114212588976,7.954617691753979,0.19333333333333333,0.6533333333333333,-0.6755555555555556,-0.24413390786211409,-8.031075041989922,125.25617601775573
1589988819.1211798,1.55053258988656,-6.054110747933089,8.353943472409153,0.19333333333333333,0.6533333333333333,-0.6755555555555556,-4.093335416266102,-10.087435108632954,136.1158431070948
1589988819.1311798,3.70008642950127,-10.860546106404318,8.107712926012079,0.19333333333333333,0.6533333333333333,-0.6755555555555556,-5.665072344693655,-12.13564630060394,151.61357876821955
1589988819.1411798,0.1422891535407862,-4.154244589576129,7.979162760916891,0.19333333333333333,0.6533333333333333,-0.6755555555555556,-8.074795108208477,-13.94090312459982,186.43131642976053
1589988819.1511798,-0.4128790000254576,-3.0065716249586316,8.524241999949085,0.24916241666171657,0.6234248958359851,-0.647641013891364,1.158314452279729,-11.10319238308597,204.20282070212062
1589988819.1611798,0.12402580620997039,-3.1025937301022513,9.321192366755309,0.25555555555555554,0.62,-0.6444444444444445,-7.910379368141131,-16.029847793924866,207.89589731825163
1589988819.1711798,-0.026117366754789647,-3.056066614445641,8.543103887202584,0.25555555555555554,0.62,-0.6444444444444445,-5.6784000783315385,-15.135616575279872,213.32734933418192
1589988819.1811798,0.08339795685237769,-3.22718430758184,8.912718104376776,0.25555555555555554,0.62,-0.6444444444444445,-5.42172353862724,-15.435072538268221,215.50909992166845
1589988819.1911798,0.04717939023132711,-3.3,8.854666414601452,0.25555555555555554,0.62,-0.6444444444444445,-8.10769557969271,-16.028365929948784,218.76682964974393
1589988819.2011797,-0.043863409172697834,-3.263068295413651,8.44806929505378,0.3236740329037102,0.585530409052741,-0.6551136035471674,-6.194609940421448,-15.709518323403575,221.09658522931744
1589988819.2111797,-0.5195449569976545,-6.191110068630007,8.53960003474937,0.3477777777777778,0.5733333333333334,-0.6588888888888889,-7.446206889062636,-15.967974111719226,224.02706867344278
1589988819.2211797,1.0545473025801408,-9.550631048562245,8.116927113196073,0.3477777777777778,0.5733333333333334,-0.6588888888888889,-7.537300191121536,-16.286800668925377,227.5797074537399
1589988819.2311797,10.316291106431231,-23.86644682488255,9.687047019277498,0.3477777777777778,0.5733333333333334,-0.6588888888888889,-17.087114500647985,-23.277693686214157,211.09281725862627
1589988819.2411797,-0.5890247853555817,-1.3508763972136748,4.599598250445489,0.3477777777777778,0.5733333333333334,-0.6588888888888889,-26.058095739510772,-20.83588814190831,-17.640662967762808
1589988819.2511797,-5.68,-3.85,7.55,0.4388888888888889,0.5077777777777778,-0.6755555555555556,22.5625,30.375,-101.9375
1589988819.2611797,-5.542367125726553,-3.771754725873174,7.574205372571608,0.4388888888888889,0.5077777777777778,-0.6755555555555556,21.70405364716971,29.370547402733415,-99.14227201916532
1589988819.2711797,-0.7753080403759137,-1.3648886181691613,8.699641489731988,0.4388888888888889,0.5077777777777778,-0.6755555555555556,-9.760877131917855,-5.85688957535677,-0.7688283153498086
1589988819.2811797,-0.6508530491971302,-3.86020925862658,11.110798385719166,0.4388888888888889,0.5077777777777778,-0.6755555555555556,-24.90410269687393,-10.366711062948411,15.431443777758798
1589988819.2911797,-0.695633327639221,-2.821306798770072,8.00304706183806,0.4388888888888889,0.5077777777777778,-0.6755555555555556,-3.465544392722922,-3.3697925563717117,34.7989142039631
1589988819.3011796,-0.09337294858831768,-2.9725988955432836,8.07365435171502,0.4122222222222222,0.5011111111111111,-0.6755555555555556,3.0971581628684763,-2.6088939877109745,62.14825192502139
1589988819.3111796,3.475549972777475,-7.650693474371938,8.249816909076769,0.4122222222222222,0.5011111111111111,-0.6755555555555556,-3.7128295869954115,-5.626493349926111,67.28632651473906
1589988819.3211796,-1.0226725458689891,-2.3081192780538835,9.346175778184671,0.4122222222222222,0.5011111111111111,-0.6755555555555556,-5.424865008781436,-4.278100594148201,28.369544299540372
1589988819.3311796,-1.3373789465548558,-3.247099547861035,6.737055300073425,0.4122222222222222,0.5011111111111111,-0.6755555555555556,11.733618415967848,6.346753391042238,-21.858894964640413
1589988819.3411796,0.4536716002627814,-4.0170081539591145,9.362848861923716,0.4122222222222222,0.5011111111111111,-0.6755555555555556,0.5395524983576152,0.5724388453066434,0.934451926421147
1589988819.3511796,0.47991237113402063,-5.84190950744559,9.349106720122185,0.4497703958253787,0.486248292393195,-0.6802490772559501,-6.97274723176785,-3.1171200840015274,8.087676594119893
1589988819.3611796,-0.13876719307182894,-4.5207604977803655,8.363365839458554,0.4655555555555556,0.48,-0.6822222222222222,2.8844652863692612,0.9164635033840334,-0.5251664726002474
1589988819.3711796,-0.0716163653389037,-4.557844846214795,8.58042029820644,0.4655555555555556,0.48,-0.6822222222222222,1.4416079917885183,0.29640342505222217,-0.7533674277893827
1589988819.3811796,-0.06200390456345854,-4.430801561825383,8.757595314523849,0.4655555555555556,0.48,-0.6822222222222222,0.894917028026506,-0.06500488070432318,0.057490238591353646
1589988819.3911796,-0.10137147791481294,-4.446548591165925,8.710354226502224,0.4655555555555556,0.48,-0.6822222222222222,0.05835609431022504,-0.11421434739351617,-0.040928694787032344
1589988819.4011796,-0.06161623921522279,-4.585474530197376,8.661292991372179,0.4343749097164769,0.48,-0.6456656029626128,0.11691880392388607,0.05643910294291454,-0.0020202990190284834
1589988819.4111795,-0.07709628141544772,-4.572903718584553,8.694192562830894,0.43333333333333335,0.48,-0.6444444444444445,-0.19555527653964466,-0.09777763826982233,-0.05342587942327411
1589988819.4211795,-0.06039429835615671,-4.5405914475342355,8.660788596712313,0.43333333333333335,0.48,-0.6444444444444445,0.17887472345907196,0.05880345291103084,-0.00123218236298972
1589988819.4311795,-0.09950379577076898,-4.54,8.788387336255,0.43333333333333335,0.48,-0.6444444444444445,0.12577531910817347,-0.12267404267547957,0.06172468089182652
1589988819.4411795,-0.06920131596066988,-4.54,8.689904276872177,0.43333333333333335,0.48,-0.6444444444444445,0.07687705618854668,-0.125,0.014377056188546684
1589988819.4511795,-0.06,-4.54,8.692050948509486,0.45042717253839204,0.4842734598012647,-0.668660716651611,-0.33813685636856367,-0.20512737127371272,-0.1201910569105691
1589988819.4611795,-0.06840924901447644,-4.556818498028952,8.592270513797331,0.46,0.4866666666666667,-0.6822222222222222,-0.40482658097856694,-0.1974421936595223,-0.1349421936595223
1589988819.4711795,-0.07,-4.56,8.606594281435354,0.46,0.4866666666666667,-0.6822222222222222,-0.1920285928232211,-0.05027144461741581,-0.125
1589988819.4811795,-0.07,-4.6055388422845756,8.610892231543085,0.46,0.4866666666666667,-0.6822222222222222,0.5011590814129142,0.05692355285571948,0.04577065856715842
1589988819.4911795,-0.07,-4.498995011903412,8.721004988096587,0.46,0.4866666666666667,-0.6822222222222222,0.42374376487926535,0.016247921626421802,-0.030004156747156396
1589988819.5011795,-0.0792847965738758,-4.543563169164882,8.667152034261242,0.4538101356174161,0.4804768022840828,-0.6760323578396383,0.2589400428265525,0.05802997858672377,0.05355995717344754
1589988819.5111794,-0.08,-4.540289564920162,8.727973045558866,0.4533333333333333,0.48,-0.6755555555555556,-0.2962119732408809,0.0625,-0.05888043849797353
1589988819.5211794,-0.07391568513293624,-4.58867451893651,8.638735276994044,0.4533333333333333,0.48,-0.6755555555555556,0.029742711272336464,-0.05158090375744548,-0.0625
1589988819.5311794,-0.07,-4.557461827918083,8.608426441855418,0.4533333333333333,0.48,-0.6755555555555556,0.21446694768072944,-0.08946694768072944,-0.02696694768072943
1589988819.5411794,-0.07,-4.545407532226809,8.640116437779088,0.4533333333333333,0.48,-0.6755555555555556,0.2507277361193024,-0.0625,-0.09484160417895358
1589988819.5511794,-0.07910935412830788,-4.539007906422615,8.704656124769848,0.44979080672788024,0.4855668275228548,-0.6755555555555556,0.05629941514134085,-0.1763669266038485,-0.10209980504711362
1589988819.5611794,-0.07238573021181717,-4.542842809364549,8.734771460423636,0.4455555555555555,0.4922222222222222,-0.6755555555555556,-0.28669639539204755,-0.2024108138238573,-0.07339279078409514
1589988819.5711794,-0.06772317690014404,-4.525937761698992,8.63276823099856,0.4455555555555555,0.4922222222222222,-0.6755555555555556,-0.26423014437409975,-0.125,-0.125
1589988819.5811794,-0.07,-4.5784640109087364,8.61,0.4455555555555555,0.4922222222222222,-0.6755555555555556,0.04953004772572317,-0.08220999318203955,-0.08220999318203955
1589988819.5911794,-0.05748043362014487,-4.566181517670507,8.672597831899276,0.4455555555555555,0.4922222222222222,-0.6755555555555556,0.3439945797481892,-0.0625,-0.1016236449370473
1589988819.6011794,-0.06590262598436986,-4.5479513129921845,8.717951312992186,0.45173991010503267,0.4922222222222222,-0.6693712010060784,0.3878042937988442,0.08658711860346738,-0.025608587597688415
1589988819.6111794,-0.06119260300095348,-4.52357780900286,8.69357780900286,0.4533333333333333,0.4922222222222222,-0.6677777777777778,0.15481507502383698,0.06995376875595924,-0.055046231244040754
1589988819.6211793,-0.06,-4.565989661909827,8.588822743798383,0.4533333333333333,0.4922222222222222,-0.6677777777777778,0.010025845225434662,-0.109961232161848,-0.0625
1589988819.6311793,-0.06875724112961623,-4.578757241129616,8.623786205648083,0.4533333333333333,0.4922222222222222,-0.6677777777777778,-0.054732757060101375,-0.125,-0.007767242939898625
1589988819.6411793,-0.07,-4.544351100244499,8.679908459657701,0.4533333333333333,0.4922222222222222,-0.6677777777777778,0.026622249388753044,-0.125,-0.04456112469437652
1589988819.6511793,-0.07,-4.538615525575811,8.743077627879057,0.4590770170505408,0.48743581912454936,-0.6802224258317272,0.008652965151180053,-0.07115296515118005,-0.008652965151180053
1589988819.6611793,-0.08572412349555206,-4.547862061747776,8.726413814756672,0.46,0.4866666666666667,-0.6822222222222222,0.0,-0.16077577184720043,0.04913788592360021
1589988819.6711793,-0.07098769624096193,-4.58168717293173,8.643950784963847,0.46,0.4866666666666667,-0.6822222222222222,-0.0792179323293253,-0.14789103383533736,-0.016717932329325294
1589988819.6811793,-0.08461864701383577,-4.575381352986164,8.649237294027671,0.46,0.4866666666666667,-0.6822222222222222,-0.022422304109017605,-0.125,-0.2163665438364736
1589988819.6911793,-0.08468107873617237,-4.57,8.68127568505531,0.46,0.4866666666666667,-0.6822222222222222,0.13297303159569085,-0.025270226303231863,-0.18351348420215458
1589988819.7011793,-0.07606568832983927,-4.566065688329839,8.707868623340321,0.46,0.4866666666666667,-0.6795993477754484,0.2991788958770091,-0.03585779175401817,-0.10041055206149546
1589988819.7111793,-0.07,-4.555116575657422,8.749300546055467,0.46,0.4866666666666667,-0.6755555555555556,0.375,-0.06541439143555107,-0.0625
1589988819.7211792,-0.08049193108287207,-4.544754034458564,8.67508068917128,0.46,0.4866666666666667,-0.6755555555555556,0.07991443829422312,0.0625,0.003074569267950425
1589988819.7311792,-0.09,-4.562470068361219,8.624940136722438,0.46,0.4866666666666667,-0.6755555555555556,-0.32793792725761983,-0.007718963628809916,-0.007718963628809916
1589988819.7411792,-0.08495611909761482,-4.5850438809023855,8.670087761804771,0.46,0.4866666666666667,-0.6755555555555556,-0.24835446616055565,0.06359702255962957,-0.0625
1589988819.7511792,-0.08,-4.579814538293406,8.710556385119782,0.4464193843912081,0.48327151276446867,-0.6755555555555556,0.001159135666212202,0.02835216083446948,-0.0625
1589988819.7611792,-0.073128499589857,-4.576871500410143,8.719385498769572,0.43333333333333335,0.48,-0.6755555555555556,-0.02339375512678768,-0.21089375512678768,-0.0625
1589988819.7711792,-0.06236781556302057,-4.564735631126041,8.648942524504166,0.43333333333333335,0.48,-0.6755555555555556,-0.0625,-0.20229884726887856,-0.0625
1589988819.7811792,-0.06,-4.592321045644848,8.58959869294394,0.43333333333333335,0.48,-0.6755555555555556,-0.2140049014602267,-0.08649673235984888,-0.11300163382007555
1589988819.7911792,-0.06,-4.5741840407979595,8.657447877606119,0.43333333333333335,0.48,-0.6755555555555556,-0.08865025498725065,-0.022162563746812664,-0.08466256374681266
1589988819.8011792,-0.08076208792859933,-4.587682783904799,8.7138413919524,0.44179196174868857,0.48845862841535526,-0.6640210622618893,0.12976304955374585,-0.08650869970249722,-0.14900869970249722
1589988819.8111792,-0.08199171277697768,-4.559958563884888,8.744024861669066,0.4455555555555555,0.4922222222222222,-0.6588888888888889,0.38770718057555775,-0.07494820485611056,-0.13744820485611056
1589988819.8211792,-0.06816333622936577,-4.544081668114683,8.673061685490877,0.4455555555555555,0.4922222222222222,-0.6588888888888889,0.21556255430060817,0.04846872284969592,0.02295829713292788
1589988819.8311791,-0.07238414818294689,-4.558576222274421,8.650960370457367,0.4455555555555555,0.4922222222222222,-0.6588888888888889,-0.05360138921512701,0.008898610784872987,0.04759907385658199
1589988819.8411791,-0.08,-4.57,8.67,0.4455555555555555,0.4922222222222222,-0.6588888888888889,-0.125,-0.09028534582970067,-0.02778534582970067
1589988819.8511791,-0.07845225210223962,-4.566904504204479,8.679286487386562,0.4486510513510763,0.491362362279022,-0.66353213258217,-0.09597972691699276,-0.11532657563899759,-0.0625
1589988819.861179,-0.08296097750890959,-4.56296097750891,8.691117067473272,0.4655555555555556,0.4866666666666667,-0.6888888888888889,0.021996945284657544,-0.0625,-0.14350610943068492
1589988819.871179,-0.07750062101515277,-4.563750310507576,8.626252173553034,0.4655555555555556,0.4866666666666667,-0.6888888888888889,-0.0390605593276476,0.09374223731059039,-0.0703183220170572
1589988819.881179,-0.060957188401396696,-4.569042811598603,8.604521405799302,0.4655555555555556,0.4866666666666667,-0.6888888888888889,-0.11901757249127068,-0.01031150371944739,-0.05651757249127068
1589988819.891179,-0.06220824902723736,-4.571861167315175,8.638485914396886,0.4655555555555556,0.4866666666666667,-0.6888888888888889,-0.1875,-0.22456614785992218,-0.09956614785992218
1589988819.901179,-0.07058061064932927,-4.56,8.694129084026006,0.45613616620488484,0.4866666666666667,-0.6784229007214769,0.018549142045922146,-0.21693559172084603,-0.0625
1589988819.911179,-0.0722643291646201,-4.55386783541769,8.71,0.4455555555555555,0.4866666666666667,-0.6666666666666666,0.25,-0.25,-0.0625
1589988819.921179,-0.08,-4.55,8.666712403577037,0.4455555555555555,0.4866666666666667,-0.6666666666666666,0.21618156529455934,-0.11472626117823742,-0.09631843470544064
1589988819.931179,-0.0681765699249892,-4.561823430075011,8.647735145112517,0.4455555555555555,0.4866666666666667,-0.6666666666666666,-0.034189313906452495,0.0,-0.125
1589988819.941179,-0.07246733221310665,-4.563766333893446,8.678700998319659,0.4455555555555555,0.4866666666666667,-0.6666666666666666,-0.22646041316595827,0.0,-0.08603958683404171
1589988819.951179,-0.07331981206408499,-4.58672075174366,8.70336037587183,0.4455555555555555,0.48221320804272333,-0.6726046114985911,-0.20824882540053113,0.0,-0.020748825400531128
1589988819.961179,-0.07,-4.56435002682466,8.724259989270136,0.4455555555555555,0.48,-0.6755555555555556,-0.009250134123300113,0.04456246646917497,0.0
1589988819.971179,-0.07697930157534086,-4.55,8.64624838109591,0.4455555555555555,0.48,-0.6755555555555556,-0.02474126969176066,0.14974126969176066,-0.04362063484588033
1589988819.981179,-0.05852770539357884,-4.557157431535473,8.652944589212842,0.4455555555555555,0.48,-0.6755555555555556,-0.0625,0.14276605290328925,-0.10723394709671075
1589988819.991179,-0.06272371911210387,-4.564241239704034,8.67848247940807,0.4455555555555555,0.48,-0.6755555555555556,-0.0625,0.04547675554935082,-0.07198450369956721
1589988820.001179,-0.07970800151687524,-4.57,8.690583996966248,0.44597733114229127,0.4801946656554165,-0.6753284456242363,-0.05702502844141069,-0.06432499051952976,0.0
1589988820.011179,-0.07,-4.5529927423224565,8.692992742322456,0.46,0.4866666666666667,-0.6677777777777778,0.2312953604846449,-0.018704639515355087,-0.07086357365642994
1589988820.021179,-0.06446405926045211,-4.54,8.641248414823163,0.46,0.4866666666666667,-0.6677777777777778,0.17410148151130256,-0.04129888886652308,-0.02120111113347692
1589988820.031179,-0.06776812733346434,-4.547768127333464,8.625536254666928,0.46,0.4866666666666667,-0.6677777777777778,0.0625,-0.1735507958341521,0.0625
1589988820.041179,-0.07015858095815646,-4.56,8.672963311097636,0.46,0.4866666666666667,-0.6677777777777778,0.0009911309884778619,-0.20899408732565192,0.04199704366282596
1589988820.051179,-0.05,-4.576368036737479,8.71181598163126,0.45727199387708667,0.48393866054375334,-0.6677777777777778,-0.17615011480462528,-0.022699770390749427,-0.10230022960925057
1589988820.061179,-0.0707811165463157,-4.589609441726842,8.7,0.4533333333333333,0.48,-0.6677777777777778,-0.08764752698190853,0.09252950539638172,-0.08764752698190853
1589988820.071179,-0.0802170532376005,-4.565325579856401,8.655976739569201,0.4533333333333333,0.48,-0.6677777777777778,0.03192829136750157,0.03192829136750157,0.0013565827350031368
1589988820.081179,-0.07,-4.558621858562244,8.635865575686733,0.4533333333333333,0.48,-0.6677777777777778,0.02694330800701344,0.0,0.018329924021040334
1589988820.091179,-0.06513314346742613,-4.565133143467426,8.684600569597722,0.4533333333333333,0.48,-0.6677777777777778,-0.028753559985760055,0.0,0.125
1589988820.101179,-0.07030145816138034,-4.554849270919309,8.7,0.44589339132789196,0.48,-0.6677777777777778,-0.06061588649137287,-0.03219205675431357,0.06061588649137287
1589988820.1111789,-0.07331971929507865,-4.5633605614098425,8.673278877180314,0.4388888888888889,0.48,-0.6677777777777778,0.08350350881151702,-0.10425175440575851,-0.04175175440575851
1589988820.1211789,-0.0764356108051899,-4.5764356108051905,8.62782194597405,0.4388888888888889,0.48,-0.6677777777777778,0.24566770259731052,-0.004332297402689464,-0.10272256753243683
1589988820.1311789,-0.08,-4.555645117417717,8.61608872064557,0.4388888888888889,0.48,-0.6677777777777778,0.3125,-0.013609008069634596,-0.0869454959651827
1589988820.1411788,-0.0751837690206789,-4.554448692937964,8.672978540772531,0.4388888888888889,0.48,-0.6677777777777778,0.13189133827545846,-0.09260144362075692,-0.002297112758486146
1589988820.1511788,-0.07,-4.559649855228604,8.724824927614302,0.4423389371460208,0.48,-0.675252882334897,-0.19187680964244833,-0.125,0.03015579758938792
1589988820.1611788,-0.07,-4.563569550581124,8.699645674128314,0.4455555555555555,0.48,-0.6822222222222222,-0.015666081037914337,-0.125,-0.16961938226404893
1589988820.1711788,-0.0762692533292781,-4.57,8.633576720036496,0.4455555555555555,0.48,-0.6822222222222222,0.04663433338402381,-0.0858171666920119,-0.09326866676804763
1589988820.1811788,-0.06725200072051671,-4.57,8.657365996757674,0.4455555555555555,0.48,-0.6822222222222222,0.03983749774838527,-0.10233749774838527,0.0
1589988820.1911788,-0.05479469975891005,-4.57,8.695205300241089,0.4455555555555555,0.48,-0.6822222222222222,0.029966873493187808,-0.125,-0.03253312650681219
1589988820.2011788,-0.05681805814269868,-4.57340902907135,8.703409029071349,0.4432828695079893,0.48,-0.6799495361746559,0.02130643169593336,-0.1889192950878001,0.0014192950878000737
1589988820.2111788,-0.07,-4.575869590989923,8.718260818020156,0.4388888888888889,0.48,-0.6755555555555556,0.03668494368701837,-0.20923977474807348,0.021739774748073495
1589988820.2211788,-0.07920379839298758,-4.565398100803506,8.67017531044558,0.4388888888888889,0.48,-0.6755555555555556,0.057523739956172396,-0.0337381300219138,-0.125
1589988820.2311788,-0.08218390804597701,-4.563908045977011,8.619540229885057,0.4388888888888889,0.48,-0.6755555555555556,0.10057471264367816,0.02442528735632184,-0.05172413793103449
1589988820.2411788,-0.0657751586582049,-4.565775158658205,8.66689936536718,0.4388888888888889,0.48,-0.6755555555555556,0.036094741613780595,0.036094741613780595,0.00968948322756119
1589988820.2511787,-0.0651475477118818,-4.5548524522881175,8.697721321567823,0.4406047381261828,0.48,-0.6735537314453793,-0.03217217319926124,0.0,-0.0625
1589988820.2611787,-0.07154485668197047,-4.548455143318029,8.715772428340985,0.4455555555555555,0.48,-0.6677777777777778,-0.125,0.0,-0.03607767713115771
1589988820.2711787,-0.0633952360266435,-4.57018570807993,8.672652403706921,0.4455555555555555,0.48,-0.6677777777777778,-0.10377977483347814,-0.04244045033304373,-0.08488090066608746
1589988820.2811787,-0.06583705161086323,-4.585837051610863,8.616651793556548,0.4455555555555555,0.48,-0.6677777777777778,-0.11453685486420967,-0.125,-0.19796314513579033
1589988820.2911787,-0.06220688781970119,-4.58,8.651034439098506,0.4455555555555555,0.48,-0.6677777777777778,-0.17370695112686757,-0.09741390225373513,-0.06982780450747025
1589988820.3011787,-0.07,-4.572315420078442,8.700246106562076,0.44754785405373715,0.48,-0.6731854451299851,-0.10899045849675451,-0.01600954150324549,0.09298091699350902
1589988820.3111787,-0.06637872615829749,-4.557242547683405,8.73,0.4533333333333333,0.48,-0.6888888888888889,-0.0625,-0.03986703848935927,-0.022632961510640728
1589988820.3211787,-0.06581225770721802,-4.57,8.671877422927821,0.4533333333333333,0.48,-0.6888888888888889,0.08280644268045043,0.0,-0.0625
1589988820.3311787,-0.07,-4.57,8.660086738822578,0.4533333333333333,0.48,-0.6888888888888889,0.22510842352822172,0.0,-0.0625
1589988820.3411787,-0.06522617094951705,-4.5556785128485515,8.694321487151448,0.4533333333333333,0.48,-0.6888888888888889,0.19032713686896302,-0.20885502095862948,-0.0028271368689630066
1589988820.3511786,-0.06402469360514501,-4.54,8.714024693605145,0.4475198870147905,0.4826831290700967,-0.6835226307486956,0.09984566496784371,-0.2865739898070623,0.0625
1589988820.3611786,-0.07,-4.553627230775514,8.697287948707478,0.4388888888888889,0.4866666666666667,-0.6755555555555556,-0.022670192346959606,-0.0625,0.005719871768693589
1589988820.3711786,-0.07,-4.565882719056124,8.645296314336743,0.4388888888888889,0.4866666666666667,-0.6755555555555556,-0.125,-0.036766994100773935,-0.0625
1589988820.3811786,-0.07,-4.564169211721007,8.618338423442014,0.4388888888888889,0.4866666666666667,-0.6755555555555556,-0.125,-0.026057573256293848,-0.0625
1589988820.3911786,-0.07,-4.574607409152879,8.648429636611517,0.4388888888888889,0.4866666666666667,-0.6755555555555556,-0.09620369279450625,-0.0625,-0.0625
1589988820.4011786,-0.07,-4.588726541329339,8.704906165317356,0.4388888888888889,0.4866666666666667,-0.6755555555555556,-0.007959116691633142,-0.0625,-0.0625
1589988820.4111786,-0.07190356122813281,-4.57,8.714289316315602,0.46,0.5066666666666667,-0.6755555555555556,0.03870548464833988,-0.11310274232416993,-0.03569177302749019
1589988820.4211786,-0.07775199650363543,-4.565503993007271,8.66976796853272,0.46,0.5066666666666667,-0.6755555555555556,-0.0765500218522786,-0.0765500218522786,-0.1593999562954428
1589988820.4311786,-0.07419603441825665,-4.554196034418256,8.633568275346052,0.46,0.5066666666666667,-0.6755555555555556,-0.098774784885896,-0.072549569771792,-0.114950430228208
1589988820.4411786,-0.07185407234190756,-4.56,8.690861236877456,0.46,0.5066666666666667,-0.6755555555555556,-0.028558634757948155,-0.033941365242051845,-0.13658795213692224
1589988820.4511786,-0.05562229377151105,-4.562811146885755,8.722811146885757,0.458125902076163,0.5044802190888569,-0.6755555555555556,0.11520900410791607,-0.08986066392805594,0.0
1589988820.4611785,-0.07348421397618442,-4.563031572047631,8.73,0.4533333333333333,0.4988888888888889,-0.6755555555555556,0.11934197589308473,-0.021776337351152544,0.021776337351152544
1589988820.4711785,-0.07482439528277525,-4.565526814151674,8.652365929241629,0.4533333333333333,0.4988888888888889,-0.6755555555555556,-0.09265247051734526,-0.03015247051734527,-0.03454258844796419
1589988820.4811785,-0.08031949472794059,-4.5748402526360294,8.626437726275732,0.4533333333333333,0.4988888888888889,-0.6755555555555556,-0.1592452630744431,0.0,-0.15724842102481434
1589988820.4911785,-0.08143670037331013,-4.565718350186655,8.674281649813345,0.4533333333333333,0.4988888888888889,-0.6755555555555556,-0.19647937733318838,-0.02676031133340582,-0.10721906599978254
1589988820.5011785,-0.07,-4.563036982897237,8.695184914486186,0.4489465802595462,0.49686423362406407,-0.6796048660852052,-0.030094284461336065,-0.04351885689226721,-0.05694342932319836
