time,acc_x,acc_y,acc_z,mag_x,mag_y,mag_z,gyr_x,gyr_y,gyr_z
1589988826.4731467,-3.84,-0.91,9.03,0.3388888888888889,-0.3211111111111111,-0.5955555555555555,-1.0625,1.625,0.0
1589988826.4831467,-3.84,-0.9000646674246732,9.039935332575325,0.3532399248310277,-0.30676007516897225,-0.5955555555555555,-0.5657333712336555,0.5072750852757248,0.06209582859579306
1589988826.4931467,-3.8169549024007177,-0.8930450975992821,9.046297060803232,0.3533333333333333,-0.30666666666666664,-0.5955555555555555,-0.3083884900157056,0.024436280008974652,-0.0625
1589988826.5031466,-3.8,-0.91,8.967116411287527,0.3533333333333333,-0.30666666666666664,-0.5955555555555555,0.07151121472647853,-0.1875,-0.07151121472647853
1589988826.5131466,-3.8,-0.91,8.938035776190807,0.3533333333333333,-0.30666666666666664,-0.5955555555555555,0.16238819940373014,-0.1875,-0.16238819940373014
1589988826.5231466,-3.7830397005000975,-0.8845595507501467,8.913039700500098,0.3533333333333333,-0.30666666666666664,-0.5955555555555555,0.24050093593719443,-0.29350187187438886,-0.02849719218841673
1589988826.5331466,-3.81,-0.9064703690670862,8.91,0.3466666666666667,-0.3211111111111111,-0.5955555555555555,0.3125,-0.040439806669288564,0.022060193330711433
1589988826.5431466,-3.81,-0.8804247479870009,8.91,0.3466666666666667,-0.3211111111111111,-0.5955555555555555,0.3125,0.12234532508124443,0.18484532508124443
1589988826.5531466,-3.803038294113936,-0.880759573528484,8.89759573528484,0.3466666666666667,-0.3211111111111111,-0.5955555555555555,0.1685106617878998,0.1344946691060501,0.053005330893949903
1589988826.5631466,-3.8383193489369756,-0.8895798372342439,8.985798372342439,0.3466666666666667,-0.3211111111111111,-0.5955555555555555,-0.05199593085609741,0.24474796542804872,-0.057247965428048705
1589988826.5731466,-3.804490966064404,-0.881122741516101,9.016631775451696,0.3466666666666667,-0.3211111111111111,-0.5955555555555555,-0.11798286552436829,-0.13838005867057807,-0.22894859657310487
1589988826.5831466,-3.800054097002688,-0.8944744983348266,8.998948996669654,0.3322222222222222,-0.3144444444444445,-0.6166666666666667,-0.2013137541629334,-0.14605873751119977,-0.1319068770814667
1589988826.5931466,-3.7362387368349874,-0.8590215204638818,8.928043040927763,0.3322222222222222,-0.3144444444444445,-0.6166666666666667,-0.2899461988402955,0.11983859652088652,-0.17622309942014774
1589988826.6031466,-3.857929981378026,-0.912070018621974,8.987245065176909,0.3322222222222222,-0.3144444444444445,-0.6166666666666667,-0.5732495344506517,1.127092644320298,-0.0064688081936685295
1589988826.6131465,-3.842308752327747,-0.9276912476722533,9.041919366852888,0.3322222222222222,-0.3144444444444445,-0.6166666666666667,-0.18271880819366848,0.19958216945996288,-0.05528514897579144
1589988826.6231465,-3.7913369275172903,-0.9008021565103741,8.962406469531123,0.3322222222222222,-0.3144444444444445,-0.6166666666666667,0.6657749278440342,-1.4582210150846813,-0.12332884060338725
1589988826.6331465,-3.78,-0.8838715544983909,8.943064222750804,0.3388888888888889,-0.3022222222222222,-0.6233333333333333,0.9279243039037358,-1.4667430390373584,-0.04334860780747167
1589988826.6431465,-3.783785376565756,-0.8525235843771708,8.951167454679902,0.3388888888888889,-0.3022222222222222,-0.6233333333333333,0.8119103905707308,-0.8507517870347547,0.07038620117865865
1589988826.6531465,-3.81,-0.8722128500988662,8.894425700197733,0.3388888888888889,-0.3022222222222222,-0.6233333333333333,0.3565595825094486,-0.21772926939153506,0.1342202087452757
1589988826.6631465,-3.81,-0.8990508324681816,8.950949167531817,0.3388888888888889,-0.3022222222222222,-0.6233333333333333,0.10720310877840582,0.18156770292613528,0.23813540585227055
1589988826.6731465,-3.81,-0.8909870419502441,8.959012958049756,0.3388888888888889,-0.3022222222222222,-0.6233333333333333,-0.04399296343292192,0.13116901218902605,0.13733802437805206
1589988826.6831465,-3.8,-0.8993876319084243,8.99571342335897,0.3588888888888889,-0.3144444444444445,-0.5955555555555555,-0.25,-0.05101809828295475,0.0
1589988826.6931465,-3.8,-0.8900102843856198,8.930071990699338,0.3588888888888889,-0.3144444444444445,-0.5955555555555555,-0.25,0.12480716776962977,0.0
1589988826.7031465,-3.8093948972680063,-0.9093948972680064,8.89484082185595,0.3588888888888889,-0.3144444444444445,-0.5955555555555555,-0.1837181079250395,0.304936215850079,0.0037818920749604877
1589988826.7131464,-3.8,-0.9000515041373444,8.970257520686722,0.3588888888888889,-0.3144444444444445,-0.5955555555555555,-0.125,0.18717809914159772,0.0625
1589988826.7231464,-3.8,-0.9065387054365479,9.002693527182739,0.3588888888888889,-0.3144444444444445,-0.5955555555555555,-0.125,0.14663309102157607,0.0625
1589988826.7331464,-3.8080032726528943,-0.91,9.028003272652894,0.3428823435831004,-0.31977995954637395,-0.5955555555555555,0.17512272448353444,0.024959091838821848,0.11252045408058908
1589988826.7431464,-3.8029514463399328,-0.9029514463399327,9.00180578535973,0.3388888888888889,-0.3211111111111111,-0.5955555555555555,0.25,0.044053460375420773,-0.007160381126262327
1589988826.7531464,-3.8,-0.8903240689882457,8.873888827858947,0.3388888888888889,-0.3211111111111111,-0.5955555555555555,0.25,-0.05844913764692959,0.11892370647039438
1589988826.7631464,-3.8,-0.8825780911062907,8.921953362255964,0.3388888888888889,-0.3211111111111111,-0.5955555555555555,0.1572261388286334,0.0302738611713666,0.125
1589988826.7731464,-3.7922183177780275,-0.8722183177780276,8.94,0.3388888888888889,-0.3211111111111111,-0.5955555555555555,-0.02090654166198133,0.1111355138873271,0.027728972225345788
1589988826.7831464,-3.79,-0.87,8.966129527317372,0.3514697724120682,-0.3278854330082077,-0.6013621171816383,-0.28024606097810517,0.3971825762226315,-0.10887303048905259
1589988826.7931464,-3.8007127573988804,-0.8914255147977611,8.975723455606717,0.3533333333333333,-0.3288888888888889,-0.6022222222222222,-0.625,0.910637869944027,0.008909467486006744
1589988826.8031464,-3.8078921962992758,-0.9057843925985519,8.932646822204344,0.3533333333333333,-0.3288888888888889,-0.6022222222222222,-0.625,1.2696098149637973,0.09865245374094932
1589988826.8131464,-3.800112421600726,-0.9099625261330915,8.970112421600726,0.3533333333333333,-0.3288888888888889,-0.6022222222222222,-0.3742973649954637,1.3106263066545698,-0.06203157666364246
1589988826.8231463,-3.824929785807266,-0.9016900713975781,8.994929785807265,0.3533333333333333,-0.3288888888888889,-0.6022222222222222,-0.2191888387045876,0.8970035698789003,0.04137410753027494
1589988826.8331463,-3.800154708319671,-0.8900515694398903,9.01989686112022,0.3533333333333333,-0.3067812654219784,-0.5955899351821491,-0.1253223089993144,0.6881446179986288,0.00032230899931439544
1589988826.8431463,-3.8,-0.89,8.980842766411213,0.3533333333333333,-0.30666666666666664,-0.5955555555555555,0.24209906489488858,0.6263168225175185,-0.06118317748248143
1589988826.8531463,-3.8198688127798617,-0.89,8.830983904151035,0.3533333333333333,-0.30666666666666664,-0.5955555555555555,0.31209003993706885,0.5629099600629311,0.12377011981120659
1589988826.8631463,-3.78006527851511,-0.8999347214848896,8.850522228120884,0.3533333333333333,-0.30666666666666664,-0.5955555555555555,-0.1274479443166401,0.8807118700721603,-0.061684018561119956
1589988826.8731463,-3.788312196464736,-0.8916878035352642,8.916497571717887,0.3533333333333333,-0.30666666666666664,-0.5955555555555555,-0.4367073674275939,1.6023171906643858,0.04140245580919799
1589988826.8831463,-3.833524341267509,-0.9011747804225031,9.002936951056258,0.3388888888888889,-0.30666666666666664,-0.5955555555555555,-0.9301576223593562,2.41914405589839,0.06617118882032194
1589988826.8931463,-3.874608678616907,-0.9148695595389689,9.037173898847422,0.3388888888888889,-0.30666666666666664,-0.5955555555555555,-0.8445652528814445,2.2051631322036114,0.10896737355927776
1589988826.9031463,-3.870814102329664,-0.92,8.944477562813152,0.3388888888888889,-0.30666666666666664,-0.5955555555555555,-0.21294069780199687,0.3263220934059905,-0.11482372087920126
1589988826.9131463,-3.82014652014652,-0.900058608058608,8.979882783882784,0.3388888888888889,-0.30666666666666664,-0.5955555555555555,0.6849358974358974,-1.2456043956043956,-0.24963369963369964
1589988826.9231462,-3.794858431018936,-0.8916194770063121,8.954858431018936,0.3388888888888889,-0.30666666666666664,-0.5955555555555555,0.6351217312894499,-1.4595130748422003,-0.25
1589988826.9331462,-3.7712986891166196,-0.89,8.93870131088338,0.3533333333333333,-0.3144444444444445,-0.6166666666666667,0.5300327720845156,-0.5681823511479024,0.05708879534741927
1589988826.9431462,-3.8,-0.89,8.907431126852122,0.3533333333333333,-0.3144444444444445,-0.6166666666666667,-0.20034436573939163,0.7147942771962073,-0.05928890856515209
1589988826.9531462,-3.8,-0.89,8.813411714599539,0.3533333333333333,-0.3144444444444445,-0.6166666666666667,-0.6704414270023089,1.7137505323799063,0.058235356750577214
1589988826.9631462,-3.830401350221424,-0.890200675110712,8.89086959214642,0.3533333333333333,-0.3144444444444445,-0.6166666666666667,-0.9383361462946331,2.2495819268526835,0.3091554148214673
1589988826.9731462,-3.8693685547056456,-0.9096842773528228,8.975298535195565,0.3533333333333333,-0.3144444444444445,-0.6166666666666667,-1.0195178223034282,2.2089910888482858,-0.015571289213712813
1589988826.9831462,-3.9060644662406903,-0.92,9.03606446624069,0.3533333333333333,-0.30819715201750936,-0.6166666666666667,-0.8114927149892149,1.0830679459525459,-0.237701457002157
1589988826.9931462,-3.9026335014094573,-0.92,9.047366498590543,0.3533333333333333,-0.30666666666666664,-0.6166666666666667,-0.15147198951840235,-0.43059663715408747,-0.25
1589988827.0031462,-3.851385027463213,-0.92,8.93332406591171,0.3533333333333333,-0.30666666666666664,-0.6166666666666667,0.6701871567098393,-2.0903743134196784,-0.006925137316064284
1589988827.0131462,-3.7772492481868034,-0.8927184680700513,8.93,0.3533333333333333,-0.30666666666666664,-0.6166666666666667,0.7443365248540598,-2.125,-0.11367304970811958
1589988827.0231462,-3.782512398333664,-0.89,8.93625619916683,0.3533333333333333,-0.30666666666666664,-0.6166666666666667,0.5544937760365007,-1.6166838176949017,-0.007696265621900414
1589988827.0331461,-3.797310752443737,-0.8973107524437373,8.976553762218686,0.3427733575812685,-0.3123528074562401,-0.5906728802000455,0.16334678335985453,-0.39865594453284847,-0.07457660832007273
1589988827.0431461,-3.8,-0.8903323807674167,8.883656188441584,0.3388888888888889,-0.3144444444444445,-0.5811111111111111,-0.2396131010182282,0.11876786061093694,0.05626786061093694
1589988827.0531461,-3.8156913715749137,-0.8978456857874569,8.856462942637629,0.3388888888888889,-0.3144444444444445,-0.5811111111111111,-0.4951776808580286,0.6643908978876629,0.0625
1589988827.063146,-3.831369685767098,-0.905684842883549,8.889793900184843,0.3388888888888889,-0.3144444444444445,-0.5811111111111111,-0.6690908040665434,0.8125,0.02696973197781885
1589988827.073146,-3.8522034120734907,-0.9161017060367455,8.956610236220472,0.3388888888888889,-0.3144444444444445,-0.5811111111111111,-0.6737286745406824,0.6980930118110236,-0.03813566272965879
1589988827.083146,-3.8101123497648492,-0.91,9.01,0.3588888888888889,-0.3288888888888889,-0.6088888888888889,-0.4367978139696917,-0.06390437206061662,0.06273406201010277
1589988827.093146,-3.837509362480404,-0.91,9.01,0.3588888888888889,-0.3288888888888889,-0.6088888888888889,-0.26556648449747433,-0.4063670310050514,0.11981117183417522
1589988827.103146,-3.8270244334036616,-0.91,8.958097733614647,0.3588888888888889,-0.3288888888888889,-0.6088888888888889,-0.08780541754577009,-0.4375,0.125
1589988827.113146,-3.777401407887369,-0.91,8.912960563154948,0.3588888888888889,-0.3288888888888889,-0.6088888888888889,0.1597447204223662,-0.4907482401407887,0.018503519718422526
1589988827.123146,-3.791988691902252,-0.9026704360325827,8.939318255869669,0.3588888888888889,-0.3288888888888889,-0.6088888888888889,0.1875,-0.22514135122184953,0.045809774796358414
1589988827.133146,-3.781110698991806,-0.8716660484877095,8.931110698991805,0.35364186083105725,-0.3152466159385269,-0.6172841337814194,-0.048616262602420995,0.347232525204842,0.1805581313012105
1589988827.143146,-3.7653705821488863,-0.87,8.937314708925557,0.3533333333333333,-0.3144444444444445,-0.6177777777777778,-0.3825185154931111,1.1521878233404128,0.09606613843053968
1589988827.153146,-3.8037959736740223,-0.887518389469609,8.869926442121564,0.3533333333333333,-0.3144444444444445,-0.6177777777777778,-0.9379597367402246,2.587144308943089,0.007755032907471933
1589988827.163146,-3.8542504704160567,-0.9077001881664227,8.904250470416057,0.3533333333333333,-0.3144444444444445,-0.6177777777777778,-1.719070144260924,3.635009408321137,-0.05531308802007108
1589988827.173146,-3.8914365838113447,-0.9257182919056725,9.004309751434034,0.3533333333333333,-0.3144444444444445,-0.6177777777777778,-1.9598589866156788,3.6026410133843214,0.08485898661567876
1589988827.183146,-3.9,-0.93,9.039557888422316,0.3395274945010998,-0.3144444444444445,-0.5891041125108312,-1.462368776244751,1.9496063287342533,0.0652631973605279
1589988827.193146,-3.8372754245732126,-0.9120786927352036,8.968314770940815,0.3388888888888889,-0.3144444444444445,-0.5877777777777777,-0.6534428071651572,0.47489786993778105,0.006495914797511236
1589988827.203146,-3.8483176788787805,-0.9191588394393903,8.92336464224244,0.3388888888888889,-0.3144444444444445,-0.5877777777777777,-0.27628626751905583,-0.03095647897713305,-0.05724274649618884
1589988827.213146,-3.85,-0.9111083925768627,8.95556642969255,0.3388888888888889,-0.3144444444444445,-0.5877777777777777,-0.13885490721078386,-0.0625,-0.11807254639460807
1589988827.223146,-3.8204197196559413,-0.91,8.96,0.3388888888888889,-0.3144444444444445,-0.5877777777777777,0.10609594018795795,-0.10871918803759159,-0.03256162392481682
1589988827.233146,-3.8022540125610607,-0.8945080251221215,8.936762037683183,0.34491354578584166,-0.30841978754749166,-0.5938024346747305,0.13908757850662945,-0.27023726448011165,-0.14523726448011165
1589988827.243146,-3.81419653815227,-0.8970982690761353,8.937098269076134,0.3466666666666667,-0.30666666666666664,-0.5955555555555555,-0.14118509035507215,0.3085985441618351,-0.23186418172584536
1589988827.253146,-3.845027705128773,-0.9,8.871173810895874,0.3466666666666667,-0.30666666666666664,-0.5955555555555555,-0.484634735582251,0.640711578527417,-0.3673173677911255
1589988827.263146,-3.878615104572978,-0.9093075522864891,8.988228388870315,0.3466666666666667,-0.30666666666666664,-0.5955555555555555,-0.7413444035811138,0.5711555964188862,-0.3793277982094431
1589988827.273146,-3.8574865536659693,-0.9212567231670155,9.011256723167016,0.3466666666666667,-0.30666666666666664,-0.5955555555555555,-0.6092909604123075,0.35143644061846113,-0.26946822030923057
1589988827.283146,-3.8231172176899957,-0.9173379132674968,9.011558608844998,0.3433839034397214,-0.30994942989361196,-0.5955555555555555,-0.315344568484328,0.0028445684843280417,-0.10836195792185488
1589988827.293146,-3.8,-0.9,8.955140820332678,0.3388888888888889,-0.3144444444444445,-0.5955555555555555,-0.09754623411509453,0.03036987292075627,0.035046234115094534
1589988827.303146,-3.792279123586279,-0.907720876413721,8.873674741517673,0.3388888888888889,-0.3144444444444445,-0.5955555555555555,-0.4145328655145385,0.9255766862005896,0.1107554775857564
1589988827.3131459,-3.85974892954457,-0.8973183764464419,8.872681623553559,0.3388888888888889,-0.3144444444444445,-0.5955555555555555,-0.5792601472097385,2.1553819137266004,0.2042601472097385
1589988827.3231459,-3.8688733384083855,-0.9273519939099373,8.960929320138197,0.3388888888888889,-0.3144444444444445,-0.5955555555555555,-1.0918999238742169,2.866724980968554,0.4056333079580723
1589988827.3331459,-3.7705434973723797,-0.9216226776329928,8.975947213159591,0.3388888888888889,-0.3144444444444445,-0.5911413054095767,-1.0912267763299275,2.6891984292886866,0.7483015707113134
1589988827.3431458,-3.5951057658842185,-0.8846807687845625,8.888723075138248,0.3388888888888889,-0.3144444444444445,-0.5877777777777777,-0.5877644147105456,1.877656231872849,1.559843768127151
1589988827.3531458,-3.359535616684287,-0.8227244619097963,8.77692725060342,0.3388888888888889,-0.3144444444444445,-0.5877777777777777,-0.6789860565318865,1.5085139434681136,2.01847908479783
1589988827.3631458,-2.9834626511600995,-0.8,8.828159752357807,0.3388888888888889,-0.3144444444444445,-0.5877777777777777,-1.9020876728577214,1.8382261470809467,2.225181536770237
1589988827.3731458,-2.11923555030311,-0.8460639485260324,9.026578469349792,0.3388888888888889,-0.3144444444444445,-0.5877777777777777,-2.8112826362900227,3.137081992865428,1.1463845665638064
1589988827.3831458,-1.9093416164580277,-0.7328529953485468,9.060438922361316,0.3388888888888889,-0.3068373586960669,-0.5877777777777777,-2.2053312209284175,3.5,-2.7329453220116755
1589988827.3931458,-1.91,-0.73,9.06,0.3388888888888889,-0.30666666666666664,-0.5877777777777777,-2.1875,3.5,-2.8125
1589988827.4031458,-1.9002587720204043,-0.73186055637017,9.012378100410979,0.3388888888888889,-0.30666666666666664,-0.5877777777777777,-0.3646145267549204,1.217226255137234,-9.832896625431115
1589988827.4131458,-1.6874055154543772,-1.1568513788635941,8.95813585045345,0.3388888888888889,-0.30666666666666664,-0.5877777777777777,0.4294720525633907,1.6608944105126782,-15.95167268184342
1589988827.4231458,-1.6989578292110756,-1.0937275800284463,8.706412989267967,0.3388888888888889,-0.30666666666666664,-0.5877777777777777,2.636270018656372,2.984215970593125,-21.46931049928884
1589988827.4331458,-1.8059668049792532,-1.0153360995850622,8.684622406639004,0.34562563393268786,-0.3102941447671738,-0.5976237897648686,3.2213692946058092,3.796213692946058,-25.0323132780083
1589988827.4431458,-1.9230269326943112,-1.0175752760991874,8.99725828297562,0.3533333333333333,-0.3144444444444445,-0.6088888888888889,0.2463354995832463,1.736826682642217,-30.077455915294852
1589988827.4531457,-1.9799331062753656,-1.026655517712561,8.976822752024146,0.3533333333333333,-0.3144444444444445,-0.6088888888888889,0.2073577998490812,1.8532608141455755,-32.85117038525075
1589988827.4631457,-2.039559401436398,-1.0250550748204503,8.9201101496409,0.3533333333333333,-0.3144444444444445,-0.6088888888888889,1.2108329945602727,2.6813040826993437,-35.14076020674836
1589988827.4731457,-2.1459371996155077,-1.04536046139058,8.981009291893624,0.3533333333333333,-0.3144444444444445,-0.6088888888888889,1.8423982697853252,3.18659884652355,-38.11582826017302
1589988827.4831457,-2.225655069445809,-1.0960917824096812,9.029126574072256,0.3498544290120425,-0.31038572273627185,-0.5943934542168439,1.456467447891087,2.9945410879515943,-41.12527748855667
1589988827.4931457,-2.24,-1.099326260569997,8.996217507046664,0.3466666666666667,-0.30666666666666664,-0.5811111111111111,1.3597811619166928,3.1764920333542124,-44.2658819096461
1589988827.5031457,-2.2274445654782786,-1.1151108690434428,8.864445654782784,0.3466666666666667,-0.30666666666666664,-0.5811111111111111,1.7513858630430368,3.5479143972822778,-46.553457849454425
1589988827.5131457,-2.2610761542571582,-1.1094619228714209,8.776307948580946,0.3466666666666667,-0.30666666666666664,-0.5811111111111111,1.6807740358927616,3.858650642738159,-49.448520052173365
1589988827.5231457,-2.2922569864592335,-1.1245139729184672,8.812899452607317,0.3466666666666667,-0.30666666666666664,-0.5811111111111111,1.5625,3.7842876692595793,-51.71560789397868
1589988827.5331457,-2.3222064419679262,-1.1622064419679259,8.899217178581136,0.3754527951436078,-0.2926848328350095,-0.596737866570022,1.6550268415330254,3.8725536830660507,-54.042929464528406
1589988827.5431457,-2.33,-1.1973212116384202,8.93366060581921,0.3855555555555555,-0.2877777777777778,-0.6022222222222222,1.7301893931850318,4.108257572740127,-56.14200754784618
1589988827.5531456,-2.322884131671041,-1.2384634733158355,8.911536526684165,0.3855555555555555,-0.2877777777777778,-0.6022222222222222,1.883422531167979,4.098551645888014,-58.29817366579178
1589988827.5631456,-2.342409346150186,-1.25,8.944818692300371,0.3855555555555555,-0.2877777777777778,-0.6022222222222222,1.9375,4.155872275625773,-60.36895641001237
1589988827.5731456,-2.3633005281864654,-1.2766010563729309,8.964433509395489,0.3855555555555555,-0.2877777777777778,-0.6022222222222222,2.020628301165409,4.353756602330818,-61.62315471048868
1589988827.5831456,-2.376052325799318,-1.314934592750853,8.970986918550171,0.3855555555555555,-0.2877777777777778,-0.6015642765221085,2.1558412046928295,4.568668240938566,-62.72287426440271
1589988827.5931456,-2.382375524286294,-1.3660536463266135,8.973946353673387,0.3855555555555555,-0.2877777777777778,-0.5955555555555555,2.323994131375998,4.700670579082668,-65.01987636990935
1589988827.6031456,-2.4162853702588802,-1.3825707405177603,8.863148705599038,0.3855555555555555,-0.2877777777777778,-0.5955555555555555,2.053582179409994,4.985701384708007,-66.46602197471402
1589988827.6131456,-2.4137135687586584,-1.4151457249653658,8.768567843793292,0.3855555555555555,-0.2877777777777778,-0.5955555555555555,2.0553705857751523,5.085709804741616,-67.78580390516768
1589988827.6231456,-2.426950091668364,-1.4469500916683642,8.78955021389285,0.3855555555555555,-0.2877777777777778,-0.5955555555555555,2.0543746180484823,5.133125381951517,-68.92094112853941
1589988827.6331456,-2.4610186206051696,-1.46,8.849426068847238,0.39443008425551607,-0.27937032953570995,-0.6011605210502674,1.9211801727306137,5.05613362121769,-69.85787241210339
1589988827.6431456,-2.5004145376311038,-1.4547927311844482,8.905621806446655,0.4066666666666667,-0.2677777777777778,-0.6088888888888889,1.9752271504859964,4.8424545699028005,-70.86059059126359
1589988827.6531456,-2.4935972985008164,-1.4828054029983673,8.887194597001633,0.4066666666666667,-0.2677777777777778,-0.6088888888888889,2.125,4.6758108208401366,-71.62589524268962
1589988827.6631455,-2.5030278727320536,-1.5272709045490402,8.906055745464107,0.4066666666666667,-0.2677777777777778,-0.6088888888888889,2.2329431534315014,4.7064242045753355,-72.40525366486985
1589988827.6731455,-2.5028119820033154,-1.5457293393322282,8.94,0.4066666666666667,-0.2677777777777778,-0.6088888888888889,2.3125,4.991541854132134,-73.17970044991712
1589988827.6831455,-2.477781155015198,-1.604984802431611,8.9461094224924,0.4297467071935157,-0.2562377575143533,-0.6048159405606214,2.4652355623100304,5.315919452887538,-73.76728723404256
1589988827.6931455,-2.4765777243771394,-1.6663108975085579,8.923689102491442,0.4444444444444444,-0.2488888888888889,-0.6022222222222222,2.603610777357122,5.273056890571513,-74.55416166035683
1589988827.7031455,-2.485576859160781,-1.685576859160781,8.837500830909846,0.4444444444444444,-0.2488888888888889,-0.6022222222222222,2.625,5.396632218529289,-75.4326859160781
1589988827.7131455,-2.49,-1.69,8.785295007564295,0.4444444444444444,-0.2488888888888889,-0.6022222222222222,2.4595310136157336,5.4632186081694405,-76.3052193645991
1589988827.7231455,-2.4781791613086392,-1.7136416773827219,8.809701397818934,0.4444444444444444,-0.2488888888888889,-0.6022222222222222,2.2878732527263312,5.350373252726332,-77.03227446183136
1589988827.7331455,-2.461977630199231,-1.7579105207969241,8.851865781195386,0.4510365451085479,-0.24361520835760614,-0.6050787991766671,2.225279622509612,5.287779622509612,-77.73554264243272
1589988827.7431455,-2.47,-1.784392807582155,8.9,0.4777777777777778,-0.2222222222222222,-0.6166666666666667,2.125,5.292634857834598,-78.92812933656145
1589988827.7531455,-2.4540931353342215,-1.7853022882219263,8.852279406002665,0.4777777777777778,-0.2222222222222222,-0.6166666666666667,2.4232537124833478,5.474417904161116,-79.77645021941854
1589988827.7631454,-2.4188328865584587,-1.8746684537661649,8.841750670162313,0.4777777777777778,-0.2222222222222222,-0.6166666666666667,2.720573614752408,5.628647229504816,-80.61745699178131
1589988827.7731454,-2.4,-1.9291531990925699,8.896058501134288,0.4777777777777778,-0.2222222222222222,-0.6166666666666667,2.9128656320892974,5.785219379253578,-81.35830439059646
1589988827.7831454,-2.4,-1.943109455922991,8.923310945592299,0.49065367730338544,-0.2089784398530258,-0.6236564406948537,3.0418065900481306,5.895693409951869,-81.9565143293743
1589988827.7931454,-2.410015602942269,-2.0140062411769075,8.927996879411547,0.5166666666666667,-0.18222222222222226,-0.6377777777777778,3.0,5.9750585110335095,-82.68779255516755
1589988827.8031454,-2.4360410898027554,-2.0648972754931116,8.874633541858953,0.5166666666666667,-0.18222222222222226,-0.6377777777777778,2.95637840563361,6.059567608450416,-83.74285116056473
1589988827.8131454,-2.4059774553804405,-2.1326816964130395,8.787318303586959,0.5166666666666667,-0.18222222222222226,-0.6377777777777778,2.866619698709251,5.962640903872247,-84.42144391677974
1589988827.8231454,-2.373802827137614,-2.165492932155965,8.794788691449543,0.5166666666666667,-0.18222222222222226,-0.6377777777777778,2.831866165194956,6.1830984955848685,-85.47359097350922
1589988827.8331454,-2.3470372037817704,-2.2064813981091147,8.825694757090819,0.5195472880484955,-0.17718113480402192,-0.6449793312323496,2.9256359227274586,6.3226271845454916,-86.47279806000081
1589988827.8431454,-2.2751358270838526,-2.303234247909917,8.787555112490654,0.5344444444444445,-0.1511111111111111,-0.6822222222222222,3.2787032421777647,6.375,-88.32422485669619
1589988827.8531454,-2.2590910634444508,-2.402726809666648,8.858182126888902,0.5344444444444445,-0.1511111111111111,-0.6822222222222222,2.6250106118059877,6.068186159375177,-90.32384578923538
1589988827.8631454,-2.2389162508833165,-2.4244581254416584,8.806748752649948,0.5344444444444445,-0.1511111111111111,-0.6822222222222222,2.6234608878134438,6.2974140238549,-92.58728505963725
1589988827.8731453,-2.2257232806268097,-2.449937035612334,8.801383596865952,0.5344444444444445,-0.1511111111111111,-0.6822222222222222,3.392294960824408,6.928065464741968,-94.49803236288543
1589988827.8831453,-2.210075962841107,-2.4866919876137024,8.856464099090381,0.5370173429671204,-0.13567371997505537,-0.6917787024493043,3.625949535513838,7.22932492258564,-96.65970340623186
1589988827.8931453,-2.185026467925054,-2.519788256599568,8.900052935850109,0.5422222222222223,-0.10444444444444444,-0.7111111111111111,3.219577122657937,7.280753726405238,-99.92989047154698
1589988827.9031453,-2.173761197414673,-2.5911940129266355,8.777701553464112,0.5422222222222223,-0.10444444444444444,-0.7111111111111111,3.2184700646331783,7.608955096949767,-102.93470064633178
1589988827.9131453,-2.1750838011226947,-2.5845809943865277,8.755754210104252,0.5422222222222223,-0.10444444444444444,-0.7111111111111111,3.3125,7.654678728949479,-104.98708149558941
1589988827.9231453,-2.155697279702395,-2.584302720297605,8.812151360148803,0.5422222222222223,-0.10444444444444444,-0.7111111111111111,3.2618693327133226,7.537184666356661,-106.94853667751686
1589988827.9331453,-2.104774702085402,-2.604774702085402,8.80462450347567,0.5456056217587996,-0.07737724815182612,-0.7111111111111111,3.0289031467229393,7.880632447864945,-109.67737167949355
1589988827.9431453,-2.096276903076701,-2.6590459338437094,8.773723096923298,0.5488888888888889,-0.05111111111111112,-0.7111111111111111,2.875,8.25,-111.0625
1589988827.9531453,-2.1038736010533245,-2.7116208031599736,8.735137590520079,0.5488888888888889,-0.05111111111111112,-0.7111111111111111,2.8992100065832784,8.371050032916392,-111.28039005924951
1589988827.9631453,-2.109931544737934,-2.7301140921034435,8.68018254736551,0.5488888888888889,-0.05111111111111112,-0.7111111111111111,2.9387835361637396,8.563070460517217,-111.62713922693956
1589988827.9731452,-2.0675494785719724,-2.799920834284844,8.764980208571211,0.5488888888888889,-0.05111111111111112,-0.7111111111111111,3.5155631517850345,8.796936848214965,-112.57806315178503
1589988827.9831452,-2.0284308266632918,-2.859215413331646,8.786276693346831,0.5504580622255968,-0.04675229628692251,-0.7120700503724327,3.5281743332595146,8.754903666677212,-112.62009633332279
1589988827.9931452,-2.0073997037277542,-2.8604011850889832,8.86,0.5688888888888889,0.004444444444444445,-0.7233333333333334,3.141251851701536,8.828751851701536,-112.49749259319385
1589988828.0031452,-1.9942207061471375,-2.89770572513715,8.831103530735687,0.5688888888888889,0.004444444444444445,-0.7233333333333334,3.151379413419609,8.887040195526797,-112.2763794134196
1589988828.0131452,-1.9454543607550514,-2.951039119352813,8.731039119352813,0.5688888888888889,0.004444444444444445,-0.7233333333333334,2.8246740053932253,9.025162997303388,-112.0811685013483
1589988828.0231452,-1.890285452515246,-2.997771637987803,8.756399633521344,0.5688888888888889,0.004444444444444445,-0.7233333333333334,2.5121431843559425,9.1875,-111.86642497208463
1589988828.0331452,-1.85,-3.060246981218908,8.724197584975126,0.5772908281163633,0.004444444444444445,-0.7367764360972926,2.411265093905459,9.1875,-111.08564764085818
1589988828.0431452,-1.85,-3.1406890720777847,8.787126048051856,0.5966666666666667,0.004444444444444445,-0.7677777777777778,2.0847689001620515,9.232037800324104,-110.16165979708308
1589988828.0531452,-1.805610979583226,-3.1877431377604837,8.700124704062258,0.5966666666666667,0.004444444444444445,-0.7677777777777778,1.986284311197581,9.416536766601814,-108.43181125618246
1589988828.0631452,-1.7550770431051297,-3.229897275859827,8.64984591378974,0.5966666666666667,0.004444444444444445,-0.7677777777777778,1.7506420258760809,9.562178987061959,-107.0032101293804
1589988828.0731452,-1.7478459510909357,-3.2539229755454677,8.707460828818276,0.5966666666666667,0.004444444444444445,-0.7677777777777778,1.6985557914775224,9.649518597159174,-105.68847927954313
1589988828.0831451,-1.7319847896942417,-3.2760086916032902,8.75,0.6015582113232276,0.002221015055098557,-0.75577125907531,1.6874320968492937,9.537418516219153,-103.99966048424646
1589988828.0931451,-1.6811815842819273,-3.313227623577109,8.75,0.6088888888888889,-0.0011111111111111113,-0.7377777777777778,1.3070971561671605,8.899136763215344,-102.18065842819273
1589988828.1031451,-1.6591802208562259,-3.3336065930479246,8.721147255616602,0.6088888888888889,-0.0011111111111111113,-0.7377777777777778,1.0174175869009412,8.239752760702823,-100.40880501006365
1589988828.113145,-1.6550857096101133,-3.3324571451949434,8.677542854805056,0.6088888888888889,-0.0011111111111111113,-0.7377777777777778,1.1260713701264164,7.670000102278771,-98.44857167696273
1589988828.123145,-1.6684113594353889,-3.3257943202823053,8.699657200470508,0.6088888888888889,-0.0011111111111111113,-0.7377777777777778,1.4857860023525458,7.076713997647454,-96.71456898000336
1589988828.133145,-1.6261230045370527,-3.3469384977314736,8.734897496219123,0.6088888888888889,-0.0011111111111111113,-0.7377777777777778,1.6619874810956141,6.900512518904386,-95.21685641068729
1589988828.143145,-1.608156606162938,-3.407373575348248,8.724608484592656,0.5866666666666667,-0.03555555555555556,-0.7677777777777778,1.5336969712959054,5.965436365555086,-92.51381516462642
1589988828.153145,-1.5904516673701985,-3.4781933305192063,8.768870831574503,0.5866666666666667,-0.03555555555555556,-0.7677777777777778,1.25705730265935,5.63346876319122,-90.24536988180667
1589988828.163145,-1.55,-3.512830919470602,8.633971033647228,0.5866666666666667,-0.03555555555555556,-0.7677777777777778,1.9823067533087357,6.259420259926207,-86.32880389889311
1589988828.173145,-1.5491554567785706,-3.525911802550006,8.714932740671424,0.5866666666666667,-0.03555555555555556,-0.7677777777777778,1.9322216048660663,6.114443209732133,-84.04330184816938
1589988828.183145,-1.54,-3.59,8.692075227816197,0.5747020975606253,-0.024609247650028372,-0.7392664641633814,1.917957894396691,5.8854456149421575,-80.3231193045951
1589988828.193145,-1.5247225372076543,-3.598729978738483,8.782540042523035,0.5344444444444445,0.012222222222222223,-0.6433333333333333,2.117062367115521,5.47271881644224,-76.82020508504607
1589988828.203145,-1.460623909455317,-3.6159358641829757,8.696559773638294,0.5344444444444445,0.012222222222222223,-0.6433333333333333,2.2538994340957323,5.169898019335062,-72.09158217401556
1589988828.213145,-1.445715924888016,-3.5871477746640483,8.64857962444008,0.5344444444444445,0.012222222222222223,-0.6433333333333333,1.7323170193517068,4.5894188971513055,-68.33992089410623
1589988828.223145,-1.433657967576117,-3.6017101621194145,8.613657967576117,0.5344444444444445,0.012222222222222223,-0.6433333333333333,1.2835508105970739,4.065543446026097,-64.59894844800316
1589988828.233145,-1.402291866028708,-3.6649405331510594,8.635416267942583,0.530790385053543,0.03948712690817954,-0.630684666210982,1.6566216678058783,3.842634996582365,-60.126687457279566
1589988828.243145,-1.35,-3.6383517949312765,8.767179145160355,0.52,0.12,-0.5933333333333334,1.5315961549614336,3.538232906106826,-54.6593653946529
1589988828.253145,-1.2363245033112584,-3.438119205298013,8.725555345316936,0.52,0.12,-0.5933333333333334,-0.07105014191106895,4.636754966887417,-49.7558715704825
1589988828.263145,-1.1191095211621667,-3.3031819390394235,8.396150201832201,0.52,0.12,-0.5933333333333334,3.3610303715162786,1.2926687776461767,-43.95280510502526
1589988828.273145,-1.2592522122163867,-3.5747528442782115,8.369264853452883,0.52,0.12,-0.5933333333333334,6.887199770633234,-1.1824312877119363,-39.94977877836133
1589988828.283145,-1.2975148892914392,-3.623947714803279,8.626171399528236,0.52,0.12,-0.5933333333333334,1.6944078818761152,5.411047886828353,-36.12351107085608
1589988828.293145,-1.2333752066115702,-3.4983087603305787,9.05558347107438,0.5333333333333333,0.18444444444444444,-0.5866666666666667,-0.8961404958677686,-1.0471280991735537,-30.69811570247934
1589988828.303145,-1.3753778381798158,-3.833044731354125,9.351445274972468,0.5333333333333333,0.18444444444444444,-0.5866666666666667,1.4379129859174733,2.067911287110153,-23.462216182018416
1589988828.313145,-1.3570779131863617,-3.864155826372724,9.413689066137204,0.5333333333333333,0.18444444444444444,-0.5866666666666667,0.1386972819389292,0.1264966024236615,-19.641918346912227
1589988828.323145,-1.2422127892646857,-3.6344255785293713,8.674244830891414,0.5333333333333333,0.18444444444444444,-0.5866666666666667,0.6771275503217855,0.799534437902232,-16.007514035327947
1589988828.333145,-1.1468753841148187,-3.4715111528867357,8.427188460287047,0.5363194871238687,0.1963890596065861,-0.5881597435619343,1.375,0.0475240410686526,-10.715156266946241
1589988828.343145,-1.237854741332562,-3.645888254220744,8.654636853331406,0.5464283045925069,0.23682432948113868,-0.5932141522962535,1.375,-0.42632677777376093,-7.635125944470555
1589988828.353145,-1.3240801843655121,-3.8066404506712517,8.939761495409153,0.5466666666666666,0.23777777777777775,-0.5933333333333334,0.7614976954311007,-0.4829992318103669,-2.6785080659911475
1589988828.3631449,-1.2622671729894348,-3.6511335864947174,8.456274767830958,0.5466666666666666,0.23777777777777775,-0.5933333333333334,1.442056434936271,-0.7641698311839681,0.5288401887430914
1589988828.3731449,-1.2892907502361355,-3.6878722507084065,8.836004419106734,0.5466666666666666,0.23777777777777775,-0.5933333333333334,0.6161343779516935,-0.9137114593172312,4.887555238834166
1589988828.3831449,-1.3079783508436804,-3.7427220630372493,9.026144539955428,0.5474753263291945,0.2384965863666914,-0.5927043758180339,0.852256446991404,-1.0050541228907992,7.706542502387775
1589988828.3931448,-1.2875467325814924,-3.5936114850698506,8.668568118117014,0.5666666666666667,0.25555555555555554,-0.5777777777777777,0.287904703052239,-1.247976484738805,12.428550738231335
1589988828.4031448,-1.3198871926348912,-3.640112807365109,8.868646311618694,0.5666666666666667,0.25555555555555554,-0.5777777777777777,0.018248164549586277,-1.563910092063862,15.385575690478966
1589988828.4131448,-1.3081422885172083,-3.7088537311032486,8.700566500482472,0.5666666666666667,0.25555555555555554,-0.5777777777777777,-0.25090588814731424,-1.7276844946124155,17.996376447410743
1589988828.4231448,-1.3172903401630207,-3.8244659713103584,8.850458836062732,0.5666666666666667,0.25555555555555554,-0.5777777777777777,0.20586923667715482,-1.6059138319748285,20.44130763322845
1589988828.4331448,-1.2552291697173819,-3.7254312490847856,8.66787084492605,0.5680203706415451,0.25657083353671434,-0.5801467597338149,-0.0720182310733636,-2.278554693220091,23.486692780787816
1589988828.4431448,-1.3408497905445842,-3.697450628366248,8.982351885098744,0.5755555555555556,0.26222222222222225,-0.5933333333333334,-0.1595227408737283,-2.448122381807301,25.577012268102933
1589988828.4531448,-1.341769343601027,-3.69469196919692,8.757912410288649,0.5755555555555556,0.26222222222222225,-0.5933333333333334,-0.7258941667976322,-2.6712226282152023,27.817098525328724
1589988828.4631448,-1.3301464343242055,-3.7763982037389563,8.690292868648411,0.5755555555555556,0.26222222222222225,-0.5933333333333334,-0.20863840484209498,-2.6459096012105237,29.940016839947283
1589988828.4731448,-1.4012880631566451,-3.6358079578955698,8.806440315783226,0.5755555555555556,0.26222222222222225,-0.5933333333333334,-0.39314986842365607,-2.705649868423656,32.0566446053699
1589988828.4831448,-1.3891453071816762,-3.647713673204581,8.709145307181675,0.5800011909910927,0.26349240377523286,-0.5967628235264619,-0.5303820260638998,-2.7928686274141077,34.246528104255596
1589988828.4931448,-1.4522447674746601,-3.631938808131335,8.772244767474659,0.6106745397446265,0.2722562177048139,-0.6204251211363309,-1.1712359196645166,-3.0886473475374694,36.809943678658065
1589988828.5031447,-1.4695044901711214,-3.6671080823080184,8.783801796068449,0.6144444444444445,0.2733333333333333,-0.6233333333333333,-1.300619387286098,-3.1875,41.09662043911752
1589988828.5131447,-1.5065775703577995,-3.733839626644039,8.79863102814312,0.6144444444444445,0.2733333333333333,-0.6233333333333333,-1.2542780370527506,-3.1875,44.15514955451845
1589988828.5231447,-1.5092195572730709,-3.74650942999958,8.815728987272651,0.6144444444444445,0.2733333333333333,-0.6233333333333333,-1.5442753181837274,-3.6334691477296595,50.37114084092914
1589988828.5331447,-1.5843025258323766,-3.66,8.789960773057789,0.6334074286686228,0.2660031041374325,-0.6254049198452183,-1.9554271909682357,-4.214635954841179,55.324650784538846
1589988828.5431447,-1.612427929885557,-3.6502882804577723,8.763991018397798,0.7466666666666667,0.2222222222222222,-0.6377777777777778,-2.047325438215269,-4.841047370708388,61.7067579313342
1589988828.5531447,-1.6191791008740162,-3.6232835965039354,8.858507412236225,0.7466666666666667,0.2222222222222222,-0.6377777777777778,-2.005130619537399,-5.094216282775605,65.75746052440968
1589988828.5631447,-1.6327127088762838,-3.597447493484593,8.785585620113446,0.7466666666666667,0.2222222222222222,-0.6377777777777778,-2.1579075961980685,-5.618681013337421,74.03121646481681
1589988828.5731447,-1.6270892651019622,-3.4945071181223546,8.683849942285494,0.7466666666666667,0.2222222222222222,-0.6377777777777778,-2.7015847441323584,-6.002053674490188,79.61971190842632
1589988828.5831447,-1.592434026030057,-3.449188657989981,8.591358788140266,0.7953471872678028,0.21771476661100592,-0.6567090913448863,-2.572641775125237,-6.202712662687855,83.69953680400758
1589988828.5931447,-1.6238500333555705,-3.444812541694463,8.732512608405605,1.346666666666667,0.16666666666666666,-0.8711111111111111,-2.7175783855903934,-6.387031354236157,87.66375250166777
1589988828.6031446,-1.668428358948934,-3.508963807635102,8.807858205255329,1.346666666666667,0.16666666666666666,-0.8711111111111111,-3.0395079325731285,-6.51316931085771,90.82275656916212
1589988828.6131446,-1.7,-3.5723094627474192,8.64230946274742,1.346666666666667,0.16666666666666666,-0.8711111111111111,-3.1274176777142104,-6.550483535542842,92.76436221805747
1589988828.6231446,-1.7,-3.5447280857499837,8.614728085749983,1.346666666666667,0.16666666666666666,-0.8711111111111111,-2.9119381699217466,-6.507387633984349,93.71247205234431
1589988828.6331446,-1.742860153256705,-3.5114300766283524,8.724290229885058,1.3075779054916987,0.10040644955300126,-0.8685687526607067,-2.8481860632183906,-6.866127873563219,94.62493414750958
1589988828.6431446,-1.7568947011288631,-3.523105298871137,8.787263586453642,1.0733333333333333,-0.2966666666666667,-0.8533333333333334,-2.726316235889211,-7.1292756461661835,94.11414317438776
1589988828.6531446,-1.7544285338246908,-3.514500131613582,8.854500131613582,1.0733333333333333,-0.2966666666666667,-0.8533333333333334,-2.7294649907870494,-7.013839168202159,93.49419913135036
1589988828.6631446,-1.7436477558501342,-3.441553429095094,8.82371701973488,1.0733333333333333,-0.2966666666666667,-0.8533333333333334,-2.4045596948126677,-6.848388016282341,91.73266404884703
1589988828.6731446,-1.6578737132443482,-3.375448455893218,8.811179136088263,1.0733333333333333,-0.2966666666666667,-0.8533333333333334,-2.100289981776092,-6.189368566221741,89.59644818499729
1589988828.6831446,-1.58901196867458,-3.292814362409496,8.36357779638477,1.0733333333333333,-0.2966666666666667,-0.8533333333333334,-0.8952094518051519,-5.8450598433729,87.65971161897257
1589988828.6931446,-1.6026550195380185,-3.3280533680675886,8.3597350716394,0.9443258487386924,-0.1737064079123996,-0.8009240427167605,-0.9026564535210257,-5.704645806197196,83.45131030197292
1589988828.7031446,-1.6477641814944493,-3.40824743376791,8.525135332146315,0.7661168138490893,-0.0038509215332465097,-0.7285266222928591,-1.372543557233847,-5.641994192368821,78.37652958187445
1589988828.7131445,-1.6228333690589865,-3.4658333495722666,8.679833388545706,0.7177777777777777,0.042222222222222223,-0.7088888888888889,-2.2645833739306664,-4.930208313034667,69.04166382485336
1589988828.7231445,-1.712739832803944,-3.5066999240017926,8.818779741606095,0.7177777777777777,0.042222222222222223,-0.7088888888888889,-2.366749810004482,-4.879125094997759,61.89001329968626
1589988828.7331445,-1.670965894068917,-3.432272847448665,8.717727152551335,0.7133239329044387,0.04469061817612095,-0.7081912987280045,-1.2025920948268265,-3.731889486207808,51.46875826209571
1589988828.7431445,-1.6875548782049639,-3.28,8.860219512819855,0.6255555555555555,0.09333333333333334,-0.6944444444444444,-1.3930259214671756,-3.2680259214671756,38.35621205911734
1589988828.7531445,-1.67774549932988,-3.27774549932988,8.789418987937841,0.6255555555555555,0.09333333333333334,-0.6944444444444444,-0.8793218205527583,-2.571143641105517,27.623005487738617
1589988828.7631445,-1.6701490563987393,-3.2701490563987394,8.65268301517731,0.6255555555555555,0.09333333333333334,-0.6944444444444444,-0.26211083239758026,-1.3367216647951605,18.982051653566124
1589988828.7731445,-1.7544807604908348,-3.236721140736252,8.740163422208758,0.6255555555555555,0.09333333333333334,-0.6944444444444444,-0.22848574079684897,-0.9494595989244055,4.653069847371611
1589988828.7831445,-1.77,-3.259688276485204,8.809064829455613,0.6258672790703511,0.09312551765680295,-0.6955527947192731,0.08198271967472329,-0.09577592048791507,-4.475688954145019
1589988828.7931445,-1.7843117856113726,-3.25,8.791449428489098,0.6355555555555555,0.08666666666666667,-0.73,0.7948383920852944,1.0450665161848045,-18.344695514359813
1589988828.8031445,-1.8282284675301355,-3.25,8.79257177489955,0.6355555555555555,0.08666666666666667,-0.73,1.1482132034389099,1.847854328941166,-28.441394587981772
1589988828.8131444,-1.8346283351608188,-3.236824287280702,8.730979760599416,0.6355555555555555,0.08666666666666667,-0.73,1.471072905244883,2.492398802997076,-37.52513220714547
1589988828.8231444,-1.784278565012557,-3.192852376675038,8.77,0.6355555555555555,0.08666666666666667,-0.73,1.8392410313284817,2.830118833751902,-45.6587780242342
1589988828.8331444,-1.807344869938223,-3.208229913292149,8.77,0.6355555555555555,0.08666666666666667,-0.73,1.9834054371138934,3.5989956646074317,-51.90590227493538
1589988828.8431444,-1.7744584432717678,-3.21307305408971,8.79385389182058,0.5433333333333333,0.04444444444444445,-0.68,2.4009760471635886,4.1039041886543535,-61.19379638027704
1589988828.8531444,-1.7467915567282322,-3.1784894459102904,8.86302110817942,0.5433333333333333,0.04444444444444445,-0.68,2.5306645778364114,4.6226583113456465,-65.90581299472295
1589988828.8631444,-22.770729506069607,-16.02610910873389,-5.744443643493556,0.5433333333333333,0.04444444444444445,-0.68,-38.839463611199214,140.19242524725354,-88.7124794556097
1589988828.8731444,3.249279527074182,1.693821174925079,1.1951270577609918,0.5433333333333333,0.04444444444444445,-0.68,-15.422436265856563,-63.087937210066094,-170.82342255429205
1589988828.8831444,0.30614332512374165,-0.2271884938188948,-0.07432223045838215,0.5467767123906384,0.055856786462941274,-0.6767533854602552,-4.869465997943617,-7.469049640132948,-176.35349166686592
1589988828.8931444,-0.5969158878504673,-0.5726168224299065,0.1666355140186916,0.5822222222222222,0.17333333333333334,-0.6433333333333333,-4.337908878504673,2.0984228971962615,-165.69392523364485
1589988828.9031444,-0.11088634163974952,-0.27936739857970777,0.009746259780542698,0.5822222222222222,0.17333333333333334,-0.6433333333333333,-0.7784801823757828,0.0972799596534395,-151.15358950289772
1589988828.9131444,-0.08154086546870809,-0.24513100971349278,0.07332812481779914,0.5822222222222222,0.17333333333333334,-0.6433333333333333,-0.8701847954102873,3.429214233240436,-139.17085339972246
1589988828.9231443,-0.08239105562134928,-0.22223910556213494,0.24091170035528614,0.5822222222222222,0.17333333333333334,-0.6433333333333333,-0.9934776390533732,6.434776390533732,-127.22625780324776
1589988828.9331443,0.7190007723498745,-0.5571191349681406,2.643819270129369,0.5794082941794855,0.18036815344017507,-0.6411056402995001,5.757186474222823,8.928992083413787,-114.76264119521143
1589988828.9431443,5.775517735849056,-2.555864150943396,14.131809811320755,0.5555555555555556,0.24,-0.6222222222222222,88.83342924528301,5.099495283018868,-97.12033018867925
1589988828.9531443,-0.6538404704908828,-0.33225581464077786,-0.502740491178296,0.5555555555555556,0.24,-0.6222222222222222,144.98427387179714,-18.192603510949553,-82.00379946508261
1589988828.9631443,0.7423860978576107,0.6530940686687249,-0.4592920291888858,0.5555555555555556,0.24,-0.6222222222222222,31.447393348301993,-8.472487779492937,-50.54650078351576
1589988828.9731443,0.5681101505696455,0.7395410392931432,0.8398110723077803,0.5555555555555556,0.24,-0.6222222222222222,-15.199919848857846,19.984037756913036,-35.778685044178545
1589988828.9831443,0.5200847312074197,0.9396469533024179,5.282162363313677,0.5555555555555556,0.24,-0.6222222222222222,-80.63455372989065,37.8434905822408,-23.27206541859888
1589988828.9931443,-0.10764429243266352,-0.34197092774690035,0.8483482969930171,0.5288888888888889,0.2255555555555556,-0.64,-79.26343166595412,-6.560212400836065,-12.990585364115718
1589988829.0031443,0.3410919178165708,-2.2961505476863047,9.725160038205948,0.5288888888888889,0.2255555555555556,-0.64,1.3142134249192186,-5.693789755522588,-7.935439825634564
1589988829.0131443,0.28142540695429513,-4.1458123844168515,16.390761680248747,0.5288888888888889,0.2255555555555556,-0.64,34.39716275123458,30.265937773081063,4.637146391773529
1589988829.0231442,-0.5005946940985382,-2.2589219274499186,7.003011586356253,0.5288888888888889,0.2255555555555556,-0.64,27.624742826204656,7.155192203573362,8.460734975636166
1589988829.0331442,-0.34924186848689487,-2.259423081594481,7.743639079845508,0.5287076757813027,0.22630054277563208,-0.6396979781540231,-12.25605612505162,-12.143537299293124,9.818879502999975
1589988829.0431442,-0.8545198075666687,-2.793502999346677,10.68887034507335,0.5188888888888888,0.26666666666666666,-0.6233333333333333,-40.754573261269826,-6.061438350062363,17.510950585021085
1589988829.0531442,-0.931508970727101,-3.077353163361662,10.536139124960656,0.5188888888888888,0.26666666666666666,-0.6233333333333333,10.889223323890462,1.2366521089077747,31.03108868429336
1589988829.0631442,-0.8522965061378659,-2.166409820585458,6.364282656594272,0.5188888888888888,0.26666666666666666,-0.6233333333333333,23.26617091595845,4.124606547056972,37.05453651243311
1589988829.0731442,-1.161443895794313,-3.0047352290141323,10.062635790907542,0.5188888888888888,0.26666666666666666,-0.6233333333333333,-5.280819002213519,-5.288619530052784,42.43419036267666
1589988829.0831442,-1.2487309154889608,-3.3459481241841194,11.760765083148874,0.5188888888888888,0.26666666666666666,-0.6233333333333333,-23.630931097111073,-7.966743997956751,46.69935155230149
1589988829.0931442,-1.0413243551315068,-2.4701150420061637,7.486007303584244,0.5377777777777778,0.2611111111111111,-0.64,7.399112646177228,-1.4931608055051293,60.67262897369865
1589988829.1031442,-1.0561392714635087,-2.410959711674604,7.4100978246878615,0.5377777777777778,0.2611111111111111,-0.64,5.630536426824559,-0.48186864461320633,67.41292154717466
1589988829.1131442,-1.38,-3.26,10.78,0.5377777777777778,0.2611111111111111,-0.64,-10.5625,-7.8125,70.75
1589988829.1231441,-1.3808313421930845,-3.237553760786714,10.653635986651132,0.5377777777777778,0.2611111111111111,-0.64,-9.351857931320472,-7.667015116210186,71.90868318161174
1589988829.1331441,-1.389113761576588,-3.0139284374321202,9.394708240358602,0.5377777777777778,0.2611111111111111,-0.64,2.7094152959064797,-6.217591724097075,83.45230519736972
1589988829.1431441,-1.2245659666815598,-2.6701145720303825,8.605430522754835,0.5455555555555556,0.2344444444444445,-0.6233333333333333,-4.27962237505585,-5.3305554669049595,90.44218740026808
1589988829.1531441,-1.391888204506287,-3.0114519371928257,9.595978170677219,0.5455555555555556,0.2344444444444445,-0.6233333333333333,-4.907080766898576,-8.007711272100593,93.45398768111316
1589988829.163144,-1.4204575539568345,-2.9527453237410075,9.073421582733813,0.5455555555555556,0.2344444444444445,-0.6233333333333333,-1.1860071942446044,-5.060053956834532,100.47003597122303
1589988829.173144,-1.417455484185706,-3.069244857305472,9.225035978534839,0.5455555555555556,0.2344444444444445,-0.6233333333333333,-3.172228179120254,-8.993386149280429,104.52582399991869
1589988829.183144,-1.127581917229043,-3.4187982762826246,8.022913244979266,0.5455555555555556,0.2344444444444445,-0.6233333333333333,-2.4795156110252865,-7.821103341735101,108.09595800471583
1589988829.193144,-20.2,-29.34,4.95,0.5577777777777778,0.2344444444444445,-0.6677777777777778,-21.9375,22.5625,73.875
1589988829.203144,-10.107759277439623,-15.725571961515806,6.668827410170822,0.5577777777777778,0.2344444444444445,-0.6677777777777778,-25.136820145297467,-9.225240526212449,6.190300412330643
1589988829.213144,1.3676595889943333,0.012411415306888773,13.774362668123164,0.5577777777777778,0.2344444444444445,-0.6677777777777778,7.652932341093738,-6.335653205434561,-73.89029323410938
1589988829.223144,-0.1164607036043536,0.7026143125828631,0.402313384515771,0.5577777777777778,0.2344444444444445,-0.6677777777777778,62.52302438873986,29.0259130361052,-72.02691317485278
1589988829.233144,0.4525560386026578,-0.02805491320568554,4.281972990472666,0.5577777777777778,0.2344444444444445,-0.6677777777777778,26.71699927542935,-4.032019856319181,-65.27792198532359
1589988829.243144,-1.43775956284153,-2.1147477113050885,11.608924135973316,0.5909256499420434,0.20129657228017883,-0.6827732437568503,-25.118275849833225,-0.4914927968206655,-54.735673479525936
1589988829.253144,-1.2469614633645054,-2.4073318261227006,9.798858699003187,0.6044444444444445,0.18777777777777774,-0.6888888888888889,-14.10910363785839,10.429894152707842,-43.196806597472
1589988829.263144,-1.1073091219983646,-2.0603150323396027,7.7627390156865665,0.6044444444444445,0.18777777777777774,-0.6888888888888889,10.965160582856294,10.30235437885659,-28.41674410824474
1589988829.273144,-1.0605360196267937,-2.239611924763958,8.331811761207346,0.6044444444444445,0.18777777777777774,-0.6888888888888889,-2.676994275518549,1.4349537209129437,-25.883201063117983
1589988829.283144,-2.8968064952638697,-6.026378890392422,9.049219215155617,0.6044444444444445,0.18777777777777774,-0.6888888888888889,-3.4964563599458724,-2.156469891745602,-20.970306156968878
1589988829.293144,-13.46,-18.83,7.13,0.5777777777777777,0.22666666666666666,-0.6755555555555556,1.4375,6.375,-21.6875
1589988829.303144,-8.475661552483672,-12.861421844144004,8.38908400425338,0.5777777777777777,0.22666666666666666,-0.6755555555555556,2.574946832751025,2.6144614917210998,-30.97278026735531
1589988829.313144,-0.007398200059014461,-2.4339820005901442,9.545206181764533,0.5777777777777777,0.22666666666666666,-0.6755555555555556,6.435731871496016,-0.7139573804957213,-47.971195872676304
1589988829.323144,-1.1043399750933998,-2.7106320049813197,9.784987546699876,0.5777777777777777,0.22666666666666666,-0.6755555555555556,-3.4719411581569126,4.549229452054794,-45.65076276463263
1589988829.333144,-2.000452067707693,-4.072676544120661,9.333961022992746,0.5777777777777777,0.22666666666666666,-0.6755555555555556,-5.906547143325546,3.0721648428214268,-39.45655687733104
1589988829.343144,-1.8587339637856464,-5.155128656256872,8.515901326882194,0.5777777777777777,0.2342608476081096,-0.6820648535053637,6.29546495858075,3.4778700241917746,-36.278031302690415
1589988829.353144,-0.87,-3.49,8.98,0.5777777777777777,0.2344444444444445,-0.6822222222222222,1.5,-0.0625,-41.4375
1589988829.363144,-1.2468349297176267,-3.5547685035452172,8.956447816892648,0.5777777777777777,0.2344444444444445,-0.6822222222222222,1.3159985694738152,2.513520027366588,-40.55429313347431
1589988829.373144,-1.8503794642857145,-3.8836495535714284,8.22142113095238,0.5777777777777777,0.2344444444444445,-0.6822222222222222,-0.17165411086309512,3.1306268601190474,-37.69194103422619
1589988829.383144,-1.7458984702768992,-4.213519654037307,8.369418124314207,0.5777777777777777,0.2344444444444445,-0.6822222222222222,1.0971547634415544,2.7359170270444717,-36.58275108113342
1589988829.393144,-1.5685519641135288,-4.079947595690269,8.830062885171676,0.5777777777777777,0.2506377488040172,-0.694605337320719,2.080403932419402,2.455338427032239,-36.812631010774325
1589988829.403144,-1.5759373422620049,-4.062421677827507,8.915937342262005,0.5777777777777777,0.2533333333333333,-0.6966666666666667,1.760256124440556,2.5185541945687655,-36.89697290271562
1589988829.4131439,-1.6583543070552893,-4.105632865145734,8.442975562231062,0.5777777777777777,0.2533333333333333,-0.6966666666666667,1.135285580904441,2.66930360477389,-36.02057116180888
1589988829.4231439,-1.6328530615209549,-4.230727550056897,8.58288163087427,0.5777777777777777,0.2533333333333333,-0.6966666666666667,0.017742355276856303,2.6875,-35.410663269011934
1589988829.4331439,-1.533922639456341,-4.1759484263042275,8.535948426304227,0.5777777777777777,0.2533333333333333,-0.6966666666666667,0.18770145974911207,2.6374597080501774,-35.8253626275484
1589988829.4431438,-1.5034621313536976,-4.1992272118778144,8.676908847511257,0.5567113121396923,0.26205049152840315,-0.6777794905773487,0.8220635065514583,2.50241496288183,-36.550425185590846
1589988829.4531438,-1.527886692327815,-4.247886692327815,8.76,0.5455555555555556,0.26666666666666666,-0.6677777777777778,1.9383618595612693,2.3213054486341043,-37.97884823797601
1589988829.4631438,-1.3924145629400653,-4.171379750251466,8.632242094158633,0.5455555555555556,0.26666666666666666,-0.6677777777777778,1.570045509187704,2.8652986310443804,-39.29094140232085
1589988829.4731438,-1.3803604319573652,-4.150720863914731,8.620360431957364,0.5455555555555556,0.26666666666666666,-0.6677777777777778,1.1407688981347297,3.0557419007994016,-40.45719870506288
1589988829.4831438,-1.4426627115686617,-4.204829872622579,8.635665677892165,0.5455555555555556,0.26666666666666666,-0.6677777777777778,1.2718657302390508,3.160410486826034,-41.821791572151454
1589988829.4931438,-1.370530448438318,-4.166318269062991,8.711575641249347,0.5624553597394288,0.29052521374978185,-0.6866657942185773,1.6480108183563078,2.963826121095795,-43.64138021287734
1589988829.5031438,-1.2858744166928602,-4.141468604173215,8.72,0.5644444444444444,0.2933333333333333,-0.6888888888888889,1.9191424478348122,3.1112318358761093,-45.433997134843686
1589988829.5131438,-1.3279526006268267,-4.194802972144944,8.7953540866993,0.5644444444444444,0.2933333333333333,-0.6888888888888889,1.5093517801176182,3.2962592879529526,-46.76131501567067
1589988829.5231438,-1.25700604484431,-4.211546004076755,8.703190061151332,0.5644444444444444,0.2933333333333333,-0.6888888888888889,1.0483126273986083,3.480674949040557,-48.58059938848668
1589988829.5331438,-1.229014834537847,-4.215492582731076,8.658029669075693,0.5644444444444444,0.2933333333333333,-0.6888888888888889,0.8626854317230886,3.6029859262076833,-49.87668790414606
1589988829.5431437,-1.2111807343446745,-4.22,8.631180734344674,0.5566050971952663,0.30509235420710046,-0.6830093784520053,0.9429214362102428,3.715060205172892,-51.82484800174278
1589988829.5531437,-1.1648900804289544,-4.228777479892762,8.830659517426273,0.5466666666666666,0.32,-0.6755555555555556,1.9006702412868632,3.969436997319035,-55.65616621983914
1589988829.5631437,-1.0793956846719037,-4.197758273868762,8.682670506278189,0.5466666666666666,0.32,-0.6755555555555556,2.4533992737205415,4.0,-57.964730186122345
1589988829.5731437,-1.0421397958813061,-4.201906802745796,8.711440816474775,0.5466666666666666,0.32,-0.6755555555555556,2.3020386899357135,4.223252551483674,-59.70259779174082
1589988829.5831437,-0.993183520599251,-4.2038639200998755,8.698639200998752,0.5466666666666666,0.32,-0.6755555555555556,2.0482990012484397,4.566752496878902,-61.94311797752809
1589988829.5931437,-0.9443743769774195,-4.232032028778225,8.730470463312097,0.5331420322936381,0.3242709371704301,-0.6648782126294803,2.040040035972782,4.727540035972782,-64.3740614029385
1589988829.6031437,-0.8938011633301217,-4.2319005816650614,8.724751454162652,0.5255555555555556,0.32666666666666666,-0.6588888888888889,2.2887427291867395,4.919682046890054,-67.56898797416407
1589988829.6131437,-0.8485289459792363,-4.216176315326412,8.671617103642443,0.5255555555555556,0.32666666666666666,-0.6588888888888889,2.571694087629773,4.980699014604962,-70.01564974485306
1589988829.6231437,-0.7964412725709372,-4.159661908856406,8.725507136715391,0.5255555555555556,0.32666666666666666,-0.6588888888888889,2.163144883920894,5.262177558039553,-73.25472699914016
1589988829.6331437,-0.7313328085022633,-4.208667191497737,8.732666601062784,0.5255555555555556,0.32666666666666666,-0.6588888888888889,1.9249987699271798,5.3125,-75.7958521944499
1589988829.6431437,-0.701976829612885,-4.238023170387115,8.705930488838655,0.5255555555555556,0.36945690873128,-0.6722608395340806,1.7747103701610625,5.613368889516813,-79.11988556089291
1589988829.6531436,-0.6024598781225287,-4.280641717448947,8.683743313020422,0.5255555555555556,0.38,-0.6755555555555556,2.1564171744894636,5.941510734055915,-82.74732666185979
1589988829.6631436,-0.5326261355695318,-4.242626135569532,8.703686932215234,0.5255555555555556,0.38,-0.6755555555555556,2.9902166317260654,6.197391101793618,-86.39836652690427
1589988829.6731436,-0.49360840450699706,-4.223402101126749,8.736391595493004,0.5255555555555556,0.38,-0.6755555555555556,3.1875,6.414947471831268,-89.3730540017643
1589988829.6831436,-0.4455477574106327,-4.245839181942025,8.745693469676329,0.5255555555555556,0.38,-0.6755555555555556,3.160584185477057,6.6345790726147165,-91.79195909710127
1589988829.6931436,-0.4,-4.2687231533732,8.7136873578708,0.5209612847075998,0.3845942708479557,-0.6692906407628887,3.054519708582498,6.9769540133075045,-94.53371094079003
1589988829.7031436,-0.35341158283473134,-4.296588417165268,8.662235263805789,0.5133333333333333,0.3922222222222223,-0.6588888888888889,3.0830888036414645,7.152940797572357,-98.53089125704962
1589988829.7131436,-0.23933449984271785,-4.3234220666876375,8.633155866624724,0.5133333333333333,0.3922222222222223,-0.6588888888888889,3.334719791994338,7.292775833595471,-101.11692208634791
1589988829.7231436,-0.20833434326296144,-4.281108417965436,8.693337373051845,0.5133333333333333,0.3922222222222223,-0.6588888888888889,3.4375,7.413196548464503,-103.85773777783164
1589988829.7331436,-0.20015933813390532,-4.243386446044635,8.720159338133906,0.5133333333333333,0.3922222222222223,-0.6588888888888889,3.354830575557939,7.644173561105153,-107.06673561105153
1589988829.7431436,-0.1158476194264349,-4.308448351298676,8.698591941450221,0.49495368344757784,0.40363028077200147,-0.6601564509499754,3.062948719223579,7.85695054890418,-109.23015567200986
1589988829.7531435,0.00937400530503979,-4.460206896551725,8.682291777188329,0.4811111111111111,0.4122222222222222,-0.6611111111111111,3.1158819628647216,7.841147214854112,-111.89320291777189
1589988829.7631435,-0.773117628694325,-5.473663452199251,8.399842687664771,0.4811111111111111,0.4122222222222222,-0.6611111111111111,3.3042322134730124,8.007053689121687,-114.03284025079783
1589988829.7731435,1.9753631127401625,-1.1356648004188985,11.262136786563017,0.4811111111111111,0.4122222222222222,-0.6611111111111111,-0.0798475450114795,9.344357957062876,-98.94512023200548
1589988829.7831435,2.6031760283984133,-1.2266517018166632,9.17569534349551,0.4811111111111111,0.4122222222222222,-0.6611111111111111,-1.280638790283288,-1.408375095705436,-15.541977709333892
1589988829.7931435,1.0223109919571045,-2.590471849865952,7.039575335120643,0.455167709264224,0.4537316651772416,-0.6723532519114289,15.719932975871313,-0.7107886505808763,33.05925826630921
1589988829.8031435,0.3658462200082427,-3.1614548354149123,8.499524790796853,0.4477777777777778,0.4655555555555556,-0.6755555555555556,4.253768568459154,-0.853900496353504,9.36767229021449
1589988829.8131435,-1.734428408225438,-6.993950875856816,7.803801218583397,0.4477777777777778,0.4655555555555556,-0.6755555555555556,-12.174988099771516,1.644778179741051,-17.308882330540747
1589988829.8231435,-0.42433578292820795,-5.894019219898247,8.407145279819106,0.4477777777777778,0.4655555555555556,-0.6755555555555556,-1.5933436970039576,2.551936122102883,-22.20113764838892
1589988829.8331435,0.21618642703862662,-3.941722907725322,8.584378487124463,0.4477777777777778,0.4655555555555556,-0.6755555555555556,1.3808258449570814,0.5421958825107294,-5.771712379291845
1589988829.8431435,-0.1840872180451128,-4.721896541353383,8.743156691729324,0.4342690726817043,0.4655555555555556,-0.6682816374269006,0.6209511278195489,0.2135601503759399,1.9595112781954886
1589988829.8531435,-0.1644298005475166,-4.714716855690262,8.644003128666405,0.43333333333333335,0.4655555555555556,-0.6677777777777778,-0.07408828705514281,-0.19016669925694168,0.8607450136879156
1589988829.8631434,-0.06726765122395306,-4.509079910985232,8.556375480477442,0.43333333333333335,0.4655555555555556,-0.6677777777777778,-0.5510570503742667,-0.30105705037426667,-0.3067494436576978
1589988829.8731434,-0.052423623955609414,-4.549388991644876,8.63242362395561,0.43333333333333335,0.4655555555555556,-0.6677777777777778,0.06911912430639708,0.08617617513872058,0.10132382486127942
1589988829.8831434,-0.06602183274912368,-4.579890836254381,8.700218327491237,0.43333333333333335,0.4655555555555556,-0.6677777777777778,0.33804581872809214,0.1754093640460691,0.04972709063595393
1589988829.8931434,-0.06582996563054727,-4.551659931261094,8.719149828152736,0.43333333333333335,0.4683355784685241,-0.6798245437339746,0.35931185557276124,0.14574914076368167,0.05212542961815916
1589988829.9031434,-0.06,-4.54,8.72119909821051,0.43333333333333335,0.4722222222222222,-0.6966666666666667,0.1768771135691137,0.0,0.0762514090460758
1589988829.9131434,-0.055712445156347934,-4.552862664530957,8.684248903126958,0.43333333333333335,0.4722222222222222,-0.6966666666666667,0.0892972177728254,0.026797217772825406,0.05359443554565081
1589988829.9231434,-0.05326423388970299,-4.560207298330892,8.605906572786733,0.43333333333333335,0.4722222222222222,-0.6966666666666667,0.0841970763787126,0.021697076378712606,0.0841970763787126
1589988829.9331434,-0.06,-4.535559379385923,8.684440620614076,0.43333333333333335,0.4722222222222222,-0.6966666666666667,-0.027753878837982814,-0.0069922423240343715,0.0
1589988829.9431434,-0.06493933419276561,-4.495424660650641,8.739393341927656,0.43333333333333335,0.4689293327603785,-0.6862391833708282,-0.15511251611435506,-0.030112516114355045,0.0
1589988829.9531434,-0.07,-4.481785768703337,8.71374980953832,0.43333333333333335,0.4655555555555556,-0.6755555555555556,-0.2840402635989639,0.011161054395855546,-0.03404026359896389
1589988829.9631433,-0.05635211320897499,-4.5545915471641,8.615880283022438,0.43333333333333335,0.4655555555555556,-0.6755555555555556,-0.22720070755609367,0.08235035377804684,0.022799292443906313
1589988829.9731433,-0.056104146576663454,-4.5677917068466725,8.606104146576662,0.43333333333333335,0.4655555555555556,-0.6755555555555556,-0.07304725168756027,0.024349083895853427,0.10065091610414657
1589988829.9831433,-0.06478265933656355,-4.536086703317182,8.653043934029071,0.43333333333333335,0.4655555555555556,-0.6755555555555556,0.17934972512113306,0.0,0.125
1589988829.9931433,-0.07,-4.51,8.712052784115434,0.43913652568520917,0.47314434555416246,-0.6755555555555556,0.375,0.050219933814310086,0.125
1589988830.0031433,-0.06094480691236114,-4.519055193087639,8.72547240345618,0.4477777777777778,0.4844444444444445,-0.6755555555555556,0.375,0.125,0.125
1589988830.0131433,-0.056669695363569826,-4.54333939072714,8.626624264910022,0.4477777777777778,0.4844444444444445,-0.6755555555555556,0.24994321193306582,0.0416288079553772,0.0833144039776886
1589988830.0231433,-0.06,-4.5353408801183015,8.653295599408494,0.4477777777777778,0.4844444444444445,-0.6755555555555556,-0.041548748151547577,-0.09161949926061905,0.0625
1589988830.0331433,-0.06,-4.559298016944418,8.691719206777767,0.4477777777777778,0.4844444444444445,-0.6755555555555556,-0.01513243645843032,-0.05175495763895355,0.0625
1589988830.0431433,-0.053803025062104964,-4.524227225558945,8.737181849627369,0.4429579083816372,0.476870363964795,-0.6652272639923972,0.023768906638156034,-0.038731093361843966,0.10123109336184397
1589988830.0531433,-0.05587787011145681,-4.5252672206687405,8.730610649442717,0.44,0.4722222222222222,-0.6588888888888889,-0.0734733763932102,-0.0625,0.051526623606789806
1589988830.0631433,-0.06,-4.537901995220683,8.64346097371376,0.44,0.4722222222222222,-0.6588888888888889,-0.125,-0.024693735064635937,-0.15122505974145625
1589988830.0731432,-0.06,-4.540788286566252,8.616182429849378,0.44,0.4722222222222222,-0.6588888888888889,0.043566977597675666,0.0,-0.18257320896092974
1589988830.0831432,-0.05675591667575526,-4.546755916675755,8.646220416621224,0.44,0.4722222222222222,-0.6588888888888889,0.2077755207765296,0.04055104155305922,-0.04389791689388156
1589988830.0931432,-0.05184851182412819,-4.538151488175872,8.685545535472384,0.44,0.47324917323562676,-0.6644344243612734,0.27310639780160234,0.10189360219839765,0.06723400549599412
1589988830.1031432,-0.0641591809906985,-4.542477542972096,8.697522457027905,0.44,0.4777777777777778,-0.6888888888888889,0.29701535642440297,0.025994881191865677,-0.08352047523253729
1589988830.1131432,-0.07946622153869237,-4.545800667691961,8.651601335383923,0.44,0.4777777777777778,-0.6888888888888889,0.12833611538317266,0.15124582692524102,0.0625
1589988830.1231432,-0.06855506878794866,-4.540722465606025,8.630722465606025,0.44,0.4777777777777778,-0.6888888888888889,-0.004515410037660442,0.0824614749058489,0.0625
1589988830.1331432,-0.05,-4.541005280311261,8.666984159066219,0.44,0.4777777777777778,-0.6888888888888889,-0.006283001945377828,-0.006283001945377828,0.11871699805462217
1589988830.1431432,-0.07253919458960958,-4.524365201352597,8.716904395942207,0.44813915360180345,0.47464733408477644,-0.6719844929466817,0.097717491546265,0.027282508453735012,0.08184752536120504
1589988830.1531432,-0.06942122270287174,-4.5337191848647524,8.73,0.4544444444444444,0.4722222222222222,-0.6588888888888889,0.0392550945952989,0.0,-0.04287245270235055
1589988830.1631432,-0.0534478979439744,-4.54,8.67103108149577,0.4544444444444444,0.4722222222222222,-0.6588888888888889,-0.12285191355048004,-0.04095063785016001,0.01940127570032002
1589988830.1731431,-0.056076404181830825,-4.54,8.664305616727324,0.4544444444444444,0.4722222222222222,-0.6588888888888889,-0.11154494772711468,-0.13845505227288532,0.0625
1589988830.1831431,-0.06,-4.5450477189725795,8.685047718972578,0.4544444444444444,0.4722222222222222,-0.6588888888888889,0.0005964871572405744,-0.12440351284275943,0.030951756421379713
1589988830.1931431,-0.06,-4.544263246397837,8.70721026080649,0.4544444444444444,0.4754093075567572,-0.6639882254241448,0.13420942002703684,-0.026645289986481586,0.10756413004055525
1589988830.2031431,-0.06,-4.559753756070991,8.673907902501021,0.4544444444444444,0.4777777777777778,-0.6677777777777778,0.1875,-0.04115365848123099,0.06403902455630703
1589988830.213143,-0.06,-4.5447841170127985,8.631088087759599,0.4544444444444444,0.4777777777777778,-0.6677777777777778,0.1875,-0.023100182832497304,0.039399817167502696
1589988830.223143,-0.06510851321284984,-4.52489148678715,8.645542566064249,0.4544444444444444,0.4777777777777778,-0.6677777777777778,0.027858962098442575,0.031928207580311486,0.0625
1589988830.233143,-0.06421640512574522,-4.531567189748509,8.675783594874254,0.4544444444444444,0.4777777777777778,-0.6677777777777778,-0.08885253203590762,0.0625,0.026352532035907622
1589988830.243143,-0.05048705856942295,-4.559512941430577,8.690324705712948,0.45410169952522084,0.47757934650875367,-0.6679040522217022,0.0,0.05844117858814212,-0.05945588394110659
1589988830.253143,-0.07700346503188239,-4.535993069936235,8.71,0.43333333333333335,0.4655555555555556,-0.6755555555555556,-0.03745668710147008,-0.09385828224632481,0.08754331289852993
1589988830.263143,-0.07,-4.55,8.67760667271902,0.43333333333333335,0.4655555555555556,-0.6755555555555556,-0.1434052995914662,0.125,-0.05521589877439855
1589988830.273143,-0.0661744900305489,-4.546174490030549,8.622953059816707,0.43333333333333335,0.4655555555555556,-0.6755555555555556,-0.13968112538186117,0.14890943730906941,-0.11577168807279177
1589988830.283143,-0.05848213039229373,-4.5415178696077065,8.661517869607707,0.43333333333333335,0.4655555555555556,-0.6755555555555556,-0.04352662990367165,0.1495532598073433,0.009486685048164177
1589988830.293143,-0.05,-4.557128280766977,8.680692421150466,0.44085762969847586,0.469911727135375,-0.6755555555555556,0.08477587739680359,0.004327632190410768,0.0625
1589988830.303143,-0.05367323164294296,-4.551633841785285,8.71101969492883,0.4544444444444444,0.4777777777777778,-0.6755555555555556,0.125,0.125,0.0625
1589988830.313143,-0.0486545656089788,-4.52567271719551,8.673272828044894,0.4544444444444444,0.4777777777777778,-0.6755555555555556,0.08954551752805875,0.16045448247194125,0.027045517528058755
1589988830.323143,-0.05180765805877115,-4.535903829029386,8.659519145146929,0.4544444444444444,0.4777777777777778,-0.6755555555555556,0.0625,0.15060106856634015,-0.07379786286731968
1589988830.333143,-0.055122213623751914,-4.549755572752496,8.689755572752496,0.4544444444444444,0.4777777777777778,-0.6755555555555556,0.0015276702968988823,0.06402767029689888,-0.06402767029689888
1589988830.343143,-0.05472806821447961,-4.550543863571041,8.7,0.4444629671027652,0.475151073214178,-0.6755555555555556,-0.03294957365950244,0.02955042634049756,0.08865127902149268
1589988830.353143,-0.06,-4.54,8.6861996310497,0.43333333333333335,0.4722222222222222,-0.6755555555555556,-0.0575015372929176,-0.023752305939376397,0.1012476940606236
1589988830.363143,-0.07195686584883261,-4.54,8.654057512201558,0.43333333333333335,0.4722222222222222,-0.6755555555555556,-0.10008986281493207,-0.07517972562986414,0.024910137185067932
1589988830.373143,-0.08052860795908583,-4.535264303979543,8.634735696020458,0.43333333333333335,0.4722222222222222,-0.6755555555555556,-0.0329018998721432,0.0,0.0625
1589988830.383143,-0.059235265689365525,-4.544352979080847,8.66152946862127,0.43333333333333335,0.4722222222222222,-0.6755555555555556,0.02242652981382183,0.02242652981382183,0.04007347018617817
1589988830.393143,-0.049178924497555676,-4.560821075502444,8.7,0.4397925764982799,0.46848266038988473,-0.6775953165550124,0.08162275936990766,0.08162275936990766,0.01912275936990766
1589988830.403143,-0.06804370366023045,-4.5419562963397695,8.70195629633977,0.4544444444444444,0.46,-0.6822222222222222,0.13722685212355967,0.11277314787644033,0.05027314787644033
1589988830.413143,-0.06029162547662759,-4.549708374523372,8.707375370710352,0.4544444444444444,0.46,-0.6822222222222222,0.1929679776867674,0.06432265922892247,0.003645318457844937
1589988830.423143,-0.061927160953800305,-4.537309053651267,8.636145678092399,0.4544444444444444,0.46,-0.6822222222222222,0.27408951192250375,0.10818158532041729,0.15863682935916543
1589988830.433143,-0.04,-4.53,8.684547439126783,0.4544444444444444,0.46,-0.6822222222222222,-0.005684298908480269,0.06818429890848027,0.22157850545759866
1589988830.443143,-0.042627154563436,-4.53,8.724745690873128,0.4488982292549684,0.46642193337728804,-0.6839736585978462,-0.09533943204294998,0.10858028397852501,-0.029660567957050014
1589988830.453143,-0.049930057388809186,-4.530139885222382,8.709790172166429,0.43333333333333335,0.4844444444444445,-0.6888888888888889,-0.1879371413199426,0.0625,0.0625
1589988830.4631429,-0.042771341937490284,-4.55,8.666143290312549,0.43333333333333335,0.4844444444444445,-0.6888888888888889,-0.21535822578137148,0.0625,0.04517911289068574
1589988830.4731429,-0.05187991931337262,-4.5518799193133725,8.635639757940119,0.43333333333333335,0.4844444444444445,-0.6888888888888889,-0.125,0.05075050429142111,-0.011749495708578887
1589988830.4831429,-0.06365615448972971,-4.54903153653081,8.67462461795892,0.43333333333333335,0.4844444444444445,-0.6888888888888889,-0.03359613775675721,0.022850965560810697,-0.0396490344391893
1589988830.4931428,-0.06628154359810545,-4.531859228200948,8.7,0.43333333333333335,0.4832049589771463,-0.6888888888888889,0.10175964748815902,0.05087982374407951,0.01162017625592049
1589988830.5031428,-0.05,-4.54,8.692424056348202,0.43333333333333335,0.4777777777777778,-0.6888888888888889,0.09469929564746252,-0.02367482391186563,0.03882517608813437
1589988830.5131428,-0.05777800680202,-4.542592668934007,8.664443986395959,0.43333333333333335,0.4777777777777778,-0.6888888888888889,0.23379581916245834,-0.07870418083754166,-0.016204180837541653
1589988830.5231428,-0.07138278756104263,-4.537074181341564,8.628617212438957,0.43333333333333335,0.4777777777777778,-0.6888888888888889,0.10671363338477474,-0.017284844513033,0.018286366615225258
1589988830.5331428,-0.06,-4.523419225603788,8.667353804830302,0.43333333333333335,0.4777777777777778,-0.6888888888888889,0.0,0.125,0.10362983997632652
1589988830.5431428,-0.06,-4.532758949173353,8.717241050826647,0.435172632782235,0.4777777777777778,-0.6852102899910856,-0.034486864666906585,0.09051313533309341,0.0625
1589988830.5531428,-0.06,-4.542502668607472,8.71,0.44,0.4777777777777778,-0.6755555555555556,-0.125,0.015641678796700628,0.04685832120329937
1589988830.5631428,-0.05088856518572469,-4.540888565185725,8.664442825928624,0.44,0.4777777777777778,-0.6755555555555556,-0.03958029861616898,0.0625,0.0
1589988830.5731428,-0.04312648170692638,-4.536252963413853,8.625632408534631,0.44,0.4777777777777778,-0.6755555555555556,0.0625,0.0625,0.019540510668289872
1589988830.5831428,-0.04984510155699366,-4.549690203113987,8.659225507784969,0.44,0.4777777777777778,-0.6755555555555556,0.0625,0.0625,0.06153188473121036
1589988830.5931427,-0.06300492271678887,-4.546995077283211,8.689014768150367,0.4480131272447703,0.4724356929479309,-0.6705473510275741,0.02493846604013908,-0.09359616510034768,0.04371923302006954
1589988830.6031427,-0.061566692667706716,-4.54,8.693133385335415,0.4666666666666667,0.46,-0.6588888888888889,-0.009791829173166927,0.09864591458658346,0.0
1589988830.6131427,-0.05,-4.54,8.648793272089144,0.4666666666666667,0.46,-0.6588888888888889,0.1214075775301586,0.0330462112349207,0.0
1589988830.6231427,-0.052273106651667456,-4.54,8.583788511086112,0.4666666666666667,0.46,-0.6588888888888889,0.2888218057117974,-0.07670691657292159,-0.004735638857640527
1589988830.6331427,-0.07300867867676704,-4.536504339338384,8.657965285292933,0.4666666666666667,0.46,-0.6588888888888889,0.04369575827020604,-0.22815212086489697,-0.0625
1589988830.6431427,-0.05642732824910604,-4.537145343501788,8.720718015252682,0.45713954199761614,0.46,-0.6648433418070455,0.10267080155691276,-0.16517080155691274,-0.04017080155691276
1589988830.6531427,-0.053640892718887806,-4.55,8.729077321843336,0.44,0.46,-0.6755555555555556,0.016988841013902453,-0.07948884101390245,-0.04551115898609755
1589988830.6631427,-0.06160248016637141,-4.548397519833628,8.695577678502659,0.44,0.46,-0.6755555555555556,-0.09254650311946391,-0.010015501039821304,-0.11498449896017869
1589988830.6731427,-0.06509475325181469,-4.535094753251815,8.644526233740926,0.44,0.46,-0.6755555555555556,-0.1580266234715253,-0.09315779217615823,-0.0625
1589988830.6831427,-0.05603114382785957,-4.533968856172141,8.685875424688563,0.44,0.46,-0.6755555555555556,-0.037694648924122304,-0.050583946772366925,-0.0873053510758777
1589988830.6931427,-0.05,-4.537842006350853,8.712157993649148,0.44,0.4626375477934029,-0.6755555555555556,0.013487460307173871,0.04901253969282613,-0.11151253969282612
1589988830.7031426,-0.05,-4.53,8.70509963768116,0.44,0.4722222222222222,-0.6755555555555556,0.08910778985507246,-0.026607789855072464,-0.0625
1589988830.7131426,-0.054578258320849345,-4.53,8.627108708395753,0.44,0.4722222222222222,-0.6755555555555556,0.1875,-0.125,-0.03388588549469159
1589988830.7231426,-0.06,-4.538576193243551,8.621440483108877,0.44,0.4722222222222222,-0.6755555555555556,0.16069939611390455,-0.07139879222780908,0.02680060388609546
1589988830.7331426,-0.06,-4.539080487896698,8.66455934947107,0.44,0.4722222222222222,-0.6755555555555556,0.10225101645145504,0.0,0.017002032902910066
