time,acc_x,acc_y,acc_z,mag_x,mag_y,mag_z,gyr_x,gyr_y,gyr_z
1589985658.4585106,-3.85,-0.44,9.07,0.2644444444444444,-0.38666666666666666,-0.6133333333333333,0.8125,-0.8125,-0.0625
1589985658.4685106,-3.8,-0.3887299990856725,9.085554996799853,0.2644444444444444,-0.4,-0.5822222222222222,1.328375011429094,-1.7192500228581877,-0.07440625857182043
1589985658.4785106,-3.7879566714061212,-0.3659855571353738,8.983870014218363,0.2644444444444444,-0.4,-0.5822222222222222,1.4872291962882587,-2.2125902679039138,-0.25
1589985658.4885106,-3.7729291055761642,-0.3658582111523288,8.938787316728494,0.2644444444444444,-0.4,-0.5822222222222222,1.22854472119178,-2.1218516310428077,-0.2316930901489725
1589985658.4985106,-3.7871236687331105,-0.3906855030996662,8.992056509299,0.2644444444444444,-0.4,-0.5822222222222222,0.8304770704180575,-1.6789312112541726,-0.16523853520902876
1589985658.5085106,-3.7912888794205366,-0.40419258628035787,9.044192586280358,0.26638024901765844,-0.4,-0.5828674904132936,0.8044445036216447,-1.3467591606305922,-0.17944450362164466
1589985658.5185106,-3.7572735554695154,-0.3815157036463434,9.013031407292686,0.27111111111111114,-0.4,-0.5844444444444444,0.9109865738948232,-1.0454597216844694,-0.17993286947411574
1589985658.5285106,-3.759366054527945,-0.37,8.978933683126888,0.27111111111111114,-0.4,-0.5844444444444444,0.7020887988576362,-0.7300065586291635,0.017291120114236377
1589985658.5385106,-3.8081159299970113,-0.37,8.95107661143028,0.27111111111111114,-0.4,-0.5844444444444444,0.26682205359811373,-0.20768646431773652,0.060817794640188626
1589985658.5485106,-3.7957653403335567,-0.3815306806671137,9.024234659666442,0.27111111111111114,-0.4,-0.5844444444444444,-0.2764666229152697,0.6970667541694606,-0.04926668854236514
1589985658.5585105,-3.7837975261438372,-0.3575950522876749,9.036202473856163,0.27111111111111114,-0.4,-0.5844444444444444,-0.3512654616010158,0.5474690767979684,-0.011867269199492103
1589985658.5685105,-3.8008618115286743,-0.38258543458602345,9.078276376942652,0.27111111111111114,-0.4066666666666667,-0.5988888888888889,-0.19827264410843096,0.19827264410843096,-0.005386322054215473
1589985658.5785105,-3.8096824462156422,-0.40904733864692644,9.060635107568716,0.27111111111111114,-0.4066666666666667,-0.5988888888888889,-0.3085305776955269,0.3085305776955269,-0.06051528884776345
1589985658.5885105,-3.7973073311539265,-0.4080780065382208,8.980770675384294,0.27111111111111114,-0.4066666666666667,-0.5988888888888889,-0.29085409856020034,0.19469573798428044,0.016829180287959936
1589985658.5985105,-3.7900139111080198,-0.4299582666759407,9.00994435556792,0.27111111111111114,-0.4066666666666667,-0.5988888888888889,-0.06293472212561735,-0.12439138902413577,0.062413055574876544
1589985658.6085105,-3.781109585335913,-0.37110958533591326,9.032219170671826,0.2696316639965601,-0.40531050681166153,-0.5995053251866185,0.15967454174729,-0.4375,-0.006934908349458003
1589985658.6185105,-3.7898362565799055,-0.37983625657990555,9.049672513159813,0.2579961023379037,-0.3946445752912265,-0.6043534758777253,0.43238301812204816,-0.4375,-0.061476603624409626
1589985658.6285105,-3.7972181020130162,-0.395563795973967,9.036617224156197,0.2577777777777778,-0.3944444444444444,-0.6044444444444445,0.5,-0.30216058725594064,0.0
1589985658.6385105,-3.7830019620667104,-0.40066928275561364,8.954665358622194,0.2577777777777778,-0.3944444444444444,-0.6044444444444445,0.5874754741661217,-0.510396228471768,0.029158491388707214
1589985658.6485105,-3.757348682694523,-0.37,8.97795395191643,0.2577777777777778,-0.3944444444444444,-0.6044444444444445,0.875,-0.6671463342038559,0.10842926684077117
1589985658.6585104,-3.7534097447795824,-0.36886341840680587,9.003409744779582,0.25992465412047777,-0.39507587866288557,-0.6044444444444445,0.7826527455529776,-0.3735672853828306,0.0625
1589985658.6685104,-3.7892622874663195,-0.3692622874663198,9.042349716621759,0.2766666666666667,-0.4,-0.6044444444444445,-0.13046432221499582,0.29866788999349625,0.0625
1589985658.6785104,-3.8069600259506937,-0.39,9.051760155704162,0.2766666666666667,-0.4,-0.6044444444444445,-0.48650064876734206,0.5925008109591776,0.043500162191835515
1589985658.6885104,-3.790285556246975,-0.39,9.006761852082326,0.2766666666666667,-0.4,-0.6044444444444445,-0.15059260411625067,0.07142363271797003,-0.020238424485468667
1589985658.6985104,-3.768250440721256,-0.388250440721256,9.001749559278744,0.2766666666666667,-0.4,-0.6044444444444445,0.28591270942935276,-0.671847454921503,-0.040630509015699395
1589985658.7085104,-3.7624283394178315,-0.3824283394178315,9.007571660582169,0.2766666666666667,-0.4,-0.6044444444444445,0.6134059077469773,-1.0357287863855305,0.0321457572771061
1589985658.7185104,-3.7507575499061594,-0.38030301996246374,9.039848490018768,0.27111111111111114,-0.4066666666666667,-0.59,0.6183714383211056,-0.985795939259512,-0.0018938747653983962
1589985658.7285104,-3.7921099294344702,-0.39736997647815686,9.011589835347097,0.27111111111111114,-0.4066666666666667,-0.59,0.08887411793088197,0.1676270581612754,-0.02637411793088197
1589985658.7385104,-3.7733883378932966,-0.38774110807113543,8.965647229822162,0.27111111111111114,-0.4066666666666667,-0.59,-0.1592638508891929,0.8689722982216143,0.2570590372777018
1589985658.7485104,-3.8002323142272796,-0.37081309979547955,9.01069694268184,0.27111111111111114,-0.4066666666666667,-0.59,0.061774018039750384,1.308870090198752,0.31395196392049923
1589985658.7585104,-3.82,-0.4392112153003435,9.069211215300344,0.2700593981782358,-0.4057025964781976,-0.5905258564664376,0.0,0.9457710518986167,0.39806076501717574
1589985658.7685103,-3.82,-0.43142308049391886,9.061423080493919,0.25967521843633623,-0.39618376504812297,-0.5957179463373874,0.0,0.4103367839569213,0.008654024695942841
1589985658.7785103,-3.7754529421196086,-0.495683822350489,9.025222061888728,0.2577777777777778,-0.3944444444444444,-0.5966666666666667,0.375,-0.5142095558762225,0.07670955587622254
1589985658.7885103,-3.745564641120197,-0.5330441985997542,8.928085083640639,0.2577777777777778,-0.3944444444444444,-0.5966666666666667,0.375,-0.6076104964993854,0.1701104964993854
1589985658.7985103,-3.723004803932522,-0.45347357837113167,8.976009607865043,0.2577777777777778,-0.3944444444444444,-0.5966666666666667,-0.031400122891297066,0.05341023349346441,0.5906700368673892
1589985658.8085103,-3.747768326989906,-0.35741055767003144,9.01647360582492,0.26209351499439204,-0.3960268814238696,-0.5958035192233438,-0.594868029124607,1.2648001820287937,0.7985520436869105
1589985658.8185103,-3.8077501197535555,-0.31933301399051883,9.05483325349763,0.2911111111111111,-0.4066666666666667,-0.59,-0.8447921656398143,2.6411460828199074,1.2541686625592574
1589985658.8285103,-3.8285342164813927,-0.2639087560496193,9.040977189012404,0.2911111111111111,-0.4066666666666667,-0.59,-0.9313925686724699,2.684446284336235,1.6005702746898796
1589985658.8385103,-3.83755226521395,-0.33800740326861295,8.985559668482564,0.2911111111111111,-0.4066666666666667,-0.59,-0.43050414396796577,1.2596091167295245,1.2860545583647622
1589985658.8485103,-3.8076724121691625,-0.40931035132334936,9.022327587830837,0.2911111111111111,-0.4066666666666667,-0.59,0.13092681548460017,0.036098945088066325,0.7106680324008665
1589985658.8585103,-3.7992382346789375,-0.4402539217736875,9.029746078226312,0.2904339863812777,-0.4063563178321597,-0.59,0.5688480443421878,-0.8892830997699226,0.3718259778289061
1589985658.8685102,-3.7729196820748796,-0.44902677264170676,9.020973227358294,0.2670397173998931,-0.395633944549025,-0.59,0.7881693160426688,-1.382755961096005,0.2621653419786656
1589985658.8785102,-3.7513874313305253,-0.433167541201685,8.998612568669476,0.2644444444444444,-0.3944444444444444,-0.59,0.27535997585790656,-0.8830170842263445,0.30137431330524966
1589985658.8885102,-3.797874103526439,-0.3981888447103415,8.97377968117127,0.2644444444444444,-0.3944444444444444,-0.59,-0.1486230073204266,0.10974601464085318,0.7982295808405485
1589985658.8985102,-3.8290457433763145,-0.35143138493552817,9.02833005090855,0.2644444444444444,-0.3944444444444444,-0.59,-0.48956281817844005,0.7916256363568801,1.236580766229423
1589985658.9085102,-3.7544041537094626,-0.32200188804975566,9.078798867170146,0.26493379485660695,-0.3946668764499728,-0.5905783232143739,-0.5524905597512216,1.044983479564638,1.3099976399378055
1589985658.9185102,-3.8398056419369166,-0.36082074633496225,9.055507552199023,0.2744228491041019,-0.3989800829261069,-0.6017926600523225,-0.3583962683251888,0.7053184695690804,1.2614740670812972
1589985658.9285102,-3.836426418424953,-0.36,9.033323285983114,0.2766666666666667,-0.4,-0.6044444444444445,0.06700465453213209,-0.26194961614681345,0.727665115155956
1589985658.9385102,-3.815472031174541,-0.36,8.93553614548119,0.2766666666666667,-0.4,-0.6044444444444445,0.45989941547736013,-0.6984993505304002,0.5967001948408799
1589985658.9485102,-3.7970007278314664,-0.3480004852209777,8.966998301726578,0.2766666666666667,-0.4,-0.6044444444444445,0.49375151631555536,-1.1937484836844445,0.29375454894666614
1589985658.9585102,-3.771561198495815,-0.33104079899721,9.026357203509765,0.2766666666666667,-0.4,-0.6044444444444445,0.4407524968662812,-1.2467475031337187,0.13475749059884357
1589985658.9685102,-3.768196065471117,-0.36491763928267035,9.06508236071733,0.2577777777777778,-0.4133333333333333,-0.5988888888888889,0.2090196726444139,-1.25,-0.06352950896662087
1589985658.9785101,-3.804673948965925,-0.3868043693795551,9.043195630620444,0.2577777777777778,-0.4133333333333333,-0.5988888888888889,0.026630255170374484,-1.25,0.21005461724443825
1589985658.9885101,-3.77,-0.35285306851762765,8.952853068517626,0.2577777777777778,-0.4133333333333333,-0.5988888888888889,0.27674751735275926,-1.2410841608824135,-0.08033167823517284
1589985658.9985101,-3.77,-0.3672654800357364,8.967265480035737,0.2577777777777778,-0.4133333333333333,-0.5988888888888889,0.41186387533502855,-1.1960453748883237,-0.17040925022335235
1589985659.00851,-3.7503655439443775,-0.35990861401390567,9.050365543944379,0.2578387017685073,-0.41316071535959953,-0.5986147309306059,0.24485953828219326,-0.8618632644989384,0.06535581206544819
1589985659.01851,-3.785290395103876,-0.35117740122403096,9.085290395103875,0.26365951029509044,-0.39666842453428064,-0.5724210925609818,-0.24627118114825758,0.39324857404554736,0.33820621174903204
1589985659.02851,-3.781550503560743,-0.37395453204669,9.042944460831823,0.2644444444444444,-0.3944444444444444,-0.5688888888888889,-0.28342805823606254,0.6109532362732291,0.39438129450929166
1589985659.03851,-3.7905193045834276,-0.4541544366674193,8.953115827500564,0.2644444444444444,-0.3944444444444444,-0.5688888888888889,-0.10877173176789343,0.8685086927071574,0.5389478437570557
1589985659.04851,-3.793492431474158,-0.5316268921314605,9.01,0.2644444444444444,-0.3944444444444444,-0.5688888888888889,0.23834037910814126,0.6279830901404609,1.3720169098595392
1589985659.05851,-3.7608080886793553,-0.5397979778301611,9.01,0.2644444444444444,-0.3944444444444444,-0.5688888888888889,0.4936868071925347,0.015151662737916682,1.9848483372620833
1589985659.06851,-3.7621063794736624,-0.48629792842139946,8.973680861579012,0.27111111111111114,-0.4066666666666667,-0.5988888888888889,0.05585128289609159,-0.39800538486882747,3.1613028190766443
1589985659.07851,-3.7641423046758797,-0.3482846093517592,8.94316602212186,0.27111111111111114,-0.4066666666666667,-0.5988888888888889,-0.4436017659626254,-0.2561017659626254,4.073221191551505
1589985659.08851,-3.7197272160154258,-0.22378797330762396,8.889727216015427,0.27111111111111114,-0.4066666666666667,-0.5988888888888889,-0.5303975500482051,-0.19090979980717973,4.75
1589985659.09851,-3.7673005160778086,-0.14449913987031893,8.937300516077809,0.27111111111111114,-0.4066666666666667,-0.5988888888888889,-0.679064112743152,0.40375645097260815,4.75
1589985659.10851,-3.829326701989403,-0.12022443267019894,8.999326701989403,0.27111111111111114,-0.4066666666666667,-0.5988888888888889,-1.490882422773168,1.1172851269619115,5.12079188743377
1589985659.11851,-3.309153378505825,-0.1064417231322819,8.753730067758738,0.25222222222222224,-0.4,-0.59,-2.9785660393784186,4.73627323312198,5.085812923492115
1589985659.12851,-3.4065239912363428,-0.22815498904542883,8.899785986854514,0.25222222222222224,-0.4,-0.59,-4.994442006064915,9.909087034430726,5.998662417840716
1589985659.13851,-3.587565857668799,-0.5257808199592522,9.402535296850985,0.25222222222222224,-0.4,-0.59,-4.82669916359867,13.962473639060658,9.940160667691318
1589985659.14851,-3.6602145543437383,-0.4753886799548703,9.230562805566002,0.25222222222222224,-0.4,-0.59,0.06351071831515576,1.5661726682963515,11.804123965776608
1589985659.15851,-3.635501294422217,-0.2909049188044246,8.96640621322664,0.25222222222222224,-0.4,-0.59,3.551188514944693,-5.052409390444811,14.593058660861379
1589985659.16851,-3.639574686716792,-0.17425313283208022,8.834678446115289,0.2639246170983013,-0.40638312447786135,-0.59,1.4786701127819546,0.486837406015038,16.430886591478696
1589985659.17851,-3.33482456912487,-0.2915692833125011,9.03175290037498,0.2644444444444444,-0.4066666666666667,-0.59,-0.7634598964843406,2.8309684347657695,16.827107503124836
1589985659.18851,-2.4635195324190624,-0.29895322430153337,8.8988419625724,0.2644444444444444,-0.4066666666666667,-0.59,-0.5327117405770823,3.800110689576255,15.719516354769995
1589985659.19851,-1.603269491278161,-0.516463747577267,8.963878248546362,0.2644444444444444,-0.4066666666666667,-0.59,-0.5846015776420815,3.322246941625159,11.668262718045975
1589985659.20851,-1.7604441416893732,-0.56066621253406,8.990222070844688,0.2644074326369967,-0.4066666666666667,-0.5901295413260672,-0.30764220027247957,2.115284400544959,7.727445929836512
1589985659.21851,-1.84,-0.68,9.03,0.2577777777777778,-0.4066666666666667,-0.6133333333333333,0.5625,0.375,3.6875
1589985659.22851,-1.9079486853804142,-0.6630128286548965,8.962051314619586,0.2577777777777778,-0.4066666666666667,-0.6133333333333333,0.951789343325289,1.2243585672551758,3.616720119395402
1589985659.23851,-1.9779597940486104,-0.570795979404861,8.745919588097221,0.2577777777777778,-0.4066666666666667,-0.6133333333333333,0.5304774456727493,-0.30255025743923675,4.139924613841145
1589985659.24851,-2.0573551904293175,-0.5787355190429317,8.904710380858635,0.2577777777777778,-0.4066666666666667,-0.6133333333333333,-0.41234288634814864,-0.2033060119633528,4.288790982054971
1589985659.2585099,-2.1270680788319067,-0.5419546141120621,8.961704488239949,0.2577777777777778,-0.4066666666666667,-0.6133333333333333,0.1508509853988348,-0.10823877940012948,4.708806102999352
1589985659.2685099,-2.2189907898844834,-0.5115727443022167,9.00528176709335,0.26339594824296664,-0.4066666666666667,-0.5871152044957851,0.14113721511083355,-0.009829651888854193,4.990170348111146
1589985659.2785099,-2.2150600937857114,-0.5174699531071443,9.077229577964298,0.2644444444444444,-0.4066666666666667,-0.5822222222222222,-0.03087441383930331,-0.3268104484375616,4.673189551562438
1589985659.2885098,-2.2253287390873333,-0.54,8.99,0.2644444444444444,-0.4066666666666667,-0.5822222222222222,0.288710986217262,0.0529843944869048,4.567906366921429
1589985659.2985098,-2.27227335230725,-0.54,8.99,0.2644444444444444,-0.4066666666666667,-0.5822222222222222,0.07913682005692177,-0.030845271977231303,4.064928368136612
1589985659.3085098,-2.213152781866353,-0.54,8.964384260622118,0.2644444444444444,-0.4066666666666667,-0.5822222222222222,0.21346449481568702,-0.0625,3.2879726392568607
1589985659.3185098,-2.197633624878523,-0.5194084062196307,8.947042031098153,0.27111111111111114,-0.4266666666666667,-0.5844444444444444,-0.0036974611273080664,0.0,2.083971088435374
1589985659.3285098,-2.16500199849003,-0.5128582848514456,8.902858284851446,0.27111111111111114,-0.4266666666666667,-0.5844444444444444,-0.06696607008038372,0.00446607008038371,0.29011968734733756
1589985659.3385098,-2.229605702310419,-0.5498685674368063,8.939934283718403,0.27111111111111114,-0.4266666666666667,-0.5844444444444444,-0.12417854648003933,0.06229463662000983,-1.6330091718196165
1589985659.3485098,-2.11,-0.51,8.924200909234523,0.27111111111111114,-0.4266666666666667,-0.5844444444444444,0.09874431728423233,-0.0037508118165382382,-4.223784908111144
1589985659.3585098,-2.11,-0.51,8.97573607624932,0.27111111111111114,-0.4266666666666667,-0.5844444444444444,-0.22335047655824897,-0.04976435379403556,-6.202367213143529
1589985659.3685098,-2.159752218159801,-0.4795044363196013,9.058017745278406,0.2644444444444444,-0.4211111111111111,-0.6044444444444445,0.2592918190074754,0.6921459095037377,-9.700883188561049
1589985659.3785098,-2.1500767370477165,-0.4600613896381732,8.980061389638173,0.2644444444444444,-0.4211111111111111,-0.6044444444444445,0.6249040786903544,0.8752877639289368,-12.692871593340154
1589985659.3885098,-2.198843130871547,-0.49907450469723746,9.019074504697237,0.2644444444444444,-0.4211111111111111,-0.6044444444444445,0.5639460864105664,1.0581617407683006,-16.10651916100828
1589985659.3985097,-2.2080929699389293,-0.4919070300610708,8.979535150305354,0.2644444444444444,-0.4211111111111111,-0.6044444444444445,0.6130810621183074,1.3659863727098445,-18.767134168033678
1589985659.4085097,-2.1944628337743564,-0.5288429155641088,8.977768583112821,0.2644444444444444,-0.4211111111111111,-0.6044444444444445,0.43078542217945637,1.5346072889102718,-22.433879600673563
1589985659.4185097,-2.19,-0.5264195888503191,8.96641958885032,0.2644444444444444,-0.4211111111111111,-0.6044444444444445,0.5023163545282587,1.8595714938992705,-26.113459799621694
1589985659.4285097,-2.2127926378257503,-0.5427926378257505,8.982792637825751,0.2644444444444444,-0.4211111111111111,-0.6044444444444445,0.740567483013675,1.964386503397265,-29.609923292766837
1589985659.4385097,-2.2700774655607114,-0.5680154931121424,8.951907041327145,0.2644444444444444,-0.4211111111111111,-0.6044444444444445,0.9250968319508898,2.087790495852669,-34.75677823656228
1589985659.4485097,-2.273562423964596,-0.5893127281062115,8.978625456212423,0.2644444444444444,-0.4211111111111111,-0.6044444444444445,1.2191439515489182,2.3261742511063703,-38.32073496482536
1589985659.4585097,-2.2774765262252794,-0.5626173688736028,8.917758211521926,0.2644444444444444,-0.4211111111111111,-0.6044444444444445,1.4217282889079965,2.951511177987962,-43.17693680137575
1589985659.4685097,-2.324337433194231,-0.5690017570832419,8.95967310930522,0.2813348951851038,-0.40773950427475575,-0.6142972073764957,1.3979130060765796,3.2041739878468407,-47.36069853210338
1589985659.4785097,-2.35,-0.5732027421055896,8.99320274210559,0.2911111111111111,-0.4,-0.62,1.544931447360258,3.2924828618400643,-52.098800328804515
1589985659.4885097,-2.3009874438071614,-0.577001793741834,8.884973093872489,0.2911111111111111,-0.4,-0.62,1.7125224217729256,3.6188284762052394,-57.08841929268995
1589985659.4985096,-2.2999887403237156,-0.649960591133005,8.959932441942295,0.2911111111111111,-0.4,-0.62,1.3127463054187192,3.874929627023223,-63.93450914848698
1589985659.5085096,-2.3408167834890965,-0.6989801401869159,8.911019859813084,0.2911111111111111,-0.4,-0.62,1.9247517523364486,4.436230772975078,-67.91713639018691
1589985659.5185096,-2.346767366620644,-0.7540604199723865,8.929474313268901,0.3244444444444444,-0.3944444444444444,-0.62,2.0,5.228851979310487,-73.87549070620479
1589985659.5285096,-2.4331996620438106,-0.8059197972262865,9.050479526861336,0.3244444444444444,-0.3944444444444444,-0.62,2.0,4.958751056113091,-77.87298436952625
1589985659.5385096,-2.486151916875672,-0.8376911501254031,8.84770118237191,0.3244444444444444,-0.3944444444444444,-0.62,2.749968649229667,5.629778753135077,-81.87965335005374
1589985659.5485096,-2.462834993685983,-0.8762200084186895,8.974880033674758,0.3244444444444444,-0.3944444444444444,-0.62,2.472937421074786,5.291343657920583,-85.80950084186895
1589985659.5585096,-2.5160124137057442,-0.9200088669326747,8.973996453226931,0.3244444444444444,-0.3944444444444444,-0.62,2.58753325099753,5.70009975299259,-89.33819827094813
1589985659.5685096,-2.5158388018051405,-0.9087582027077111,8.97,0.3386056426393037,-0.38421691241482386,-0.634947931427907,2.625,6.033768721794676,-92.91298589461292
1589985659.5785096,-2.4621902210314803,-0.9573717347622237,8.97,0.34444444444444444,-0.38,-0.6411111111111111,2.5652377762893503,6.06523777628935,-97.46894675150703
1589985659.5885096,-2.4687098641059717,-1.0383887769537445,8.926450679470141,0.34444444444444444,-0.38,-0.6411111111111111,2.5625,6.552429855960904,-100.83676238907704
1589985659.5985096,-2.5112567266045414,-1.032318545740911,8.87874327339546,0.34444444444444444,-0.38,-0.6411111111111111,2.894027267357921,6.477654547840924,-103.22799087806798
1589985659.6085095,-2.526480437997043,-1.0808380290133077,8.944636934020702,0.34444444444444444,-0.38,-0.6411111111111111,2.956005474963034,6.670740418814691,-106.71718019422131
1589985659.6185095,-2.470785435524407,-1.160785435524407,8.930589076643304,0.3888888888888889,-0.3622222222222222,-0.6622222222222223,2.930136541958685,7.306363784965571,-111.12508939335117
1589985659.6285095,-2.5050658956702967,-1.1950658956702969,8.956299421752723,0.3888888888888889,-0.3622222222222222,-0.6622222222222223,2.6087572280909668,7.038547690075806,-113.85681356122679
1589985659.6385095,-2.51,-1.2401528311029932,8.879694337794014,0.3888888888888889,-0.3622222222222222,-0.6622222222222223,2.7716293286614233,6.9163482685354305,-116.25764155514966
1589985659.6485095,-2.538110840013942,-1.3911839200650633,8.961813640060416,0.3888888888888889,-0.3622222222222222,-0.6622222222222223,2.816435749970954,7.226385500174277,-120.11964825142326
1589985659.6585095,-2.54,-1.4161753259779337,8.9942629889669,0.3888888888888889,-0.3622222222222222,-0.6622222222222223,3.1663352557673017,7.755478936810431,-122.68825100300903
1589985659.6685095,-2.49136800609631,-1.413556815850406,8.920273601219263,0.4155555555555556,-0.3088888888888889,-0.6911111111111111,4.11815996951845,8.439210007620387,-125.82866035053782
1589985659.6785095,-2.5221008822063955,-1.4934622937366278,8.92642017644128,0.4155555555555556,-0.3088888888888889,-0.6911111111111111,3.9644955889680236,8.477626102757995,-127.59580072686772
1589985659.6885095,-2.546990341634738,-1.6378647828863346,8.88805795019157,0.4155555555555556,-0.3088888888888889,-0.6911111111111111,3.7876207295657727,8.587379270434226,-130.59103358477012
1589985659.6985095,-2.559478701713782,-1.7084361051413457,8.898436105141347,0.4155555555555556,-0.3088888888888889,-0.6911111111111111,3.75,8.980451314266821,-133.92565919986774
1589985659.7085094,-2.5185779294653012,-1.7431376564277588,8.850293515358361,0.4155555555555556,-0.3088888888888889,-0.6911111111111111,4.008887940841865,9.207110352673492,-136.1853811149033
1589985659.7185094,-2.51,-1.870708904771103,8.849285300367008,0.4465065567789153,-0.26555748717618527,-0.6911111111111111,3.830367490824802,9.017867490824802,-138.946325091752
1589985659.7285094,-2.529614224836145,-1.9486497869265083,8.889228449672292,0.4488888888888889,-0.26222222222222225,-0.6911111111111111,3.6286166421611386,9.245177810451816,-141.2703058414534
1589985659.7385094,-2.45163095666152,-1.9848306859282134,8.750677256287148,0.4488888888888889,-0.26222222222222225,-0.6911111111111111,3.733845893525667,9.576537680577001,-143.16288018993635
1589985659.7485094,-2.458443523689425,-2.091439380291839,8.868326427670691,0.4488888888888889,-0.26222222222222225,-0.6911111111111111,3.634727976941092,9.682636011529453,-145.10894433435416
1589985659.7585094,-2.402459130655177,-2.141100620960588,8.855339627423646,0.4488888888888889,-0.26222222222222225,-0.6911111111111111,3.9332546572044103,9.99575465720441,-146.4316428526169
1589985659.7685094,-2.4278135048231513,-2.2350803858520902,8.991800643086817,0.48670239371204,-0.19919971418363705,-0.718420864594498,3.704581993569132,10.180667202572348,-147.9873392282958
1589985659.7785094,-2.4396576781015376,-2.3076037467107646,8.932396253289236,0.4888888888888889,-0.1955555555555556,-0.72,4.3514653694807235,10.489302440673056,-148.78682585761533
1589985659.7885094,-2.4567344579109283,-2.3685706026882496,8.745920962979786,0.4888888888888889,-0.1955555555555556,-0.72,4.270409638056697,10.918361447773213,-149.44004217165983
1589985659.7985094,-2.3167711255751318,-2.4563887330265963,8.881874649309843,0.4888888888888889,-0.1955555555555556,-0.72,3.4144982325216024,10.343534325552687,-150.09960827909325
1589985659.8085093,-2.3275984990619136,-2.50692933083177,8.860669168230144,0.4888888888888889,-0.1955555555555556,-0.72,3.191682301438399,10.679135397123202,-150.2716541588493
1589985659.8185093,-2.3299153395740873,-2.5652116510647818,8.84,0.5028953617026567,-0.17370545796607784,-0.7457719099773327,3.0940145638309775,10.9375,-150.40651456383097
1589985659.8285093,-2.257064582941066,-2.6709169647900586,8.857981547731123,0.5166666666666667,-0.15222222222222226,-0.7711111111111111,2.8440383167011865,10.9375,-150.2689229900207
1589985659.8385093,-2.2258193019335235,-2.696120465377651,8.811638603867047,0.5166666666666667,-0.15222222222222226,-0.7711111111111111,2.913252908610319,10.987876454305159,-149.84698836555873
1589985659.8485093,-2.1939240253382093,-2.726075974661791,8.702215095018285,0.5166666666666667,-0.15222222222222226,-0.7711111111111111,3.5079119457266748,11.69264307695382,-149.09810063345523
1589985659.8585093,-2.1213294167685683,-2.7530379073847624,8.676075814769526,0.5166666666666667,-0.15222222222222226,-0.7711111111111111,3.0383742490297196,11.573578473071402,-148.46479577595832
1589985659.8685093,-2.063702026801179,-2.8651918927952837,8.803957883861559,0.5575746249759438,-0.1678062063400421,-0.7711111111111111,2.186700446686317,10.764625558357896,-147.49068833753685
1589985659.8785093,-1.9973806881243064,-2.871054384017758,8.828945615982242,0.5633333333333334,-0.17,-0.7711111111111111,2.069089900110988,11.19069089900111,-146.0890677025527
1589985659.8885093,-1.6891032376298107,-2.5102321319486864,8.175876603543067,0.5633333333333334,-0.17,-0.7711111111111111,1.1221976175931583,10.432345754428834,-144.91543219303605
1589985659.8985093,-1.6508929477422627,-2.7603957382039574,8.943942161339422,0.5633333333333334,-0.17,-0.7711111111111111,-5.257737189244039,5.95224505327245,-143.67338914256723
1589985659.9085093,-1.7689007031383983,-2.9289007031383982,8.922198593723204,0.5633333333333334,-0.17,-0.7711111111111111,-0.12983193277310878,7.414139941690962,-140.26580989538672
1589985659.9185092,-1.6820493595751327,-2.8334274445485788,8.276819353327085,0.5719552483598875,-0.15467215106390367,-0.8276325540629664,4.670496036394876,12.272087824117463,-134.62875126913465
1589985659.9285092,-1.6969676410441477,-2.948628653915554,8.781482256706363,0.5733333333333334,-0.15222222222222226,-0.8366666666666667,1.8183552869000361,8.485092626007457,-131.74728437387225
1589985659.9385092,-1.7103111952825722,-2.9883557870270736,8.858355787027074,0.5733333333333334,-0.15222222222222226,-0.8366666666666667,1.0147177506133516,7.738330176903542,-130.74082662592002
1589985659.9485092,-1.7426161566535654,-3.090929253228523,8.913838433464345,0.5733333333333334,-0.15222222222222226,-0.8366666666666667,0.12424112156092082,7.279039163391353,-127.0669216732173
1589985659.9585092,-1.7258204638787669,-3.154029922686872,8.735222010141323,0.5733333333333334,-0.15222222222222226,-0.8366666666666667,2.440305251894268,8.973877899242293,-121.66228285807932
1589985659.9685092,-1.6641704246892277,-3.1729147876553863,8.670403513587702,0.5283707392738412,-0.15174389675350425,-0.7778326340143523,2.4618838476922473,7.996637386769146,-117.42993412023058
1589985659.9785092,-1.5897155701818824,-3.1738862280727527,8.806113771927247,0.4688888888888889,-0.1511111111111111,-0.7,2.354266447271766,7.4028442981811775,-111.20941255546087
1589985659.9885092,-1.5462965294869593,-3.203703470513041,8.749333753076527,0.4688888888888889,-0.1511111111111111,-0.7,2.542129338141301,7.036577280445691,-107.25881699196765
1589985659.9985092,-1.5399921622219097,-3.224996081110955,8.799937297775278,0.4688888888888889,-0.1511111111111111,-0.7,2.375146958339195,6.68759797222613,-103.28323393757913
1589985660.0085092,-1.4858171600718382,-3.1559428770059674,8.805942877005968,0.4688888888888889,-0.1511111111111111,-0.7,2.742928422455246,6.809357076646776,-98.00371502230462
1589985660.0185091,-1.470548565052997,-3.2265908386536912,8.917029690696088,0.476751999008244,-0.07472661280880459,-0.6584378465119802,2.5858643773631687,6.114714405256307,-92.72325745366639
1589985660.0285091,-1.4093080357142858,-3.1893973214285714,8.890267857142858,0.4844444444444445,0.0,-0.6177777777777778,2.7124720982142856,5.842912946428571,-87.07184709821429
1589985660.0385091,-1.33,-3.106421086284679,8.549157756385208,0.4844444444444445,0.0,-0.6177777777777778,3.2802631345245286,6.0868419416716995,-81.97762956910944
1589985660.0485091,-1.381794982359859,-3.2305699725597803,8.79586985495884,0.4844444444444445,0.0,-0.6177777777777778,1.4515631125049,4.040594374754998,-76.92912583300667
1589985660.058509,-1.3500122694368328,-3.207287227516257,8.842774119667906,0.4844444444444445,0.0,-0.6177777777777778,1.437269948059384,4.119067216064782,-71.34725317982904
1589985660.068509,-1.31,-3.246388464414605,8.603611535585395,0.5114953777459873,0.06806363862968864,-0.601198173496187,2.5801748382482037,4.544825161751796,-65.06441419839386
1589985660.078509,-1.301903736455064,-3.286192527089872,8.70144395317404,0.5188888888888888,0.08666666666666667,-0.5966666666666667,0.6128324666101577,2.868848938168656,-60.85079952349316
1589985660.088509,-1.248753618771903,-3.2167908839598613,8.63482814914782,0.5188888888888888,0.08666666666666667,-0.5966666666666667,1.7264494133780284,3.277846857926471,-56.28152140789273
1589985660.098509,-1.3138884695225514,-3.4206932911870163,8.753795527458012,0.5188888888888888,0.08666666666666667,-0.5966666666666667,1.5260455982260805,2.7760455982260805,-51.81656621532365
1589985660.108509,-1.3457451089016532,-3.5242548910983467,8.858294019885122,0.5188888888888888,0.08666666666666667,-0.5966666666666667,1.3736514855526722,2.2513485144473275,-48.665078213837944
1589985660.118509,-1.3321750202569742,-3.522175020256974,8.889459428174558,0.5183454875178454,0.09188331982868388,-0.5966666666666667,1.6677928579696724,2.0427928579696726,-45.784024482000234
1589985660.128509,-1.2405596480815557,-3.424079530775408,8.907363753796739,0.5133333333333333,0.14,-0.5966666666666667,0.9689802045875082,0.9794736061166778,-39.99696260866529
1589985660.138509,-1.288497521369265,-3.507495868948775,8.79900936371611,0.5133333333333333,0.14,-0.5966666666666667,1.1874655745731246,0.9187190171158123,-36.47822655500928
1589985660.148509,-1.2726066474289885,-3.4781387546500713,8.692925459792095,0.5133333333333333,0.14,-0.5966666666666667,1.7327121649341168,1.3663560824670584,-33.598745567221776
1589985660.158509,-1.2132506711883566,-3.40900805426028,8.713250671188357,0.5133333333333333,0.14,-0.5966666666666667,1.854683305072771,1.457816694927229,-30.280998304366257
1589985660.168509,-1.224327976348406,-3.49,8.836855361406966,0.5258363761176178,0.1577927916545587,-0.6029181880588089,1.2174032520941513,0.8508035477390744,-26.370457538945534
1589985660.178509,-1.2254482079260438,-3.49,8.903515950594832,0.5422222222222223,0.1811111111111111,-0.6111111111111112,0.7504357050844889,0.5120766083200727,-22.884026672728652
1589985660.188509,-1.1912810627767647,-3.470854041851177,8.795213510462794,0.5422222222222223,0.1811111111111111,-0.6111111111111112,0.9155910827472432,0.8258444039246331,-19.25955978119302
1589985660.198509,-1.16,-3.4360952566096423,8.785365085536547,0.5422222222222223,0.1811111111111111,-0.6111111111111112,0.7164682153965786,0.5,-15.70397064541213
1589985660.208509,-1.16,-3.414286758287489,8.802852966850043,0.5422222222222223,0.1811111111111111,-0.6111111111111112,0.8214155214063864,0.5,-11.196872272182862
1589985660.218509,-1.1668900946205254,-3.4031099053794747,8.840670283861575,0.5605958078769566,0.20178139497268724,-0.6157045075247947,0.875,0.28468454310858204,-6.446709786276715
1589985660.228509,-1.1627890538444492,-3.3927890538444494,8.763468646133393,0.5688888888888889,0.2111111111111111,-0.6177777777777778,0.6045895191668513,-0.35332096166629734,-2.285689951251939
1589985660.238509,-1.153157428558109,-3.362629714232437,8.81211085730269,0.5688888888888889,0.2111111111111111,-0.6177777777777778,0.02957321337000607,-0.7763303575590882,1.3784642907090578
1589985660.248509,-1.143699076950386,-3.343699076950386,8.723981539007722,0.5688888888888889,0.2111111111111111,-0.6177777777777778,0.12754615248069584,-0.875,4.767823067364871
1589985660.258509,-1.1710494076349276,-3.42871259324265,8.725405704256254,0.5688888888888889,0.2111111111111111,-0.6177777777777778,0.3125,-0.9858907415533129,7.642693067134708
1589985660.268509,-1.183442015561319,-3.486884031122638,8.79344201556132,0.5722613313572928,0.21532666419661603,-0.6266304392573381,0.19393756947017415,-1.1961374583178954,10.881761763616154
1589985660.278509,-1.1264739201632172,-3.393236960081609,8.804104319347132,0.5777777777777777,0.2222222222222222,-0.6411111111111111,-0.3381519959195726,-1.1434240020402138,14.966411975517435
1589985660.288509,-1.150863368790664,-3.39,8.755927914902406,0.5777777777777777,0.2222222222222222,-0.6411111111111111,-0.22994552308168953,-1.2553960549416503,17.287772384591552
1589985660.298509,-1.1509096839072648,-3.402726877395157,8.741817193487892,0.5777777777777777,0.2222222222222222,-0.6411111111111111,-0.34090044301905253,-1.5738574592993233,19.357916247655805
1589985660.3085089,-1.112589343979118,-3.3661429503665885,8.842231968062647,0.5777777777777777,0.2222222222222222,-0.6411111111111111,-0.5685266400522053,-1.8588166001305133,20.919083000652567
1589985660.3185089,-1.1072045021127024,-3.3472045021127026,8.84806379239427,0.6362730849609659,0.24210298021912277,-0.6541100682629306,-0.5174718617956101,-2.0,22.14113506338107
1589985660.3285089,-1.13765652218465,-3.3471913105851008,8.7206260887386,0.7477777777777778,0.28,-0.6788888888888889,-0.4150271544215596,-2.10252715442156,23.403287990572803
1589985660.3385088,-1.176599541073887,-3.3188607618173473,8.73301496099128,0.7477777777777778,0.28,-0.6788888888888889,-0.75,-2.3702891234511245,25.074223267553926
1589985660.3485088,-1.2517388394614597,-3.4379702385638926,8.815507440359028,0.7477777777777778,0.28,-0.6788888888888889,-0.8704752578537123,-2.077892488780411,27.09150854263444
1589985660.3585088,-1.2060486841837461,-3.284194736734985,8.719823947245231,0.7477777777777778,0.28,-0.6788888888888889,-0.9180476970671443,-1.9842697372438076,29.860370066961107
1589985660.3685088,-1.2106267370327577,-3.3076114043031573,8.7939693345408,1.1192687547491906,0.39286519758368116,-1.0889468680497005,-1.1673484682884177,-2.5664171064547356,32.30801689410736
1589985660.3785088,-1.288340848440232,-3.4154977454679303,8.868816048587467,1.4755555555555555,0.5011111111111111,-1.4822222222222223,-1.5666478788994203,-2.4780827275236956,35.43570787705899
1589985660.3885088,-1.3493229849141553,-3.3394005980579915,8.75,1.4755555555555555,0.5011111111111111,-1.4822222222222223,-1.3209626885730605,-2.653649245707758,39.41863429425797
1589985660.3985088,-1.3899712412285747,-3.3419309789485796,8.767982744737145,1.4755555555555555,0.5011111111111111,-1.4822222222222223,-1.1875,-3.3373562061428736,44.160127401357414
1589985660.4085088,-1.3245524207593173,-3.2442364824717767,8.790052656381256,1.4755555555555555,0.5011111111111111,-1.4822222222222223,-1.0618417952342902,-3.500329102382855,48.20000589054849
1589985660.4185088,-1.3511020279830215,-3.238877534978777,8.727783681811037,1.0780571887718562,0.05423406522384672,-1.1365714684972663,-0.8333418487659173,-3.527780616255306,53.30533131583084
1589985660.4285088,-1.4653629170182199,-3.305614895218115,8.89826625316398,0.76,-0.3033333333333333,-0.86,-1.621850272501311,-4.530368503865186,57.91740302829909
1589985660.4385087,-1.4170493716119308,-3.217049371611931,8.715246858059654,0.76,-0.3033333333333333,-0.86,-1.1413964314364198,-4.338117145149136,61.24036299438462
1589985660.4485087,-1.4297313405037948,-3.2297313405037946,8.784873120081947,0.76,-0.3033333333333333,-0.86,-1.339552195371793,-4.535494366066024,63.190904805140384
1589985660.4585087,-1.47951647516855,-3.269758237584275,8.847296742949387,0.76,-0.3033333333333333,-0.86,-1.9954669547051562,-5.089972462254297,64.38887332636976
1589985660.4685087,-1.5349731496614523,-3.256684566892365,8.742228188964122,0.6960984425938896,-0.1526465526932489,-0.7887583988377824,-1.9446309051288038,-4.885696357693206,65.56216437076816
1589985660.4785087,-1.5731178078416062,-3.2664260284355837,8.70467671176241,0.5955555555555555,0.08444444444444445,-0.6766666666666666,-1.7471489767324344,-4.73455480395985,66.14448629901004
1589985660.4885087,-1.5750224599727871,-3.333127807496598,8.685639037482993,0.5955555555555555,0.08444444444444445,-0.6766666666666666,-1.8045120314626009,-5.097463234608861,66.23458556224487
1589985660.4985087,-1.6388816135018731,-3.345328968101124,8.75019748590637,0.5955555555555555,0.08444444444444445,-0.6766666666666666,-1.5193262194054413,-4.7360201687734165,66.96093832066948
1589985660.5085087,-1.5982983851135337,-3.2550125420116403,8.911181900155752,0.5955555555555555,0.08444444444444445,-0.6766666666666666,-1.9983758914665137,-5.117613124026559,68.48595991474711
1589985660.5185087,-1.4126338224444626,-2.993706861218133,8.95931715714403,0.5955555555555555,0.08444444444444445,-0.6766666666666666,-1.568596811214034,-4.816767767849823,69.7323192474793
1589985660.5285087,-1.6556852895950793,-3.246467042542286,8.731167606355715,0.59,0.12555555555555556,-0.7122222222222222,-1.817385955920041,-4.903172731932342,71.3284264479754
1589985660.5385087,-1.7013468430748617,-3.364326578462569,8.935041701557527,0.59,0.12555555555555556,-0.7122222222222222,-2.321811673086585,-5.339541115391056,71.55318832691341
1589985660.5485086,-1.7249550898203592,-3.4004491017964074,8.710359281437126,0.59,0.12555555555555556,-0.7122222222222222,-1.998315868263473,-5.123877245508982,71.46678517964072
1589985660.5585086,-1.6945073833893272,-3.433004922259552,8.796736463786234,0.59,0.12555555555555556,-0.7122222222222222,-1.8656096179389015,-5.106219235877803,70.29402687709977
1589985660.5685086,-1.6291783984935437,-3.4240098188665713,8.862801963773313,0.5884433534592699,0.11279105392156863,-0.7221847600828949,-1.849938632083931,-5.057364990584649,68.2294599623386
1589985660.5785086,-0.8906650389489594,-2.693951866062086,6.049723287989768,0.5844444444444444,0.08,-0.7477777777777778,-0.5769241948610626,-0.155817637484013,61.27163992559005
1589985660.5885086,-0.7249965388342794,-3.313933268724906,6.552364668420323,0.5844444444444444,0.08,-0.7477777777777778,12.774582929530666,12.993354561816421,-20.71805344039872
1589985660.5985086,-1.2483925437556325,-4.186937342882891,10.486277569605843,0.5844444444444444,0.08,-0.7477777777777778,2.1643904449082214,-1.288813854764502,-104.11596280178343
1589985660.6085086,-1.2610398133294445,-3.767771828579762,10.545246567636825,0.5844444444444444,0.08,-0.7477777777777778,-8.240864393008188,-6.573306214712806,-129.57921128565178
1589985660.6185086,6.0316859252392145,-1.8204767738304142,2.741075058768997,0.5400117721933435,0.06047655310178901,-0.6649714340370898,-20.55852688474655,89.65075489189816,-156.47612199119294
1589985660.6285086,5.104235507769775,-1.4311131518666032,-1.5534641021936975,0.5111111111111111,0.04777777777777778,-0.6111111111111112,-39.34024624925191,-16.194320480013204,-368.29581381430955
1589985660.6385086,0.7866964921199796,-1.8501982714794103,-0.6737447890188104,0.5111111111111111,0.04777777777777778,-0.6111111111111112,-37.21290353329944,-73.45500762582613,-510.9360415607524
1589985660.6485085,-0.13524593695397213,-1.9288278800354246,-0.3887950884415615,0.5111111111111111,0.04777777777777778,-0.6111111111111112,-36.63580985662654,-55.74170187175375,-519.0889337346514
1589985660.6585085,-0.1817457298355963,-1.8068912073218961,-0.365630402440632,0.5111111111111111,0.04777777777777778,-0.6111111111111112,-44.66692364550573,-59.404701653452854,-508.21959332215965
1589985660.6685085,0.09984190532517458,-2.6256331748595345,1.2389424717363116,0.49963503003925197,0.12428498492350543,-0.6183792957899553,-54.301477445917975,-54.763229055299014,-496.5898694297218
1589985660.6785085,0.23966736216034726,-4.24542101350217,3.6981315202532556,0.4777777777777778,0.27,-0.6322222222222222,-54.86442669736432,-35.749310501954575,-480.1579070436722
1589985660.6885085,0.27850027781987163,-3.651125170480376,3.5238765974642625,0.4777777777777778,0.27,-0.6322222222222222,-0.21477212456432682,51.05634692125069,-451.60231821740666
1589985660.6985085,1.6787315925757547,-2.730585479630764,7.032357533948726,0.4777777777777778,0.27,-0.6322222222222222,79.86778404261628,158.12672708584532,-417.8441064122077
1589985660.7085085,2.77320644957319,-0.11133417641479604,10.849867846980715,0.4777777777777778,0.27,-0.6322222222222222,90.42166851090737,191.37677442301612,-391.83650806196647
1589985660.7185085,-1.4246327334798163,0.15027347509488093,6.3354023134612945,0.43500327871498584,0.3243446504486291,-0.6374813819430573,67.38818800050845,221.99360120939184,-332.44820815703935
1589985660.7285085,-0.4176373626373626,-0.618021978021978,-0.02333791208791225,0.3422222222222222,0.44222222222222224,-0.6488888888888888,18.821600274725274,115.20716002747253,-277.0049793956044
1589985660.7385085,1.0730013704888077,-0.8717633622658748,13.738492462311559,0.3422222222222222,0.44222222222222224,-0.6488888888888888,4.8951005025125625,16.64370146185473,-230.84684787574236
1589985660.7485085,3.9632220403709764,-1.5727965084560829,17.685541371158394,0.3422222222222222,0.44222222222222224,-0.6488888888888888,-7.1292348608837965,-55.902523186033825,-199.42532733224223
1589985660.7585084,0.9628239841541508,-1.7212147843310706,8.85139208861368,0.3422222222222222,0.44222222222222224,-0.6488888888888888,-5.233354887406012,-71.36714918943866,-166.8244637122363
1589985660.7685084,1.8746992736077481,-1.4886547215496369,10.607389830508474,0.3169980091471617,0.46893021253699224,-0.6385024482109227,6.797348668280872,-4.053559322033898,-139.10446731234867
1589985660.7785084,1.3531074527399296,-1.201992016099766,9.789302563425819,0.2855555555555556,0.5022222222222222,-0.6255555555555555,8.465387977961797,62.39903211705321,-113.65500354656726
1589985660.7885084,0.4672130503144654,-1.1142899514008004,7.742627215551743,0.2855555555555556,0.5022222222222222,-0.6255555555555555,4.412869854202401,78.49755663950829,-98.63269189536878
1589985660.7985084,1.1938350802194124,-1.655706265612526,8.918350802194123,0.2855555555555556,0.5022222222222222,-0.6255555555555555,-2.8041899513275474,-3.8163419690453466,-86.93666143030053
1589985660.8085084,1.198593258066457,-1.9985677903222572,9.843260673391221,0.2855555555555556,0.5022222222222222,-0.6255555555555555,-16.101507509976535,-30.186615146289128,-74.85653087211983
1589985660.8185084,0.9853584051467377,-2.02,9.926703864024462,0.27044098504604447,0.5173367927317334,-0.6356319358952296,-14.120189825662207,-7.418827687542196,-59.32335143560621
1589985660.8285084,0.8256396752887777,-1.9922802525531729,10.136205592248828,0.23555555555555555,0.5522222222222222,-0.6588888888888889,10.508212342517968,25.723509921731793,-42.90127367685996
1589985660.8385084,1.0876417388996993,-2.2202071908721033,9.147547541128604,0.23555555555555555,0.5522222222222222,-0.6588888888888889,17.314042322660534,13.025911297098887,-28.023050537325314
1589985660.8485084,4.358649508280627,-4.424837494973129,9.763312250941397,0.23555555555555555,0.5522222222222222,-0.6588888888888889,-7.689629565312763,-5.979876521770921,-15.606469125872847
1589985660.8585083,15.767120973933388,-9.998734508097833,-0.05042664424377463,0.23555555555555555,0.5522222222222222,-0.6588888888888889,-21.633955827514352,-10.627985275838117,-3.9622379172302846
1589985660.8685083,0.6864625546443728,-0.9273464373464372,8.381855515491878,0.22388986388986387,0.5564642919188374,-0.6546468191922737,-25.700909808864353,-15.993217317080951,77.50202024633843
1589985660.8785083,-0.7418412200044853,-1.6789100695223143,7.84835837631756,0.2111111111111111,0.5611111111111111,-0.65,21.729928235030272,7.815639717425432,109.5261549674815
1589985660.8885083,-0.7567300784143801,-0.9705936290063318,3.863606083054946,0.2111111111111111,0.5611111111111111,-0.65,47.51462581943726,13.626752442586977,114.32236993835875
1589985660.8985083,-0.6043017485987447,-1.392702850034245,4.748862921599597,0.2111111111111111,0.5611111111111111,-0.65,41.24894206980417,22.89703307800903,119.48881092489832
1589985660.9085083,0.15575113122171946,-2.8091805841217607,12.183394076511725,0.2111111111111111,0.5611111111111111,-0.65,-31.54533371040724,-24.936867544220487,116.22941947758125
1589985660.9185083,0.4113077671477217,-2.5280691584238686,10.28653883573861,0.21291110390429346,0.5603495756986109,-0.6508999963965912,-34.20688493189557,-30.443276714772175,120.76365128911951
1589985660.9285083,1.0308140462889068,-5.072053205639797,7.34861612130886,0.24,0.5488888888888889,-0.6644444444444444,10.381557595105082,-1.4992650971002925,133.04407865567083
1589985660.9385083,2.414420669883225,-8.506881336969442,5.070739109153206,0.24,0.5488888888888889,-0.6644444444444444,18.91632578141389,-0.9731531011817356,141.74585256275785
1589985660.9485083,0.016902937549279254,-2.5654521561571277,9.335548187534117,0.24,0.5488888888888889,-0.6644444444444444,-12.446567383700948,-14.716152730323675,169.3443824171603
1589985660.9585083,-0.15,-2.8021149437000052,8.91624828043002,0.24,0.5488888888888889,-0.6644444444444444,-6.549262495541855,-20.94106333112549,187.924894596729
1589985660.9685082,-0.15635908069811646,-2.5863590806981165,7.849688958009332,0.2590772420943494,0.5411166791467465,-0.6623247508784056,0.9124870399170555,-2.72216822187662,196.15001296008293
1589985660.9785082,-0.05613738420877061,-3.6468014677580767,8.055426855867184,0.3,0.5244444444444445,-0.6577777777777778,-5.823314131020503,-13.471417849169896,198.15684258807832
1589985660.9885082,0.11226378764956678,-4.530742676385642,9.153962316050062,0.3,0.5244444444444445,-0.6577777777777778,-14.41391314812268,-20.882082932196397,203.87624638976757
1589985660.9985082,-0.014328777154015121,-3.1000768855259944,8.917894801073956,0.3,0.5244444444444445,-0.6577777777777778,-9.90305406394923,-19.114725713937027,216.73702556748842
1589985661.0085082,-0.2296843210968598,-3.061938301636444,8.256280406899602,0.3,0.5244444444444445,-0.6577777777777778,1.560063992702344,-12.05843998783724,230.2581200243255
1589985661.0185082,2.071754616320212,-12.418418011941618,5.195424590888987,0.3,0.5244444444444445,-0.6577777777777778,1.0165881730981865,-11.152646955163645,232.0697060896727
1589985661.0285082,2.364306313837152,-13.317525665473735,4.4965499856325595,0.3261979107709365,0.508113279288536,-0.6598191734222664,-13.26924910530028,-18.844204696847,180.03715942634727
1589985661.0385082,-1.1941466480766154,-0.7023784599209161,10.047887591140775,0.3855555555555555,0.4711111111111111,-0.6644444444444444,-26.113808827226805,-19.28962195149825,37.100976263399694
1589985661.0485082,-1.854319024179789,-1.7248706685231308,12.724063891122311,0.3855555555555555,0.4711111111111111,-0.6644444444444444,15.671234287059008,17.329128507834408,-2.3603950542231287
1589985661.0585082,-1.2497633988978878,-1.3382840782068128,8.81295913164552,0.3855555555555555,0.4711111111111111,-0.6644444444444444,38.59910919145765,25.297336153981917,1.5465970819524246
1589985661.0685081,-0.6452077736159865,-0.9516974878904949,4.90185437216873,0.3855555555555555,0.4711111111111111,-0.6644444444444444,61.52698409585629,33.26554380012943,5.453589218127979
1589985661.0785081,1.5065074734749722,-7.217821204533134,9.618990629114284,0.42312127652861325,0.426032245943442,-0.6580046065633489,-13.761042414229294,-10.551375300100673,-7.890153470841831
1589985661.0885081,0.8535744032855347,-5.256036593103608,10.27803490880565,0.4244444444444445,0.4244444444444445,-0.6577777777777778,-16.5,-12.125,-8.375
1589985661.0985081,0.1035813250579698,-3.001218693400091,10.771578740929595,0.4244444444444445,0.4244444444444445,-0.6577777777777778,-16.5,-12.125,-8.375
1589985661.108508,-0.19018626309662395,-4.135521682188591,9.42319339348079,0.4244444444444445,0.4244444444444445,-0.6577777777777778,-4.845609902502911,-3.050917673166472,1.9032259531431883
1589985661.118508,-0.20354100075550646,-4.584286918114721,8.797204916603707,0.4244444444444445,0.4244444444444445,-0.6577777777777778,-0.6432374905561691,-0.7387291509269482,4.13084064624862
1589985661.128508,-0.057287731737083736,-4.303968152496077,8.80939268902191,0.4244444444444445,0.4244444444444445,-0.6577777777777778,-2.471403353286453,-3.7856722554774223,0.017467455105480312
1589985661.138508,-0.067129287372131,-4.398485486690164,8.52451187713115,0.4130249195296905,0.4244444444444445,-0.6533368514220401,-1.6703496160348434,-1.5822229863319865,-0.11612796928278747
1589985661.148508,-0.08827505345196221,-4.499308458054578,8.398267236820931,0.4044444444444445,0.4244444444444445,-0.65,-0.534528243327126,0.15302061061682415,0.006458778766351703
1589985661.158508,-0.09422659746821539,-4.509849520828184,8.668716533487109,0.4044444444444445,0.4244444444444445,-0.65,0.6875,0.08042432105884614,0.16957567894115386
1589985661.168508,-0.030880769970068916,-4.348605596287448,8.824201746437105,0.4044444444444445,0.4244444444444445,-0.65,0.6875,0.1524082159431035,0.09759178405689652
1589985661.178508,0.009459047172025345,-4.298377141516076,8.865316827035906,0.41285248637513366,0.4244444444444445,-0.65910871209158,0.23425398967378552,0.1677936517249472,0.02308730344989439
1589985661.188508,0.02791554212626144,-4.3537466263787845,8.797643012203707,0.42925825966778797,0.4244444444444445,-0.6768816331586222,-0.6501197268833605,0.12934262057028867,-0.053814758859422676
1589985661.198508,0.02111784857419101,-4.395528605703237,8.683414182890292,0.4311111111111111,0.4244444444444445,-0.6788888888888889,-0.75,0.04172983038304069,-0.0347432767943469
1589985661.208508,0.011104837843322155,-4.435580648626712,8.563258054119867,0.4311111111111111,0.4244444444444445,-0.6788888888888889,-0.75,-0.052142145218854824,-0.0034526182603817276
1589985661.218508,0.00038682003787049446,-4.382320920227223,8.646131799621296,0.4311111111111111,0.4244444444444445,-0.6788888888888889,-0.17921743974856053,-0.032458812618345295,0.06008237476330942
1589985661.228508,-0.009484895552667448,-4.323090626683996,8.746394268868672,0.43151174790348085,0.42415827530703754,-0.6766567696171145,0.3763313468792595,0.009658208387485339,0.1185611944083431
1589985661.238508,0.005894236191129961,-4.412418299051215,8.65052881904435,0.4388888888888889,0.4188888888888889,-0.6355555555555555,-0.6579025595135943,0.20591948809728114,0.01841948809728113
1589985661.248508,0.009815559197303732,-4.469631118394608,8.58203688816054,0.4388888888888889,0.4188888888888889,-0.6355555555555555,-0.3356555919730373,0.25,0.04976944899662966
1589985661.258508,-0.02260690764045639,-4.404786184719087,8.588521381528091,0.4388888888888889,0.4188888888888889,-0.6355555555555555,-0.011430923595436127,0.25,0.009241365449429516
1589985661.268508,-0.02061994843419566,-4.352479793736782,8.777601031316086,0.4388888888888889,0.4188888888888889,-0.6355555555555555,0.8832545120078797,0.015498710854891518,0.05862532228627712
1589985661.278508,-0.002728390418884518,-4.355757203193705,8.818786015968525,0.4344110641826738,0.4188888888888889,-0.652187475892926,0.03793700098356867,-0.03598251996065726,0.02651748003934274
1589985661.288508,0.005890901981230448,-4.374381843065693,8.794799921793535,0.4311111111111111,0.4188888888888889,-0.6644444444444444,-0.702045587851929,-0.0881818626173097,0.0
1589985661.298508,-0.007776655370177269,-4.42221829379562,8.64445679092805,0.4311111111111111,0.4188888888888889,-0.6644444444444444,-0.9583122881908237,-0.17360409606360794,0.0
1589985661.308508,-0.0017685580720560974,-4.43,8.676462883855887,0.4311111111111111,0.4188888888888889,-0.6644444444444444,0.025927903602804878,0.10289302409929878,0.10289302409929878
1589985661.318508,-0.009653377348908075,-4.427227018791264,8.665545962417472,0.4311111111111111,0.4186578071214943,-0.6642133626770498,0.44399917470797357,0.00216639156932453,0.00216639156932453
1589985661.328508,-0.002721372604550175,-4.35,8.790064901349949,0.4311111111111111,0.4122222222222222,-0.6577777777777778,0.4379056334371755,0.07950857877843859,0.028482842443122817
1589985661.338508,-0.015092660550458714,-4.367824311926605,8.694722018348624,0.4311111111111111,0.4122222222222222,-0.6577777777777778,-0.15798738532110093,0.125,-0.04658543577981651
1589985661.348508,-0.023339053574367052,-4.433321892851266,8.636678107148734,0.4311111111111111,0.4122222222222222,-0.6577777777777778,-0.39586908483979405,0.125,0.04163091516020593
1589985661.3585079,-0.003120404816897932,-4.46595817832396,8.607162226492939,0.4311111111111111,0.4122222222222222,-0.6577777777777778,-0.15248734947193965,0.13475126505280605,0.16799746989438794
1589985661.3685079,-0.017910679337764693,-4.399401942980059,8.688508736357704,0.4311111111111111,0.4122222222222222,-0.6577777777777778,0.3097087293051466,0.18097087293051467,0.07555825413897067
1589985661.3785079,-0.00811709016797607,-4.358702541007856,8.789414549160119,0.4244444444444445,0.4244444444444445,-0.6577777777777778,0.3904272541994017,0.07426818645014957,0.038963627099700866
1589985661.3885078,-0.0012233325663193184,-4.317339995397916,8.823883337168404,0.4244444444444445,0.4244444444444445,-0.6577777777777778,0.218083314157983,0.11735417146050425,-0.047208342921008506
1589985661.3985078,0.008693897744314404,-4.416081693232943,8.62,0.4244444444444445,0.4244444444444445,-0.6577777777777778,-0.741836860901965,-0.05433686090196503,-0.008163139098034972
1589985661.4085078,0.0022093041233128743,-4.396627912369938,8.62,0.4244444444444445,0.4244444444444445,-0.6577777777777778,-0.7013081507707055,-0.013808150770705463,-0.04869184922929454
1589985661.4185078,0.0,-4.445998514968443,8.66666542914037,0.4244444444444445,0.4244444444444445,-0.6577777777777778,-0.16251392217084615,-0.05833178642546154,0.054163572850923075
1589985661.4285078,-0.016968115284239194,-4.36848405764212,8.759095654147282,0.4311111111111111,0.4188888888888889,-0.6711111111111111,0.5965760807897424,0.10605072052649495,0.009474639736752525
1589985661.4385078,0.0,-4.360892692767191,8.795716915724945,0.4311111111111111,0.4188888888888889,-0.6711111111111111,0.39286536164045516,0.016737989384829316,0.0625
1589985661.4485078,0.0,-4.3691073072328095,8.664283084275056,0.4311111111111111,0.4188888888888889,-0.6711111111111111,-0.017865361640455213,0.17076201061517068,0.0625
1589985661.4585078,0.0012295783558483122,-4.431229578355848,8.68,0.4311111111111111,0.4188888888888889,-0.6711111111111111,-0.3913908116556883,0.10194540582784414,0.04713027055189609
1589985661.4685078,0.00903408879461129,-4.439034088794612,8.68,0.4311111111111111,0.4188888888888889,-0.6711111111111111,-0.09872167020207656,-0.04438916489896172,-0.05042610993264114
1589985661.4785078,0.0,-4.383325386554049,8.716674613445951,0.4244444444444445,0.4244444444444445,-0.6711111111111111,0.39585816701859544,0.031212749472106803,0.010429083509297733
1589985661.4885077,0.0,-4.354755806825148,8.745244193174852,0.4244444444444445,0.4244444444444445,-0.6711111111111111,0.485138103671412,-0.10270715550711806,0.05506905183570602
1589985661.4985077,-0.00833924741665042,-4.358303762916748,8.7,0.4244444444444445,0.4244444444444445,-0.6711111111111111,-0.20803762916747903,-0.14598118541626048,-0.01037970364593488
1589985661.5085077,-0.00016162994735815887,-4.399191850263209,8.7,0.4244444444444445,0.4244444444444445,-0.6711111111111111,-0.616918502632092,0.05845925131604601,-0.0614898128290115
1589985661.5185077,0.0,-4.4162310258384165,8.683768974161584,0.4244444444444445,0.4244444444444445,-0.6711111111111111,-0.4728341327648487,0.0625,-0.01177804425494957
1589985661.5285077,-0.002456983342485814,-4.415086033315029,8.731637988894992,0.4177777777777778,0.4188888888888889,-0.6644444444444444,0.15059357648422722,0.005118715296845445,-0.05738128470315455
1589985661.5385077,-0.021651107450118983,-4.376697785099762,8.744434071633412,0.4177777777777778,0.4188888888888889,-0.6644444444444444,0.35053236927207276,0.04510647385441455,-0.017393526145585453
1589985661.5485077,-0.005065058043699364,-4.368311647318767,8.7250650580437,0.4177777777777778,0.4188888888888889,-0.6644444444444444,0.4375,0.010552204257707011,-0.05194779574229299
1589985661.5585077,-0.007009049512940227,-4.36598190097412,8.708006033008628,0.4177777777777778,0.4188888888888889,-0.6644444444444444,-0.13123114684804119,0.0,0.006231146848041194
1589985661.5685077,0.017166983687820624,-4.414333967375641,8.691888677541453,0.4177777777777778,0.4188888888888889,-0.6644444444444444,-0.18159788268295962,0.0,0.05659788268295963
1589985661.5785077,0.00523751619655138,-4.427381241901724,8.70476248380345,0.4226986057122607,0.4188888888888889,-0.6488618226519153,-0.09523447622844612,-0.04613276188577694,0.01636723811422306
1589985661.5885077,0.0,-4.36,8.755598292106285,0.4244444444444445,0.4188888888888889,-0.6433333333333333,0.3164300963336744,-0.007860192667348883,0.0
1589985661.5985076,0.0,-4.36,8.703796711245985,0.4244444444444445,0.4188888888888889,-0.6433333333333333,0.3626815078160838,-0.10036301563216768,0.0
1589985661.6085076,0.0,-4.372301479734873,8.71,0.4244444444444445,0.4188888888888889,-0.6433333333333333,-0.20428162306678302,-0.125,0.0625
1589985661.6185076,0.0,-4.419025083084235,8.71,0.4244444444444445,0.4188888888888889,-0.6433333333333333,-0.5449745641558827,-0.125,0.0625
1589985661.6285076,-0.0010398967630928057,-4.436880309710722,8.727920206473815,0.4311111111111111,0.4188888888888889,-0.6577777777777778,-0.1980051618453597,0.056000645230669964,-0.006499354769330036
1589985661.6385076,-0.008557371760404345,-4.414327884718787,8.712885256479192,0.4311111111111111,0.4188888888888889,-0.6577777777777778,0.17786858802021727,0.009016426497472842,-0.05348357350252716
1589985661.6485076,-0.017962918160424043,-4.354074163679152,8.65509270459894,0.4311111111111111,0.4188888888888889,-0.6577777777777778,0.41203647700530055,0.2309023577539754,0.049768238502650275
1589985661.6585076,0.0,-4.389329280607504,8.700894292523326,0.4311111111111111,0.4188888888888889,-0.6577777777777778,0.17492401139071778,0.05970533586460395,-0.05970533586460395
1589985661.6685076,0.0,-4.363916468069637,8.734778042573817,0.4311111111111111,0.4188888888888889,-0.6577777777777778,-0.3015662236943087,-0.0461813830431797,0.0461813830431797
1589985661.6785076,0.0,-4.389630031735427,8.71777747619843,0.4311111111111111,0.4230041710743649,-0.6643622292745393,-0.23610922624018707,-0.01620307541339569,0.01620307541339569
1589985661.6885076,0.0,-4.398125699695571,8.716251399391142,0.4311111111111111,0.4244444444444445,-0.6666666666666666,0.07811916920357459,0.16407124619463812,0.06640479230089365
1589985661.6985075,0.0,-4.373412157517431,8.666824315034862,0.4311111111111111,0.4244444444444445,-0.6666666666666666,0.2840653540214082,-0.1448480310321123,0.11789133850535205
1589985661.7085075,0.0,-4.350183627045249,8.739265491819005,0.4311111111111111,0.4244444444444445,-0.6666666666666666,0.18864766903280622,0.06020466193438759,0.06307383451640311
1589985661.7185075,0.0,-4.383759026369168,8.765319269776876,0.4311111111111111,0.4244444444444445,-0.6666666666666666,-0.07624239350912776,-0.042996957403651115,0.0625
1589985661.7285075,0.0,-4.439480420360477,8.717921681441908,0.4444444444444444,0.4188888888888889,-0.65,-0.42775788175893853,0.11850525450595902,0.0625
1589985661.7385075,0.0,-4.431272236247285,8.685088944989138,0.4444444444444444,0.4188888888888889,-0.65,-0.2738544296365878,0.015902953091058533,0.0625
1589985661.7485075,-0.006954593618774773,-4.409136219143676,8.652181625524902,0.4444444444444444,0.4188888888888889,-0.65,0.09772968093873868,-0.08693242023468467,-0.02443242023468467
1589985661.7585075,-0.01912869234755571,-4.363485230609777,8.676514769390222,0.4444444444444444,0.4188888888888889,-0.65,0.5352716358611159,0.04616298151666953,0.16571730868889273
1589985661.7685075,-0.011593414795385238,-4.385219755613844,8.755659266841532,0.4444444444444444,0.4188888888888889,-0.65,0.03708842471157736,-0.04258231505768452,0.24004115752884225
1589985661.7785075,0.0,-4.38121383624381,8.72,0.4388888888888889,0.4188888888888889,-0.6788888888888889,-0.30870676173809436,0.05870676173809435,-0.0625
1589985661.7885075,0.0,-4.412448151319953,8.72,0.4388888888888889,0.4188888888888889,-0.6788888888888889,-0.2110995271251443,-0.03890047287485571,-0.0625
1589985661.7985075,-0.0001403720462543992,-4.399859627953746,8.620701860231271,0.4388888888888889,0.4188888888888889,-0.6788888888888889,0.188815987933635,-0.0625,-0.12412267471091
1589985661.8085074,-0.01701035696329814,-4.3829896430367015,8.705051784816492,0.4388888888888889,0.4188888888888889,-0.6788888888888889,0.3469720965309201,-0.0625,-0.01868526897938662
1589985661.8185074,-0.011628053661968413,-4.38,8.736743892676063,0.4388888888888889,0.4188888888888889,-0.6788888888888889,-0.04359731690157925,-0.010175335387302593,0.1569739938380922
1589985661.8285074,-0.009857105054247155,-4.400142894945753,8.759714210108495,0.4311111111111111,0.4122222222222222,-0.6666666666666666,-0.4995534532945224,0.06160690658904472,-0.18660690658904472
1589985661.8385074,0.009829812057726938,-4.419829812057727,8.717957744692724,0.4311111111111111,0.4122222222222222,-0.6666666666666666,-0.4321816268039668,-0.0625,-0.06143632536079337
1589985661.8485074,0.0,-4.409270542458229,8.607294575417715,0.4311111111111111,0.4122222222222222,-0.6666666666666666,-0.10676356145571068,-0.044263561455710684,-0.009118219272144656
1589985661.8585074,0.00027738716699092714,-4.399167838499028,8.701664323001944,0.4311111111111111,0.4122222222222222,-0.6666666666666666,0.1267336697936933,0.1822989906189201,-0.12153266041261342
1589985661.8685074,0.008356866295532912,-4.374929401113401,8.750141197773198,0.4311111111111111,0.4122222222222222,-0.6666666666666666,0.1772304143470807,0.030808756958757927,-0.020539171305838627
1589985661.8785074,0.0,-4.380456656346749,8.768858359133127,0.4311111111111111,0.4122222222222222,-0.65,-0.12642705108359134,-0.05679179566563468,0.061072948916408666
1589985661.8885074,0.0,-4.399552904753233,8.72111773811692,0.4311111111111111,0.4122222222222222,-0.65,-0.18610282735385175,0.181911309415407,0.001397172646148248
1589985661.8985074,0.0,-4.4,8.599433727301545,0.4311111111111111,0.4122222222222222,-0.65,-0.24546455418194993,0.013606337454150269,-0.05796455418194992
1589985661.9085073,-0.009791640198195908,-4.399374920594588,8.672083598018041,0.4311111111111111,0.4122222222222222,-0.65,0.0026044975225511372,0.18229100495489772,-0.0013022487612755686
1589985661.9185073,-0.0038707491635963246,-4.381612247490789,8.731292508364037,0.4311111111111111,0.4122222222222222,-0.65,0.07661563545504595,0.034268729089908107,-0.03830781772752297
1589985661.9285073,0.0,-4.375572053406998,8.775572053406998,0.43544493042766524,0.41593692449355435,-0.6580485215878862,-0.014301335174953939,0.007150667587476969,-0.027674666206261515
1589985661.9385073,-0.005885245266948004,-4.385885245266948,8.774114754733052,0.4388888888888889,0.4188888888888889,-0.6644444444444444,-0.19856556583685003,0.0625,-0.036782782918425024
1589985661.9485073,0.004820360353906223,-4.397410180176953,8.651437117168749,0.4388888888888889,0.4188888888888889,-0.6644444444444444,-0.25,0.016186373894043052,0.07644087831787083
1589985661.9585073,0.0029445121951219514,-4.407055487804878,8.659388414634146,0.4388888888888889,0.4188888888888889,-0.6644444444444444,-0.11770960365853658,0.08819359756097561,0.0809032012195122
1589985661.9685073,0.0,-4.388293936279548,8.71617677286742,0.4388888888888889,0.4188888888888889,-0.6644444444444444,0.11838386433710177,0.125,-0.027941932168550884
1589985661.9785073,0.0,-4.366947211155379,8.756105577689242,0.43381280433820274,0.4225146635679505,-0.6600935148295706,0.14671003486055778,0.04342006972111555,0.059869895418326685
1589985661.9885073,0.0,-4.399840341447993,8.72019957319001,0.4311111111111111,0.4244444444444445,-0.6577777777777778,-0.061751600537464424,0.12450106702497629,-0.061751600537464424
1589985661.9985073,0.0,-4.4,8.626710960492286,0.4311111111111111,0.4244444444444445,-0.6577777777777778,-0.23741694907696426,0.06669435030767859,-0.00419435030767859
1589985662.0085073,0.0,-4.390364072864073,8.658543708543709,0.4311111111111111,0.4244444444444445,-0.6577777777777778,-0.1295509108009108,0.1227245445995446,-0.060224544599544606
1589985662.0185072,0.0,-4.374427856868026,8.730074644093882,0.4311111111111111,0.4244444444444445,-0.6577777777777778,-0.027674105425163534,-0.02098884186225472,0.08348884186225472
1589985662.0285072,0.0,-4.3796447585245275,8.769289517049055,0.43861258996352165,0.4244444444444445,-0.684568773679244,0.1205594815565978,0.058059481556597806,0.004440518443402194
1589985662.0385072,0.0,-4.38,8.77,0.4388888888888889,0.4244444444444445,-0.6855555555555556,-0.11857383231103366,-0.12018037423327527,0.0
1589985662.0485072,0.008286056083862204,-4.396572112167725,8.670567326993654,0.4388888888888889,0.4244444444444445,-0.6855555555555556,-0.22857570104827754,-0.02142429895172246,0.05178785052413877
1589985662.0585072,0.00039713261648745453,-4.409602867383513,8.678808602150538,0.4388888888888889,0.4244444444444445,-0.6855555555555556,-0.06994623655913978,0.18005376344086022,0.0024820788530465973
1589985662.0685072,0.0,-4.387109154532114,8.702890845467886,0.4388888888888889,0.4244444444444445,-0.6855555555555556,0.04480083813071453,0.11596610791285698,0.0
1589985662.0785072,0.0,-4.388085536547434,8.742606920684292,0.4353722567824434,0.418918308277173,-0.6664652669777087,0.125,0.005982698289269055,-0.028258650855365473
1589985662.0885072,0.0,-4.388935904707885,8.77526602382303,0.4311111111111111,0.4122222222222222,-0.6433333333333333,0.125,-0.0295873511060692,0.03623794668179241
1589985662.0985072,0.0,-4.383026391832017,8.701841649007898,0.4311111111111111,0.4122222222222222,-0.6433333333333333,-0.0785373723752649,0.08141494895010595,0.125
1589985662.1085072,0.0,-4.396135265700483,8.666135265700483,0.4311111111111111,0.4122222222222222,-0.6433333333333333,-0.14915458937198067,0.125,0.08665458937198067
1589985662.1185071,0.0,-4.394127396994937,8.69936301502532,0.4311111111111111,0.4122222222222222,-0.6433333333333333,-0.125,0.051592462436702735,0.0625
1589985662.1285071,0.0,-4.367328719723183,8.75967474048443,0.4235540176855056,0.42229834678969624,-0.6433333333333333,-0.054152249134948094,-0.03542387543252595,0.09792387543252595
1589985662.1385071,0.0,-4.367376928728876,8.763934606906686,0.4177777777777778,0.43,-0.6433333333333333,-0.05430290227773696,-0.0625,0.016394195444526083
1589985662.148507,0.006995773274086919,-4.390987319822261,8.683046493985044,0.4177777777777778,0.43,-0.6433333333333333,-0.14994716592608648,-0.01877641703695676,-0.04372358296304324
1589985662.158507,0.0017015835546375525,-4.416596832890725,8.666596832890725,0.4177777777777778,0.43,-0.6433333333333333,-0.2912302055670306,-0.05186510278351529,-0.01063489721648471
1589985662.168507,0.0,-4.390806044839843,8.699193955160156,0.4177777777777778,0.43,-0.6433333333333333,-0.17565333518676648,0.07434666481323352,0.0
1589985662.178507,0.0,-4.38,8.727951982769543,0.42376177203429205,0.43,-0.6682666427354759,0.09939978461928292,-0.04329983846446217,0.05609994615482073
1589985662.188507,-0.014265708494564218,-4.372867145752718,8.751398562741846,0.4244444444444445,0.43,-0.6711111111111111,0.2587410171365395,0.16040169522756587,0.0625
1589985662.198507,-0.007359620544269835,-4.388960569183595,8.703118292449215,0.4244444444444445,0.43,-0.6711111111111111,0.11499407100421619,0.09199525680337292,0.02299881420084323
1589985662.208507,-0.006034232270952511,-4.406034232270953,8.682068464541905,0.4244444444444445,0.43,-0.6711111111111111,-0.07542790338690639,-0.03771395169345319,0.0
1589985662.218507,-0.01,-4.397551037710255,8.698299308193164,0.4244444444444445,0.43,-0.6711111111111111,-0.125,-0.010629323792729246,-0.025935338103635377
1589985662.228507,-0.007193406013052172,-4.385613187973895,8.712806593986949,0.4319286950763054,0.4250104995787594,-0.6651860793608879,-0.08991757516315213,0.027417575163152137,-0.0625
1589985662.238507,0.0,-4.385312229107138,8.71265611455357,0.4511111111111111,0.4122222222222222,-0.65,0.09179856808039298,-0.0625,0.16699642020098243
1589985662.248507,0.0,-4.393449439773113,8.662926960794104,0.4511111111111111,0.4122222222222222,-0.65,-0.0010884978729353567,-0.1465589985819569,0.12391150212706464
1589985662.258507,0.0,-4.4,8.66926588949675,0.4511111111111111,0.4122222222222222,-0.65,-0.10822795233867041,-0.004588190645318346,0.15395590467734083
1589985662.268507,0.006544249121044701,-4.4,8.70617699648418,0.4511111111111111,0.4122222222222222,-0.65,-0.2068031140130588,-0.019303114013058773,-0.01700778503264691
1589985662.278507,-0.005830489677529431,-4.40527682989251,8.73055365978502,0.4335216781360784,0.41867168097973423,-0.6541042010275077,-0.05211887903088211,0.0034603736563726395,0.006920747312745279
1589985662.288507,-0.012745162708883026,-4.380980650835532,8.747254837291116,0.4177777777777778,0.4244444444444445,-0.6577777777777778,0.125,0.0625,0.03431453386103782
1589985662.298507,-0.015687870433045516,-4.3813757408660905,8.704497036535637,0.4177777777777778,0.4244444444444445,-0.6577777777777778,0.125,0.0625,-0.07109838041306896
1589985662.308507,-0.013478404220243982,-4.396521595779756,8.689564787339268,0.4177777777777778,0.4244444444444445,-0.6577777777777778,0.0027200791295746846,0.0625,-0.0027200791295746846
1589985662.318507,-0.0031537109694294583,-4.386307421938859,8.713692578061142,0.4177777777777778,0.4244444444444445,-0.6577777777777778,-0.0625,0.019710693558934123,0.019710693558934123
1589985662.328507,0.0,-4.404491869918699,8.736327913279133,0.4395483288166215,0.4244444444444445,-0.6577777777777778,-0.11352472899728996,-0.10204945799457994,0.05102472899728997
1589985662.338507,0.0,-4.397212438916037,8.74639378054198,0.4444444444444444,0.4244444444444445,-0.6577777777777778,-0.125,-0.08503887161261661,-0.017422256774766776
1589985662.348507,0.0,-4.382469389174899,8.644571448448588,0.4444444444444444,0.4244444444444445,-0.6577777777777778,0.06326527062752191,-0.0625,-0.015433682343119523
1589985662.358507,0.0,-4.388038573340101,8.674308586720803,0.4444444444444444,0.4244444444444445,-0.6577777777777778,0.024517833248742682,0.08822325012688598,0.05024108337562866
1589985662.368507,0.0,-4.396356033679889,8.702712067359778,0.4444444444444444,0.4244444444444445,-0.6577777777777778,-0.03972521049930625,0.005824368502081234,-0.016950420998612506
1589985662.378507,0.0,-4.406811750276706,8.730435250830118,0.45352677814671893,0.4161189718840262,-0.6623189446289149,-0.01992656077058841,0.27808751383529273,-0.0625
1589985662.388507,0.0,-4.41,8.732015058703421,0.4577777777777778,0.4122222222222222,-0.6644444444444444,-0.0499058831036243,0.038252935171005586,-0.012594116896375698
1589985662.3985069,0.008050695166934645,-4.385847914499196,8.65754374349759,0.4577777777777778,0.4122222222222222,-0.6644444444444444,-0.01218315520665847,0.03813368958668306,0.10063368958668306
1589985662.4085069,0.0029498525073746312,-4.372949852507375,8.668200589970501,0.4577777777777778,0.4122222222222222,-0.6644444444444444,0.1762536873156342,0.01843657817109145,0.125
1589985662.4185069,0.0,-4.375941741357234,8.715650448143405,0.4577777777777778,0.4122222222222222,-0.6644444444444444,-0.04708706786171579,0.0,0.125
1589985662.4285069,0.0,-4.388273696746603,8.74,0.44996373085043034,0.4149801211377566,-0.6672023433599787,-0.22414469766686515,-0.07756590699940454,0.09914469766686515
1589985662.4385068,0.0,-4.4,8.743367663304943,0.4388888888888889,0.4188888888888889,-0.6711111111111111,-0.16645210434410748,-0.12435631303232243,0.0625
1589985662.4485068,-0.007376774479117266,-4.392623225520882,8.690985804167061,0.4388888888888889,0.4188888888888889,-0.6711111111111111,-0.07889515950551709,0.09220968098896581,0.10860484049448291
1589985662.4585068,0.004229345964348397,-4.39,8.691344018946522,0.4388888888888889,0.4188888888888889,-0.6711111111111111,-0.01803329386141126,0.03606658772282252,0.03606658772282252
1589985662.4685068,0.00539795088632298,-4.394602049113677,8.723010245568386,0.4388888888888889,0.4188888888888889,-0.6711111111111111,-0.057525613920962754,0.057525613920962754,0.057525613920962754
1589985662.4785068,-0.006959322438267923,-4.4,8.746520338780867,0.4388888888888889,0.42082203401063,-0.6695645950137182,-0.16849576523917453,0.03800846952165096,0.10325211738041273
1589985662.4885068,-0.009924865408507365,-4.4050375672957465,8.724887298112762,0.4388888888888889,0.4244444444444445,-0.6666666666666666,-0.12406081760634208,-0.125,-0.0004695911968289612
1589985662.4985068,0.0,-4.41,8.66737197401372,0.4388888888888889,0.4244444444444445,-0.6666666666666666,0.0,-0.125,0.013621474975501757
