time,acc_x,acc_y,acc_z,mag_x,mag_y,mag_z,gyr_x,gyr_y,gyr_z
1589986400.83251,-0.04,-4.27,8.65,0.4477777777777778,0.3088888888888889,-0.5877777777777777,-0.25,0.125,0.625
1589986400.84251,-0.026400556783755014,-4.229201670351265,8.703599443216245,0.4477777777777778,0.3088888888888889,-0.5877777777777777,-0.12001043969540653,0.2024686809137804,0.8449756407107181
1589986400.85251,-0.023775954157971065,-4.213775954157971,8.713775954157972,0.44484092454380025,0.3109866411988728,-0.585260475005797,-0.09439885394927665,0.5860997134873192,1.0070014325634042
1589986400.86251,-0.042448190060672165,-4.232448190060672,8.744896380121345,0.44,0.3144444444444445,-0.5811111111111111,-0.301867458586134,0.49533135353466495,0.708765082827732
1589986400.87251,-0.05738170563961485,-4.25,8.76429023383769,0.44,0.3144444444444445,-0.5811111111111111,-0.3422713204951857,0.2634069807427785,0.5297713204951857
1589986400.88251,-0.05510635644996384,-4.244893643550037,8.740425425799856,0.44,0.3144444444444445,-0.5811111111111111,0.06914727812274007,0.188829455624548,0.309841088750904
1589986400.89251,-0.055835463586662436,-4.24,8.77665814565335,0.44,0.3144444444444445,-0.5811111111111111,0.5311701155001586,0.38014176291679885,0.16147164741664022
1589986400.90251,-0.05,-4.226485014314307,8.789188011451445,0.4381980019085742,0.3144444444444445,-0.5790087800044478,0.7162125357857667,0.5625,0.07431880367865015
1589986400.91251,-0.05805751425593231,-4.202086271383899,8.772086271383898,0.43333333333333335,0.3144444444444445,-0.5733333333333334,0.44874187565148077,0.43660133975105775,0.03821892819915383
1589986400.92251,-0.07,-4.2107846917428935,8.743923458714466,0.43333333333333335,0.3144444444444445,-0.5733333333333334,0.1875,0.39398919151728945,0.1875
1589986400.93251,-0.07454389734061086,-4.1954561026593895,8.69,0.43333333333333335,0.3144444444444445,-0.5733333333333334,0.1307012832423644,0.4773019248635466,0.1875
1589986400.94251,-0.08,-4.211277182404736,8.711277182404736,0.43333333333333335,0.3144444444444445,-0.5733333333333334,-0.07048239002959503,0.32180704398816196,0.1875
1589986400.9525099,-0.08356756756756757,-4.232864864864865,8.75427027027027,0.4404684684684685,0.3100840840840841,-0.5812612612612612,-0.2945945945945946,0.25,0.1875
1589986400.9625099,-0.08078302596531181,-4.2292169740346885,8.761566051930624,0.4533333333333333,0.3022222222222222,-0.5955555555555555,-0.2021817368495964,0.1923939122831988,0.1010908684247982
1589986400.9725099,-0.06725327161043355,-4.234506543220867,8.71802617288347,0.4533333333333333,0.3022222222222222,-0.5955555555555555,0.0,0.07349884269562895,0.0
1589986400.9825099,-0.060423103932584266,-4.220423103932584,8.660423103932585,0.4533333333333333,0.3022222222222222,-0.5955555555555555,0.010577598314606742,-0.0625,-0.0026443995786516856
1589986400.9925098,-0.07306048782523422,-4.223879024349531,8.69142341477664,0.4533333333333333,0.3022222222222222,-0.5955555555555555,0.2308719510922862,-0.08162804890771382,-0.02424390218457237
1589986401.0025098,-0.08,-4.218821617228769,8.742940539076256,0.4533333333333333,0.29830150345388057,-0.5932684696073562,0.20587836922660166,-0.18013510767980495,0.08087836922660166
1589986401.0125098,-0.0764124149659864,-4.2364124149659865,8.746412414965986,0.4533333333333333,0.2888888888888889,-0.5877777777777777,0.22757759353741497,-0.26765518707482994,0.14742240646258503
1589986401.0225098,-0.06857373628592583,-4.228573736285926,8.734294945143704,0.4533333333333333,0.2888888888888889,-0.5877777777777777,0.1875,-0.16075755536110925,0.14292925893518207
1589986401.0325098,-0.06771975059772163,-4.22,8.723159251793165,0.4533333333333333,0.2888888888888889,-0.5877777777777777,0.09100311752847969,0.09649688247152031,-0.07675155876423984
1589986401.0425098,-0.07334193002853821,-4.216670965014269,8.76332903498573,0.4533333333333333,0.2888888888888889,-0.5877777777777777,-0.08330646866081809,0.10435471937427332,0.04161293732163619
1589986401.0525098,-0.06229626354189697,-4.212296263541897,8.774592527083794,0.4533333333333333,0.29348141597268285,-0.5862469354165131,-0.11064835286314392,-0.1875,0.09629670572628786
1589986401.0625098,-0.07256170612009238,-4.2174382938799075,8.777191469399538,0.4533333333333333,0.3088888888888889,-0.5811111111111111,-0.03047867349884527,-0.1875,0.0
1589986401.0725098,-0.08,-4.213931942191417,8.688884751511576,0.4533333333333333,0.3088888888888889,-0.5811111111111111,0.03792536130364253,-0.33494783217814483,0.0
1589986401.0825098,-0.07734699276853431,-4.214693985537068,8.63387706508319,0.4533333333333333,0.3088888888888889,-0.5811111111111111,-0.016581295196660593,-0.5293374096066789,-0.03316259039332119
1589986401.0925097,-0.06332230232832999,-4.203338848835835,8.696661151164164,0.4533333333333333,0.3088888888888889,-0.5811111111111111,-0.166839026119844,-0.5001034156719064,-0.1041321947760312
1589986401.1025097,-0.05501806057238122,-4.204981939427618,8.695018060572382,0.451939427618783,0.3088888888888889,-0.5774869562532803,-0.43772575715476525,-0.625,-0.07818143928869131
1589986401.1125097,-0.061446403948036875,-4.198553596051964,8.718553596051963,0.4477777777777778,0.3088888888888889,-0.5666666666666667,-0.7051899629871544,-0.7319199506495392,-0.07154002467523043
1589986401.1225097,-0.06292287033546928,-4.218615246890313,8.725692376554845,0.4477777777777778,0.3088888888888889,-0.5666666666666667,-0.9471132326611383,-0.875,-0.05384529306445533
1589986401.1325097,-0.08,-4.23,8.731000659957104,0.4477777777777778,0.3088888888888889,-0.5666666666666667,-1.125,-0.875,-0.125
1589986401.1425097,-0.08,-4.226365900600023,8.755451149099965,0.4477777777777778,0.3088888888888889,-0.5666666666666667,-1.1136434393750707,-0.9544959243745047,-0.17042624249971697
1589986401.1525097,-0.08,-4.212798919635781,8.775801620546327,0.4477777777777778,0.3088888888888889,-0.5666666666666667,-1.0712466238618168,-1.2512736329672818,-0.34001350455273244
1589986401.1625097,-0.1092957910465139,-4.150563328352706,8.756901402984495,0.43333333333333335,0.3211111111111111,-0.5877777777777777,-1.197183115673452,-1.7455986940407118,-0.6540493470203559
1589986401.1725097,-0.158130130207828,-3.9959212543418783,8.740623289930724,0.43333333333333335,0.3211111111111111,-0.5877777777777777,-1.2480522189664875,-2.050813313798925,-0.8066566568994624
1589986401.1825097,-0.2004870911100995,-3.9634956970367,8.6369913940734,0.43333333333333335,0.3211111111111111,-0.5877777777777777,-1.6371772777524876,-1.1316265092887647,-1.168696212958748
1589986401.1925097,-0.23004248159831756,-4.002638065194532,8.69016992639327,0.43333333333333335,0.3211111111111111,-0.5877777777777777,-2.3289879074658253,-0.5781913774973712,-1.077394847528917
1589986401.2025096,-0.2612345462345462,-4.103703638703639,8.805061815061816,0.4358024258024258,0.3211111111111111,-0.5859945443278777,-2.9606477418977417,-0.6635795698295698,-0.338738494988495
1589986401.2125096,-0.2694134394134394,-4.1282403182403185,8.772346242346241,0.4521602121602121,0.3211111111111111,-0.5741805875139209,-3.114001989001989,-0.9191699816699817,1.1436858936858936
1589986401.2225096,-0.2832379062954163,-4.074096749636669,8.761145124455005,0.4533333333333333,0.3211111111111111,-0.5733333333333334,-3.6821322291171654,-0.9190523426145932,4.802319546010288
1589986401.2325096,-0.27065109153581,-3.881332822673305,8.689674454232096,0.4533333333333333,0.3211111111111111,-0.5733333333333334,-4.284206242818843,-0.4879835312140942,8.249617004978935
1589986401.2425096,-0.2363985382363323,-3.5228153485185105,8.687605116172838,0.4533333333333333,0.3211111111111111,-0.5733333333333334,-4.869972591931231,0.7623401195988456,12.714579742945537
1589986401.2525096,-0.19471810981519233,-2.900890285065,8.501795274537981,0.4533333333333333,0.31906363369685903,-0.5777695343975463,-5.604877518965345,3.075389332620392,19.177948400895634
1589986401.2625096,-0.07,-1.82,8.19,0.4533333333333333,0.3144444444444445,-0.5877777777777777,-6.6875,4.9375,24.9375
1589986401.2725096,-0.14447809232937858,-1.919304123105838,8.471361682133207,0.4533333333333333,0.3144444444444445,-0.5877777777777777,-6.0409887818630335,0.36020057559027396,32.38530923293786
1589986401.2825096,-0.2780032964445491,-2.0840028255238994,8.741984930539203,0.4533333333333333,0.3144444444444445,-0.5877777777777777,-2.2246585825288436,-4.449802801977866,46.91296797739581
1589986401.2925096,-0.31761592376980335,-2.14145668607177,8.58576114345295,0.4533333333333333,0.3144444444444445,-0.5877777777777777,1.2309714136762533,-2.5633200104266227,54.88656431922843
1589986401.3025095,-0.31154198163755903,-2.196122165261969,8.676870275436615,0.4533333333333333,0.3144444444444445,-0.5877777777777777,-1.0467568859153706,-4.1577298201407595,60.01145299330958
1589986401.3125095,-0.32674180577555745,-2.377110654667618,9.026885237340947,0.4477777777777778,0.3022222222222222,-0.5811111111111111,-3.8157017528590575,-5.318519469442462,70.1515115580776
1589986401.3225095,-0.37784817838430607,-2.355207923549583,8.851663388396666,0.4477777777777778,0.3022222222222222,-0.5811111111111111,-1.9448434698602237,-5.364150159271702,76.03787054604953
1589986401.3325095,-0.42,-2.458879612825166,8.671535148215366,0.4477777777777778,0.3022222222222222,-0.5811111111111111,-1.7289927404718692,-5.649895644283122,86.36877192982456
1589986401.3425095,-0.4253735534377127,-2.5346264465622874,8.837461708645337,0.4477777777777778,0.3022222222222222,-0.5811111111111111,-3.2164152910142954,-6.640864320966644,93.45904952348536
1589986401.3525095,-0.4510020608703444,-2.51,8.773987634777933,0.4477777777777778,0.3016655217386976,-0.579663689853947,-2.9810825542845194,-7.062628804396524,99.63881380484455
1589986401.3625095,-0.4715052088404245,-2.512876302210106,8.745886719890956,0.4477777777777778,0.2966666666666667,-0.5666666666666667,-2.591560887450102,-7.822745776944796,107.01089688199785
1589986401.3725095,-0.5173281842725812,-2.5481582994429446,8.805667953931854,0.4477777777777778,0.2966666666666667,-0.5666666666666667,-3.4645752879259084,-8.326037643962954,112.28088795666586
1589986401.3825095,-0.5746645705888384,-2.641329927206862,8.79133385735279,0.4477777777777778,0.2966666666666667,-0.5666666666666667,-3.55416339154506,-8.37083169577253,116.3123526195277
1589986401.3925095,-0.6257196827343394,-2.6695328045572326,8.777159048203018,0.4477777777777778,0.2966666666666667,-0.5666666666666667,-2.857244051268865,-8.595328045572325,123.16169249559903
1589986401.4025095,-0.6507691441863955,-2.7103845720931976,8.850384572093198,0.449486987080879,0.2946156155029453,-0.5677776527136824,-3.314903575582486,-9.002403575582486,127.74517174426894
1589986401.4125094,-0.7077669322324891,-2.726294488705415,8.853705511294585,0.4922222222222222,0.2433333333333333,-0.5955555555555555,-3.375,-9.180521663226529,133.90579245355812
1589986401.4225094,-0.7846427975296278,-2.7364285316864185,8.814999721804929,0.4922222222222222,0.2433333333333333,-0.5955555555555555,-3.4196433539197684,-9.515625869359594,138.26786707839537
1589986401.4325094,-0.7718672579905185,-2.72,8.709493806392414,0.4922222222222222,0.2433333333333333,-0.5955555555555555,-3.684336289952592,-9.934336289952592,143.6062280165163
1589986401.4425094,-0.8130521868787277,-2.7194913021868787,8.738473906560637,0.4922222222222222,0.2433333333333333,-0.5955555555555555,-3.868641277335984,-10.15679361332008,147.82320762922464
1589986401.4525094,-0.8739539444549883,-2.7115815777819954,8.718698677800974,0.4960004358125444,0.23964298517534421,-0.597312864202217,-3.7648272917062062,-10.75988486113747,153.15703090402985
1589986401.4625094,-0.9181780223951415,-2.7292712089580564,8.81599164926931,0.5382589991775796,0.19836717909786802,-0.6169680099533962,-3.9306675839817804,-10.870445055987853,158.40864015942304
1589986401.4725094,-0.9644403734783122,-2.76203364456526,8.803525981956428,0.54,0.19666666666666666,-0.6177777777777778,-4.079873832880274,-11.420126167119726,166.00653734783123
1589986401.4825094,-1.0214449892736746,-2.806242721422004,8.730404535703341,0.54,0.19666666666666666,-0.6177777777777778,-3.963511339258351,-11.634031182960467,171.22578915108795
1589986401.4925094,-1.1296265434436785,-2.86,8.829626543443679,0.54,0.19666666666666666,-0.6177777777777778,-4.217582948261495,-12.280082948261496,178.56197920612075
1589986401.5025094,-1.1612886795743937,-2.8625773591487875,8.858066980638409,0.5395704401418687,0.19201310153691106,-0.6163459115840068,-4.320554247339961,-12.407216989359846,184.13451072736788
1589986401.5125093,-1.227521050647229,-2.909504210129446,8.820495789870554,0.5333333333333333,0.12444444444444445,-0.5955555555555555,-4.516701751078715,-13.053203939927108,192.64464465250722
1589986401.5225093,-1.3383129802292622,-2.933325192091705,8.785036635587328,0.5333333333333333,0.12444444444444445,-0.5955555555555555,-4.7186736758597325,-13.489456126432888,197.9767751769383
1589986401.5325093,-1.3756999982172462,-2.948279999286899,8.717740003208958,0.5333333333333333,0.12444444444444445,-0.5955555555555555,-4.858874993314674,-13.72312498885779,202.36974979052644
1589986401.5425093,-1.3972954268630273,-2.8802727641826302,8.73972723581737,0.5333333333333333,0.12444444444444445,-0.5955555555555555,-5.388494029823201,-14.434090447717123,209.2193140294541
1589986401.5525093,-1.4222749276906683,-2.847725072309332,8.769431268077332,0.532922582500296,0.12254867136888754,-0.5963454610037042,-5.617890850966662,-14.824941010808342,212.73163723550007
1589986401.5625093,-1.5120870382418854,-2.760330369406492,8.766921853538639,0.5188888888888888,0.057777777777777775,-0.6233333333333333,-5.375,-15.20467360659293,217.2059838791296
1589986401.5725093,-1.5696741631062492,-2.727540729611719,8.807703648058595,0.5188888888888888,0.057777777777777775,-0.6233333333333333,-5.359629560073243,-15.1700930794873,220.31972451758298
1589986401.5825093,-1.6409729391521977,-2.7046378851869233,8.76561082433912,0.5188888888888888,0.057777777777777775,-0.6233333333333333,-5.21648678241827,-15.390270608478023,222.3139175660879
1589986401.5925093,-1.6898191819181918,-2.6457917791779177,8.761221922192219,0.5188888888888888,0.057777777777777775,-0.6233333333333333,-4.857465746574658,-15.008767126712671,224.02404115411542
1589986401.6025093,-1.7485452545254525,-2.6206234623462348,8.828337433743375,0.5188888888888888,0.057777777777777775,-0.6233333333333333,-4.752597759775978,-15.061201120112012,224.9154190419042
1589986401.6125093,-1.7829924974167752,-2.61039399793342,8.92519699896671,0.54,-0.027777777777777776,-0.6322222222222222,-5.4812968911451545,-15.511315647603217,224.50885316051935
1589986401.6225092,-1.8325026812313803,-2.6149946375372393,8.897133664349553,0.54,-0.027777777777777776,-0.6322222222222222,-5.127205809334657,-15.053542701092354,223.7655747269116
1589986401.6325092,-1.890996372704602,-2.498505440943097,8.700830310587168,0.54,-0.027777777777777776,-0.6322222222222222,-4.567689441169803,-14.43957577646792,222.65428757651327
1589986401.6425092,-1.9485107564476984,-2.3891505902677803,8.763403191970713,0.54,-0.027777777777777776,-0.6322222222222222,-4.912231088807536,-14.590423316605651,220.07318703467567
1589986401.6525092,-1.9412302487562187,-2.268881592039801,8.84011184079602,0.5399254394693201,-0.02889618573797678,-0.6325453178551687,-5.12989303482587,-14.749300995024875,216.50937562189054
1589986401.6625092,-2.0330457711442786,-2.185412935323383,8.848458706467662,0.5343608623548922,-0.11236484245439467,-0.6566584853510227,-5.495068407960199,-14.697133084577114,212.5446144278607
1589986401.6725092,-2.153987312678128,-1.9306962704177009,8.856708957739572,0.5333333333333333,-0.12777777777777774,-0.6611111111111111,-5.529272394348932,-14.22943098587233,205.331889154485
1589986401.6825092,-2.173267904753149,-1.8857082222426527,8.792440317489504,0.5333333333333333,-0.12777777777777774,-0.6611111111111111,-5.368600793723759,-13.8277519843094,201.1945954383868
1589986401.6925092,-2.2222903329065304,-1.7750376120358515,8.862290332906529,0.5333333333333333,-0.12777777777777774,-0.6611111111111111,-5.048185419334187,-13.154099311779769,193.25426636523687
1589986401.7025092,-2.2625685019206143,-1.6877682458386682,8.902568501920614,0.5333333333333333,-0.12777777777777774,-0.6611111111111111,-4.7964468629961585,-12.566709346991036,188.93275448143405
1589986401.7125092,-2.2453154499398624,-1.6413288624849656,8.92,0.4957584041015174,-0.20003725706973147,-0.691941822275678,-4.308137733717243,-11.933137733717244,181.96820670991727
1589986401.7225091,-2.248255442983402,-1.6647663289502046,8.936510885966802,0.49,-0.2111111111111111,-0.6966666666666667,-3.94042088812244,-11.30743829489114,176.59540984048286
1589986401.7325091,-2.175521929824561,-1.6527706766917294,8.825863408521304,0.49,-0.2111111111111111,-0.6966666666666667,-3.2478657581453634,-10.3578046679198,168.83658364661653
1589986401.7425091,-2.1225092266486705,-1.4999630934053187,8.81250922664867,0.49,-0.2111111111111111,-0.6966666666666667,-3.0313653331083787,-9.807272444481937,163.82087911508532
1589986401.752509,-2.1490459118037832,-1.3938163527848662,8.839045911803783,0.49,-0.2111111111111111,-0.6966666666666667,-3.3630738975472934,-9.751987683742119,157.9606944766645
1589986401.762509,-2.2177743091202413,-1.2290360158394267,8.916246097760272,0.44011057800871123,-0.25064612476458525,-0.7164341734934037,-4.222178864003017,-10.067692074001132,150.91962040897567
1589986401.772509,-2.2041134013299573,-0.9014896940151927,8.887943299335022,0.4311111111111111,-0.2577777777777778,-0.72,-4.733601829282723,-9.507538691814373,138.88434312658256
1589986401.782509,-2.233850205489159,-0.8201069960791724,8.883957201568332,0.4311111111111111,-0.2577777777777778,-0.72,-4.0143724313855165,-8.664104941187585,129.44653296093344
1589986401.792509,-2.2867906397008566,-0.7751859595512847,8.888767238952997,0.4311111111111111,-0.2577777777777778,-0.72,-3.242295243456234,-7.841856479433879,119.77031985042821
1589986401.802509,-2.270403680710932,-0.750230674691961,8.831211042132795,0.43080354485516303,-0.2581558279673806,-0.7202434899526255,-2.8735582831752433,-6.683895707938109,111.3187730438345
1589986401.812509,-2.330551818181818,-0.7805518181818182,9.0140175,0.37777777777777777,-0.3233333333333333,-0.7622222222222222,-2.4773721590909092,-5.885346590909091,99.513921875
1589986401.822509,-2.301147103343883,-0.7477057933122334,8.913940553185633,0.37777777777777777,-0.3233333333333333,-0.7622222222222222,-1.8709508738131277,-5.176281477913857,91.71963155359846
1589986401.832509,-2.3069188110637127,-0.7361623778725747,8.833136645108022,0.37777777777777777,-0.3233333333333333,-0.7622222222222222,-1.2216337553323242,-4.49089118618412,86.84975316499244
1589986401.842509,-2.353858232391207,-0.6422835352175864,8.885026170180948,0.37777777777777777,-0.3233333333333333,-0.7622222222222222,-0.9206856587408404,-3.302658142664872,78.12812172872738
1589986401.852509,-2.346551212187674,-0.5572402274222664,8.943448787812326,0.37777777777777777,-0.3233333333333333,-0.7622222222222222,-1.2672485786108347,-3.109916192870278,70.6356614731834
1589986401.862509,-2.35082044947402,-0.49223940070130695,8.987760599298694,0.34230590089611446,-0.35494957142351147,-0.7884405660043212,-1.543375936404208,-2.8404925087663373,60.431109539368826
1589986401.872509,-2.4039620220682574,-0.4580189889658712,9.0,0.32666666666666666,-0.3688888888888889,-0.8,-1.196149816097853,-1.8632120862201695,50.28129009494483
1589986401.882509,-2.4080598451030806,-0.4412934365979463,8.84805984510308,0.32666666666666666,-0.3688888888888889,-0.8,-0.6551640850513432,-0.1066602126283578,37.49444965850119
1589986401.892509,-2.388212060507595,-0.45452529299493666,8.828212060507596,0.32666666666666666,-0.3688888888888889,-0.8,-0.32436767512658327,0.7203308121835419,31.043919664968374
1589986401.902509,-2.3643606296708537,-0.46,8.812180314835427,0.32666666666666666,-0.3688888888888889,-0.8,0.1057381936714899,1.6978494196215614,20.94629909365559
1589986401.912509,-2.3956829045052377,-0.4385902572968575,8.888502389911523,0.29336262246177836,-0.4109154208617241,-0.7714536763958101,-0.30313993694701513,1.919603630631547,12.09524814400488
1589986401.922509,-2.513454840114169,-0.35961612887620337,8.896929031009627,0.28,-0.42777777777777776,-0.76,-0.5433064438101688,2.326895167142373,-0.19409287165594308
1589986401.932509,-2.6029199937721037,-0.35,8.823893325029472,0.28,-0.42777777777777776,-0.76,-0.053375019462176654,2.6905416601792744,-8.561624202050757
1589986401.942509,-2.6588949932160415,-0.35,8.898526657621389,0.28,-0.42777777777777776,-0.76,0.121546853800129,2.7488489512667096,-15.73342100580529
1589986401.952509,-2.675675397460826,-0.3578376987304129,8.923513096191238,0.28,-0.42777777777777776,-0.76,0.4189137023904838,2.8479712341301613,-21.459360345419192
1589986401.962509,-2.72,-0.41032921810699585,8.990329218106996,0.2288888888888889,-0.4622222222222222,-0.8122222222222222,0.6833847736625515,2.8770576131687244,-29.314471879286693
1589986401.972509,-2.72,-0.43958429239031876,9.019584292390318,0.2288888888888889,-0.4622222222222222,-0.8122222222222222,0.3176963451210155,3.059901827439492,-35.04359059310409
1589986401.982509,-2.74,-0.44233453515323207,8.861167267576615,0.2288888888888889,-0.4622222222222222,-0.8122222222222222,0.8125,3.81979542235385,-41.136908211005235
1589986401.992509,-2.74,-0.49634303373680144,8.8881715168684,0.2288888888888889,-0.4622222222222222,-0.8122222222222222,0.8125,3.9885719804275044,-45.75013413168512
1589986402.0025089,-2.7644634562147115,-0.5061158640536778,8.932811048375745,0.2288888888888889,-0.4622222222222222,-0.8122222222222222,0.9271724510064595,3.9617758496645137,-49.043983726167944
1589986402.0125089,-2.7728240080530155,-0.5243519838939686,8.931296032212064,0.17387295062867586,-0.43351825443428493,-0.7380703054367177,1.2690996980119118,4.072049849005956,-54.57034592316081
1589986402.0225089,-2.77,-0.5737166320793203,8.901264300537434,0.15222222222222226,-0.4222222222222222,-0.7088888888888889,1.4530654144273578,4.3591962432820734,-59.08358386988063
1589986402.0325089,-2.777966712685995,-0.6318668507439792,8.866099861942015,0.15222222222222226,-0.4222222222222222,-0.7088888888888889,1.4004160914250652,4.450208045712532,-64.82127243442245
1589986402.0425088,-2.8550826176859596,-0.6809541551014325,8.873651385033812,0.15222222222222226,-0.4222222222222222,-0.7088888888888889,1.6309634693839534,4.864105782306589,-69.05470394553008
1589986402.0525088,-2.65818803363934,-0.7799351608140207,9.84721544584965,0.15222222222222226,-0.4222222222222222,-0.7088888888888889,1.799959475508763,4.862662097964948,-74.25950118764845
1589986402.0625088,-2.3603239058303047,-0.792950703112656,9.265232264180755,0.22976448798300594,-0.40107433156019034,-0.6791251909201033,3.574824221835993,2.6095947227050087,-78.18345117712119
1589986402.0725088,-2.5300671569438857,-0.6902518385395728,8.499580269100711,0.26222222222222225,-0.3922222222222223,-0.6666666666666666,2.5682712998652133,16.1097847549008,-83.63192555983825
1589986402.0825088,-2.569739885076497,-0.8390245690368654,8.25162571827189,0.26222222222222225,-0.3922222222222223,-0.6666666666666666,5.977646373761498,7.1214322873560505,-87.7231756485138
1589986402.0925088,-2.3342843419788664,-1.026442784606638,8.781542276853104,0.26222222222222225,-0.3922222222222223,-0.6666666666666666,-4.848222862632085,0.5976727146189889,-95.31394704856005
1589986402.1025088,-2.7371950048030738,-1.1333374502538767,9.636699602031014,0.26222222222222225,-0.3922222222222223,-0.6666666666666666,-2.3300312199807878,-0.8926856045011664,-98.44883868533005
1589986402.1125088,-2.6965429648072137,-1.062706580983783,8.759553024695512,0.3211111111111111,-0.3555555555555556,-0.6444444444444445,4.357135497274746,8.238248393445932,-101.5540161748873
1589986402.1225088,-2.513089967027791,-1.0838742345737165,8.286808761187,0.3211111111111111,-0.3555555555555556,-0.6444444444444445,5.195021785209609,8.635141898257183,-104.42046926519077
1589986402.1325088,-2.625345581516773,-1.313702845581517,8.675215376582692,0.3211111111111111,-0.3555555555555556,-0.6444444444444445,2.033326262889962,5.95371443023104,-110.7209935060697
1589986402.1425087,-2.76889246670642,-1.4425521765056648,9.204719141323793,0.3211111111111111,-0.3555555555555556,-0.6444444444444445,2.090690220632081,5.670746372490559,-115.01113595706619
1589986402.1525087,-2.670604743083004,-1.5004459428039991,8.96226017205301,0.3211111111111111,-0.3555555555555556,-0.6444444444444445,2.838576784468728,6.291004998837479,-119.69567106486863
1589986402.1625087,-2.597477253589106,-1.555531844975251,8.89553184497525,0.36375204529428273,-0.3288146307288209,-0.6401080782563253,3.3470740310953193,6.5,-124.41184867218469
1589986402.1725087,-2.492146633768065,-1.6776148513688167,9.007853366231934,0.38666666666666666,-0.3144444444444445,-0.6377777777777778,2.8288978968393845,7.110092821055105,-132.169391082129
1589986402.1825087,-2.589517411110092,-1.7594484698401052,8.878207526980342,0.38666666666666666,-0.3144444444444445,-0.6377777777777778,3.252154414687089,7.758617658748356,-138.0387794643676
1589986402.1925087,-2.54463664434865,-1.708156164969886,8.71150753615213,0.38666666666666666,-0.3144444444444445,-0.6377777777777778,3.452514980586383,8.560059922345532,-141.6452696505549
1589986402.2025087,-2.477261295180723,-1.7726005271084337,8.798077936746987,0.38666666666666666,-0.3144444444444445,-0.6377777777777778,3.740577936746988,9.267116905120481,-147.72079254518073
1589986402.2125087,-2.577445083163642,-1.8841758419980899,8.981263762997134,0.4141392007400333,-0.2869719103710779,-0.6418986578887828,4.5465317697727645,10.340831276016795,-154.55185563945003
1589986402.2225087,-2.601425116061327,-1.9704790699488939,8.734263254398627,0.4311111111111111,-0.27,-0.6444444444444445,5.0,10.9375,-157.75
1589986402.2325087,-2.598702451394759,-2.0148098055790364,8.877561284868976,0.4311111111111111,-0.27,-0.6444444444444445,4.23853550295858,10.230425824175825,-161.0678095942519
1589986402.2425086,-2.54,-2.11,8.54,0.4311111111111111,-0.27,-0.6444444444444445,4.875,10.8125,-161.1875
1589986402.2525086,-2.54,-2.11,8.54,0.4311111111111111,-0.27,-0.6444444444444445,4.875,10.8125,-161.1875
1589986402.2625086,-2.5000569601547595,-2.219843359574411,8.869530078723232,0.5043400174940518,-0.21674261353967955,-0.6588683199441145,4.812589000241812,10.50044500120906,-159.56481400628712
1589986402.2725086,-2.542111788754105,-2.2691304202131226,8.84192547416393,0.5044444444444445,-0.21666666666666667,-0.6588888888888889,4.242236193954829,10.149068427049125,-158.6851710676228
1589986402.2825086,-2.4724437014059544,-2.2219006566490758,8.674344358055029,0.5044444444444445,-0.21666666666666667,-0.6588888888888889,4.30401492567377,10.425620895943279,-156.8532283567659
1589986402.2925086,-2.5111365403401047,-2.2858184645441675,8.645318075795938,0.5044444444444445,-0.21666666666666667,-0.6588888888888889,2.667038386395806,9.203403789796853,-156.70965864914973
1589986402.3025086,-2.52,-2.409648560180475,9.093214048745963,0.5044444444444445,-0.21666666666666667,-0.6588888888888889,2.5409345003759896,9.577116601052772,-155.45395369796967
1589986402.3125086,-2.4138408523785,-2.45,8.858954331207668,0.5398308269849443,-0.20159468891793525,-0.6549570686066112,3.5096595635124963,9.959943260585415,-153.230680872975
1589986402.3225086,-2.3056266191709844,-2.498122733160622,8.896235103626942,0.5644444444444444,-0.19111111111111112,-0.6522222222222223,3.0078651230569946,9.546899287564766,-150.49616458873058
1589986402.3325086,-2.2965017013308633,-2.5850170133086356,8.83844725874323,0.5644444444444444,-0.19111111111111112,-0.6522222222222223,3.1095344997684577,9.475042533271589,-147.78071833410513
1589986402.3425086,-2.204899180068269,-2.6978097617623256,8.678126825491782,0.5644444444444444,-0.19111111111111112,-0.6522222222222223,3.869776454235141,9.400396329661822,-143.98577216103038
1589986402.3525085,-2.2628158185370824,-2.774725172032962,8.791359697561804,0.5644444444444444,-0.19111111111111112,-0.6522222222222223,3.583534215444737,9.476133081301503,-140.88247334551016
1589986402.3625085,-2.368230201701672,-2.8586234902124112,8.908230201701672,0.7844753178239225,-0.30984064179607707,-0.672918195460886,3.193645132980306,9.316187079788184,-137.92170301065033
1589986402.3725085,-2.283601841731972,-2.8695997953631145,8.785202660279515,0.7888888888888889,-0.31222222222222223,-0.6733333333333333,2.947505115922145,9.49249616305839,-135.59504860126037
1589986402.3825085,-2.2583671274135426,-2.9619397084924435,8.785408218146614,0.7888888888888889,-0.31222222222222223,-0.6733333333333333,2.9036986365836603,9.161986365836604,-133.87753455601572
1589986402.3925085,-2.2292283769307857,-3.0292283769307855,8.76037803655966,0.7888888888888889,-0.31222222222222223,-0.6733333333333333,2.9086613220912954,8.858169338954353,-131.32185372680465
1589986402.4025085,-2.2227792503669304,-3.0501143508072466,8.748337751100792,0.7888888888888889,-0.31222222222222223,-0.6733333333333333,2.971525937041337,8.61318155928936,-125.53386027076168
1589986402.4125085,-2.2033397035881435,-3.103334243369735,8.803336973478938,1.1584680620558157,-0.5514488212861848,-0.8051671866874675,2.8958390210608425,7.9583902106084246,-117.97977525351014
1589986402.4225085,-2.0677512605042017,-3.0881843432109686,8.801815656789032,1.3433333333333333,-0.6711111111111111,-0.8711111111111111,2.911923927465723,7.491532507739938,-112.53761831048209
1589986402.4325085,-1.962498081210482,-3.183132195460692,8.720618763934066,1.3433333333333333,-0.6711111111111111,-0.8711111111111111,2.980471748108622,7.183584755674135,-107.5623081210482
1589986402.4425085,-1.863068152236164,-3.3256250325402195,8.714772739105534,1.3433333333333333,-0.6711111111111111,-0.8711111111111111,3.0543324048523974,6.853337975738012,-103.26988532826573
1589986402.4525084,-1.7509126377936501,-3.4085989430659347,8.742866314355311,1.3433333333333333,-0.6711111111111111,-0.8711111111111111,3.0625,6.526671070558606,-100.71642118409645
1589986402.4625084,-1.679060754894705,-3.498232075175492,8.811408867657942,0.9089224547160362,-0.3064485760065387,-0.7520840466383089,2.849274765076588,6.4375,-98.3566981206127
1589986402.4725084,-1.6194742063492065,-3.53,8.767053571428571,0.7066666666666667,-0.13666666666666666,-0.6966666666666667,2.699342757936508,6.336185515873016,-96.2454117063492
1589986402.4825084,-1.485445644280996,-3.4801782577123985,8.7333927525708,0.7066666666666667,-0.13666666666666666,-0.6966666666666667,2.4280117589187418,6.053011758918742,-95.41852351783749
1589986402.4925084,-1.3975094543490005,-3.67532607856757,8.694291116770858,0.7066666666666667,-0.13666666666666666,-0.6966666666666667,2.709770780273211,6.334770780273211,-95.36829513004554
1589986402.5025084,-1.228902372828784,-3.6780321417493798,8.895033343672457,0.7066666666666667,-0.13666666666666666,-0.6966666666666667,3.0245982281327546,6.4665327427109185,-95.42076637135546
1589986402.5125084,-0.8608359090596882,-3.28354488632461,8.467608352221992,0.5799952682952889,0.05334043089039997,-0.6827113431172775,3.6080688920942374,7.043452503606017,-95.92056889209424
1589986402.5225084,-1.0769529645685973,-3.543678574920956,8.623552267023046,0.5755555555555556,0.06,-0.6822222222222222,2.665456215978357,6.60358775546791,-97.0639209638515
1589986402.5325084,-1.1492778827977315,-3.598555765595463,8.750722117202269,0.5755555555555556,0.06,-0.6822222222222222,2.7983317580340263,6.629513232514178,-99.0502741020794
1589986402.5425084,-1.0818157538147326,-3.463631507629465,8.578174230671038,0.5755555555555556,0.06,-0.6822222222222222,3.1647822116612008,6.8238693269967206,-101.32962702028632
1589986402.5525084,-1.0305827461835262,-3.5023683106861263,8.704153875188727,0.5755555555555556,0.06,-0.6822222222222222,2.9558274618352627,6.801456865458816,-103.86430679625902
1589986402.5625083,-0.9597913652875558,-3.646071945221333,8.832827337898223,0.570773780821037,0.10622382243367874,-0.718882495186864,3.1086331050888867,7.018974828816665,-107.1871403542611
1589986402.5725083,-0.8904892458842273,-3.68,8.796992830589485,0.5688888888888889,0.12444444444444445,-0.7333333333333333,3.525059745087626,7.193764936271907,-109.40968119357409
1589986402.5825083,-0.774994166148102,-3.5992244866210332,8.694994166148103,0.5688888888888889,0.12444444444444445,-0.7333333333333333,3.5696975147790915,7.46636298226509,-111.96885938472309
1589986402.5925083,-0.7310208063572023,-3.6061248381432147,8.722656047679019,0.5688888888888889,0.12444444444444445,-0.7333333333333333,3.506380039732515,7.728320059598772,-114.20540069531901
1589986402.6025083,-0.6961854583772392,-3.605231822971549,8.707847734457323,0.5688888888888889,0.12444444444444445,-0.7333333333333333,3.836340885142255,8.120570995785037,-116.14594309799789
1589986402.6125083,-0.6660421129294833,-3.6687580327307003,8.803137049096051,0.5312935195498815,0.1298152114928741,-0.702451422804863,3.9114471767629166,8.148420765144374,-117.76829052780396
1589986402.6225083,-0.6130229452470559,-3.74,8.810290154182347,0.5066666666666667,0.13333333333333333,-0.6822222222222222,4.1686065922059,8.3561065922059,-118.93568653636032
1589986402.6325083,0.07259817262830492,-4.442038540046656,8.154730268273717,0.5066666666666667,0.13333333333333333,-0.6822222222222222,4.411100918545879,7.661892192360031,-119.82840597054822
1589986402.6425083,0.19724521566683195,-4.702537828458106,-1.9542768468021805,0.5066666666666667,0.13333333333333333,-0.6822222222222222,-46.66869732275657,28.333340356965792,-325.90851760039664
1589986402.6525083,-0.24511067662872707,-8.856514209901544,-3.5846209529129713,0.5066666666666667,0.13333333333333333,-0.6822222222222222,-114.06909288224752,46.15161301585085,-882.2054704047669
1589986402.6625082,-11.372024878600413,-18.83137364464844,-5.733774363067917,0.46278173204136086,0.25270035551416514,-0.6585243575245571,-180.17863200957893,143.09235515199896,-990.9149828710172
1589986402.6725082,-2.0130600390311084,-3.5515559637240237,-2.139394788198829,0.4511111111111111,0.28444444444444444,-0.6522222222222223,-183.6662940534956,61.776437837217316,-334.711845654919
1589986402.6825082,-0.20956841825774208,-0.05199642762316253,-0.5673740616476382,0.4511111111111111,0.28444444444444444,-0.6522222222222223,-163.06929928311087,7.922715670182722,-161.6840121050472
1589986402.6925082,0.3214285426081343,-0.8305305842479018,2.5353740316333115,0.4511111111111111,0.28444444444444444,-0.6522222222222223,-159.4409863722563,7.712499747821175,-143.62049356439638
1589986402.7025082,0.7343477967656222,-0.79163890425001,4.547608475742167,0.4511111111111111,0.28444444444444444,-0.6522222222222223,-121.40406708164173,28.326290446581513,-136.72753014526376
1589986402.7125082,0.8814348336278173,-0.24854830660498228,5.650761252208629,0.4511111111111111,0.28444444444444444,-0.6522222222222223,-61.720673277943376,56.11725462294817,-132.30784754724107
1589986402.7225082,0.15252556237218812,-0.8154652351738242,7.45680981595092,0.2911111111111111,0.57,-0.6077777777777778,63.46501150306749,25.861004601226995,-122.2981531186094
1589986402.7325082,0.44307496664442964,-0.6689301200800534,6.017405353569046,0.2911111111111111,0.57,-0.6077777777777778,139.7544639134423,27.149904623915944,-113.83673751250834
1589986402.7425082,0.410729742492847,-1.3865757382149504,6.919029695269313,0.2911111111111111,0.57,-0.6077777777777778,239.93609023861774,18.234864162893412,-100.27611357259924
1589986402.7525082,2.0369700463201235,-1.2455195059186825,12.232198455995881,0.2911111111111111,0.57,-0.6077777777777778,303.32670998455995,13.473085434894493,-90.44294261451364
1589986402.7625082,2.361889181149979,1.2546962806362003,8.57830969296197,0.2626905501337026,0.5990972410006801,-0.5813872568701841,250.75412989503184,7.144346591607463,-71.69057898424248
1589986402.7725081,0.12334737551605035,1.443730727104221,0.4131300025275926,0.24444444444444444,0.6177777777777778,-0.5644444444444444,101.62235655910354,5.375798649142022,-41.54149640520122
1589986402.7825081,0.03481221029626891,0.8401787130545127,-0.7218881192830329,0.24444444444444444,0.6177777777777778,-0.5644444444444444,24.31913785050847,1.426185031459843,-21.268988262041983
1589986402.7925081,0.7919077817413133,0.8545065398335315,2.4710186286167266,0.24444444444444444,0.6177777777777778,-0.5644444444444444,-53.09044292508918,1.4996903487911215,-0.3296711917029995
1589986402.802508,3.4957214282738223,-3.048372776134327,17.172641139952503,0.24444444444444444,0.6177777777777778,-0.5644444444444444,-98.40969647098038,-4.858481157035124,14.119765843089871
1589986402.812508,2.337908851439271,-2.6860211368180518,13.919935573962993,0.2174631586742412,0.554003829593661,-0.6339416956707254,-26.307330841981653,-19.008303183217492,17.711082547843475
1589986402.822508,1.4637347767253046,-2.1815941748824024,12.237598427733746,0.20777777777777776,0.5311111111111111,-0.6588888888888889,21.48179248018558,4.611013112958311,24.29857755009988
1589986402.832508,0.8634710519162817,-1.5559286296742127,8.154062439327458,0.20777777777777776,0.5311111111111111,-0.6588888888888889,28.647645419951075,28.98773929250961,34.48423241952394
1589986402.842508,0.4343206028036489,-1.313499971313278,5.7429159096559514,0.20777777777777776,0.5311111111111111,-0.6588888888888889,-2.921874103539942,3.063002017632769,39.69761446002027
1589986402.852508,0.8614483450351053,-2.054502507522568,8.81346815446339,0.20777777777777776,0.5311111111111111,-0.6588888888888889,-23.896922016048144,-25.08725551654965,42.89525921514544
1589986402.862508,1.136996373361428,-2.4393889417914383,10.272537633972892,0.22367109922492137,0.5296662637068253,-0.6588888888888889,-15.211190915169075,-15.051331371436675,50.76608687724132
1589986402.872508,0.9500533531437834,-2.525332612953333,10.281131221719457,0.24444444444444444,0.5277777777777778,-0.6588888888888889,12.931919868980888,10.62591173093807,60.939990376173434
1589986402.882508,7.476630223096354,-15.443662482404893,9.103321378299686,0.24444444444444444,0.5277777777777778,-0.6588888888888889,11.945053845857196,-0.6418539461252202,69.6056019937911
1589986402.892508,6.937694980932465,-13.989858223643745,7.4726882150325995,0.24444444444444444,0.5277777777777778,-0.6588888888888889,-24.366450362898266,-15.508691874769344,127.14490750707344
1589986402.902508,0.44266989163269177,-0.4499467669363527,8.51058830985023,0.24444444444444444,0.5277777777777778,-0.6588888888888889,-20.838424713238556,-21.436882116225522,202.12772634614166
1589986402.912508,-0.01696721311475413,-1.8920855614973264,11.116809415271325,0.25041212510836425,0.5372266054956508,-0.6588888888888889,15.908608749013764,-8.743871635837642,222.82130764004557
1589986402.922508,-0.8322195589645254,-2.901867209971237,9.87313518696069,0.2577777777777778,0.5488888888888889,-0.6588888888888889,15.826881591562802,1.6215843720038343,223.65861697027805
1589986402.932508,-0.17261035185618345,-2.9651775988238045,10.149607043806595,0.2577777777777778,0.5488888888888889,-0.6588888888888889,-15.862216810906538,-20.59021744578474,221.15514000735124
1589986402.942508,0.46309011352885526,-3.0119075212866604,10.820572374645222,0.2577777777777778,0.5488888888888889,-0.6588888888888889,-25.555944004257334,-29.379501241721854,220.72061258278146
1589986402.952508,0.1805374005608653,-2.4223224403365196,7.905095862187375,0.2577777777777778,0.5488888888888889,-0.6588888888888889,-0.7674984261431916,-14.58505980655869,224.60455416928977
1589986402.962508,-0.201824480369515,-2.726189376443418,8.14498845265589,0.3129586861688478,0.5226122658455222,-0.667428791377983,3.506639722863742,-10.145929561200923,226.49725750577366
1589986402.972508,-0.21,-3.09,9.31,0.3511111111111111,0.5044444444444445,-0.6733333333333333,-2.625,-11.5,226.625
1589986402.982508,3.6206359134740684,-6.294410216314829,8.623816523325514,0.3511111111111111,0.5044444444444445,-0.6733333333333333,-5.373064894448788,-15.538822647902007,218.42244266353921
1589986402.992508,5.54,-7.9,8.28,0.3511111111111111,0.5044444444444445,-0.6733333333333333,-6.75,-17.5625,214.3125
1589986403.002508,1.6260610555433064,-5.1520244943775175,11.711117079917416,0.3511111111111111,0.5044444444444445,-0.6733333333333333,0.34465638717953784,3.368341468059093,30.140356591633434
1589986403.012508,-1.0325956314695166,-2.0243215810771535,12.272320865657628,0.3827308656327861,0.4737030164372605,-0.6759683128768063,26.231976178765454,28.992689306713764,-136.41917016924143
1589986403.022508,-1.4802988585264618,-3.9709034936008303,9.731208924247666,0.4311111111111111,0.4266666666666667,-0.68,32.8314856451055,26.026539259771706,-109.04737979937738
1589986403.032508,-2.2203066583422086,-3.057583826067795,9.615195563553565,0.4311111111111111,0.4266666666666667,-0.68,-0.5491732160564098,8.977813177127327,-37.19312819053216
1589986403.042508,-0.660724233983287,-0.6457883008356545,8.610361188486536,0.4311111111111111,0.4266666666666667,-0.68,-12.83182451253482,-11.202489554317548,31.38320566388115
1589986403.0525079,0.06018460321754876,-1.9106089616849466,9.602610876397012,0.4311111111111111,0.4266666666666667,-0.68,-15.897371693479574,-17.544968417656975,51.40573294969718
1589986403.0625079,2.151297582991864,-5.529576578181603,7.896902428885325,0.44235762218659064,0.43353953454612637,-0.6681286827536604,-2.1376751885503893,-3.2399711978145973,60.33447651285706
1589986403.0725079,2.2770655586770223,-12.109537288415686,7.91045704572818,0.4511111111111111,0.4388888888888889,-0.6588888888888889,-0.13244381359333346,-2.7729319625109183,53.44381801978328
1589986403.0825078,0.5593227935382191,-7.867434495665878,9.850256107171,0.4511111111111111,0.4388888888888889,-0.6588888888888889,-5.455190479708432,-3.7755860914105597,20.379491110126082
1589986403.0925078,-0.8641061667408997,-0.6033388670688746,9.962912499493866,0.4511111111111111,0.4388888888888889,-0.6588888888888889,2.340157711462931,1.6413127100457547,-12.64743187431672
1589986403.1025078,-0.21342966039023836,-4.075297419269204,8.303001687619698,0.4511111111111111,0.4388888888888889,-0.6588888888888889,5.800930798111384,4.37169942355462,-0.008963109391888935
1589986403.1125078,0.6185374573425059,-5.408781214452088,9.160863441850388,0.4433813023250215,0.4311590801027993,-0.6644715285677314,-8.768759140891609,-4.3131974161746385,7.6852791018904725
1589986403.1225078,0.05844206632316028,-4.464581318536134,8.822760470339544,0.4311111111111111,0.4188888888888889,-0.6733333333333333,-2.8918879640639448,-2.4945534416699697,1.0408045977011495
1589986403.1325078,0.020209986000933277,-4.192748483434437,8.687022865142325,0.4311111111111111,0.4188888888888889,-0.6733333333333333,2.5453219785347643,1.315241483901073,-0.6915538964069061
1589986403.1425078,0.058971952397441275,-4.321682309416632,8.705887809589765,0.4311111111111111,0.4188888888888889,-0.6733333333333333,0.7581782726759126,0.1010517850959523,0.0
1589986403.1525078,0.07,-4.246737661902635,8.73042597141581,0.4311111111111111,0.4188888888888889,-0.6733333333333333,0.06116883932559178,-0.19016232134881644,0.02038961310853059
1589986403.1625078,0.08863370937022541,-4.292174386236631,8.745901128110676,0.4232435449325715,0.4188888888888889,-0.6733333333333333,-0.09200564055338117,0.01591572657443647,0.01591572657443647
1589986403.1725078,0.08969812037212835,-4.353485855325612,8.78318397569774,0.41,0.4188888888888889,-0.6733333333333333,-0.42045993924435165,-0.015153313081450542,-0.0625
1589986403.1825078,0.05450398717170842,-4.300330675218861,8.665826688047153,0.41,0.4188888888888889,-0.6733333333333333,0.08444975946953281,0.1531499198231776,0.05836655976423681
1589986403.1925077,0.05078582230122304,-4.265982277876529,8.668821266548166,0.41,0.4188888888888889,-0.6733333333333333,0.465066457963017,0.159933542036983,0.127455694691322
1589986403.2025077,0.03,-4.28639311789009,8.678912219140868,0.41,0.4188888888888889,-0.6733333333333333,0.16710410889127852,0.009780547852170467,0.0625
1589986403.2125077,0.0264226199904958,-4.328535719942975,8.664309520038017,0.4175522466867311,0.42167129556294775,-0.6733333333333333,-0.4867931252970062,-0.08485862505940124,0.04014137494059876
1589986403.2225077,0.03286868047032741,-4.332895601567758,8.677131319529673,0.4311111111111111,0.4266666666666667,-0.6733333333333333,-0.5534512451007562,-0.15180975097984878,0.0
1589986403.2325077,0.05,-4.36799788295781,8.644598518070467,0.4311111111111111,0.4266666666666667,-0.6733333333333333,-0.20998412218357781,-0.1737486768486315,0.013751323151368516
1589986403.2425077,0.05,-4.297525580926458,8.59526790664852,0.4311111111111111,0.4266666666666667,-0.6733333333333333,0.31855814305156505,-0.12970348807903626,0.05779651192096376
1589986403.2525077,0.023693749065599096,-4.286306250934401,8.729234372663997,0.4311111111111111,0.4266666666666667,-0.6733333333333333,0.5163281366800113,-0.10191406834000565,0.03462889748999153
1589986403.2625077,0.03762853203541587,-4.272371467964584,8.76407133008854,0.4311111111111111,0.4266666666666667,-0.6733333333333333,0.34214334955730163,-0.014821674778650817,0.1652674878320238
1589986403.2725077,0.05,-4.33598402605459,8.705039934863525,0.4044444444444445,0.4311111111111111,-0.6733333333333333,-0.36564995928970223,0.07185004071029777,0.05314995928970223
1589986403.2825077,0.05,-4.368508064516129,8.623729838709677,0.4044444444444445,0.4311111111111111,-0.6733333333333333,-0.3148311491935484,0.12266885080645161,0.0023311491935483902
1589986403.2925076,0.046594355922441925,-4.313188711844884,8.609566135534651,0.4044444444444445,0.4311111111111111,-0.6733333333333333,0.20675153580341715,-0.042570550969475915,0.04121472451526204
1589986403.3025076,0.05113583162867205,-4.316362217676459,8.698864168371328,0.4044444444444445,0.4311111111111111,-0.6733333333333333,0.40766491279866723,0.051131930238933754,0.06959894767920033
1589986403.3125076,0.03575988662437576,-4.275359697665002,8.723839924416252,0.408284368860695,0.4302577945741666,-0.6733333333333333,0.07950212579295451,-0.125,-0.038500472398434335
1589986403.3225076,0.05805073776857365,-4.341949262231426,8.72440590214859,0.4244444444444445,0.4266666666666667,-0.6733333333333333,-0.4237315557856588,-0.10063422210717059,0.0625
1589986403.3325076,0.05392830831568284,-4.35,8.636430150105904,0.4244444444444445,0.4266666666666667,-0.6733333333333333,-0.4531365111888756,0.04910385394603555,0.013396146053964449
1589986403.3425076,0.056113718051118214,-4.353886281948881,8.607772563897763,0.4244444444444445,0.4266666666666667,-0.6733333333333333,0.03110335962460062,0.125,-0.03821073781948882
1589986403.3525076,0.046644487606007576,-4.343222438030038,8.670332685909885,0.4244444444444445,0.4266666666666667,-0.6733333333333333,0.47985976231226324,0.125,0.0
1589986403.3625076,0.03531176657151919,-4.3123441167142404,8.76531176657152,0.42288169996828423,0.4277084963174402,-0.6767192796983472,0.5556434348239772,0.11034927053599747,0.0
1589986403.3725076,0.031898683419100446,-4.312067544387267,8.742067544387266,0.4177777777777778,0.4311111111111111,-0.6877777777777778,-0.02373354273875561,0.0129221524204148,-0.0247889237897926
1589986403.3825076,0.044320227833100787,-4.305679772166899,8.687401708748256,0.4177777777777778,0.4311111111111111,-0.6877777777777778,-0.28549857604312007,-0.009252135935319865,-0.04475071197843995
1589986403.3925076,0.03142861696363115,-4.321428616963631,8.59285755267268,0.4177777777777778,0.4311111111111111,-0.6877777777777778,-0.30356915181844263,0.11607114397730532,0.008928856022694673
1589986403.4025075,0.03537082314588427,-4.318427057864711,8.686202118989405,0.4177777777777778,0.4311111111111111,-0.6877777777777778,0.16839853300733496,0.019101466992665038,0.0625
1589986403.4125075,0.02247143669942028,-4.286178591748551,8.73134997155203,0.4177777777777778,0.4311111111111111,-0.6877777777777778,0.2893302809429349,-0.10183028094293489,0.0625
1589986403.4225075,0.04384156148624704,-4.293445465201865,8.734633754055011,0.4244444444444445,0.4188888888888889,-0.6666666666666666,-0.09603903715617589,-0.15148536106643404,0.0625
1589986403.4325075,0.05753549756673943,-4.342606492700218,8.642890473234134,0.4244444444444445,0.4188888888888889,-0.6666666666666666,-0.5462094206236356,-0.030806280415757115,0.0625
1589986403.4425075,0.05,-4.322735223287845,8.56547044657569,0.4244444444444445,0.4188888888888889,-0.6666666666666666,-0.6248177996535553,-0.10220647260129283,0.06819838184967679
1589986403.4525075,0.05,-4.349316194178038,8.618632388356076,0.4244444444444445,0.4188888888888889,-0.6666666666666666,-0.015670550086611224,0.1193016181503232,0.1235754045375808
1589986403.4625075,0.041388083152042544,-4.3,8.74555233260817,0.42614099051916315,0.421665055192974,-0.6655870464373002,0.5,0.0,0.053824480299734107
1589986403.4725075,0.04983683828861494,-4.3,8.77934735315446,0.436467246797196,0.43856256546611877,-0.6590157924421883,0.5,0.0,0.0010197606961566338
1589986403.4825075,0.04244370323309332,-4.309774812932373,8.718231857969787,0.43666666666666665,0.4388888888888889,-0.6588888888888889,-0.17081943562049978,-0.0625,0.0625
1589986403.4925075,0.049845757447409295,-4.339383029789637,8.622005153183679,0.43666666666666665,0.4388888888888889,-0.6588888888888889,-0.30960795213892417,-0.0625,0.0625
1589986403.5025074,0.06683655800647445,-4.330509674019423,8.67214409395468,0.43666666666666665,0.4388888888888889,-0.6588888888888889,-0.1115994127832568,0.0,0.01977151245953474
1589986403.5125074,0.05650635744707309,-4.308253178723536,8.72524046382939,0.4333671153666801,0.4388888888888889,-0.6639352614653389,0.1984176329778966,0.010917632977896602,0.0625
1589986403.5225074,0.04,-4.3,8.726498233523794,0.4177777777777778,0.4388888888888889,-0.6877777777777778,0.14508139965978978,-0.00045116020412613866,0.04151627993195796
1589986403.5325074,0.0429397911120213,-4.311759164448085,8.650602088879786,0.4177777777777778,0.4388888888888889,-0.6877777777777778,-0.17274216670079867,-0.10662630554986688,-0.018373694450133114
1589986403.5425074,0.05336867040364003,-4.329893988789079,8.596843352018201,0.4177777777777778,0.4388888888888889,-0.6877777777777778,-0.37433742993174945,-0.02039161995449961,-0.04144580997724981
1589986403.5525074,0.057416361093259746,-4.32033455562696,8.640334555626962,0.4177777777777778,0.4388888888888889,-0.6877777777777778,-0.1531135409972404,0.0302045136657468,0.0161477431671266
1589986403.5625074,0.048156738530704,-4.34539184632676,8.678294676611833,0.4214643007163698,0.4388888888888889,-0.6872657607029734,0.15380096045775007,-0.056739807908449985,0.05097961581689997
1589986403.5725074,0.03,-4.3,8.74943347540606,0.4577777777777778,0.4388888888888889,-0.6822222222222222,0.4154864070959567,0.0,-0.04048640709595669
1589986403.5825074,0.03273863523818956,-4.302738635238189,8.705352282856294,0.4577777777777778,0.4388888888888889,-0.6822222222222222,0.2723011785678915,-0.05134941071605427,0.034232940477369515
1589986403.5925074,0.04116298008143502,-4.311162980081435,8.641162980081436,0.4577777777777778,0.4388888888888889,-0.6822222222222222,-0.021805876526906572,-0.18023137449103113,0.11046274898206229
1589986403.6025074,0.04954747474747475,-4.32,8.652715151515151,0.4577777777777778,0.4388888888888889,-0.6822222222222222,-0.17901515151515152,-0.11934343434343435,0.0028282828282828283
