time,acc_x,acc_y,acc_z,mag_x,mag_y,mag_z,gyr_x,gyr_y,gyr_z
1589986474.4145114,-3.7,-0.63,8.9,0.31555555555555553,-0.3744444444444445,-0.6411111111111111,-0.0625,0.0,-0.125
1589986474.4245114,-3.7066083188908148,-0.6167833622183708,8.966083188908145,0.3030731754284614,-0.38398979395339883,-0.6315657616021567,0.18531195840554593,-0.16520797227036396,-0.0010940207972270355
1589986474.4345114,-3.7032608229216524,-0.5998912343824786,9.003369588539174,0.2966666666666667,-0.3888888888888889,-0.6266666666666667,0.2914400716301639,-0.25,0.04144007163016389
1589986474.4445114,-3.691408843077168,-0.579295578461416,9.002251363075576,0.2966666666666667,-0.3888888888888889,-0.6266666666666667,0.2411947307677001,-0.24559736538385005,0.0
1589986474.4545114,-3.71,-0.5786952046783626,8.921738011695906,0.2966666666666667,-0.3888888888888889,-0.6266666666666667,0.07065497076023391,-0.3505350877192982,0.0
1589986474.4645114,-3.696980099229234,-0.5965099503853829,8.959764925578074,0.2966666666666667,-0.3888888888888889,-0.6266666666666667,-0.10171797477160799,-0.6031871899086432,-0.020343594954321597
1589986474.4745114,-3.67,-0.611717739762931,8.983435479525863,0.29762096653496173,-0.3854534093630268,-0.6320107459291188,-0.32323587351831895,-0.6230847588900862,-0.0625
1589986474.4845114,-3.6829530351676247,-0.6113646432215833,8.969776251275542,0.3022222222222222,-0.3688888888888889,-0.6577777777777778,-0.3210290201348963,-0.17757255033724084,-0.0625
1589986474.4945114,-3.7,-0.6,8.906065550307714,0.3022222222222222,-0.3688888888888889,-0.6577777777777778,-0.20725991126377558,0.02137004436811221,-0.019759911263775583
1589986474.5045114,-3.701017072786058,-0.5989829272139421,8.866102436716346,0.3022222222222222,-0.3688888888888889,-0.6577777777777778,-0.13135670491286175,0.04342988526141471,0.07521340982572353
1589986474.5145113,-3.709285939594669,-0.5907140604053308,8.915715637568015,0.3022222222222222,-0.3688888888888889,-0.6577777777777778,-0.18303712246668244,-0.11161136740004732,0.17857424493336488
1589986474.5245113,-3.708794243638589,-0.5918086345421165,8.973014390903527,0.30262414100935925,-0.37049656403743697,-0.6555002379840014,-0.18373201137059045,-0.17619603411177132,-0.05496402274118088
1589986474.5345113,-3.6922346368715084,-0.6166480446927374,9.014413407821229,0.3081440099317194,-0.39257603972687777,-0.6242209807572936,-0.1319832402234637,-0.020949720670391053,0.04853351955307261
1589986474.5445113,-3.69,-0.6134205265380825,8.979215261157258,0.3088888888888889,-0.3955555555555556,-0.62,-0.041121709136984375,-0.16612170913698437,0.08387829086301563
1589986474.5545113,-3.6824906011238228,-0.6162453005619113,8.942528196628531,0.3088888888888889,-0.3955555555555556,-0.62,0.0,-0.10153312851194567,0.10153312851194567
1589986474.5645113,-3.674304784176167,-0.61,8.986457176264251,0.3088888888888889,-0.3955555555555556,-0.62,-0.01345245055052129,-0.049047549449478714,0.0625
1589986474.5745113,-3.6893932910244787,-0.6093932910244787,9.011213417951042,0.30767547093784625,-0.39427472549612175,-0.62,-0.05112420670897552,0.015167724388032638,0.06629193109700816
1589986474.5845113,-3.682727133628018,-0.5972728663719823,9.032727133628017,0.2888888888888889,-0.3744444444444445,-0.62,0.10795541482488949,0.31817834070044204,0.10795541482488949
1589986474.5945113,-3.6898578714722885,-0.5901421285277116,9.039857871472288,0.2888888888888889,-0.3744444444444445,-0.62,0.06338830329819789,0.49644678680720844,0.06338830329819789
1589986474.6045113,-3.6923551190026447,-0.6076448809973555,8.861467321496033,0.2888888888888889,-0.3744444444444445,-0.62,0.0625,0.24082924064979222,-0.0625
1589986474.6145113,-3.686467245989305,-0.6167663770053475,8.89293449197861,0.2888888888888889,-0.3744444444444445,-0.62,0.02207971256684492,0.125,-0.02207971256684492
1589986474.6245112,-3.701210774173672,-0.6075784516526561,8.924843096694687,0.2888888888888889,-0.3744444444444445,-0.62,-0.0625,0.10229798424365125,0.0625
1589986474.6345112,-3.7086547567077472,-0.59,8.961345243292254,0.2888888888888889,-0.3744444444444445,-0.62,-0.07090777057658082,-0.07931554115316163,0.07511165586487122
1589986474.6445112,-3.69,-0.59,8.963136531365313,0.2888888888888889,-0.3744444444444445,-0.62,-0.24019833948339483,-0.3476322263222632,0.21486777367773677
1589986474.6545112,-3.6882320852963053,-0.5917679147036945,8.927071658814778,0.2888888888888889,-0.3744444444444445,-0.62,-0.330802132407637,-0.349104264815274,0.06975266550954624
1589986474.6645112,-3.691512498129023,-0.608634373596767,8.98014687172579,0.2888888888888889,-0.3744444444444445,-0.62,-0.14298827832659783,0.0625,-0.13353516502020657
1589986474.6745112,-3.717370669197912,-0.6313146654010442,9.035258661604177,0.28991140642303437,-0.3744444444444445,-0.6191235563993039,-0.17928334124347414,0.0625,0.016433317513051732
1589986474.6845112,-3.6932566305874577,-0.6332566305874576,9.080115054118814,0.2966666666666667,-0.3744444444444445,-0.6133333333333333,-0.08285394117161035,0.1467921176567793,0.04070788234322069
1589986474.6945112,-3.690253902185224,-0.6071826222684703,9.046167013527576,0.2966666666666667,-0.3744444444444445,-0.6133333333333333,0.09613033298647242,0.32852172216441206,-0.09295655567117586
1589986474.7045112,-3.7147795669506762,-0.5752204330493238,8.900440866098648,0.2966666666666667,-0.3744444444444445,-0.6133333333333333,0.3260584401625889,0.3260584401625889,0.03262770655827406
1589986474.7145112,-3.7,-0.59,8.929133901221098,0.2966666666666667,-0.3744444444444445,-0.6133333333333333,0.1766737652637321,0.1766737652637321,0.11958688263186605
1589986474.7245111,-3.7,-0.59,8.920333808904369,0.2966666666666667,-0.3744444444444445,-0.6133333333333333,0.06667261130460325,0.06667261130460325,0.06458630565230163
1589986474.7345111,-3.696543640381163,-0.5886408990470929,8.91,0.3022222222222222,-0.38222222222222224,-0.62,0.10339775238226764,-0.010801123808866178,0.021602247617732356
1589986474.7445111,-3.6820625604198316,-0.6248435989504212,8.91,0.3022222222222222,-0.38222222222222224,-0.62,0.012891002623946962,-0.05605449868802652,0.11210899737605304
1589986474.754511,-3.7,-0.62,8.888080107073812,0.3022222222222222,-0.38222222222222224,-0.62,0.04987483269716948,0.024624498091508455,-0.04987483269716948
1589986474.764511,-3.7,-0.62,8.915802310018341,0.3022222222222222,-0.38222222222222224,-0.62,0.0065588905963416474,-0.10532332821097506,-0.0065588905963416474
1589986474.774511,-3.690739662586834,-0.6085206748263314,9.015917300694674,0.30074289704855367,-0.38123600543977654,-0.6211505862461867,-0.11113132649685742,-0.11575421766457161,0.009245782335428382
1589986474.784511,-3.6999894144889183,-0.5900211710221633,9.089915315911346,0.28224339324438563,-0.3689030029036645,-0.635539089204984,0.062301521667218,-0.00013231888852133222,0.12486768111147867
1589986474.794511,-3.6862655012291725,-0.5941770008194482,9.05493799508331,0.2822222222222222,-0.3688888888888889,-0.6355555555555555,0.23971251024310297,0.1875,-0.036393744878448514
1589986474.804511,-3.709178912865337,-0.6094526085768915,8.963284348538652,0.2822222222222222,-0.3688888888888889,-0.6355555555555555,0.43065760721114454,0.1875,0.05907880360557226
1589986474.814511,-3.6978808136213006,-0.59,8.922626937873767,0.2822222222222222,-0.3688888888888889,-0.6355555555555555,0.1875,0.3125,0.04608163828895745
1589986474.824511,-3.719028425327117,-0.5909715746728831,8.929028425327116,0.2836256078608312,-0.3701843217860664,-0.636850988452733,0.16928297488344113,0.2882106331779215,0.006072341705519626
1589986474.834511,-3.71,-0.5971448404624554,8.92,0.2966666666666667,-0.38222222222222224,-0.6488888888888888,0.05353424132896092,0.008965758671039083,0.08034474710965364
1589986474.844511,-3.7010542926179792,-0.59,8.899126682775284,0.2966666666666667,-0.38222222222222224,-0.6488888888888888,0.1875,-0.125,0.10636310962078999
1589986474.854511,-3.686343954440627,-0.59,8.875375817762507,0.2966666666666667,-0.38222222222222224,-0.6488888888888888,0.1280254271191227,-0.0853502847460818,0.0625
1589986474.864511,-3.6977723787369694,-0.59,8.941138106315154,0.2966666666666667,-0.38222222222222224,-0.6488888888888888,0.013922632893943309,-0.04176789868182993,0.03465473421211338
1589986474.874511,-3.6905451882484708,-0.59,8.977274058757647,0.2966666666666667,-0.38222222222222224,-0.6488888888888888,0.05909257344705781,-0.17727772034117342,-0.05568514689411562
1589986474.884511,-3.69,-0.6190820688448366,9.047858160637952,0.276201507109189,-0.38222222222222224,-0.6208839337049721,0.123087643426743,-0.005737069719771032,-0.0625
1589986474.894511,-3.6822874839002955,-0.5968624517008864,9.03457496780059,0.27555555555555555,-0.38222222222222224,-0.62,0.17320322562315327,0.0,-0.0625
1589986474.904511,-3.7,-0.6003310607261773,8.95,0.27555555555555555,-0.38222222222222224,-0.62,0.0,-0.059396305692088154,-0.002069129538607896
1589986474.914511,-3.695907286752041,-0.62,8.958185426495918,0.27555555555555555,-0.38222222222222224,-0.62,-0.025579457799745377,0.08663081330038194,-0.125
1589986474.924511,-3.680201827304726,-0.62,8.989596345390549,0.27555555555555555,-0.38222222222222224,-0.62,-0.12373857934546545,-0.060607869018198146,-0.125
1589986474.934511,-3.68,-0.6031626034444195,8.98158130172221,0.30361788314818955,-0.38222222222222224,-0.6256124655185268,-0.125,-0.0625,-0.3354674569447551
1589986474.944511,-3.68,-0.590184722341923,8.930923611709614,0.3088888888888889,-0.38222222222222224,-0.6266666666666667,-0.3703819414519234,0.12153645608894253,-0.19096354391105747
1589986474.954511,-3.715360345897815,-0.5723198270510926,8.859279308204371,0.3088888888888889,-0.38222222222222224,-0.6266666666666667,-0.4855010809306706,0.40125270232667654,-0.2427505404653353
1589986474.964511,-3.7161196064703934,-0.5838803935296069,8.933581377353624,0.3088888888888889,-0.38222222222222224,-0.6266666666666667,-0.9132475404399573,0.8610049191200855,-0.48787377021997863
1589986474.974511,-3.7006647260400163,-0.5993352739599838,8.987673458859943,0.3088888888888889,-0.38222222222222224,-0.6266666666666667,-0.8166545377501013,1.0541909244997973,-0.43957726887505066
1589986474.984511,-3.667375399879457,-0.6000996800964347,8.990099680096435,0.3022222222222222,-0.3744444444444445,-0.6411111111111111,-0.8440615003013584,1.2840535027122257,-0.1717192498493208
1589986474.994511,-3.6277032212221694,-0.6322967787778304,8.997032212221695,0.3022222222222222,-0.3744444444444445,-0.6411111111111111,-0.8800805305542397,2.311613275698721,-0.18241946944576032
1589986475.0045109,-3.6016802800466747,-0.6422899649941657,8.931449824970828,0.3022222222222222,-0.3744444444444445,-0.6411111111111111,-0.7018122812135356,2.9375,-0.4894982497082847
1589986475.0145109,-3.526286748684255,-0.6534283128289363,8.973428312828936,0.3022222222222222,-0.3744444444444445,-0.6411111111111111,-0.7928539103617043,2.8732191344574436,-1.0142752086755389
1589986475.0245109,-3.4700459253796385,-0.6674885186550904,8.987488518655091,0.3022222222222222,-0.3744444444444445,-0.6411111111111111,-0.9686064831886293,2.609590275217056,-1.5854710703630452
1589986475.0345109,-3.399593079922027,-0.6520346003898636,8.99674463937622,0.2966666666666667,-0.3888888888888889,-0.6266666666666667,-1.200216252436647,2.0726730019493176,-1.8495674951267056
1589986475.0445108,-3.368193563823424,-0.6968847948319177,8.910654384495754,0.2966666666666667,-0.3888888888888889,-0.6266666666666667,-1.5681451130518005,2.322235016150257,-1.0942397415958847
1589986475.0545108,-3.0599976218787157,-0.6435828775267539,8.858416646848989,0.2966666666666667,-0.3888888888888889,-0.6266666666666667,-2.016667657550535,2.266144470868014,-0.32916765755053506
1589986475.0645108,-2.0733865101854123,-0.4836181083915304,8.874848167072,0.2966666666666667,-0.3888888888888889,-0.6266666666666667,-2.5653949775764744,2.1442677770588365,-0.8504889109529441
1589986475.0745108,-2.212067084145793,-0.6848231963401831,9.026201252437378,0.2961307559622019,-0.3888888888888889,-0.6266666666666667,-3.290967873481326,4.722065068621569,-1.390129321658917
1589986475.0845108,-2.235658842057897,-0.7398706314684266,9.096976526173691,0.29001437428128596,-0.3888888888888889,-0.6266666666666667,-3.0452203952302384,3.6899256599670016,-0.8494848695065247
1589986475.0945108,-2.082862706031516,-0.6941505162108313,8.979356094910342,0.2888888888888889,-0.3888888888888889,-0.6266666666666667,-0.05154184024633218,-1.4594163195073357,-0.013527893497554788
1589986475.1045108,-1.8473559137837348,-0.5650016301394676,8.926177141822134,0.2888888888888889,-0.3888888888888889,-0.6266666666666667,-0.6213163376199964,-0.31986732476000723,-0.3933775584133309
1589986475.1145108,-1.7515750909637147,-0.6910989084354241,8.915970724705412,0.2888888888888889,-0.3888888888888889,-0.6266666666666667,-0.19871816269986975,2.4807693110124514,0.00595228160363187
1589986475.1245108,-1.7585756250625897,-0.6070924992489234,8.586945622058284,0.2888888888888889,-0.3888888888888889,-0.6266666666666667,2.2514687719063993,1.5619492105351003,1.143539072670828
1589986475.1345108,-2.0107418611351195,-0.6928387592432536,9.141355036973014,0.2966666666666667,-0.3688888888888889,-0.6266666666666667,-0.6585683160472486,-0.06522045760107559,2.219152141553827
1589986475.1445107,-2.0705916930578026,-0.6635305643526008,8.994112460413296,0.2966666666666667,-0.3688888888888889,-0.6266666666666667,-0.6028727415643298,-0.6506416463511882,3.1140282176300382
1589986475.1545107,-2.111695303550974,-0.6786158839251624,8.91446353570065,0.2966666666666667,-0.3688888888888889,-0.6266666666666667,0.39230145093547153,0.6269449217258496,4.0240072546773575
1589986475.1645107,-2.0645868028279657,-0.6745868028279655,8.900640612725844,0.2966666666666667,-0.3688888888888889,-0.6266666666666667,0.39249680871956005,0.19266496465043204,4.591167517674784
1589986475.1745107,-2.0975349567949726,-0.7075349567949725,9.048907305577377,0.2966666666666667,-0.3688888888888889,-0.6266666666666667,-0.3797255498821681,-0.2191869599371563,4.797093479968578
1589986475.1845107,-2.1421143452497233,-0.6931542619001106,9.017885654750277,0.28450030026119105,-0.3960292447164883,-0.6266666666666667,0.036286384059386556,-0.0920712053135378,4.9704287946864625
1589986475.1945107,-2.166209427577332,-0.6925270482817787,8.994729517182211,0.2822222222222222,-0.4011111111111111,-0.6266666666666667,0.25789702588055863,0.0309118964777656,5.320397025880559
1589986475.2045107,-2.1364096232698278,-0.7076064155132183,8.827180753460345,0.2822222222222222,-0.4011111111111111,-0.6266666666666667,0.2601403393516526,-0.20245990304238498,5.330120290872845
1589986475.2145107,-2.1075025820693005,-0.6893756455173251,8.880624354482675,0.2822222222222222,-0.4011111111111111,-0.6266666666666667,-0.14060886206687054,-0.31640221551671766,4.960977844832824
1589986475.2245107,-2.0735261953462,-0.6808815488365499,8.889118451163451,0.2822222222222222,-0.4011111111111111,-0.6266666666666667,-0.3529612790862512,-0.3694903197715628,4.430096802284372
1589986475.2345107,-2.097857857486938,-0.68,8.876071071256531,0.30079412721351434,-0.3972419642379253,-0.6320834722891269,-0.15736048838329564,-0.11383258605995478,3.8526651721199094
1589986475.2445107,-2.11,-0.7096233194251275,8.998367717508886,0.3088888888888889,-0.3955555555555556,-0.6344444444444445,-0.30936099520939575,-0.3085762440117447,2.267264526348323
1589986475.2545106,-2.0862819855245913,-0.7020939951748637,8.944657966224046,0.3088888888888889,-0.3955555555555556,-0.6344444444444445,-0.16426240952869436,-0.21367493968579626,1.0146867460724531
1589986475.2645106,-2.079130034198979,-0.69,8.95115995440136,0.3088888888888889,-0.3955555555555556,-0.6344444444444445,0.012687001264893734,-0.10687571247872324,-1.3723101488202134
1589986475.2745106,-2.059480612770742,-0.69,8.977359182972345,0.3088888888888889,-0.3955555555555556,-0.6344444444444445,0.29924106376001375,0.3024872339428768,-2.7232078720114936
1589986475.2845106,-2.0913983826670735,-0.7065593530668294,8.998279676533414,0.3088888888888889,-0.3955555555555556,-0.6464039772149324,0.33400404333231615,0.39650404333231615,-5.341423176685993
1589986475.2945106,-2.132275392309019,-0.7019311519227452,8.967724607690982,0.3088888888888889,-0.3955555555555556,-0.6488888888888888,0.3125,0.5767212019313674,-7.918502920762201
1589986475.3045106,-2.102192335158296,-0.67,8.822192335158295,0.3088888888888889,-0.3955555555555556,-0.6488888888888888,0.48355748631278267,0.942980837895739,-11.449520947393477
1589986475.3145106,-2.1503581372825953,-0.67,8.870358137282595,0.3088888888888889,-0.3955555555555556,-0.6488888888888888,0.1272383580162221,1.0736917900811105,-14.558371332875994
1589986475.3245106,-2.1588208708284573,-0.67,8.878820870828458,0.3088888888888889,-0.3955555555555556,-0.6488888888888888,0.18013044267785805,1.3381522133892902,-17.414543904604333
1589986475.3345106,-2.2177440409304996,-0.6806445597341431,8.911933679202429,0.31555555555555553,-0.3888888888888889,-0.6577777777777778,0.37902849833839386,1.497985750830803,-21.304326451813424
1589986475.3445106,-2.151043329532497,-0.7006955530216648,8.968956670467504,0.31555555555555553,-0.3888888888888889,-0.6577777777777778,0.510868015963512,1.444020809578107,-24.947263397947548
1589986475.3545105,-2.1790805591920703,-0.7206129605386198,8.939693519730689,0.31555555555555553,-0.3888888888888889,-0.6577777777777778,0.8259085117823078,1.6499015218814288,-28.80243010099121
1589986475.3645105,-2.1498102572245155,-0.74,8.930284614163225,0.31555555555555553,-0.3888888888888889,-0.6577777777777778,1.2511858923467767,2.4375,-32.475448555096854
1589986475.3745105,-2.1331609241028895,-0.74,8.955258613845666,0.31555555555555553,-0.3888888888888889,-0.6577777777777778,1.3552442243569387,2.4375,-35.80531517942204
1589986475.3845105,-2.1796212056797892,-0.7492424113595783,8.970378794320212,0.3233333333333333,-0.3955555555555556,-0.6411111111111111,1.4351325354986821,2.7689397160105433,-40.97585505059094
1589986475.3945105,-2.1707055097355665,-0.7314110194711334,8.979294490264433,0.3233333333333333,-0.3955555555555556,-0.6411111111111111,1.379409435847292,3.2147245132216646,-44.82074892653686
1589986475.4045105,-2.162946418788122,-0.7723214872712663,8.88830344424559,0.3233333333333333,-0.3955555555555556,-0.6411111111111111,1.5072546477227071,3.3381697651484714,-48.475451075641914
1589986475.4145105,-2.189715630990267,-0.7506398302719,8.88,0.3233333333333333,-0.3955555555555556,-0.6411111111111111,1.2526659594662497,3.6892773063108333,-54.59271420728417
1589986475.4245105,-2.158492360374444,-0.820892189157501,8.88,0.3233333333333333,-0.3955555555555556,-0.6411111111111111,1.5453841214895874,3.884422747659725,-57.91018671021532
1589986475.4345105,-2.200388561816653,-0.9105180824222036,8.950259041211101,0.35,-0.3744444444444445,-0.65,1.378238015138772,3.944785534062237,-63.49335576114382
1589986475.4445105,-2.221554079058032,-0.9387387720773759,8.964369386038689,0.35,-0.3744444444444445,-0.65,1.5546173254835998,4.341638982338099,-66.5358988645921
1589986475.4545105,-2.211744313011829,-0.9705814376706097,8.852131938125568,0.35,-0.3744444444444445,-0.65,2.4387113284804367,4.8161339854413105,-71.70373635122839
1589986475.4645104,-2.297614877161055,-0.9992049590536851,8.957084849863513,0.35,-0.3744444444444445,-0.65,2.4983436646951773,4.995030994085532,-75.57983820518653
1589986475.4745104,-2.340944233588369,-1.0327553868706951,8.943622306564652,0.35,-0.3744444444444445,-0.65,2.448819708014539,5.255901459927305,-79.01421897905496
1589986475.4845104,-2.2852326888489207,-1.0492524730215829,8.967757419064748,0.36747689348521184,-0.35696755095923266,-0.6633646832533973,2.6109838691546763,5.543811825539568,-83.27750533947842
1589986475.4945104,-2.2700280688622754,-1.0901964820359282,8.889915793413174,0.3688888888888889,-0.3555555555555556,-0.6644444444444444,2.4994737088323356,5.688377151946108,-87.13517496257485
1589986475.5045104,-2.2787487524950096,-1.1512412674650698,8.86375374251497,0.3688888888888889,-0.3555555555555556,-0.6644444444444444,2.335960890718563,5.9608985154690615,-90.29642277944112
1589986475.5145104,-2.3480452958844062,-1.2280452958844061,8.850279243445085,0.3688888888888889,-0.3555555555555556,-0.6644444444444444,2.3125,6.06075472846822,-93.84849115187922
1589986475.5245104,-2.32651447597543,-1.2378285080081899,8.88914254004095,0.3688888888888889,-0.3555555555555556,-0.6644444444444444,2.752853575460686,6.404997225358311,-96.13926787730342
1589986475.5345104,-2.251445262483995,-1.2693806017925737,8.890206466069143,0.41241570635936825,-0.3359684876938398,-0.7145002845354957,2.5689520646606914,6.6224191741357235,-99.81047935339309
1589986475.5445104,-2.212286653577462,-1.3454266928450758,8.965426692845076,0.4133333333333333,-0.33555555555555555,-0.7155555555555555,2.150010273503493,6.212510273503493,-102.93920939683119
1589986475.5545104,-2.2660770652637567,-1.35,8.876538224560406,0.4133333333333333,-0.33555555555555555,-0.7155555555555555,2.533895267548225,6.771636096497464,-105.57837160528935
1589986475.5645103,-2.2622307921086544,-1.4199228710221077,8.85446158421731,0.4133333333333333,-0.33555555555555555,-0.7155555555555555,3.2423056904927137,7.540863239813621,-107.59518687419451
1589986475.5745103,-2.26,-1.4348654978586723,8.91161402569593,0.4133333333333333,-0.33555555555555555,-0.7155555555555555,3.2770468080835116,7.557456169700214,-109.4407161737152
1589986475.5845103,-2.26,-1.4709995615957914,8.923875493204735,0.42358322373228113,-0.3082225144916947,-0.7184027473330411,3.157030907496712,7.53515453748356,-111.93670539237176
1589986475.5945103,-2.266221938348132,-1.534887753392528,8.904887753392527,0.43333333333333335,-0.2822222222222222,-0.7211111111111111,3.3819355733791254,7.8041613440274755,-114.44716189897805
1589986475.6045103,-2.1875540395523534,-1.5683213245439216,8.828393377280392,0.43333333333333335,-0.2822222222222222,-0.7211111111111111,2.927458608002453,7.932254139199754,-117.71192798558945
1589986475.6145103,-2.144670280838962,-1.6494918681123356,8.811167570209742,0.43333333333333335,-0.2822222222222222,-0.7211111111111111,2.819797313810878,8.21351343094561,-119.97999938899751
1589986475.6245103,-2.1554553879855085,-1.7063661639565253,8.86409385794928,0.43333333333333335,-0.2822222222222222,-0.7211111111111111,2.8125,8.394894262364142,-121.84383688600556
1589986475.6345103,-2.16,-1.777481549815498,8.854452644526445,0.45178420117534507,-0.2481590815908159,-0.7402716277162772,2.8524177429274293,8.756841943419435,-123.58986777367774
1589986475.6445103,-2.1401437086633464,-1.8596407283416347,8.820143708663347,0.4622222222222222,-0.2288888888888889,-0.7511111111111111,3.743712745978607,9.30980546256226,-125.92582367110313
1589986475.6545103,-2.118422049630612,-1.8887706004925175,8.762458799014965,0.4622222222222222,-0.2288888888888889,-0.7511111111111111,3.5701837469217654,9.492316253078235,-127.33107596135632
1589986475.6645103,-2.1001923959608324,-1.9784608323133415,8.789038020195838,0.4622222222222222,-0.2288888888888889,-0.7511111111111111,3.5,9.623797525244798,-129.95911585832314
1589986475.6745102,-2.0494336092412193,-2.0221386589656505,8.84056639075878,0.4622222222222222,-0.2288888888888889,-0.7511111111111111,3.2893067051717475,9.572326676292937,-131.4221797400907
1589986475.6845102,-2.0305468210328534,-2.096172252770026,8.812187284131415,0.4916321123422337,-0.1847740537088718,-0.7784202947939789,3.486329474178663,10.035158948357326,-133.51905342488465
1589986475.6945102,-2.03,-2.12557805133019,8.83557805133019,0.4933333333333334,-0.18222222222222226,-0.78,3.340137179186312,10.542088462441065,-135.27691581507477
1589986475.7045102,-1.987273525537831,-2.2069076540319044,8.754547051075662,0.4933333333333334,-0.18222222222222226,-0.78,2.778419069222889,10.518183813844578,-137.21815088540905
1589986475.7145102,-1.972383462466658,-2.2733157627333926,8.770466150133366,0.4933333333333334,-0.18222222222222226,-0.78,2.7351033595833862,11.023636955417249,-138.8328940683348
1589986475.7245102,-1.9507921876711685,-2.3044058592466237,8.722376563013505,0.4933333333333334,-0.18222222222222226,-0.78,2.990097654110393,11.157487793236202,-140.15036620291397
1589986475.7345102,-1.9396812837388153,-2.345816756636841,8.695498040375655,0.504448881329751,-0.18867641138143249,-0.7868127552236108,2.9474598831620202,11.22584670561266,-141.77041891592103
1589986475.7445102,-1.917904208688215,-2.501029899148284,8.753161683475286,0.5277777777777778,-0.20222222222222225,-0.8011111111111111,1.628443391183493,11.227021043441075,-144.23001452193435
1589986475.7545102,-1.9253588173870313,-2.5814352695481255,8.657847095677813,0.5277777777777778,-0.20222222222222225,-0.8011111111111111,2.219944565017096,11.66746304334473,-144.9654593476792
1589986475.7645102,-1.8871430071582338,-2.5839286276843376,8.651428496420884,0.5277777777777778,-0.20222222222222225,-0.8011111111111111,2.40401797434237,12.147320256576299,-145.2589281026305
1589986475.7745101,-1.8438089883127837,-2.607146070123298,8.608089883127837,0.5277777777777778,-0.20222222222222225,-0.8011111111111111,1.988061769548978,11.74101118518816,-145.76193823045102
1589986475.7845101,-1.84,-2.7080304617339492,8.653604066143517,0.5414021441122768,-0.1991257753280179,-0.8178319243398146,1.4016497244020125,10.894479669282415,-146.0348350275598
1589986475.7945101,-1.8515670840787122,-2.79891771019678,8.714216457960644,0.5522222222222222,-0.19666666666666666,-0.8311111111111111,2.245561270125224,10.92397137745975,-145.41185152057244
1589986475.80451,-1.8281866451000388,-2.8518133548999614,8.72590667744998,0.5522222222222222,-0.19666666666666666,-0.8311111111111111,2.5654163296881043,10.624138506979852,-144.73866653187525
1589986475.81451,-1.7875507033038927,-2.9235725384363755,8.764898593392214,0.5522222222222222,-0.19666666666666666,-0.8311111111111111,1.8915756869479883,9.580343269545306,-143.82332300866864
1589986475.82451,-1.7278503480894936,-2.9615888115356683,8.72205594232166,0.5522222222222222,-0.19666666666666666,-0.8311111111111111,2.4743007209792562,10.01051575702822,-141.9988286301394
1589986475.83451,-1.682157014822475,-3.01705791106515,8.695685970355049,0.49209266919453065,-0.21235263702171664,-0.7683672296909112,3.0,10.023294769045156,-139.62747759393312
1589986475.84451,-1.6931645163589706,-3.082658065435883,8.877720970846104,0.4755555555555556,-0.21666666666666667,-0.7511111111111111,2.259495954807898,9.134495954807898,-137.85127013685937
1589986475.85451,-1.6672589982381072,-3.1672967530833125,8.618034231059653,0.4755555555555556,-0.21666666666666667,-0.7511111111111111,3.205103196576894,9.36389378303549,-134.51595142209916
1589986475.86451,-1.6018553668359308,-3.1735394852039924,8.675670810716161,0.4755555555555556,-0.21666666666666667,-0.7511111111111111,3.540378217475048,9.459621782524952,-131.95896734372263
1589986475.87451,-1.5594113347302763,-3.162940889820184,8.757059110179815,0.4755555555555556,-0.21666666666666667,-0.7511111111111111,3.1654250523853613,9.08454449100921,-129.9705515082111
1589986475.88451,-1.5408878504672898,-3.1642056074766356,8.773551401869158,0.47634475597092424,-0.202263759086189,-0.7412461059190031,2.5096378504672896,8.4375,-127.99620327102804
1589986475.89451,-1.4878053544754681,-3.3022256693094336,8.763354015856601,0.4844444444444445,-0.054444444444444434,-0.64,3.0070521659197977,8.194552165919799,-122.2233425255659
1589986475.90451,-1.334281063755196,-3.318095858165974,9.537169830219861,0.4844444444444445,-0.054444444444444434,-0.64,3.1636982270746734,7.898801772925327,-118.44632393449191
1589986475.91451,-1.225500619408121,-3.083751548520303,8.822005230557467,0.4844444444444445,-0.054444444444444434,-0.64,4.499991397109429,9.810924810736408,-115.92657690984171
1589986475.92451,-1.2050678336980305,-3.019113785557987,8.647654266958424,0.4844444444444445,-0.054444444444444434,-0.64,5.433328774617068,10.020527899343545,-113.27665481400437
1589986475.93451,-1.332944580172303,-3.391766748103382,9.075369679825124,0.5147690483334049,0.034438015230094446,-0.6264062120497764,-4.955180339462517,0.9930001928764307,-110.14715667995371
1589986475.94451,-1.242233214018802,-3.2942544152932385,8.403611296857177,0.5166666666666667,0.04,-0.6255555555555555,3.2141785981198137,6.7214665362073704,-104.22800343193171
1589986475.95451,-1.3105307204491112,-3.516901964861212,9.073006549537373,0.5166666666666667,0.04,-0.6255555555555555,4.202990175693939,7.324117631770454,-99.0979084364279
1589986475.96451,-1.2130253236451947,-3.4461444603302063,8.788982157895768,0.5166666666666667,0.04,-0.6255555555555555,1.2711654654419395,4.7597032354726885,-95.94720323547268
1589986475.97451,-1.1499381212050894,-3.3799381212050896,8.529690606025447,0.5166666666666667,0.04,-0.6255555555555555,2.2006492439184746,5.19678181923657,-92.04509658893143
1589986475.98451,-1.1147918848675278,-3.40151014391559,8.820309554288373,0.5089641870428557,0.09041623026494433,-0.6318575843386736,2.6976051243260017,5.033217444431514,-86.80796384654175
1589986475.99451,-1.09441909321027,-3.459066347528111,8.841410982728634,0.5044444444444445,0.12,-0.6355555555555555,2.447613348716271,4.202022669743254,-82.51478527026329
1589986476.00451,-1.0591128481444942,-3.446757987402292,8.693822569628898,0.5044444444444445,0.12,-0.6355555555555555,3.424698338013205,4.5055446990969115,-76.96824011535251
1589986476.01451,-1.0453579354404843,-3.4628634835238734,8.845380127774042,0.5044444444444445,0.12,-0.6355555555555555,3.0177580699394753,4.2231548419636855,-72.55991614828514
1589986476.02451,-0.9949344091333224,-3.3859355617761677,8.86200230528569,0.5044444444444445,0.12,-0.6355555555555555,2.462082853065481,3.9979142653274056,-68.50878890169604
1589986476.03451,-0.931278626977742,-3.284475194422097,8.95130249396621,0.5233587795357707,0.14837150263698937,-0.6355555555555555,2.7992306918744974,4.220747854652722,-62.87741519174041
1589986476.04451,-0.9209885683823965,-3.3209885683823965,8.580759936030326,0.54,0.17333333333333334,-0.6355555555555555,1.65725878102233,3.252732038144879,-57.81451756204466
1589986476.0545099,-0.9404013401270328,-3.3784030152858238,8.745217421651427,0.54,0.17333333333333334,-0.6355555555555555,2.170046066866755,3.3500209394848888,-53.234845047811824
1589986476.0645099,-0.9364659820282414,-3.4473690629011555,8.74819383825417,0.54,0.17333333333333334,-0.6355555555555555,1.1465982028241335,2.231185815147625,-49.41819640564827
1589986476.0745099,-0.9243360141852954,-3.47,8.808943702108795,0.54,0.17333333333333334,-0.6355555555555555,1.3495978722056867,2.4391979608637833,-45.25760718130581
1589986476.0845098,-0.8899056122897369,-3.436143813825954,8.779622449158948,0.542507865642522,0.18754457197429092,-0.6322117346988596,1.7413763556149262,2.709831394020354,-41.41671317209499
1589986476.0945098,-0.8580620778948105,-3.4138663960527698,8.652248311579243,0.5466666666666666,0.2111111111111111,-0.6266666666666667,1.453609983553207,2.1532219967106414,-37.64328612170627
1589986476.1045098,-0.9026892840921003,-3.5023028545473602,8.758052129555223,0.5466666666666666,0.2111111111111111,-0.6266666666666667,1.5480088920722546,1.8605088920722546,-32.569450752943645
1589986476.1145098,-0.8766084158958798,-3.44504368807809,8.557736262932767,0.5466666666666666,0.2111111111111111,-0.6266666666666667,0.9364077980477461,1.176628249186561,-28.85166846415384
1589986476.1245098,-0.8587797359780205,-3.455213931515111,8.842377202975273,0.5466666666666666,0.2111111111111111,-0.6266666666666667,1.2023575185954567,1.2374208436641425,-22.591819255511627
1589986476.1345098,-0.7557938908533208,-3.5271030545733395,8.735064116218634,0.5490485995730319,0.21297803149718114,-0.6266666666666667,0.3795610914667916,0.7400763643334896,-18.303793187918032
1589986476.1445098,-0.8300655434476658,-3.436144195584865,8.836471912823194,0.5877777777777777,0.2433333333333333,-0.6266666666666667,-0.5625,-0.4375,-8.0
1589986476.1545098,-0.8097925142392188,-3.3651037428803905,8.659170056956874,0.5877777777777777,0.2433333333333333,-0.6266666666666667,-0.04227268104149717,-0.19268714401952808,-5.4294650122050445
1589986476.1645098,-0.8349172896722032,-3.419669158688813,8.685082710327796,0.5877777777777777,0.2433333333333333,-0.6266666666666667,0.03383469774364872,-0.37258761543926117,1.1347108521362608
1589986476.1745098,-0.8150516260046334,-3.4135980894088034,8.708443211394902,0.5877777777777777,0.2433333333333333,-0.6266666666666667,-0.3501290650115837,-0.9653991362297285,6.220164888596516
1589986476.1845098,-0.7743691612510155,-3.3094953290008124,8.76537850324939,0.6614267984475133,0.2839486020850257,-0.6656573246682914,-0.3702687093826158,-1.2804614515637693,9.928534029752234
1589986476.1945097,-0.8312823610631688,-3.3863082499137036,8.793795305488436,0.7388888888888889,0.32666666666666666,-0.7066666666666667,-0.5625,-1.429808853986883,13.243926907145323
1589986476.2045097,-0.8431468978750621,-3.3925875915002486,8.730909672375809,0.7388888888888889,0.32666666666666666,-0.7066666666666667,-0.7338275531234454,-1.6284956648425841,16.305930637481346
1589986476.2145097,-0.8333837381106288,-3.2939885954381753,8.74954635700434,0.7388888888888889,0.32666666666666666,-0.7066666666666667,-0.6884450895742913,-1.6461483631914304,19.028120382768492
1589986476.2245097,-0.7993920131618307,-3.25,8.68817603948549,0.7388888888888889,0.32666666666666666,-0.7066666666666667,-0.7525332784923722,-1.8162999177385581,21.372249383039186
1589986476.2345097,-0.8383623466396439,-3.318362346639644,8.77660272881908,1.1845101114287895,0.4057897530551434,-1.1706444452486937,-1.0886323332488872,-2.0,24.743901776989613
1589986476.2445097,-0.9292717667264038,-3.4373230286738354,8.82023596176822,1.5211111111111106,0.4655555555555556,-1.5211111111111106,-1.2850640774342892,-2.0701281548685784,28.108396104017324
1589986476.2545097,-0.9496683766433998,-3.4951658116783,8.801658116783,1.5211111111111106,0.4655555555555556,-1.5211111111111106,-0.9573504471168671,-2.221858968968127,31.176816149468785
1589986476.2645097,-0.9201075247165899,-3.4602150494331796,8.661021484807604,1.5211111111111106,0.4655555555555556,-1.5211111111111106,-0.625,-2.4989919557819706,34.52133756518938
1589986476.2745097,-0.9278099918099918,-3.4784009828009825,8.581239967239968,1.5211111111111106,0.4655555555555556,-1.5211111111111106,-0.9030999180999182,-2.843931203931204,37.574305896805896
1589986476.2845097,-0.9965126945126945,-3.6226766584766583,8.856050778050777,1.5211111111111106,0.4655555555555556,-1.5211111111111106,-1.5901269451269453,-3.2303839066339064,40.53710995085995
1589986476.2945096,-1.0228852010169587,-3.41,8.76694884474618,0.76,-0.10777777777777778,-0.8244444444444444,-0.8594225826278882,-3.466390076271897,47.3067429385634
1589986476.3045096,-0.9259190855767785,-3.2315755752744773,8.812363362911716,0.76,-0.10777777777777778,-0.8244444444444444,-0.7250413596029478,-3.845117686870206,52.38847007068732
1589986476.3145096,-0.8834631867300808,-3.1853881316908392,8.683849889921516,0.76,-0.10777777777777778,-0.8244444444444444,-0.9519478009512126,-3.9254869502378034,55.733206729072485
1589986476.3245096,-0.9586193806791009,-3.3472387613582018,8.834477522716405,0.76,-0.10777777777777778,-0.8244444444444444,-2.0792907101865135,-4.278451548302248,58.1543856109517
1589986476.3345096,-0.9411636363636364,-3.3299636363636362,8.715272727272726,0.7000363636363637,-0.010189898989898985,-0.7856444444444445,-1.6763636363636363,-4.529318181818182,61.05840909090909
1589986476.3445096,-0.9958205430932704,-3.4716410861865405,8.815596221959858,0.59,0.1688888888888889,-0.7144444444444444,-1.7528040141676504,-4.76306080283353,62.85633116883117
1589986476.3545096,-1.0084013313833275,-3.496802662766655,8.812006656916637,0.59,0.1688888888888889,-0.7144444444444444,-1.8461959125523224,-4.723745839427102,63.86872919713551
1589986476.3645096,-1.0059568853810814,-3.4323449169513487,8.72830180233243,0.59,0.1688888888888889,-0.7144444444444444,-1.8151946636824126,-4.75,63.47877252915538
1589986476.3745096,-1.0001867067931178,-3.3852800601896766,8.709813293206881,0.59,0.1688888888888889,-0.7144444444444444,-1.5318334587284932,-4.780666541271507,62.2356703031263
1589986476.3845096,-0.99,-3.3937445462797577,8.705753272232146,0.573642645896167,0.18471858640872726,-0.721831636620369,-1.5,-4.634415902901819,60.15495336886182
1589986476.3945096,-1.0114509068167605,-3.462901813633521,8.786529080675422,0.5555555555555556,0.20222222222222225,-0.73,-1.5,-4.303431832395247,57.1656308630394
1589986476.4045095,-1.0198202527995386,-3.4898202527995386,8.763112654395155,0.5555555555555556,0.20222222222222225,-0.73,-1.2455063199884655,-3.996629739991349,53.87423252991782
1589986476.4145095,-1.0270982293674609,-3.518471016076787,8.677098229367461,0.5555555555555556,0.20222222222222225,-0.73,-1.1068639335466306,-3.732352049840027,50.49532501341388
1589986476.4245095,-1.045720663473132,-3.58069834131717,8.719257014370905,0.5555555555555556,0.20222222222222225,-0.73,-1.1563895134747613,-3.4377790269495225,47.443259767979924
1589986476.4345095,-1.0320526607358165,-3.614868348160459,8.780763026688826,0.5555555555555556,0.20222222222222225,-0.73,-0.8574019535959854,-2.8398039071919707,44.66694671196272
1589986476.4445095,-1.0767902221334134,-3.6641975555333532,8.723580444266826,0.5722222222222222,0.13666666666666666,-0.7588888888888888,-0.36496944416691646,-2.375,37.901222233323345
1589986476.4545095,-1.1049280488785274,-3.6157914623362006,8.730575608971781,0.5722222222222222,0.13666666666666666,-0.7588888888888888,-0.34509908352761476,-2.25179877803682,32.351173727791625
1589986476.4645095,-1.9642963279704957,-5.49184082527126,7.2016788711315405,0.5722222222222222,0.13666666666666666,-0.7588888888888888,-3.0778101448500723,1.614406836282003,26.759981826928218
1589986476.4745095,-2.7615645775752595,-9.354558900425786,2.621395383581086,0.5722222222222222,0.13666666666666666,-0.7588888888888888,-19.82706403600508,18.382537629790093,-21.76887091954881
1589986476.4845095,5.398608402552064,-2.914923558444685,-3.773818466353678,0.5296268207535813,0.14672391423565131,-0.6766560999424849,-97.78579059829059,-17.82831497532203,-577.1258878054653
1589986476.4945095,1.2454290301862554,-3.5653112823806463,-0.2512787411689146,0.4922222222222222,0.15555555555555556,-0.6044444444444445,-89.34958654463712,-79.19843582744595,-703.3459055876685
1589986476.5045094,-0.2589334893348934,-4.351847718477185,0.9501431014310143,0.4922222222222222,0.15555555555555556,-0.6044444444444445,-97.25613131131311,-41.24553370533705,-689.6833318333183
1589986476.5145094,-1.1533198380566803,-4.821651821862348,3.076928860613071,0.4922222222222222,0.15555555555555556,-0.6044444444444445,-83.15521255060729,-1.168037883169461,-666.4248120300751
1589986476.5245094,-0.5507343698312934,-4.026621733377439,3.1101099900760834,0.4922222222222222,0.15555555555555556,-0.6044444444444445,-23.016519186238835,88.89313699139927,-620.7957430532583
1589986476.5345094,-0.6773918336767185,-3.694028844352875,3.072649060373353,0.4415221674193392,0.27528098617441193,-0.6294890498290011,23.51170436099145,150.56558071111942,-583.552253074858
1589986476.5445094,-0.8307355813045176,-3.59969274834006,3.7568715011066267,0.4,0.37333333333333335,-0.65,61.73643568545762,193.90822321312328,-552.3418337456061
1589986476.5545094,-3.6243447293447293,-3.483398622981956,6.9868660968660965,0.4,0.37333333333333335,-0.65,119.19105630737576,204.59882231323203,-518.4750464941437
1589986476.5645094,-4.7888327541268465,-2.0799630755864467,5.253492180712422,0.4,0.37333333333333335,-0.65,178.52832862728062,82.44542788879235,-448.6590084708949
1589986476.5745094,-0.35449011582339107,-0.7882876861447357,-1.4559056866672475,0.4,0.37333333333333335,-0.65,112.24458166419925,7.452292247235043,-393.8375206827484
1589986476.5845094,-0.4332798923262673,-0.13258159650060375,-0.7141385111731291,0.341953829608957,0.42152260686552,-0.6390478923790485,25.55316390554797,21.79801031213507,-354.976174217683
1589986476.5945094,0.08535307280012483,0.3974293594213456,3.239023260654628,0.22333333333333333,0.52,-0.6166666666666667,-33.254667091637614,34.378779205911435,-326.0034637300307
1589986476.6045094,2.3095100864553313,-1.0968201122402548,15.904872592143182,0.22333333333333333,0.52,-0.6166666666666667,-91.99207018807826,19.660767101471258,-295.28488074472926
1589986476.6145093,-1.3102421698417823,-1.7752663868259606,7.107278010978366,0.22333333333333333,0.52,-0.6166666666666667,-40.24907168227317,20.33062237649338,-266.96662092347435
1589986476.6245093,-0.847541858325667,-1.2868213431462743,7.560846366145354,0.22333333333333333,0.52,-0.6166666666666667,16.375439282428705,15.7538753449862,-241.76522539098437
1589986476.6345093,1.6327340823970038,-1.6658654942191824,10.900650056993975,0.15387700157411932,0.5350757929399844,-0.6166666666666667,63.566424442273245,23.63908361830321,-206.09585979482168
1589986476.6445093,1.7001731510542837,-1.0591991237124259,7.683502833189392,0.08,0.5511111111111111,-0.6166666666666667,9.47718308301561,-0.8666123375392321,-185.5877301308112
1589986476.6545093,1.816976196522984,-1.7465430702098677,10.695926165354512,0.08,0.5511111111111111,-0.6166666666666667,-34.86725838662757,0.7499696973195125,-166.7889865629257
1589986476.6645093,1.0568685850202952,-1.5666152175599164,9.854560614286823,0.08,0.5511111111111111,-0.6166666666666667,-17.633068008480052,18.36431106026526,-150.28642157242948
1589986476.6745093,0.8288202655646119,-0.9572961389813646,6.936354035128,0.08,0.5511111111111111,-0.6166666666666667,24.459495656832356,18.583939607010294,-138.98900217158382
1589986476.6845093,1.2417128658556262,-0.7528629513698408,5.681720933234374,0.02856081548649879,0.5580859157909079,-0.6249492472239253,23.884126222207883,11.353028493981736,-125.6308629675046
1589986476.6945093,2.2842300748810853,-1.9400631073295553,9.633228991695578,-0.05111111111111112,0.5688888888888889,-0.6377777777777778,-8.944940032338582,3.4822912905605876,-109.92332537950739
1589986476.7045093,4.377386774156748,-4.394868235920447,12.052196067992547,-0.05111111111111112,0.5688888888888889,-0.6377777777777778,-24.33099545575541,2.725653116325056,-99.06672576719778
1589986476.7145092,14.416869924927225,-13.288891272151576,12.386483836371992,-0.05111111111111112,0.5688888888888889,-0.6377777777777778,3.707037434247484,-6.723328737041008,-102.61050252796078
1589986476.7245092,0.071643764958323,1.3985499711149625,10.563744119831641,-0.05111111111111112,0.5688888888888889,-0.6377777777777778,25.207108298258646,26.076443478171164,-94.90109453660148
1589986476.7345092,-0.04584967320261438,1.4934485724114208,6.103398692810457,-0.06694453999923557,0.5666722088445515,-0.6393611206665902,25.236175610595115,34.994614293085654,-80.9765329377365
1589986476.7445092,0.4721081708776128,0.31919558026602857,6.764404954606235,-0.10666666666666667,0.5611111111111111,-0.6433333333333333,-12.049601045112253,-2.7548714723062853,-63.64367214441551
1589986476.7545092,1.2430689726452147,-1.0255081650933646,10.142805760352786,-0.10666666666666667,0.5611111111111111,-0.6433333333333333,-11.577723420381727,-3.8469044994143182,-45.23652501205815
1589986476.7645092,3.6595144097907624,-2.2934530859323594,9.055338860376365,-0.10666666666666667,0.5611111111111111,-0.6433333333333333,7.497729964469009,4.958275759968417,-33.95607152256876
1589986476.7745092,9.609890728476822,-5.8035927152317885,7.1510364238410595,-0.10666666666666667,0.5611111111111111,-0.6433333333333333,8.521895695364238,-3.888700331125828,-30.856084437086093
1589986476.7845092,8.686774193548388,-5.19888045540797,8.329905123339659,-0.11440860215053764,0.5624773350200295,-0.6469765970904491,-0.0922675521821632,2.2690939278937385,-36.767552182163186
1589986476.7945092,1.5712595291101668,-0.7413634217095058,9.614870134250827,-0.12555555555555556,0.5644444444444444,-0.6522222222222223,-4.077759225527895,9.599026850165284,-32.935796566147204
1589986476.8045092,4.3645790474333355,-2.776617754594647,9.077801881733535,-0.12555555555555556,0.5644444444444444,-0.6522222222222223,-3.315555988885097,0.45735021693560185,-22.517750938429288
1589986476.8145092,4.347229118058796,-2.803132291180588,8.830033131124592,-0.12555555555555556,0.5644444444444444,-0.6522222222222223,0.473773623425105,-0.7940008166122259,-17.641075594960338
1589986476.8245091,2.785366232524794,-2.0095543075636275,8.94865694826144,-0.12555555555555556,0.5644444444444444,-0.6522222222222223,-0.039110108734615845,1.8292508065479747,-15.755571155454653
1589986476.8345091,3.3679775062731507,-2.241345889592544,8.522661608316406,-0.12555555555555556,0.5644444444444444,-0.6522222222222223,-0.7830357943003943,0.14562951816226555,-12.858176380093202
1589986476.8445091,3.856195203910188,-2.4290499465404003,8.553326714525737,-0.14333333333333334,0.56,-0.6266666666666667,0.2380861463265618,0.2202249121735146,-7.12501909271422
1589986476.854509,3.3356714907591263,-2.17279211852757,9.282059912937223,-0.14333333333333334,0.56,-0.6266666666666667,1.2390932870016802,1.6716852661524362,-5.022904097296472
1589986476.864509,3.4829581850533806,-2.207299080664294,8.868778173190984,-0.14333333333333334,0.56,-0.6266666666666667,0.018488656583629914,0.17443746293001183,-2.5586817912218267
1589986476.874509,3.5857607536782523,-2.122880376839126,8.684511020218272,-0.14333333333333334,0.56,-0.6266666666666667,0.04449764475546164,-0.33220094209781537,-2.229449764475546
1589986476.884509,3.7051789009406364,-2.19,8.534701831765606,-0.14333333333333334,0.5570723754944468,-0.6266666666666667,-0.2926605607813133,-0.2632741122462757,-2.3521788784373734
1589986476.894509,3.61454886999068,-2.180167462721342,8.669832537278658,-0.14333333333333334,0.5422222222222223,-0.6266666666666667,0.1513371534249767,0.9111628465750233,-3.275290511416589
1589986476.904509,3.4811758487302082,-2.1379188390475963,8.858418346507772,-0.14333333333333334,0.5422222222222223,-0.6266666666666667,0.349830914682492,0.9553200307537061,-4.09248186011869
1589986476.914509,3.426059640102828,-2.1865562982005144,9.022317737789203,-0.14333333333333334,0.5422222222222223,-0.6266666666666667,0.1711503856041131,0.9048007712082262,-4.770488431876607
1589986476.924509,3.5416213970081487,-2.180790124457778,8.707983540762964,-0.14333333333333334,0.5422222222222223,-0.6266666666666667,-0.29495885190740667,-0.4076131572546317,-4.752469138930555
1589986476.934509,3.6348189454972903,-2.159275781989163,8.652047363743227,-0.14681368285915433,0.5486474828852764,-0.6322887697468391,-0.14005920467903324,-0.7394671578887009,-4.504526362567734
1589986476.944509,3.6218040224414154,-2.2043355680230086,8.76205638709416,-0.15777777777777774,0.5688888888888889,-0.65,0.06704701962611143,-0.01879190043140988,-4.242483239827436
1589986476.954509,3.543141336549301,-2.1594633353433133,8.858887344991217,-0.15777777777777774,0.5688888888888889,-0.65,0.625,0.6908541541042917,-4.618537477387725
1589986476.964509,3.4771573335894725,-2.1114720007684182,8.698223993852656,-0.15777777777777774,0.5688888888888889,-0.65,0.5184000096052253,0.9019666698684085,-4.902600014407838
1589986476.974509,3.492532953771892,-2.1125329537718915,8.854978030818739,-0.15777777777777774,0.5688888888888889,-0.65,0.10916903892567612,0.609077500670421,-4.468704230872373
1589986476.984509,3.5639804399820028,-2.1786731866726656,8.804692746690662,-0.15689323555955487,0.5665301096402946,-0.6488206103757028,-0.3125,0.008292583295839352,-4.358414833408322
1589986476.994509,3.582581275289521,-2.173179453447348,8.781657995973609,-0.1511111111111111,0.5511111111111111,-0.6411111111111111,-0.27938069325679205,0.12211475213777431,-4.243376138651358
1589986477.004509,3.5240588809822797,-2.198260479579023,8.873621758456418,-0.1511111111111111,0.5511111111111111,-0.6411111111111111,-0.018120004385178134,0.5923839921066794,-4.191124000877036
1589986477.014509,3.494392793288406,-2.1231783798652177,8.796124329528263,-0.1511111111111111,0.5511111111111111,-0.6411111111111111,0.13872747902626875,0.757590083894925,-3.6752252097373126
1589986477.024509,3.5072117544583503,-2.1616352633750515,8.930723421812681,-0.1511111111111111,0.5511111111111111,-0.6411111111111111,0.1787867326823454,0.5973530692706184,-3.274632673176546
1589986477.034509,3.5112563983248024,-2.1566426244765005,8.932729176361098,-0.1500778139703221,0.5519967943746446,-0.6403730417248332,0.029286877617496508,-0.3872295253606329,-2.7543770358306188
1589986477.044509,3.6413727315030244,-2.1973039785946953,8.827009655653793,-0.14375271444082519,0.5574183082570705,-0.6358551134894783,-0.17401989297347606,-0.8446697591903211,-2.398590187296417
1589986477.054509,3.5919503459786504,-2.14804965402135,8.680124135053374,-0.14333333333333334,0.5577777777777778,-0.6355555555555555,0.125,0.0506982596752321,-1.9870344935498452
1589986477.064509,3.5627817378907474,-2.177218262109253,8.753045655273132,-0.14333333333333334,0.5577777777777778,-0.6355555555555555,0.125,0.46088181091136693,-1.7135787927257553
1589986477.074509,3.5176984851590305,-2.1061106038867874,8.859125752296483,-0.14333333333333334,0.5577777777777778,-0.6355555555555555,0.21180872570757794,0.6299621289757589,-1.2599242579515177
1589986477.084509,3.5117441576986033,-2.1595639605753494,8.985857625465817,-0.14364825069558118,0.5577777777777778,-0.6355555555555555,-0.1318131160101696,0.42796163758576256,-0.8722747535959322
1589986477.094509,3.5998425401936873,-2.143280846731229,8.783595766343854,-0.15777777777777774,0.5577777777777778,-0.6355555555555555,-0.3964894158596358,-0.020505292070182087,-0.6269682475789075
1589986477.1045089,3.602603975208378,-2.1586980123958113,8.74420132506946,-0.15777777777777774,0.5577777777777778,-0.6355555555555555,-0.2037748450523616,0.08246687326351784,-0.33875828168412053
1589986477.1145089,3.544549781029289,-2.168964129306635,8.771936308634787,-0.15777777777777774,0.5577777777777778,-0.6355555555555555,0.11767935346682531,0.4926793534668253,-0.23620516163329366
1589986477.1245089,3.497477217904047,-2.126261391047976,8.923738608952023,-0.15777777777777774,0.5577777777777778,-0.6355555555555555,0.2657673880997052,0.5589853172741892,-0.19918315297507372
1589986477.1345088,3.5255816135084426,-2.1122091932457785,8.93779080675422,-0.15777777777777774,0.5577777777777778,-0.6355555555555555,0.09011491557223264,0.07594101782363982,-0.24309627110694185
1589986477.1445088,3.5713385440779977,-2.151889757346333,8.822204853073341,-0.15777777777777774,0.5511111111111111,-0.6355555555555555,-0.175689016585419,-0.6333659004874861,-0.36318901658541897
1589986477.1545088,3.62,-2.16,8.654881107697488,-0.15777777777777774,0.5511111111111111,-0.6355555555555555,-0.14099653844535162,-0.7615380771011321,-0.3125
1589986477.1645088,3.6103365949119373,-2.155168297455969,8.668990215264188,-0.15777777777777774,0.5511111111111111,-0.6355555555555555,-0.1472358121330724,-0.11914138943248531,-0.3024339530332681
1589986477.1745088,3.5569863445585135,-2.128493172279257,8.835068277207434,-0.15777777777777774,0.5511111111111111,-0.6355555555555555,0.0625,0.5625,-0.2405823267453546
1589986477.1845088,3.540456757768626,-2.1202283788843133,8.91771621115687,-0.15777777777777774,0.5511111111111111,-0.6355555555555555,0.0625,0.5625,-0.1889273680269562
1589986477.1945088,3.548417055351467,-2.1452511660544022,8.903165889297066,-0.14561980893676935,0.5567224813454227,-0.6355555555555555,-0.20053297973335532,0.1416472324266314,-0.08228680810665785
1589986477.2045088,3.590798467606484,-2.1676045971805467,8.792015323935157,-0.14333333333333334,0.5577777777777778,-0.6355555555555555,-0.4750478872973636,-0.3075095774594727,-0.13498084508105457
1589986477.2145088,3.598713884013663,-2.1438583479590103,8.712861159863367,-0.14333333333333334,0.5577777777777778,-0.6355555555555555,-0.2276911245730246,-0.25803822491460493,-0.23392355017079014
1589986477.2245088,3.523240401258119,-2.1466202006290596,8.848588896540173,-0.14333333333333334,0.5577777777777778,-0.6355555555555555,0.125,0.35387625393162236,-0.37587123820513296
1589986477.2345088,3.492015968435354,-2.131007984217677,8.934456086802776,-0.14333333333333334,0.5577777777777778,-0.6355555555555555,0.125,0.2562999013604809,-0.6686002959185573
1589986477.2445087,3.54481589197611,-2.120802648662685,8.92715762139704,-0.14333333333333334,0.5577777777777778,-0.6411111111111111,0.15740067514931186,-0.16011587899246948,-0.6925165541417814
1589986477.2545087,3.6015614005696097,-2.1315614005696095,8.761263193164684,-0.14333333333333334,0.5577777777777778,-0.6411111111111111,-0.1972587535600603,-0.533223739319819,-0.7987937678003015
1589986477.2645087,3.608820560780646,-2.1388205607806463,8.66353831765806,-0.14333333333333334,0.5577777777777778,-0.6411111111111111,-0.22051401951615465,-0.28654205854846393,-1.1141004658467293
1589986477.2745087,3.601419420867816,-2.131419420867816,8.685741737396551,-0.14333333333333334,0.5577777777777778,-0.6411111111111111,-0.03548552169539976,0.2685434349138007,-1.4379003370330503
1589986477.2845087,3.54953780700058,-2.14953780700058,8.86115548249855,-0.14382120372160984,0.5579061647220611,-0.6407773050559745,0.123555646876813,0.561055646876813,-1.748555646876813
1589986477.2945087,3.541040307466015,-2.1355201537330073,8.904479846266993,-0.16444444444444445,0.5633333333333334,-0.6266666666666667,0.027999039168702992,0.37924663709046047,-1.7047504804156486
1589986477.3045087,3.57,-2.145384926084498,8.84384926084498,-0.16444444444444445,0.5633333333333334,-0.6266666666666667,-0.07692210598594394,0.07692210598594394,-1.8653768478875514
1589986477.3145087,3.5731223662884926,-2.13,8.698326310102647,-0.16444444444444445,0.5633333333333334,-0.6266666666666667,-0.10548521069692059,0.14451478930307943,-2.2760197190707725
1589986477.3245087,3.5875535385051767,-2.124665802216504,8.784224527422655,-0.16444444444444445,0.5633333333333334,-0.6266666666666667,0.11806456024474746,0.3791774722936969,-2.4888870879510505
1589986477.3345087,3.5293305809495723,-2.1006694190504276,8.854016514302565,-0.16422130476096858,0.5626639142829057,-0.6271501359808644,0.36872419640224124,0.6833161309348275,-2.447959672662931
1589986477.3445086,3.5107650641213324,-2.1207650641213327,8.966174679393337,-0.15777777777777774,0.5433333333333333,-0.6411111111111111,0.1635917462083504,0.5146834924167009,-2.7786899045499793
1589986477.3545086,3.5385795242347973,-2.1316890476577086,8.882840951530405,-0.15777777777777774,0.5433333333333333,-0.6411111111111111,-0.13555654786068036,-0.08361309572136072,-3.1461130957213608
1589986477.3645086,3.6134959811642444,-2.138499634651295,8.73300803767151,-0.15777777777777774,0.5433333333333333,-0.6411111111111111,-0.17812271657059348,-0.16874543314118698,-3.231245433141187
1589986477.3745086,3.6087780029108756,-2.1024439941782482,8.685885962158615,-0.15777777777777774,0.5433333333333333,-0.6411111111111111,0.04722503638594789,-0.12640014554379156,-2.602087554578922
1589986477.3845086,3.602793156587997,-2.1144136868240064,8.76368896435604,-0.15777777777777774,0.5433333333333333,-0.6411111111111111,-0.027585542650038528,0.1728421706001541,-2.489871686024942
1589986477.3945086,3.538031424387541,-2.111147346341077,8.906231843907072,-0.14499061138155608,0.556120499729555,-0.6489801365857091,0.048158170736533834,0.5338163414730677,-2.3268418292634663
1589986477.4045086,3.53,-2.1259679365274113,8.912016031736295,-0.14333333333333334,0.5577777777777778,-0.65,-0.03729960329632129,0.4627003967036787,-2.3125
1589986477.4145086,3.59,-2.147111286070016,8.757111286070016,-0.14333333333333334,0.5577777777777778,-0.65,-0.07453630804159952,0.07453630804159952,-1.7944455379376008
1589986477.4245086,3.59,-2.1240724329866705,8.734072432986672,-0.14333333333333334,0.5577777777777778,-0.65,-0.17053152922220594,0.17053152922220594,-1.6504527061666912
1589986477.4345086,3.5633181361564024,-2.102212090770935,8.827833500759859,-0.14333333333333334,0.5577777777777778,-0.65,-0.07632556731834222,0.07632556731834222,-1.7917616490224866
1589986477.4445086,3.5515267931492356,-2.108473206850764,8.89931244795535,-0.15557240989554807,0.5577777777777778,-0.6424682605770986,0.1493301712691018,0.22137262845182634,-2.0772877140863772
1589986477.4545085,3.56673880099412,-2.11,8.92777050372795,-0.15777777777777774,0.5577777777777778,-0.6411111111111111,0.17221312965993818,0.3967350124265018,-2.405573740680124
1589986477.4645085,3.5328393041158996,-2.11,8.800647390434623,-0.15777777777777774,0.5577777777777778,-0.6411111111111111,0.013309238043280602,-0.02700869855125171,-2.7233815239134387
1589986477.4745085,3.6275705506590117,-2.0840490822349804,8.750809816446996,-0.15777777777777774,0.5577777777777778,-0.6411111111111111,-0.1723159416188243,-0.2669478248564729,-3.0050613527937253
1589986477.4845085,3.602134106897388,-2.1264431551710197,8.759288631034204,-0.15777777777777774,0.5577777777777778,-0.6411111111111111,-0.01333816810867633,0.20998549567397107,-3.0580539439637744
1589986477.4945085,3.5902716791509146,-2.108378613191819,8.824864160424543,-0.15777777777777774,0.5511111111111111,-0.6266666666666667,0.125,0.5929010026533919,-3.292232664897739
1589986477.5045085,3.540962327661733,-2.1,8.845188361691335,-0.15777777777777774,0.5511111111111111,-0.6266666666666667,0.10695635634250933,0.7199272605708489,-3.19351454788583
1589986477.5145085,3.547409046894453,-2.1,8.812954765527737,-0.15777777777777774,0.5511111111111111,-0.6266666666666667,-0.013919629270991829,0.5184672845483469,-3.2338065430903304
1589986477.5245085,3.5772931021977223,-2.1,8.790902299267426,-0.15777777777777774,0.5511111111111111,-0.6266666666666667,-0.11936062957858853,0.2100574816856459,-2.9656968521070572
1589986477.5345085,3.5927001754301258,-2.1190502631451884,8.777299824569873,-0.15777777777777774,0.5511111111111111,-0.6266666666666667,-0.005935855342571586,0.10812390356171439,-2.897811951780857
1589986477.5445085,3.576459207364262,-2.098612276485683,8.840622377907213,-0.16300906503016396,0.5563423983634973,-0.63800112238017,0.013456682008879478,0.0625,-2.4336101380799153
1589986477.5545084,3.5697643939007597,-2.09976439390076,8.88835075730532,-0.16444444444444445,0.5577777777777778,-0.6411111111111111,0.0610274618797491,0.25,-2.1860274618797493
1589986477.5645084,3.5608394681144753,-2.090839468114475,8.817481595656576,-0.16444444444444445,0.5577777777777778,-0.6411111111111111,-0.005246675715468851,0.2290132971381246,-2.1354933514309375
1589986477.5745084,3.572604217753801,-2.1004340362923,8.7904340362923,-0.16444444444444445,0.5577777777777778,-0.6411111111111111,-0.06792545365375184,-0.0054254536537518385,-2.260850907307504
1589986477.5845084,3.624030161844041,-2.109005026974007,8.799005026974008,-0.16444444444444445,0.5577777777777778,-0.6411111111111111,-0.1750628371750858,-0.11256283717508582,-2.4751256743501715
1589986477.5945084,3.6224125086979657,-2.0796500347918627,8.8,-0.1745610995138235,0.5527194502430882,-0.6301514014526172,-0.14007817936228562,-0.125,-2.6422654619131434
1589986477.6045084,3.558610972906961,-2.08,8.854443891627843,-0.17777777777777778,0.5511111111111111,-0.6266666666666667,0.13368141933149397,0.513022128997241,-2.9244778710027592
1589986477.6145084,3.540405233416484,-2.080202616708242,8.780810466832968,-0.17777777777777778,0.5511111111111111,-0.6266666666666667,0.24620093672046023,0.6811682278674337,-2.737336455734867
1589986477.6245084,3.5618706659924877,-2.09,8.819376444669171,-0.17777777777777778,0.5511111111111111,-0.6266666666666667,0.04301389591158625,0.34771945427622075,-2.078233350187807
1589986477.6345084,3.584593325628431,-2.09,8.811802224790524,-0.17777777777777778,0.5511111111111111,-0.6266666666666667,-0.19368047529615717,0.016347334585379902,-1.5101668592892228
1589986477.6445084,3.589513517509919,-2.07975675875496,8.849756758754959,-0.17777777777777778,0.5577777777777778,-0.6577777777777778,-0.12195948443699633,-0.05793922665549449,-0.6113176799664835
1589986477.6545084,3.57,-2.07,8.838446274988858,-0.17777777777777778,0.5577777777777778,-0.6577777777777778,0.0048553906598213835,0.1274276953299107,-0.057644609340178614
1589986477.6645083,3.57,-2.07,8.810750614919854,-0.17777777777777778,0.5577777777777778,-0.6577777777777778,0.09140432837545602,0.17070216418772802,0.02890432837545602
1589986477.6745083,3.59,-2.0804950522883168,8.81,-0.17777777777777778,0.5577777777777778,-0.6577777777777778,-0.12345296159901045,-0.007735192004947712,-0.06095296159901046
1589986477.6845083,3.59,-2.0922860676936916,8.81,-0.17777777777777778,0.5577777777777778,-0.6577777777777778,-0.08660603845721354,-0.1919698077139323,-0.02410603845721354
1589986477.6945083,3.601288577544269,-2.088711422455731,8.81,-0.1583363386737584,0.5496249162180278,-0.644607770642797,-0.0625,-0.2066695855224752,-0.07055360965168321
1589986477.7045083,3.599703504575913,-2.0798517522879565,8.809407009151826,-0.14333333333333334,0.5433333333333333,-0.6344444444444445,0.0018530964005455514,0.0027796446008183273,-0.06342654820027277
1589986477.7145083,3.583122294479255,-2.0715611472396276,8.77624458895851,-0.14333333333333334,0.5433333333333333,-0.6344444444444445,0.10548565950465497,0.15822848925698246,-0.11524282975232748
1589986477.7245083,3.589810673736384,-2.060189326263616,8.858296063627456,-0.14333333333333334,0.5433333333333333,-0.6344444444444445,0.06368328914759956,0.24881671085240042,-0.06368328914759956
1589986477.7345083,3.5816512982285853,-2.0683487017714146,8.851651298228585,-0.14333333333333334,0.5433333333333333,-0.6344444444444445,0.1146793860713419,0.1456412278573162,-0.010320613928658094
1589986477.7445083,3.5868219825496848,-2.076821982549685,8.83635603490063,-0.15318730812732265,0.5531873081273226,-0.6450564172995099,-0.08818695467765392,0.039725218128938436,0.0
1589986477.7545083,3.5897087417324087,-2.0898543708662043,8.789708741732408,-0.15777777777777774,0.5577777777777778,-0.65,-0.12408981791377799,0.0625,-0.12408981791377799
1589986477.7645082,3.572997051557893,-2.0814985257789465,8.772997051557892,-0.15777777777777774,0.5577777777777778,-0.65,-0.0718657861184158,0.0625,-0.0718657861184158
1589986477.7745082,3.57,-2.0896647479994384,8.847317983995508,-0.15777777777777774,0.5577777777777778,-0.65,-0.0625,0.0625,-0.0625
1589986477.7845082,3.5780989386651827,-2.0738021226696346,8.833802122669635,-0.15777777777777774,0.5577777777777778,-0.65,-0.11311836665739158,-0.03873673331478317,0.03873673331478317
1589986477.7945082,3.61,-2.070023712658375,8.839964431012437,-0.17,0.5433333333333333,-0.6355555555555555,-0.125,-0.18772230617226549,-0.0625
1589986477.8045082,3.61,-2.0895252818784145,8.810712077182378,-0.17,0.5433333333333333,-0.6355555555555555,-0.125,-0.370549517610136,-0.0625
1589986477.8145082,3.589315071675844,-2.0710273924862337,8.753767105782858,-0.17,0.5433333333333333,-0.6355555555555555,-0.06035959898701238,-0.24143839594804953,0.058219197974024764
1589986477.8245082,3.5701040326485436,-2.099843951027184,8.86,-0.17,0.5433333333333333,-0.6355555555555555,0.0,0.0009753060800996057,-0.062174897973300135
1589986477.8345082,3.5817089299301377,-2.0824366051047933,8.86,-0.17,0.5433333333333333,-0.6355555555555555,0.0,0.10977121809504045,-0.025909593968319843
1589986477.8445082,3.594234250159089,-2.0784685003181784,8.855765749840911,-0.16482480536111307,0.5518018336515119,-0.6317917776363651,0.0,0.10810780951707559,0.02646406349430814
1589986477.8545082,3.6,-2.0807374887082206,8.85926251129178,-0.15777777777777774,0.5633333333333334,-0.6266666666666667,-0.1157813911472448,-0.2315627822944896,-0.1111720867208672
1589986477.8645082,3.592224106011887,-2.0955517879762255,8.782241060118873,-0.15777777777777774,0.5633333333333334,-0.6266666666666667,-0.07640066257429601,-0.15280132514859202,0.02079801227711195
1589986477.8745081,3.577956369948125,-2.087956369948125,8.796130890155624,-0.15777777777777774,0.5633333333333334,-0.6266666666666667,-0.024863656087891275,0.06318171956054361,-0.05040903173632616
1589986477.8845081,3.57,-2.086592787719139,8.852963938595694,-0.15777777777777774,0.5633333333333334,-0.6266666666666667,-0.04120492324461804,0.1875,-0.04259015351076392
1589986477.8945081,3.5890617171487134,-2.09,8.844584377135048,-0.1747215263544118,0.5555674485690427,-0.6358445304790101,-0.022788089273514008,0.06836426782054202,-0.07942382145297198
1589986477.904508,3.6278164774026367,-2.0807278408657877,8.811455681731577,-0.18444444444444444,0.5511111111111111,-0.6411111111111111,-0.05795099458882707,-0.05795099458882707,0.10680397835530828
1589986477.914508,3.6176667847625503,-2.08,8.748333923812751,-0.18444444444444444,0.5511111111111111,-0.6411111111111111,0.014582595234060913,0.014582595234060913,-0.029165190468121827
1589986477.924508,3.5902054079145875,-2.086598197361804,8.756187381532628,-0.18444444444444444,0.5511111111111111,-0.6411111111111111,0.0625,0.2686936675563808,-0.08376126648872384
1589986477.934508,3.5730205284766816,-2.083020528476682,8.842815243709863,-0.18444444444444444,0.5511111111111111,-0.6411111111111111,0.0625,0.41862169702073904,-0.01887830297926097
1589986477.944508,3.5949212847295384,-2.0716929050901536,8.878307094909847,-0.1567541280782905,0.5511111111111111,-0.6235739107458803,0.010580656813461368,0.1259839408807682,0.10383868637307726
1589986477.954508,3.6,-2.078633608291535,8.854099175125395,-0.1511111111111111,0.5511111111111111,-0.62,-0.10792010364418665,-0.09938015546627998,0.07103994817790668
1589986477.964508,3.6,-2.0890942211055274,8.777246231155779,-0.1511111111111111,0.5511111111111111,-0.62,-0.125,-0.2955166457286432,0.0625
1589986477.974508,3.584288992705516,-2.105711007294484,8.801422014588969,-0.1511111111111111,0.5511111111111111,-0.62,-0.125,-0.21430620440947462,0.013403102204737317
1589986477.984508,3.58,-2.09639851930805,8.841736788281217,-0.1511111111111111,0.5511111111111111,-0.62,-0.125,-0.07415432756708486,0.028336418108228786
1589986477.994508,3.58,-2.078284425349087,8.88,-0.1556859768468791,0.5511111111111111,-0.626481059792338,-0.125,0.07322234156820623,0.07322234156820623
1589986478.004508,3.6050970909627877,-2.086731393975192,8.787977333136444,-0.17777777777777778,0.5511111111111111,-0.6577777777777778,-0.020428787655050212,-0.13642803086237448,-0.031856818517424695
1589986478.014508,3.61,-2.071227451274738,8.704296079461582,-0.17777777777777778,0.5511111111111111,-0.6577777777777778,-0.117328429532888,-0.128835785233556,0.11349264429933198
1589986478.024508,3.6020631092352526,-2.077936890764747,8.763495126117977,-0.17777777777777778,0.5511111111111111,-0.6577777777777778,-0.025788865440659225,0.07342226911868155,-0.023816701839011162
1589986478.034508,3.5730348364580453,-2.073258709114511,8.840671617969397,-0.17777777777777778,0.5511111111111111,-0.6577777777777778,0.042133068034304444,0.2092661360686089,0.06389920410291333
1589986478.044508,3.575217432713004,-2.0750724775710014,8.885217432713004,-0.17101447434977599,0.5471658507781101,-0.6459419967787746,0.030797015181241547,0.25,0.06159403036248309
1589986478.054508,3.577946910617876,-2.0860265446910615,8.875893821235753,-0.16444444444444445,0.5433333333333333,-0.6344444444444445,-0.03766590431913617,0.09933638272345532,0.03766590431913617
1589986478.064508,3.6042437319058283,-2.115682798929371,8.774390670235428,-0.16444444444444445,0.5433333333333333,-0.6344444444444445,-0.11600583110285684,-0.05350583110285683,0.0625
1589986478.074508,3.602822389666308,-2.084111948331539,8.810243272335844,-0.16444444444444445,0.5433333333333333,-0.6344444444444445,-0.125,0.027220129171151783,-0.07208019375672767
1589986478.084508,3.6,-2.0805545329038195,8.83,-0.16444444444444445,0.5433333333333333,-0.6344444444444445,-0.05903416935112747,0.029517084675563736,-0.125
1589986478.094508,3.6,-2.09,8.877977434679336,-0.16825217735550277,0.553233438902085,-0.6550062021641594,0.04283699524940618,0.0,0.003510985748218537
1589986478.104508,3.593864977532348,-2.071594932597044,8.893864977532349,-0.17,0.5577777777777778,-0.6644444444444444,0.0625,0.0,0.0625
1589986478.114508,3.6056513782454536,-2.0756513782454538,8.772614663159098,-0.17,0.5577777777777778,-0.6644444444444444,0.0625,0.0,0.013589442982957792
1589986478.124508,3.616167041045538,-2.08,8.764668164182153,-0.17,0.5577777777777778,-0.6644444444444444,0.0625,0.038544006534613026,0.038544006534613026
1589986478.134508,3.615158805345034,-2.08,8.799364778619864,-0.17,0.5577777777777778,-0.6644444444444444,-0.02827239978061427,0.12301493318707618,0.0625
1589986478.144508,3.6009532121418535,-2.08,8.860710545361659,-0.1765337912308835,0.5512439865468943,-0.6453456700772465,-0.09672878794329261,0.2157712120567074,0.005957575886585208
1589986478.1545079,3.5965296178472195,-2.08,8.890411146458343,-0.18444444444444444,0.5433333333333333,-0.6222222222222222,0.01912022309024282,0.12756966536463576,-0.0625
1589986478.1645079,3.6,-2.095920219753971,8.800398901230144,-0.18444444444444444,0.5433333333333333,-0.6222222222222222,-0.1365027469246387,-0.08675206019347906,-0.0625
1589986478.1745079,3.591943707491197,-2.091943707491197,8.796112585017607,-0.18444444444444444,0.5433333333333333,-0.6222222222222222,-0.036444515459939236,-0.125,-0.11285182818002026
1589986478.1845078,3.603165481602362,-2.0834172591988187,8.832913704005906,-0.18444444444444444,0.5433333333333333,-0.6222222222222222,0.041142130007382365,-0.04271573998523527,-0.08385786999261763
1589986478.1945078,3.6054057011338125,-2.08,8.859188597732375,-0.18138157853365278,0.5433333333333333,-0.6309003423027986,0.005071264172656444,0.028714367913671778,-0.0625
1589986478.2045078,3.589447730972327,-2.0747238654861633,8.880552269027673,-0.17777777777777778,0.5433333333333333,-0.6411111111111111,-0.0625,0.16142752213443443,0.003451681422956293
1589986478.2145078,3.5961034436553665,-2.07,8.809482781723167,-0.17777777777777778,0.5433333333333333,-0.6411111111111111,-0.11282326142302024,0.048706954307919076,0.0625
1589986478.2245078,3.6084041495988557,-2.078404149598856,8.79,-0.17777777777777778,0.5433333333333333,-0.6411111111111111,-0.1775259349928497,0.0,-0.09507780497854909
1589986478.2345078,3.6044249810797173,-2.0744249810797175,8.817875094601412,-0.17777777777777778,0.5433333333333333,-0.6411111111111111,-0.11781226349646821,0.03484386825176589,-0.055312263496468214
