time,acc_x,acc_y,acc_z,mag_x,mag_y,mag_z,gyr_x,gyr_y,gyr_z
1589986551.3707588,-3.71,-0.65,9.03,0.3055555555555556,-0.3411111111111111,-0.6222222222222222,0.1875,0.125,0.125
1589986551.3807588,-3.7010026385224277,-0.6859894459102902,9.047994722955146,0.3055555555555556,-0.3411111111111111,-0.6222222222222222,0.1875,-0.04370052770448549,0.012532981530343004
1589986551.3907588,-3.72273871631647,-0.6924204278945101,8.976942995261572,0.3055555555555556,-0.3411111111111111,-0.6222222222222222,-0.015127674340688268,-0.0625,0.030255348681376536
1589986551.4007587,-3.7018113041178027,-0.694566087646592,9.03,0.3055555555555556,-0.3411111111111111,-0.6222222222222222,-0.039858698527466714,-0.051179349263733354,0.125
1589986551.4107587,-3.7092080063486463,-0.6723759809540605,9.03,0.3055555555555556,-0.3411111111111111,-0.6222222222222222,0.052600079358081295,-0.004949960320959353,0.125
1589986551.4207587,-3.7023098813969173,-0.6811549406984587,9.055380237206165,0.2855555555555556,-0.3533333333333333,-0.6222222222222222,-0.2427816206346334,0.31971837936536657,0.04806324126926683
1589986551.4307587,-3.7161089634978866,-0.688054481748943,9.027782073004227,0.2855555555555556,-0.3533333333333333,-0.6222222222222222,-0.19965948906910563,0.36284051093089437,-0.03818102186178876
1589986551.4407587,-3.7203073184954807,-0.6893853630090387,8.862458547963845,0.2855555555555556,-0.3533333333333333,-0.6222222222222222,0.0038414811935076295,0.24423777820973855,0.06442074059675382
1589986551.4507587,-3.728460297404996,-0.6730794051900088,8.927682379239965,0.2855555555555556,-0.3533333333333333,-0.6222222222222222,0.10575371756244534,0.091369423656332,0.11537685878122267
1589986551.4607587,-3.73,-0.6795326421966938,8.94,0.2855555555555556,-0.3533333333333333,-0.6222222222222222,0.18457901372933594,0.0625,-0.053737041188007845
1589986551.4707587,-3.7131696615127456,-0.6715848307563728,9.015736523192645,0.29210068718948784,-0.3430481264800111,-0.6297023726610019,0.13490519222732972,0.00990519222732971,-0.00990519222732971
1589986551.4807587,-3.72,-0.6681471520153268,9.050735760076634,0.2933333333333333,-0.3411111111111111,-0.6311111111111111,0.045129550143688746,-0.05670985004789625,0.0057901499521037505
1589986551.4907587,-3.72,-0.6526939798098887,8.973469899049444,0.2933333333333333,-0.3411111111111111,-0.6311111111111111,-0.09974393928229314,-0.008418686905902292,0.05408131309409771
1589986551.5007586,-3.728512455516014,-0.6744626334519573,9.002975088967972,0.2933333333333333,-0.3411111111111111,-0.6311111111111111,-0.0625,0.018594306049822065,-0.053202846975088966
1589986551.5107586,-3.7208579249931564,-0.6974262250205311,9.018284150013686,0.2933333333333333,-0.3411111111111111,-0.6311111111111111,-0.0625,0.11427593758554612,-0.00536203120722694
1589986551.5207586,-3.7015320362126745,-0.69,9.015403891361977,0.2933333333333333,-0.36777777777777776,-0.6444444444444445,-0.09627432101235432,0.10584954734156955,0.009575226329215225
1589986551.5307586,-3.7137689133425034,-0.6881155433287482,8.969270976616231,0.2933333333333333,-0.36777777777777776,-0.6444444444444445,0.07427785419532325,0.023555708390646492,0.0625
1589986551.5407586,-3.72667164388036,-0.6750074658205404,8.8883208902991,0.2933333333333333,-0.36777777777777776,-0.6444444444444445,0.1354011128738743,0.125,0.04169777425225141
1589986551.5507586,-3.7109708161479813,-0.6490291838520185,8.933883264591925,0.2933333333333333,-0.36777777777777776,-0.6444444444444445,0.1935676009248844,0.13713520184976877,-0.05036479815023122
1589986551.5607586,-3.71752359080115,-0.6424764091988502,8.9600943632046,0.2933333333333333,-0.36777777777777776,-0.6444444444444445,0.2345224425071866,0.2190448850143732,0.03154488501437319
1589986551.5707586,-3.7198652931854204,-0.6605388272583201,9.02986529318542,0.2977777777777777,-0.3533333333333333,-0.6222222222222222,0.1241580824088748,-0.12331616481774961,0.0
1589986551.5807586,-3.71,-0.6966143437077131,9.010971583220568,0.2977777777777777,-0.3533333333333333,-0.6222222222222222,0.0625,-0.014106901217861977,0.007053450608930988
1589986551.5907586,-3.71,-0.6722901604484826,8.946107094529285,0.2977777777777777,-0.3533333333333333,-0.6222222222222222,0.0625,-0.11545766479798956,0.05772883239899478
1589986551.6007586,-3.71,-0.6631304693715195,8.981217183770882,0.2977777777777777,-0.3533333333333333,-0.6222222222222222,-0.02336913285600635,0.0467382657120127,0.0625
1589986551.6107585,-3.7261137099676143,-0.6761137099676143,9.016113709967614,0.2977777777777777,-0.3533333333333333,-0.6222222222222222,-0.11285534364879453,0.024289312702410942,0.11285534364879453
1589986551.6207585,-3.722396088535947,-0.68,9.04281173439216,0.31467535880900754,-0.3533333333333333,-0.6002553668816236,-0.02995110669933261,0.2376222332516685,0.0774755533496663
1589986551.6307585,-3.719592784235895,-0.6695927842358945,9.015113410830734,0.32,-0.3533333333333333,-0.5933333333333334,-0.2449098029486816,0.005090197051318401,0.2474549014743408
1589986551.6407585,-3.712160299121066,-0.6621602991210661,8.925923589452793,0.32,-0.3533333333333333,-0.5933333333333334,-0.15200373901332576,0.09799626098667423,0.20100186950666288
1589986551.6507585,-3.72,-0.6954672553348049,8.964532744665195,0.32,-0.3533333333333333,-0.5933333333333334,-0.18041758646063283,0.19458241353936717,0.32666482707873434
1589986551.6607585,-3.72,-0.6638127582498443,8.996187241750155,0.32,-0.3533333333333333,-0.5933333333333334,-0.1309574347653818,0.2440425652346182,0.4255851304692364
1589986551.6707585,-3.7207502494342104,-0.6592497505657898,9.04,0.3055555555555556,-0.36,-0.6288888888888889,-0.048432823108558634,0.12031094103618621,0.12968905896381377
1589986551.6807585,-3.7290435078674093,-0.6490435078674093,9.030435078674092,0.3055555555555556,-0.36,-0.6288888888888889,0.10108769668523067,0.080434227486077,0.18152192417130766
1589986551.6907585,-3.7209390051322546,-0.6418780102645085,8.945634030793524,0.3055555555555556,-0.36,-0.6288888888888889,-0.13673756415317806,0.23826243584682194,0.125
1589986551.7007585,-3.729218318199763,-0.6584366363995263,8.995309909198578,0.3055555555555556,-0.36,-0.6288888888888889,-0.2402289774970391,0.1347710225029609,0.125
1589986551.7107584,-3.73,-0.6672600252303224,9.02904010092129,0.3055555555555556,-0.36,-0.6288888888888889,-0.3861254730685424,-0.01112547306854239,0.2611254730685424
1589986551.7207584,-3.6726829195954562,-0.6454355369694813,9.04,0.29918699106616176,-0.3663685644893937,-0.6343476584512264,-0.23279614141234392,-0.11367596464691401,1.1313154343506242
1589986551.7307584,-3.70085105949885,-0.6617021189976998,8.991489405011501,0.2977777777777777,-0.36777777777777776,-0.6355555555555555,-0.171542634396564,-0.140957365603436,1.328457365603436
1589986551.7407584,-3.709388727176502,-0.6787774543530035,8.906112728234984,0.2977777777777777,-0.36777777777777776,-0.6355555555555555,-0.011461365440592758,-0.30103863455940727,1.4885386345594072
1589986551.7507584,-3.700359216857475,-0.6707184337149494,8.912155301144848,0.2977777777777777,-0.36777777777777776,-0.6355555555555555,0.06923531607765057,-0.12275489464078314,1.6160195785631326
1589986551.7607584,-3.7090581964493112,-0.6881163928986228,8.96434917869587,0.2977777777777777,-0.36777777777777776,-0.6355555555555555,0.23234118342458934,-0.06838627219180354,1.3985450887672142
1589986551.7707584,-3.7199354495949,-0.6800645504051003,9.009741798379599,0.2977777777777777,-0.353426572807367,-0.6289319224922891,0.4362896799043698,0.18588623987249303,1.3129034400318766
1589986551.7807584,-3.7101997649823737,-0.6701997649823738,9.039400705052879,0.2977777777777777,-0.3533333333333333,-0.6288888888888889,0.4375,0.1875,1.3125
1589986551.7907584,-3.7324736122504785,-0.6175615714155501,8.950105550998085,0.2977777777777777,-0.3533333333333333,-0.6288888888888889,0.2033998723908486,-0.04660012760915139,1.7338802296964726
1589986551.8007584,-3.7358591688946334,-0.5764507161954,8.9917746419023,0.2977777777777777,-0.3533333333333333,-0.6288888888888889,-0.5846830237787496,-0.45968302377874964,3.416020777634165
1589986551.8107584,-3.683875068609572,-0.5318929159510615,9.014053542024469,0.2977777777777777,-0.3533333333333333,-0.6288888888888889,-0.863169275305866,-0.738169275305866,4.715623284760707
1589986551.8207583,-3.61,-0.481615056735242,8.981256155238523,0.2855555555555556,-0.3477777777777778,-0.6288888888888889,-1.386215671772514,-1.1841352984682458,6.337174477899531
1589986551.8307583,-3.61,-0.5550861246812899,9.03840031919656,0.2855555555555556,-0.3477777777777778,-0.6288888888888889,-1.8964314213978475,-1.0310705735806458,7.459649127075265
1589986551.8407583,-3.574296949427384,-0.6335279213540083,8.954204317421707,0.2855555555555556,-0.3477777777777778,-0.6288888888888889,-0.7674888517279822,-0.5639910813823857,9.077918820310124
1589986551.8507583,-3.2512334042768827,-0.8035613661700618,9.132739434478566,0.2855555555555556,-0.3477777777777778,-0.6288888888888889,2.1549609810479375,1.7739687848383503,11.628420492550926
1589986551.8607583,-3.17460884149994,-0.4387142685994968,8.859496585599617,0.2855555555555556,-0.3477777777777778,-0.6288888888888889,3.004889481250749,-0.04260213250269551,17.094983227506887
1589986551.8707583,-3.098214498842289,-0.4881297591483064,9.322279378416441,0.27111111111111114,-0.36,-0.6288888888888889,-0.8314217172319958,-1.377337801064617,24.596507769794478
1589986551.8807583,-2.854089965861169,-0.03411473324854408,8.912206975031797,0.27111111111111114,-0.36,-0.6288888888888889,0.42729182006827765,-1.8777277595555257,29.8235658343932
1589986551.8907583,-2.3206426132940625,0.022037619653256575,8.93326410736997,0.27111111111111114,-0.36,-0.6288888888888889,-1.4590762852265882,-1.307430425396613,30.52547024566571
1589986551.9007583,-1.8987462312408956,0.12697245841661303,8.94,0.27111111111111114,-0.36,-0.6288888888888889,-0.06938116128595118,-1.125,27.428135268809918
1589986551.9107583,-2.031307216076322,0.08012686491423932,9.03143408099056,0.27111111111111114,-0.36,-0.6288888888888889,0.15585354714300215,-0.24182989952298795,22.792747132852938
1589986551.9207582,-2.179911567536728,-0.06589977654162507,9.121946940522037,0.28265815094798125,-0.3662176368352377,-0.6342182918905213,0.7370946845433367,0.38716837826273,17.97787405505634
1589986551.9307582,-2.1553362079011773,-0.5138829973196597,9.171236452627898,0.2855555555555556,-0.36777777777777776,-0.6355555555555555,2.6320504603193102,1.6225600163151148,14.901300839063046
1589986551.9407582,-1.9788481727245717,-0.9071811429137369,8.754559175992869,0.2855555555555556,-0.36777777777777776,-0.6355555555555555,4.615654402297713,2.864123006833713,14.876531395464
1589986551.9507582,-1.948353999513737,-0.926619429682887,8.553345142579278,0.2855555555555556,-0.36777777777777776,-0.6355555555555555,2.102985742072175,0.9783178771143759,15.135398214719878
1589986551.9607582,-1.9659698878426584,-0.9,8.762976186650384,0.2855555555555556,-0.36777777777777776,-0.6355555555555555,-0.6892725439470389,-1.1790309557476621,14.938441004916927
1589986551.9707582,-1.997303566368457,-0.8658705420394284,9.070647289802858,0.2810049611608127,-0.3723283721725207,-0.6264543667660698,-1.0584544387321377,-1.7152344856899973,15.111132757155001
1589986551.9807582,-2.0586813769475487,-0.8082731054735297,8.997001386736276,0.2788888888888889,-0.3744444444444445,-0.6222222222222222,0.8718619993474184,-0.3073966065747613,15.554258605922179
1589986551.9907582,-2.1480220368329923,-0.79,8.827966944750512,0.2788888888888889,-0.3744444444444445,-0.6222222222222222,0.5965823233118213,-0.3970643790335274,15.262362269793798
1589986552.0007582,-2.214771338095589,-0.7717428873014704,8.946928345238973,0.2788888888888889,-0.3744444444444445,-0.6222222222222222,-0.5894625892922896,-1.2416952033777648,14.27464436507352
1589986552.0107582,-2.2581064395744006,-0.7395148483404795,8.96762128791488,0.2788888888888889,-0.3744444444444445,-0.6222222222222222,-0.4017017031919962,-0.7885364558519931,13.47300425797999
1589986552.0207582,-2.2790029448885147,-0.6939882204459402,8.997008834665545,0.2788888888888889,-0.3554382274575795,-0.6152199317533773,-0.1999631888935633,-0.625,11.955826672275979
1589986552.0307581,-2.28,-0.6717918257672183,9.027312261349172,0.2788888888888889,-0.3533333333333333,-0.6144444444444445,-0.5289032668646585,-0.6819005444774431,10.219284754631595
1589986552.0407581,-2.2977785028432924,-0.6344429943134148,8.941107485783537,0.2788888888888889,-0.3533333333333333,-0.6144444444444445,-0.6180578213852894,-0.576384357229421,8.173534072900159
1589986552.0507581,-2.281429606134019,-0.63,8.920714803067009,0.2788888888888889,-0.3533333333333333,-0.6144444444444445,-0.1607401533504833,-0.27233759584405204,5.732265728414795
1589986552.060758,-2.28,-0.62240968769422,8.92759031230578,0.2788888888888889,-0.3533333333333333,-0.6144444444444445,0.06475780764449968,0.034636711466749515,3.759800827377253
1589986552.070758,-2.271773160269623,-0.6035463205392457,8.938226839730376,0.27249023576526227,-0.3853265989514667,-0.631812217208574,0.17641774831485713,0.07358225168514289,0.9765368224611444
1589986552.080758,-2.2329473793839663,-0.6092631551540084,8.986315775770041,0.27111111111111114,-0.3922222222222223,-0.6355555555555555,0.3032894394251048,0.0625,-2.2789465462025156
1589986552.090758,-2.2709113458751102,-0.61,8.966622088071365,0.27111111111111114,-0.3922222222222223,-0.6355555555555555,0.3855559747769825,0.24513993694245628,-4.25334339464758
1589986552.100758,-2.325210488762041,-0.5948737067427756,8.960084195504816,0.27111111111111114,-0.3922222222222223,-0.6355555555555555,0.5320393328576525,0.6586179985729576,-7.012629325722441
1589986552.110758,-2.340582269979852,-0.5894177300201477,8.984126595030222,0.27111111111111114,-0.3922222222222223,-0.6355555555555555,0.5367087810611149,0.9963608126259235,-10.20696356615178
1589986552.120758,-2.3092688744881325,-0.5834150995905061,9.029023575716614,0.2743359528574016,-0.38945807215397327,-0.6355555555555555,0.3338443724406631,1.0625,-13.60209269272055
1589986552.130758,-2.2716269841269843,-0.5851190476190476,9.044880952380952,0.2788888888888889,-0.3855555555555555,-0.6355555555555555,0.3444940476190476,1.4288194444444444,-18.670386904761905
1589986552.140758,-2.27,-0.5812331977995694,8.943565175795264,0.2788888888888889,-0.3855555555555555,-0.6355555555555555,0.48458502750538146,1.7739625687634537,-22.537550825161446
1589986552.150758,-2.3011247800189523,-0.5862249560037904,8.94244991200758,0.2788888888888889,-0.3855555555555555,-0.6355555555555555,0.5778119500473805,1.8903119500473806,-25.334358501421416
1589986552.160758,-2.302819892081085,-0.5842732973603616,8.967180107918916,0.2788888888888889,-0.3855555555555555,-0.6355555555555555,0.8039594574886977,1.9732918914977395,-29.04068105585533
1589986552.170758,-2.3121350797866946,-0.5910675398933474,8.974466230053327,0.2788888888888889,-0.3855555555555555,-0.6330961022459227,1.0412581865001318,2.172930310833553,-32.825163730002636
1589986552.180758,-2.3702864309410145,-0.6080572861882029,9.002229144752812,0.2788888888888889,-0.3855555555555555,-0.6311111111111111,1.3264321547050733,2.5139321547050733,-37.622198397928635
1589986552.190758,-2.3596554557405787,-0.6167815147531405,8.942184852468595,0.2788888888888889,-0.3855555555555555,-0.6311111111111111,1.3326155327928717,2.6048844672071283,-40.960452499634826
1589986552.200758,-2.3816038471536265,-0.62,8.996910579672472,0.2788888888888889,-0.3855555555555555,-0.6311111111111111,1.4112620223550818,2.8225240447101636,-45.39726572654016
1589986552.210758,-2.3829946101755146,-0.6690377287713963,9.00598922035103,0.2788888888888889,-0.3855555555555555,-0.6311111111111111,1.4812836864030325,3.2252694912242603,-48.83323749777892
1589986552.220758,-2.4058795669824087,-0.7158795669824086,9.034506089309877,0.3018929484288077,-0.3750120282664261,-0.6493226582468802,1.5539157645466848,3.6445788227334237,-53.1185301082544
1589986552.230758,-2.3929787234042554,-0.745531914893617,8.980425531914895,0.3055555555555556,-0.37333333333333335,-0.6522222222222223,1.615691489361702,3.8470744680851063,-56.816489361702125
1589986552.240758,-2.406809643825194,-0.75,8.911166246611822,0.3055555555555556,-0.37333333333333335,-0.6522222222222223,1.625,4.137650684768653,-60.36921780636264
1589986552.250758,-2.4267318833697407,-0.7583659416848704,8.92509782505461,0.3055555555555556,-0.37333333333333335,-0.6522222222222223,1.6772871355304397,4.1875,-63.97015386076551
1589986552.260758,-2.409357060849598,-0.770321469575201,8.940321469575201,0.3055555555555556,-0.37333333333333335,-0.6522222222222223,1.8810275545350172,4.316518369690011,-66.23973880597015
1589986552.270758,-2.406398661481415,-0.8004983268517681,8.954099665370354,0.31648799654316523,-0.37333333333333335,-0.6549553324691246,2.0625,4.591237451388261,-69.17051415392963
1589986552.280758,-2.409653796502758,-0.83,8.966782067832415,0.3322222222222222,-0.37333333333333335,-0.6588888888888889,2.104887923952588,4.727724152094824,-73.2020082736768
1589986552.290758,-2.4297189473684213,-0.8953816842105262,8.922449684210527,0.3322222222222222,-0.37333333333333335,-0.6588888888888889,2.125,4.873243421052631,-75.78489342105263
1589986552.300758,-2.459415770460491,-0.94,8.908831540920982,0.3322222222222222,-0.37333333333333335,-0.6588888888888889,2.2721214134451686,5.176545696134203,-78.05197130756135
1589986552.3107579,-2.4649711159336127,-0.9852599565974876,8.95011553626555,0.3322222222222222,-0.37333333333333335,-0.6588888888888889,2.4375,5.375,-80.56935996576703
1589986552.3207579,-2.475634728959065,-1.009153694721247,9.011692610557507,0.3536475915364962,-0.36001486051635223,-0.6739445538124328,2.4049276480019484,5.407572351998052,-82.92260467192986
1589986552.3307579,-2.512506746258893,-1.0050044975059285,8.982479761223322,0.37333333333333335,-0.3477777777777778,-0.6877777777777778,2.375,5.625056218824106,-85.5942278600049
1589986552.3407578,-2.52,-1.0404043849378066,8.923514738074633,0.37333333333333335,-0.3477777777777778,-0.6877777777777778,2.336994518827742,5.801516443516775,-87.30316991634
1589986552.3507578,-2.4949136525471665,-1.0976295211792502,8.912543173726418,0.37333333333333335,-0.3477777777777778,-0.6877777777777778,2.390894835790104,5.875,-89.31681737264167
1589986552.3607578,-2.48,-1.132790446071904,8.94558089214381,0.37333333333333335,-0.3477777777777778,-0.6877777777777778,2.4375,5.9149701439747,-91.0617535993675
1589986552.3707578,-2.530388619217498,-1.190388619217498,8.96,0.38932972038650737,-0.32858211331396897,-0.7029743454782931,2.527479677174104,6.162449192935259,-92.7497459646763
1589986552.3807578,-2.532203361868275,-1.239661063552875,8.94813557457885,0.3955555555555556,-0.3211111111111111,-0.7088888888888889,2.710805317764376,6.472457976646564,-94.22563722435063
1589986552.3907578,-2.556617333539317,-1.272205777846439,8.891176888614243,0.3955555555555556,-0.3211111111111111,-0.7088888888888889,2.850643055770122,6.663143055770122,-96.00550556156341
1589986552.4007578,-2.514438566425751,-1.3601306410351937,8.89642301865236,0.3955555555555556,-0.3211111111111111,-0.7088888888888889,2.829471226684549,6.596442453369098,-98.09889197277897
1589986552.4107578,-2.49,-1.409518489378442,8.939277734067664,0.3955555555555556,-0.3211111111111111,-0.7088888888888889,2.8429976396538157,6.592997639653816,-99.53992918961448
1589986552.4207578,-2.49,-1.4230895862423751,8.976910413757626,0.4116798543233467,-0.30460290046789645,-0.7169510382727844,2.9613801719703092,6.819355386933196,-101.06147111780702
1589986552.4307578,-2.504120125215763,-1.4947207512945788,8.99,0.44222222222222224,-0.2733333333333333,-0.7322222222222222,3.125,7.364001565197039,-103.36051095637927
1589986552.4407578,-2.4801429942193827,-1.5822497601160805,8.863107725432377,0.44222222222222224,-0.2733333333333333,-0.7322222222222222,3.1716515715322147,7.484151571532214,-105.32119871749866
1589986552.4507577,-2.4475620311598383,-1.614958645893441,8.82747932294672,0.44222222222222224,-0.2733333333333333,-0.7322222222222222,3.000516926331987,7.827220378919023,-107.2616188209271
1589986552.4607577,-2.401649396562233,-1.6327835344792556,8.900309439635905,0.44222222222222224,-0.2733333333333333,-0.7322222222222222,2.6978087285139583,7.817654364256979,-109.1082505384209
1589986552.4707577,-2.370585853867414,-1.6917778037292226,8.921171707734828,0.4615735226058711,-0.2492749598833915,-0.7348372628146072,2.8272728599789794,7.9853536533146485,-110.58106095994394
1589986552.4807577,-2.3701451368826523,-1.775362842206631,8.864492020910717,0.4833333333333333,-0.2222222222222222,-0.7377777777777778,3.315221316549732,8.535331974824597,-112.32610658274866
1589986552.4907577,-2.352358200987588,-1.8230348325103432,8.811572133991726,0.4833333333333333,-0.2222222222222222,-0.7377777777777778,3.4424129187241426,8.754912918724143,-114.056219137862
1589986552.5007577,-2.3396465059256233,-1.8775051082958725,8.79785860237025,0.4833333333333333,-0.2222222222222222,-0.7377777777777778,3.276767470371884,8.736616264814058,-115.71218583980384
1589986552.5107577,-2.3575916722017363,-1.9758374750921874,8.87204163899132,0.4833333333333333,-0.2222222222222222,-0.7377777777777778,3.0862239756304253,8.851276024369575,-117.82067663360894
1589986552.5207577,-2.3336958966614185,-2.067064361685036,8.91815205166929,0.4788044157392829,-0.1896140155450589,-0.7740091185301815,3.1134503229330677,9.180701937598407,-120.11886065679123
1589986552.5307577,-2.3425679758308156,-2.130271903323263,8.86134944612286,0.4777777777777778,-0.18222222222222226,-0.7822222222222223,3.098816717019134,9.564199395770393,-121.8877139979859
1589986552.5407577,-2.3571330346911137,-2.188532138764455,8.793379171441469,0.4777777777777778,-0.18222222222222226,-0.7822222222222223,3.068472844393513,9.928325867277842,-123.4959392471438
1589986552.5507576,-2.3260333411756795,-2.228305549020267,8.808305549020266,0.4777777777777778,-0.18222222222222226,-0.7822222222222223,2.9563541911739994,10.106145808826001,-124.62628453433267
1589986552.5607576,-2.290368556239173,-2.259631443760827,8.834815721880414,0.4777777777777778,-0.18222222222222226,-0.7822222222222223,2.8449017382474167,10.067106952989667,-125.91216175855683
1589986552.5707576,-2.272752918287938,-2.3424708171206228,8.854494163424125,0.4954928664072633,-0.20154777345438826,-0.7870536100302638,2.404851653696498,10.526325389105057,-127.25911964980544
1589986552.5807576,-2.2406329798013918,-2.428734040397217,8.815949469702089,0.5022222222222222,-0.2088888888888889,-0.7888888888888889,2.2958859690603255,10.658228061879349,-128.00474565966357
1589986552.5907576,-2.2157392291858895,-2.4642607708141107,8.707304989708284,0.5022222222222222,-0.2088888888888889,-0.7888888888888889,2.4016298175881894,10.936954361558662,-128.41032454397046
1589986552.6007576,-2.1960395205094585,-2.4979209589810827,8.704901198726354,0.5022222222222222,-0.2088888888888889,-0.7888888888888889,2.350247003184117,10.80074100955235,-128.67450599363175
1589986552.6107576,-2.208111242751138,-2.522074161834092,8.774333728253415,0.5022222222222222,-0.2088888888888889,-0.7888888888888889,1.7842554197584752,10.310182442684624,-128.90092702292614
1589986552.6207576,-2.14336013400335,-2.66237795035785,9.611234962692249,0.5246722839788167,-0.20037334822259445,-0.8152096509483444,-3.0041285975331204,7.014323511496878,-129.56608991929343
1589986552.6307576,-2.0953535122263944,-2.6540908050187744,9.147119928564887,0.5344444444444445,-0.19666666666666666,-0.8266666666666667,2.111122241047715,9.577973314863998,-127.34090518820405
1589986552.6407576,-1.9978439367311072,-2.537843936731107,8.41048646748682,0.5344444444444445,-0.19666666666666666,-0.8266666666666667,6.282508787346221,12.772231985940246,-125.15263181019333
1589986552.6507576,-2.0140560336934628,-2.710217908807911,8.752541659036806,0.5344444444444445,-0.19666666666666666,-0.8266666666666667,2.920836385277422,9.85872550814869,-125.3382393334554
1589986552.6607575,-2.0459942554528316,-2.862017233641504,9.079971277264159,0.5344444444444445,-0.19666666666666666,-0.8266666666666667,0.5003590341980073,7.387428193160399,-125.36185373844359
1589986552.6707575,-2.0040958898358454,-2.833324656786599,8.913564381376213,0.5097105018869157,-0.20903363794543103,-0.8131028917157638,1.8399229606616565,8.18766268525127,-123.90209759015912
1589986552.6807575,-1.9209521769399667,-2.764285867295025,8.67,0.4655555555555556,-0.2311111111111111,-0.7888888888888889,2.9970177529052644,9.154755529373963,-121.84523108231136
1589986552.6907575,-1.94524236983842,-2.920754039497307,8.77556552962298,0.4655555555555556,-0.2311111111111111,-0.7888888888888889,1.9665619389587072,8.1229802513465,-120.18245062836625
1589986552.7007575,-1.9367442968121273,-3.0164271519371955,8.802537158999458,0.4655555555555556,-0.2311111111111111,-0.7888888888888889,2.2584552121142445,7.992071378126694,-117.94886634256902
1589986552.7107575,-1.883164884028362,-2.988989304170172,8.726329768056724,0.4655555555555556,-0.2311111111111111,-0.7888888888888889,2.940658424468213,8.111536323759164,-115.69215689220046
1589986552.7207575,-1.8556478063404702,-3.038588048414882,8.80870438731906,0.466986896958036,-0.18292261722760414,-0.7263869809805779,2.7051493948139695,7.570961138331431,-112.65848099425017
1589986552.7307575,-1.8150193887209551,-3.0851357210466857,8.844786724069493,0.4688888888888889,-0.11888888888888888,-0.6433333333333333,2.8448406155537236,7.375484718023877,-109.52506984519556
1589986552.7407575,-1.826212822688159,-3.1572769361289543,8.71544612774209,0.4688888888888889,-0.11888888888888888,-0.6433333333333333,2.8143588655920495,7.111698581990062,-106.26780390255726
1589986552.7507575,-1.8114087591240877,-3.1985912408759125,8.762956204379563,0.4688888888888889,-0.11888888888888888,-0.6433333333333333,2.547536496350365,6.603877737226277,-103.27468065693431
1589986552.7607574,-1.6061959252023443,-3.0438822216020096,8.626195925202344,0.4688888888888889,-0.11888888888888888,-0.6433333333333333,3.01911805749372,6.956618057493721,-99.91681202902596
1589986552.7707574,-1.5905669809529837,-3.1108099727899767,8.309352021768019,0.48896988616788656,-0.04748978745245276,-0.6373834082136304,4.943574795924825,8.671897740935265,-95.342692052142
1589986552.7807574,-1.6529574220671766,-3.273383201395411,9.011726150543405,0.4988888888888889,-0.012222222222222223,-0.6344444444444445,-0.07861068249921743,3.4143409812603425,-93.40930665503824
1589986552.7907574,-1.621690864795595,-3.267646702623537,8.971981242342736,0.4988888888888889,-0.012222222222222223,-0.6344444444444445,-0.8317831040261368,2.4035087873709706,-91.16541891397108
1589986552.8007574,-1.580345016969202,-3.22039430510766,8.434485220599624,0.4988888888888889,-0.012222222222222223,-0.6344444444444445,1.6046686428863133,4.544633049809185,-88.21214406922871
1589986552.8107574,-1.5196156365265951,-3.238846909579786,8.673682650212003,0.4988888888888889,-0.012222222222222223,-0.6344444444444445,4.01921817367024,6.60163440656348,-82.37189966906821
1589986552.8207574,-1.5696459937323481,-3.3892211862111656,8.94021240376059,0.4990776922316366,-0.011734480253457311,-0.6343028419373837,1.499557492165435,3.8107299686617404,-80.41316206909893
1589986552.8307574,-1.4719660673121255,-3.258985154449055,8.864925772245275,0.5255555555555556,0.05666666666666665,-0.6144444444444445,1.9816343937298293,4.012818118948824,-75.48017634854772
1589986552.8407574,-1.3738432232740707,-3.2392245824674823,8.636919495112753,0.5255555555555556,0.05666666666666665,-0.6144444444444445,3.221159951512353,4.947139806049411,-71.29340558377588
1589986552.8507574,-1.4613799593179095,-3.422759918635819,8.794486436134822,0.5255555555555556,0.05666666666666665,-0.6144444444444445,2.374960791209627,3.530127796893713,-66.23267209094539
1589986552.8607574,-1.466955423310128,-3.4495643386481025,8.892173253986076,0.5255555555555556,0.05666666666666665,-0.6144444444444445,1.60872585897148,2.5598086963844597,-62.55968237704918
1589986552.8707573,-1.4220113589848546,-3.4239943205075725,8.897960243553008,0.5264431823350162,0.08418309682994496,-0.6228768988493201,2.5001774841383546,3.362606490483013,-57.48991378428162
1589986552.8807573,-1.3756959762241983,-3.3914079732522233,8.94,0.5277777777777778,0.12555555555555556,-0.6355555555555555,1.8836997028024798,2.7407996470779445,-53.302698866934456
1589986552.8907573,-1.3256577695427914,-3.353026691371626,8.788021933997696,0.5277777777777778,0.12555555555555556,-0.6355555555555555,1.7738619860784215,2.605278807151084,-49.14385735389854
1589986552.9007573,-1.3250177659050237,-3.3750177659050236,8.705408615815546,0.5277777777777778,0.12555555555555556,-0.6355555555555555,1.9986675571232202,2.842084446404025,-44.80628193324169
1589986552.9107573,-1.3138469463886027,-3.355770419582904,8.815961736597151,0.5277777777777778,0.12555555555555556,-0.6355555555555555,1.3978476835897253,2.1226085373219172,-41.472433785128075
1589986552.9207573,-1.2834783116125268,-3.3265216883874733,8.823043376774947,0.5328502020791459,0.1367873522228706,-0.6355555555555555,1.2051619334759773,1.770380276210854,-37.86142287492706
1589986552.9307573,-1.2958212023325084,-3.381313923732013,8.844835759533497,0.5433333333333333,0.16,-0.6355555555555555,1.3708939883374587,1.6511174854218231,-33.02292129882116
1589986552.9407573,-1.3002074710535967,-3.4298962644732014,8.726192958558181,0.5433333333333333,0.16,-0.6355555555555555,1.25,1.3762966940849792,-29.02009875831718
1589986552.9507573,-1.285381947743468,-3.434618052256532,8.696111163895486,0.5433333333333333,0.16,-0.6355555555555555,1.3172743467933492,1.25,-24.775172209026127
1589986552.9607573,-1.2732310472677137,-3.4258077618169285,8.790961190915358,0.5433333333333333,0.16,-0.6355555555555555,1.1129851135580273,1.1189925567790135,-20.97839579490619
1589986552.9707572,-1.2449284301723327,-3.4301431396553346,8.84028627931067,0.5520677035920938,0.16788910862081594,-0.6397818637452783,0.7658486557114605,0.858256721442697,-17.248850821640456
1589986552.9807572,-1.2411685648208752,-3.45553257407165,8.862026879609024,0.5777777777777777,0.19111111111111112,-0.6522222222222223,0.7706178819217175,0.5831178819217175,-12.786711284199503
1589986552.9907572,-1.2725965239706054,-3.4572747774019206,8.722596523970605,0.5777777777777777,0.19111111111111112,-0.6522222222222223,0.5941521832108558,0.36038045802713947,-8.280706870407093
1589986553.0007572,-1.232365304081505,-3.464149790611913,8.742323270204388,0.5777777777777777,0.19111111111111112,-0.6522222222222223,0.3456964107131696,-0.02930358928683041,-3.1849207372335773
1589986553.0107572,-1.2005056289451421,-3.379662914036572,8.821011257890286,0.5777777777777777,0.19111111111111112,-0.6522222222222223,0.059339819092861325,-0.31566018090713865,-0.24718959458580075
1589986553.0207572,-1.2336652601969058,-3.3819915611814344,8.876334739803095,0.5989548366932332,0.19518362244100643,-0.6493714642912956,-0.3082630098452883,-0.7519866385372714,4.86824894514768
1589986553.0307572,-1.2245266990291261,-3.3684223300970872,8.78747572815534,0.6355555555555555,0.20222222222222225,-0.6444444444444445,-0.07698725728155342,-0.8651395631067962,9.155870752427184
1589986553.0407572,-1.2335654887923697,-3.3718440753432133,8.73356548879237,0.6355555555555555,0.20222222222222225,-0.6444444444444445,-0.06326663683785494,-1.0043529148569308,12.62371363249449
1589986553.0507572,-1.2641594291347824,-3.3176954133608754,8.701767992113046,0.6355555555555555,0.20222222222222225,-0.6444444444444445,-0.5470107037228299,-1.6299821604619502,15.830800197173842
1589986553.0607572,-1.2570940655849314,-3.218076704867809,8.745832860546919,0.6355555555555555,0.20222222222222225,-0.6444444444444445,-0.5988241801883581,-1.9334931351412685,18.782448513559515
1589986553.0707572,-1.234676692877319,-3.3259699213680434,8.951541339033513,0.6976516443155119,0.20430075238991952,-0.6662690112052659,-0.8936560042751355,-2.1436560042751354,21.37438926635621
1589986553.0807571,-1.240758081555039,-3.243032326220156,8.783104796112402,0.9011111111111112,0.2111111111111111,-0.7377777777777778,-0.8366429854215085,-2.057761990281006,25.097930752165645
1589986553.0907571,-1.2343290088765166,-3.204329008876517,8.745064866852251,0.9011111111111112,0.2111111111111111,-0.7377777777777778,-0.9916126109564578,-2.2332252219129156,28.381765717737277
1589986553.1007571,-1.2110122306111235,-3.1644477909603372,8.730398868515843,0.9011111111111112,0.2111111111111111,-0.7377777777777778,-1.1919096847717698,-2.50440968477177,32.01629815421559
1589986553.110757,-1.1758966197435667,-3.114741549358917,8.800516901282167,0.9011111111111112,0.2111111111111111,-0.7377777777777778,-1.3012922532054156,-2.669073063301354,35.61359331569981
1589986553.120757,-1.18566454387561,-3.152167728062195,8.736503184186585,1.0398457070915925,0.13427719423997647,-0.8794026778411859,-1.233386403109751,-2.74693470349847,39.8775742287652
1589986553.130757,-1.2053737262994968,-3.1966838643105895,8.766550690055462,1.5411111111111107,-0.14333333333333334,-1.3911111111111112,-1.551304736876048,-3.236630175415968,44.204199180962206
1589986553.140757,-1.4479009353181398,-3.43209906468186,8.79419812936372,1.5411111111111107,-0.14333333333333334,-1.3911111111111112,-1.2847138058226848,-3.710642537215123,50.9983763667501
1589986553.150757,-1.4371984564332798,-3.4114494211624797,8.7842509647292,1.5411111111111107,-0.14333333333333334,-1.3911111111111112,-1.500304058619499,-4.008754823646001,55.407890884247514
1589986553.160757,-1.3868157179537228,-3.3925558942326464,8.815740176278924,1.5411111111111107,-0.14333333333333334,-1.3911111111111112,-1.2247734575594227,-4.166200881394616,57.9663893226625
1589986553.170757,-1.39,-3.3422421340629276,8.80366586867305,1.290147362821097,-0.12497013223894209,-1.2003378552971578,-1.4081416723666211,-4.5713983413132695,62.145248375513
1589986553.180757,-1.3729820011003695,-3.357236500825277,8.837455002750923,0.7211111111111111,-0.08333333333333333,-0.7677777777777778,-1.465456260315963,-4.768637506877309,64.57430932170085
1589986553.190757,-1.3530578691444803,-3.3430578691444803,8.734131962832796,0.7211111111111111,-0.08333333333333333,-0.7677777777777778,-1.3646700929180107,-4.682335046459006,65.97417523229502
1589986553.200757,-1.3762746218236916,-3.359764773094215,8.685333714200553,0.7211111111111111,-0.08333333333333333,-0.7677777777777778,-1.584313445440771,-4.8125,66.56397016816116
1589986553.210757,-1.4175769841676487,-3.3774743386107837,8.805051322778434,0.7211111111111111,-0.08333333333333333,-0.7677777777777778,-1.657853836826015,-4.859856151047804,66.13757771003057
1589986553.220757,-1.4390674796331402,-3.3703108401222868,8.819378319755428,0.7211111111111111,-0.08333333333333333,-0.7677777777777778,-2.1055724923570907,-4.994171747707127,65.28691226452153
1589986553.230757,-1.4079575270940283,-3.293978763547014,8.816339783247773,0.6077777777777778,0.09333333333333334,-0.7233333333333334,-1.6498672721688386,-4.674734544337677,62.21900366372691
1589986553.240757,-1.4345115115115115,-3.2746048548548545,8.72,0.6077777777777778,0.09333333333333334,-0.7233333333333334,-1.6194772897897898,-4.54593186936937,59.12791697947948
1589986553.250757,-1.4566051417270929,-3.236789716545814,8.74376400791035,0.6077777777777778,0.09333333333333334,-0.7233333333333334,-1.5424357284113381,-4.123846407382993,55.55833882663151
1589986553.260757,-1.4521959189117097,-3.24780408108829,8.805371432381968,0.6077777777777778,0.09333333333333334,-0.7233333333333334,-1.4877550680181382,-3.8764795612163243,52.02408142171246
1589986553.270757,-1.4680365332601621,-3.234642311159892,8.855981733369918,0.6050989333577237,0.0951192296133694,-0.7261610024433904,-1.0669711105013524,-3.445871388812669,48.36377445023715
1589986553.280757,-1.517359962369174,-3.2017600250872174,8.831320018815413,0.5886577903213863,0.10607999163759424,-0.7435155423150798,-1.477999686409784,-3.497249960801223,44.459002979107055
1589986553.290757,-1.54,-3.2469467386546036,8.831170290383774,0.5877777777777777,0.10666666666666667,-0.7444444444444445,-1.0625,-2.9882314314898584,39.090163067269806
1589986553.300757,-1.5337920126532227,-3.3324159746935544,8.765519968366943,0.5877777777777777,0.10666666666666667,-0.7444444444444445,-0.9461002372479241,-2.7435003954132067,34.09890272835113
1589986553.310757,-1.52,-3.3449052709027365,8.802156389871039,0.5877777777777777,0.10666666666666667,-0.7444444444444445,-0.6201128165300742,-2.245112816530074,30.1276696846451
1589986553.320757,-1.5275401861252116,-3.291256697687535,8.816283488437676,0.5844265839443504,0.09926611361784797,-0.7452822429028013,-0.375,-1.9607281972645234,25.816670632402708
1589986553.330757,-1.562842842842843,-3.231371371371371,8.818822822822822,0.5611111111111111,0.04777777777777778,-0.7511111111111111,-0.2677677677677678,-1.5159284284284285,18.853516016016016
1589986553.340757,-1.5202830088307266,-3.0975707522076816,8.735141504415363,0.5611111111111111,0.04777777777777778,-0.7511111111111111,0.08932798701989572,-0.9901236168741355,12.939709344079157
1589986553.350757,-1.487076048761442,-3.098771853715674,8.731695804954231,0.5611111111111111,0.04777777777777778,-0.7511111111111111,0.5807746952409873,-0.28362652379506315,5.677283523491388
1589986553.3607569,-4.53872112042527,-4.574718871396443,6.0284318135350645,0.5611111111111111,0.04777777777777778,-0.7511111111111111,-5.925999284399918,22.210897566959723,-3.118099570639951
1589986553.3707569,-18.302473931711305,-11.120719689225108,-6.263185442649766,0.5611111111111111,0.04777777777777778,-0.7511111111111111,-35.40444183193621,122.43760222858312,-20.805165099161727
1589986553.3807569,-2.679812384490451,-0.2146065674762447,0.05181865700897941,0.5077777777777778,0.09333333333333334,-0.62,-39.73177749360614,-78.94046357832248,-219.0557257733306
1589986553.3907568,0.18597028020983108,-0.4651668004555043,0.28671887542703534,0.5077777777777778,0.09333333333333334,-0.62,-19.6184462915601,-45.956557908787126,-240.78399597700076
1589986553.4007568,-0.07451095440598592,-0.2942980567368251,-0.02225547720299296,0.5077777777777778,0.09333333333333334,-0.62,-17.31516122086451,-39.68483877913549,-230.37820120310062
1589986553.4107568,0.12813527100671707,-0.1523729457986566,0.03885556165772465,0.5077777777777778,0.09333333333333334,-0.62,-14.932198153859153,-38.78123811837269,-217.24282349710617
1589986553.4207568,0.006365728447512835,-0.1445409216970555,-0.06271995043370507,0.5059593635058319,0.12212489263914295,-0.6339411760849183,-12.789785802796954,-31.81226028205582,-201.85173445152535
1589986553.4307568,2.9376083960324455,-0.9526218396258388,3.9466569511285843,0.5011111111111111,0.1988888888888889,-0.6711111111111111,-5.2720138841817485,-18.362631046792742,-186.74196773537585
1589986553.4407568,4.963181880522738,-0.20892454789474701,13.631207899841298,0.5011111111111111,0.1988888888888889,-0.6711111111111111,49.55535962695193,44.8110648229785,-180.9809618624973
1589986553.4507568,-0.8541566798512309,4.063687939075506,18.09817285554047,0.5011111111111111,0.1988888888888889,-0.6711111111111111,129.0036122262235,169.0831660664738,-175.2851518684692
1589986553.4607568,0.5590867081702072,-0.5125710801617354,0.7571317630447343,0.5011111111111111,0.1988888888888889,-0.6711111111111111,-1.4251973557538022,124.6116704640267,-131.4974608497529
1589986553.4707568,2.373857310504619,-0.8850377636686426,10.129306412301027,0.49040739291935387,0.21142753019923302,-0.6659121622751147,-36.53290216050311,-18.608207579815243,-96.78142396112298
1589986553.4807568,1.6527039234191723,0.1301649925846029,8.681338142105972,0.4622222222222222,0.24444444444444444,-0.6522222222222223,18.565842195294593,6.099202002157206,-85.55539638667925
1589986553.4907568,-0.758384044256806,0.9731125345756296,-2.064344154898821,0.4622222222222222,0.24444444444444444,-0.6522222222222223,80.53137283447373,32.712117848303976,-80.13349286650167
1589986553.5007567,0.9702514603616132,-0.8004567454798331,5.758623087621697,0.4622222222222222,0.24444444444444444,-0.6522222222222223,26.241595966620306,-4.340671070931849,-62.57738178025035
1589986553.5107567,1.1927829078144163,-2.5689461886569016,12.703424781131492,0.4622222222222222,0.24444444444444444,-0.6522222222222223,-45.812917647639324,-7.459113705891475,-43.90456839552817
1589986553.5207567,0.3058262021907998,-2.267380908744872,9.699598071419508,0.4622222222222222,0.24444444444444444,-0.6522222222222223,-53.647701880647936,7.397411113304102,-34.48065339827725
1589986553.5307567,-0.10103068746785532,-2.306294188239328,8.48353231613235,0.4711111111111111,0.2788888888888889,-0.6355555555555555,13.73950368592491,2.9417323847076977,-23.536878535916337
1589986553.5407567,-0.20689911159790678,-2.066971319621922,7.035192892783254,0.4711111111111111,0.2788888888888889,-0.6355555555555555,18.85057781631577,16.78252023244493,-11.091796478844671
1589986553.5507567,-0.415881600475978,-2.541763200951956,8.832663989290495,0.4711111111111111,0.2788888888888889,-0.6355555555555555,-7.579549680202291,-4.8771697902722,-8.88216012196936
1589986553.5607567,-0.3826372416933908,-2.3942482779559384,8.492595874684529,0.4711111111111111,0.2788888888888889,-0.6355555555555555,-11.268724264217537,-7.480051803639538,-1.7559310897739997
1589986553.5707567,-0.3484155552318928,-2.1763893801627097,7.040882212188677,0.4711111111111111,0.2802395335557359,-0.6351399725811411,6.08538888079732,3.27743518653378,6.340257693348037
1589986553.5807567,-0.4269588647760138,-2.7960088221218866,9.475724808056428,0.4711111111111111,0.29284524990232313,-0.6312612906283449,8.048971619400346,2.950171396766609,11.849198154428747
1589986553.5907567,-0.4069634613319973,-3.0390280213291345,9.508985434634793,0.4711111111111111,0.2933333333333333,-0.6311111111111111,-5.145485899867587,-3.909409333285617,16.182955033460974
1589986553.6007566,-0.35442776366173995,-2.8739158286511826,8.255633790215796,0.4711111111111111,0.2933333333333333,-0.6311111111111111,0.06117699423827094,-2.033134416490713,21.201990435887343
1589986553.6107566,-0.36671685561328926,-3.12,8.49689753582113,0.4711111111111111,0.2933333333333333,-0.6311111111111111,1.0408510962840498,1.1861825401511574,32.92251466304519
1589986553.6207566,-0.5532236796923289,-3.1054934413845205,9.356118398461645,0.46824561805126325,0.29763157292310505,-0.6345138841196803,-2.3001639653869925,-3.7559619875008585,40.31167588077742
1589986553.6307566,-0.57,-3.03,9.44,0.4533333333333333,0.32,-0.6522222222222223,-4.1875,-4.4375,46.8125
1589986553.6407566,-0.5631555492343431,-3.0060444223202007,9.217555350116152,0.4533333333333333,0.32,-0.6522222222222223,-3.289165837007538,-3.8386105580050254,50.29889210875646
1589986553.6507566,-0.5232018030349516,-2.9231524791730585,8.50526915724636,0.4533333333333333,0.32,-0.6522222222222223,-1.6253082741368323,-3.5249436551577658,57.94212411205249
1589986553.6607566,-0.5047043193234935,-2.964791210070017,8.214964991563065,0.4533333333333333,0.32,-0.6522222222222223,-1.4329893907950115,-4.436685399251343,60.963749054481276
1589986553.6707566,-0.6019658767772512,-3.263290047393365,8.951324170616115,0.45715587151132175,0.32,-0.6542973143759874,-0.5379265402843602,-2.6145912322274882,64.45674170616114
1589986553.6807566,-0.6259539111274329,-3.10642765332354,8.806197208960704,0.4922222222222222,0.32,-0.6733333333333333,-0.513444500550863,-4.849711944546456,67.8349075009181
1589986553.6907566,-1.3050641515504968,-9.343320194666774,7.470553835015887,0.4922222222222222,0.32,-0.6733333333333333,-1.718851807907332,-5.174614386839883,70.84172012629207
1589986553.7007565,-2.7893850231586836,-24.00285132928168,4.218701507322428,0.4922222222222222,0.32,-0.6733333333333333,-2.6733554657171164,-3.432739417954004,68.20221011485636
1589986553.7107565,-1.0482713739359297,-6.2131311428218945,9.598467327384135,0.4922222222222222,0.32,-0.6733333333333333,-18.04662119093638,1.2047628716535757,-4.461883661635888
1589986553.7207565,-0.7054552130536799,-0.5630334402034711,7.238101054969461,0.4937869443300118,0.31850047464670167,-0.6737245138602808,-31.65827452490552,-20.223129847217496,-192.7542225645251
1589986553.7307565,0.12091902348157846,-0.08974637746055059,4.909228206551916,0.513820259155109,0.2993018812726502,-0.6787328425665551,44.734389272984544,30.533151385431033,-208.81217647901704
1589986553.7407565,0.8511867842663062,-2.0397137065225124,6.303315669677787,0.5188888888888888,0.29444444444444445,-0.68,52.4057654349527,38.83125244505299,-208.75945902091186
1589986553.7507565,0.32909950921118136,-2.91980368447258,8.615416459207625,0.5188888888888888,0.29444444444444445,-0.68,-16.118189416032436,12.120894533750622,-184.56630761433956
1589986553.7607565,-1.5403330034348257,-2.632035861908366,10.952919601793095,0.5188888888888888,0.29444444444444445,-0.68,0.22062932991791362,13.798415031728474,-156.52929062117948
1589986553.7707565,-0.49853323624258816,-2.519022157495059,8.070221574950589,0.5178023972167319,0.2957210721592288,-0.6801901360426275,13.52969936544263,18.4322011858941,-142.90804119421617
1589986553.7807565,-0.4683663030751217,-2.624668145683121,8.250162691809946,0.4744444444444445,0.3466666666666667,-0.6877777777777778,0.19322348554877677,5.608168484624391,-130.75739893387563
1589986553.7907565,-0.5381405806248029,-3.0271883875039447,9.70301593562638,0.4744444444444445,0.3466666666666667,-0.6877777777777778,2.54436533606816,6.365651625118334,-119.18323505048912
1589986553.8007565,-0.49737974510072636,-3.124759490201453,9.491510209675209,0.4744444444444445,0.3466666666666667,-0.6877777777777778,6.290804440180896,9.869912292723036,-104.11389954775936
1589986553.8107564,-0.4,-2.902579907820287,8.683144976955072,0.4744444444444445,0.3466666666666667,-0.6877777777777778,0.8287403511072807,5.417959821261288,-92.98280529845992
1589986553.8207564,-0.4,-2.7768467793307603,8.65171169483269,0.4744444444444445,0.3466666666666667,-0.6877777777777778,-1.6760993180200097,3.8954102184584256,-83.15990463521565
1589986553.8307564,-0.3971824731657109,-4.147759153065725,9.352220849875017,0.4211111111111111,0.4,-0.68,2.770302161446846,5.143568960446993,-67.39522496691663
1589986553.8407564,-0.082735727043173,-23.67835437580834,8.182290242450371,0.4211111111111111,0.4,-0.68,-13.33609964894993,0.4563419966742628,-18.977711656504688
1589986553.8507564,-0.024244411090923453,1.216413882086526,5.691367669905469,0.4211111111111111,0.4,-0.68,-18.29681451931432,-13.995260289122363,28.779926007846854
1589986553.8607564,-0.3997024891180324,0.48967628787558637,14.356841905083886,0.4211111111111111,0.4,-0.68,33.8459646917128,3.009130816041922,36.468558509064785
1589986553.8707564,-1.483458827893175,0.4640207715133532,8.340512796735904,0.4211111111111111,0.4007164935707221,-0.6795462207385428,29.728417099406528,22.162343518175074,38.8589403282641
1589986553.8807564,-0.1610719584569733,-2.647477744807121,10.168518175074183,0.4211111111111111,0.4266456478733927,-0.6631244230135179,-14.027030786350153,-5.889760293026704,33.75413807492582
1589986553.8907564,2.2721435707149995,-7.477622377622377,10.417004424147281,0.4211111111111111,0.43333333333333335,-0.6588888888888889,-20.93885578707007,-15.391198087626659,7.075148066219494
1589986553.9007564,0.7307817182817185,-5.277814685314685,9.848346653346654,0.4211111111111111,0.43333333333333335,-0.6588888888888889,5.342860264735261,5.419057504995003,-22.526855956543457
1589986553.9107563,0.09837975308641975,-1.9791813991769547,6.531655473251028,0.4211111111111111,0.43333333333333335,-0.6588888888888889,16.65276234567901,10.956444444444445,-35.90080555555556
1589986553.9207563,-0.12945876543209878,-3.2702663374485597,9.065495967078188,0.4211111111111111,0.43333333333333335,-0.6588888888888889,-3.4125617283950618,1.6357777777777773,-34.73572222222222
1589986553.9307563,-0.5149213441739411,-7.063648110187254,9.359499274477738,0.4222222222222222,0.4266666666666667,-0.6877777777777778,-7.828370799456434,-3.6539028491144023,-32.72876407858673
1589986553.9407563,-2.930356673739517,-10.369903506112962,8.262052642214814,0.4222222222222222,0.4266666666666667,-0.6877777777777778,2.259889360412246,1.6261777558856219,-6.776242169344245
1589986553.9507563,0.378584877771461,-3.40305264354747,8.09643888573053,0.4222222222222222,0.4266666666666667,-0.6877777777777778,7.606615974985788,3.250694997157476,7.616452529846503
1589986553.9607563,-0.5780789882088514,-4.4879473411941,8.676882570149308,0.4222222222222222,0.4266666666666667,-0.6877777777777778,-2.2411499491607056,-0.26598539039226526,-4.552277511193564
1589986553.9707563,0.005512228188158885,-4.877008152125439,8.976160117019568,0.4222222222222222,0.4266666666666667,-0.6877777777777778,-3.6907755668135356,-2.9314260422055334,-1.9335989760787737
1589986553.9807563,0.028875515435194468,-4.3348668226902936,8.561956982057282,0.41609346558193105,0.4327954233069579,-0.6744988050571468,0.36673910620751116,0.4070823581856682,0.5210840855901038
1589986553.9907563,0.12469491607566922,-4.402957625886496,8.84663559554773,0.4155555555555556,0.43333333333333335,-0.6733333333333333,0.3351430106137219,0.046557204245488766,0.07047139787725562
1589986554.0007563,0.04338508263194457,-4.524922376052083,8.616257734123844,0.4155555555555556,0.43333333333333335,-0.6733333333333333,0.12339865268735561,-0.03814053892505774,0.11282026946252888
1589986554.0107563,0.030116506403862264,-4.180990304432829,8.620466025615448,0.4155555555555556,0.43333333333333335,-0.6733333333333333,0.8680824322706779,0.43385917487930414,-0.00036408251206958465
1589986554.0207562,0.04685153413398237,-4.3232380401388495,8.687406136535929,0.4155555555555556,0.43333333333333335,-0.6733333333333333,-0.12555983920520286,-0.08911044168694893,-0.05266104416869489
1589986554.0307562,0.07133854255138442,-4.306692712756922,8.891299473416002,0.4222222222222222,0.4266666666666667,-0.7022222222222222,-0.5729573636826907,-0.2541829454730763,0.06040852726346187
1589986554.0407562,0.10797669964889882,-4.49325566549633,8.639325566549633,0.4222222222222222,0.4266666666666667,-0.7022222222222222,-0.841278327481647,-0.3623543728056176,-0.002107604532397064
1589986554.0507562,0.06781423555697413,-4.359380785189914,8.625938078518992,0.4222222222222222,0.4266666666666667,-0.7022222222222222,-0.17190392594956905,-0.1113389722310884,-0.043943504628151935
1589986554.0607562,0.08832662780195417,-4.395816569504886,8.639163313900978,0.4222222222222222,0.4266666666666667,-0.7022222222222222,0.3046560678216602,-0.11977071188110683,0.11715606782166024
1589986554.0707562,0.0711803298792078,-4.318448096143234,8.740371573977558,0.4222222222222222,0.4266666666666667,-0.7022222222222222,0.2732923539150163,-0.007377061745048735,0.125
1589986554.0807562,0.08834793793713322,-4.390478736232816,8.750391108610017,0.39859894060794454,0.4313913229895222,-0.7022222222222222,0.07282538789291743,-0.026087306053541287,0.08070634697322936
1589986554.0907562,0.08585395686386432,-4.4046348921596605,8.687561870591592,0.3888888888888889,0.43333333333333335,-0.7022222222222222,-0.04420638480042402,0.02591276960084804,-0.07011915440127206
1589986554.1007562,0.07047042196648497,-4.40717746820109,8.643292953765394,0.3888888888888889,0.43333333333333335,-0.7022222222222222,0.13970068645265496,0.05073945083787604,0.127940137290531
1589986554.1107562,0.07752725620835857,-4.364836462749849,8.69269079345851,0.3888888888888889,0.43333333333333335,-0.7022222222222222,0.36022675651120534,-0.12568140520896426,0.17204535130224108
1589986554.1207561,0.07252510288065844,-4.342525102880658,8.71,0.3888888888888889,0.43333333333333335,-0.7022222222222222,0.29734567901234565,-0.14078189300411523,0.09406378600823045
1589986554.1307561,0.07695967347632916,-4.374798367381645,8.737838693905317,0.3989417505769199,0.4286935510157806,-0.6921693605341912,-0.05448571458940071,-0.125,0.019002040772942756
1589986554.1407561,0.08037751474509171,-4.343397632705825,8.726602367294175,0.4033333333333333,0.4266666666666667,-0.6877777777777778,-0.5577810656863538,-0.0023594671568231396,-0.18042159852953057
1589986554.1507561,0.08884947887210148,-4.419645309848913,8.650354690151087,0.4033333333333333,0.4266666666666667,-0.6877777777777778,-0.4518815140987315,-0.05530924295063424,-0.02157227114809729
1589986554.160756,0.08049234078270906,-4.344431067044382,8.72556893295562,0.4033333333333333,0.4266666666666667,-0.6877777777777778,0.03788296086454729,-0.1219228701080684,0.05942287010806841
1589986554.170756,0.0721263215815745,-4.395115748928979,8.722126321581575,0.4033333333333333,0.4266666666666667,-0.6877777777777778,0.30855245057579683,-0.026579019769681245,0.013289509884840622
1589986554.180756,0.07866163865078482,-4.332045252142937,8.745984915952354,0.4033333333333333,0.43244109243385653,-0.6810409477160563,0.4291352415674051,0.10827048313481019,0.1624057247022153
1589986554.190756,0.0899299390309124,-4.35971975612365,8.819509573216386,0.4033333333333333,0.43333333333333335,-0.68,0.0030651673975826688,0.0008757621135950383,0.0013136431703925644
1589986554.200756,0.06241769513284585,-4.353104423783211,8.682088475664228,0.4033333333333333,0.43333333333333335,-0.68,0.0,0.0,0.0
1589986554.210756,0.09538121157536125,-4.395381211575361,8.674457453890433,0.4033333333333333,0.43333333333333335,-0.68,0.17017954340760466,-0.056726514469201544,0.056726514469201544
1589986554.220756,0.09405788399183379,-4.376231535967335,8.703768464032665,0.4033333333333333,0.43333333333333335,-0.68,0.26177645010207756,-0.025361774948961212,0.025361774948961212
1589986554.230756,0.09,-4.395080578755441,8.743387052503627,0.4065815350699482,0.4261872895127806,-0.6884453245151987,0.2028731913892483,-0.03654226953691723,0.03654226953691723
1589986554.240756,0.07270385082202362,-4.350815403288094,8.751351925411011,0.4088888888888889,0.4211111111111111,-0.6944444444444444,-0.2533532632682335,0.15370186472470485,0.1165504661811762
1589986554.250756,0.096313845279534,-4.366313845279534,8.635973337122019,0.4088888888888889,0.4211111111111111,-0.6944444444444444,-0.5317820439961166,0.0778589780019417,0.07017948900097085
1589986554.260756,0.0866598914759632,-4.41002032557211,8.633340108524036,0.4088888888888889,0.4211111111111111,-0.6944444444444444,-0.43743648258715495,0.020812160862384993,0.020812160862384993
1589986554.270756,0.08,-4.409173801747727,8.69553652867273,0.4088888888888889,0.4211111111111111,-0.6944444444444444,-0.07128460882101983,-0.0433879130255686,0.0433879130255686
1589986554.280756,0.09260638510408759,-4.4,8.764122347864307,0.40538711524886456,0.42881501311916465,-0.6902423160764153,0.22007981380109481,0.016289906900547407,0.0625
1589986554.290756,0.09175292917209106,-4.350517575032546,8.773505858344182,0.4033333333333333,0.43333333333333335,-0.6877777777777778,0.3125,0.16558838534886175,-0.09213257802329264
1589986554.300756,0.0971137671536078,-4.361341301460824,8.698862328463921,0.4033333333333333,0.43333333333333335,-0.6877777777777778,0.09019477644975651,-0.12372731297034084,-0.08053895528995131
1589986554.310756,0.10887348524762909,-4.37,8.696620455742886,0.4033333333333333,0.43333333333333335,-0.6877777777777778,0.055459282797681766,-0.028162868809272934,-0.0070407172023182335
1589986554.320756,0.0945646512000641,-4.393153023199904,8.723153023199904,0.4033333333333333,0.43333333333333335,-0.6877777777777778,0.15897092999959933,-0.04823546499979966,-0.04823546499979966
1589986554.330756,0.09865148812052218,-4.365394047517912,8.747302976241045,0.4033333333333333,0.43333333333333335,-0.7002743717296431,0.13342819924673632,-0.0625,0.09971540225979103
1589986554.340756,0.08251827820485695,-4.377481721795143,8.758740860897571,0.4033333333333333,0.43333333333333335,-0.7022222222222222,0.01573923878035592,-0.0625,0.07036961939017797
1589986554.350756,0.07073136748239348,-4.370731367482394,8.620970512235901,0.4033333333333333,0.43333333333333335,-0.7022222222222222,-0.23171581294016316,-0.0625,0.0625
1589986554.360756,0.08820962327489743,-4.388209623274897,8.68283849309959,0.4033333333333333,0.43333333333333335,-0.7022222222222222,-0.3638101454681089,-0.0625,0.0625
1589986554.370756,0.09533028369984892,-4.395330283699849,8.69,0.4033333333333333,0.43333333333333335,-0.7022222222222222,-0.24174290750377708,-0.1624428193721672,0.1624428193721672
1589986554.380756,0.09345737974248272,-4.3934573797424825,8.719441791158827,0.40515072784931033,0.4293350653981839,-0.7065839690605671,-0.04321724678103388,-0.20910862339051695,0.1682172467810339
1589986554.390756,0.055573551064114574,-4.371857850354705,8.755573551064115,0.4088888888888889,0.4211111111111111,-0.7155555555555555,0.1758884352830946,0.12944217641547318,0.05088843528309463
1589986554.400756,0.0662025823686554,-4.353797417631345,8.701392252894033,0.4088888888888889,0.4211111111111111,-0.7155555555555555,0.1875,0.08623386019590383,0.0625
1589986554.4107559,0.07571501872851352,-4.372860074914054,8.69,0.4088888888888889,0.4211111111111111,-0.7155555555555555,0.08034339884037149,0.09821886705320951,-0.008937734106419001
1589986554.4207559,0.08,-4.375103192802963,8.71482801199506,0.4088888888888889,0.4211111111111111,-0.7155555555555555,-0.03103501499382607,0.125,-0.09353501499382608
1589986554.4307559,0.07001910200470512,-4.37996179599059,8.744990448997648,0.4061164172235292,0.42721054877490244,-0.7050201632271887,0.031070918705889447,0.125,-0.06261938752940704
1589986554.4407558,0.08060458175365007,-4.365659030410583,8.77060458175365,0.4033333333333333,0.43333333333333335,-0.6944444444444444,0.08207378801322901,0.039147576026458006,0.042926211986771
1589986554.4507558,0.0764812910371015,-4.370278063444347,8.685369037259711,0.4033333333333333,0.43333333333333335,-0.6944444444444444,-0.10648386203623134,-0.08449193101811567,0.10474596550905783
1589986554.4607558,0.07,-4.363032697095436,8.68241825726141,0.4033333333333333,0.43333333333333335,-0.6944444444444444,-0.2405228215767635,0.08709128630705396,0.0719771784232365
1589986554.4707558,0.07665307866208591,-4.39326539331043,8.69,0.4033333333333333,0.43333333333333335,-0.6944444444444444,-0.2915817416380369,0.125,-0.02066348327607384
1589986554.4807558,0.08,-4.378856739115807,8.744500706547338,0.3868966123111201,0.42814278985263443,-0.6892539009637455,-0.06919327434223807,-0.020984035394657152,-0.013838654868447611
1589986554.4907558,0.0962984813218722,-4.378149240660936,8.743701518678128,0.38222222222222224,0.4266666666666667,-0.6877777777777778,0.2037310165234024,0.039365508261701196,0.0509327541308506
1589986554.5007558,0.0848305786048176,-4.38,8.664152893024088,0.38222222222222224,0.4266666666666667,-0.6877777777777778,0.25,0.015095558140055025,0.0625
1589986554.5107558,0.06444394495641967,-4.37222197247821,8.68666816513074,0.38222222222222224,0.4266666666666667,-0.6877777777777778,0.10416198396643442,-0.04861267201118853,0.013887327988811468
1589986554.5207558,0.08018723560225416,-4.375046808900564,8.73028085340338,0.38222222222222224,0.4266666666666667,-0.6877777777777778,-0.0005851112570442324,0.06367022251408846,0.031542555628522116
1589986554.5307558,0.1,-4.372206195705622,8.752206195705622,0.3848201569870149,0.4266666666666667,-0.6847468538855197,0.010566915259793488,0.16314436158006884,0.0625
1589986554.5407557,0.09232129676943167,-4.36,8.77839351615284,0.3888888888888889,0.4266666666666667,-0.68,0.125,0.029016209617895874,0.014508104808947937
1589986554.5507557,0.09,-4.367139142017464,8.704330295790431,0.3888888888888889,0.4266666666666667,-0.68,-0.05347855043660274,0.08923927521830137,0.0
1589986554.5607557,0.09,-4.37,8.706431090120317,0.3888888888888889,0.4266666666666667,-0.68,-0.16294905220866368,-0.06474526104331843,0.07589810441732738
1589986554.5707557,0.08427884615384615,-4.364278846153846,8.73,0.3888888888888889,0.4266666666666667,-0.68,-0.2590144230769231,-0.08022836538461539,0.05348557692307693
1589986554.5807557,0.08,-4.37878359592215,8.73,0.39567185408299865,0.4266666666666667,-0.6878264983008959,-0.19510252548656162,0.08804810588507878,0.0
1589986554.5907557,0.09167190902492137,-4.388328090975079,8.712492136462618,0.4033333333333333,0.4266666666666667,-0.6966666666666667,-0.0625,0.1875,0.036474715702879267
1589986554.6007557,0.09412574549913606,-4.38,8.67062872749568,0.4033333333333333,0.4266666666666667,-0.6966666666666667,0.12107045315199821,0.11407181873920072,0.02578590936960036
1589986554.6107557,0.06765032272675801,-4.365100215151172,8.694699354546485,0.4033333333333333,0.4266666666666667,-0.6966666666666667,0.25,0.0625,-0.04656182765258748
1589986554.6207557,0.06597960744328321,-4.348040785113434,8.72793882232985,0.4033333333333333,0.4266666666666667,-0.6966666666666667,0.06313726739739997,0.0625,0.049617639561560026
1589986554.6307557,0.055979911056586416,-4.354020088943414,8.747010044471708,0.3978810765220059,0.42277219751571843,-0.6849832592138221,-0.01868722205183254,-0.025125555896334917,0.125
1589986554.6407557,0.0675364229340364,-4.354154525688655,8.738309051377309,0.3955555555555556,0.4211111111111111,-0.68,-0.03653421444590916,0.010568428891818318,0.015397356662272516
1589986554.6507556,0.08653311649911295,-4.376132465996451,8.684268184506209,0.3955555555555556,0.4211111111111111,-0.68,0.059995934358367836,-0.019163956238911886,-0.0625
1589986554.6607556,0.07771925854688767,-4.365438517093775,8.70912296581245,0.3955555555555556,0.4211111111111111,-0.68,-0.028509268163904145,0.014254634081952072,-0.024122682959023964
1589986554.6707556,0.07977447031246444,-4.369548940624928,8.735112764843768,0.3955555555555556,0.4211111111111111,-0.68,-0.15554521972645138,0.0625,0.030545219726451377
1589986554.6807556,0.0872191207755679,-4.392780879224432,8.732780879224432,0.39370163607260084,0.4189482050476639,-0.6762921610340905,-0.15273900969459872,0.04511950484729936,0.09726099030540128
1589986554.6907556,0.08123060009423322,-4.398769399905767,8.738769399905767,0.38970928895171103,0.4142904667399591,-0.6683074667923109,-0.07788250117791516,0.007691250588957581,0.17211749882208482
1589986554.7007556,0.07251936157316992,-4.37755808471951,8.665193615731699,0.3888888888888889,0.4133333333333333,-0.6666666666666666,0.03100798033537612,0.0,0.04723802949693584
1589986554.7107556,0.07735649800043105,-4.377356498000431,8.676782490002156,0.3888888888888889,0.4133333333333333,-0.6666666666666666,0.24641245001077614,0.0,0.0
1589986554.7207556,0.09236728895291835,-4.355265422094163,8.727101866858755,0.3888888888888889,0.4133333333333333,-0.6666666666666666,0.23520444404426036,0.03864777797786982,0.0
1589986554.7307556,0.1,-4.353282611220815,8.769923916831223,0.3984818858817,0.4184987932525393,-0.6991352718731043,0.06297551980485538,-0.02051632013009641,-0.041508160065048205
1589986554.7407556,0.08164753504108266,-4.36,8.743295070082166,0.4033333333333333,0.4211111111111111,-0.7155555555555555,-0.03823430199774448,-0.0625,-0.024265698002255517
1589986554.7507555,0.09186448853587163,-4.396440814226453,8.676271022928256,0.4033333333333333,0.4211111111111111,-0.7155555555555555,-0.01694898221693411,-0.01694898221693411,0.0
1589986554.7607555,0.09296747114375656,-4.3889024134312695,8.68109758656873,0.4033333333333333,0.4211111111111111,-0.7155555555555555,0.08790661070304302,-0.08790661070304302,-0.04395330535152151
1589986554.7707555,0.08451682246676921,-4.38,8.722899065199384,0.4033333333333333,0.4211111111111111,-0.7155555555555555,0.05646028083461524,-0.09073014041730762,0.07457943833076952
1589986554.7807555,0.08651162790697674,-4.386511627906977,8.763023255813954,0.4033333333333333,0.4290697674418605,-0.6924031007751938,-0.040697674418604654,0.018895348837209308,0.024709302325581384
1589986554.7907555,0.08477541682439883,-4.384775416824398,8.7647754168244,0.4033333333333333,0.43333333333333335,-0.68,-0.09515364484750728,0.0625,-0.0625
1589986554.8007555,0.08,-4.384518733398574,8.710293932615686,0.4033333333333333,0.43333333333333335,-0.68,-0.125,0.03425791625891235,0.022226251223262966
1589986554.8107555,0.08,-4.380212631147388,8.684255790984142,0.4033333333333333,0.43333333333333335,-0.68,0.05851316598647063,0.03058552766441177,0.09441447233558822
1589986554.8207555,0.0878664935626961,-4.37,8.723933246781348,0.4033333333333333,0.43333333333333335,-0.68,0.2008344152331494,0.0870827923834253,0.0379172076165747
1589986554.8307555,0.09552423331880634,-4.361048466637612,8.734475766681195,0.41178755928669913,0.4278629518340966,-0.6834811518631507,0.20892062527238112,0.06905291648507925,-0.027973541757460377
1589986554.8407555,0.09597390868038133,-4.361947817360763,8.710130456598094,0.4222222222222222,0.4211111111111111,-0.6877777777777778,0.051141495233316625,0.03733692925238334,-0.02516307074761666
1589986554.8507555,0.08593538374717834,-4.37703230812641,8.654838459367946,0.4222222222222222,0.4211111111111111,-0.6877777777777778,-0.125,0.0625,0.043951925790067715
1589986554.8607554,0.08611397235138347,-4.392227944702767,8.676683834108301,0.4222222222222222,0.4211111111111111,-0.6877777777777778,-0.048575345607706585,0.024287672803853293,-0.013924654392293415
1589986554.8707554,0.08002610519108144,-4.390026105191081,8.714960842213378,0.4222222222222222,0.4211111111111111,-0.6877777777777778,0.0,0.0311684212778705,-0.0001631574442590017
1589986554.8807554,0.07560296565289756,-4.374397034347102,8.746808896958692,0.41163884265563794,0.4242238698071653,-0.6877777777777778,-0.03501853533060977,-0.04255560599182932,0.16755560599182934
1589986554.8907554,0.08657228482378326,-4.37,8.74028314552865,0.4033333333333333,0.4266666666666667,-0.6877777777777778,-0.10357678014864541,-0.08392321985135459,0.12676965955406377
1589986554.9007554,0.09,-4.376215098241985,8.692709410548087,0.4033333333333333,0.4266666666666667,-0.6877777777777778,-0.125,0.054033092037228544,0.0625
1589986554.9107554,0.09,-4.374867428501339,8.685397714495982,0.4033333333333333,0.4266666666666667,-0.6877777777777778,-0.060842856266737536,0.15707857186663124,0.030421428133368768
1589986554.9207554,0.08366355662717964,-4.37,8.71267288674564,0.4033333333333333,0.4266666666666667,-0.6877777777777778,0.09900692770031799,0.1280958433798092,0.019801385540063596
1589986554.9307554,0.07,-4.37,8.74312010539413,0.4039111306285426,0.42863117747037827,-0.6884711345320289,0.2994995608577911,0.0,0.06900021957110444
1589986554.9407554,0.06632240805493533,-4.37,8.773677591945065,0.4088888888888889,0.4455555555555555,-0.6944444444444444,0.16451505034334582,0.09193979862661668,0.07903010068669167
1589986554.9507554,0.07684388900656641,-4.365789027748359,8.721046388477017,0.4088888888888889,0.4455555555555555,-0.6944444444444444,0.07236284685447998,0.17104427028171998,0.05263715314552002
1589986554.9607553,0.07786778721192168,-4.368852885115231,8.662132212788078,0.4088888888888889,0.4455555555555555,-0.6944444444444444,0.0,0.0348347340149021,0.0696694680298042
1589986554.9707553,0.0642944857025905,-4.374282205718964,8.698576691421554,0.4088888888888889,0.4455555555555555,-0.6944444444444444,0.017868107128238116,-0.017868107128238116,0.0
1589986554.9807553,0.1,-4.363806657685455,8.72761331537091,0.4114266606791921,0.44090297393999967,-0.6919066726541413,0.01491677893181522,0.008874831602277172,0.0
1589986554.9907553,0.08560565492128093,-4.3795962300524796,8.73520188497376,0.4155555555555556,0.43333333333333335,-0.6877777777777778,-0.0625,0.06502356217200386,0.029988218913998072
1589986555.0007553,0.07,-4.384079937710874,8.688559563976122,0.4155555555555556,0.43333333333333335,-0.6877777777777778,-0.025499610692966523,0.07400077861406695,0.0625
1589986555.0107553,0.07604985844605222,-4.386049858446052,8.672099716892104,0.4155555555555556,0.43333333333333335,-0.6877777777777778,0.03781161528782636,0.125,-0.01312323057565272
1589986555.0207553,0.08,-4.385498718657353,8.70250640671323,0.4155555555555556,0.43333333333333335,-0.6877777777777778,0.11876601678307623,0.09686699160846188,-0.0625
1589986555.0307553,0.07083866644329033,-4.3769462221477635,8.742215111408946,0.4094479998510825,0.4370657284860669,-0.6921887902310084,0.1875,0.024327776847043056,-0.04341388842352153
1589986555.0407553,0.07079811746249633,-4.380399058731248,8.780399058731248,0.3955555555555556,0.4455555555555555,-0.7022222222222222,0.1550029414648495,0.03499117560545151,-0.0324970585351505
1589986555.0507553,0.0788783326701154,-4.373317499005173,8.734391663350577,0.3955555555555556,0.4455555555555555,-0.7022222222222222,0.15975521040588936,0.02073436878233187,0.007010420811778745
1589986555.0607553,0.08415379192856724,-4.364717930642856,8.699435861285712,0.3955555555555556,0.4455555555555555,-0.7022222222222222,0.1285258669643032,0.0259611995535452,0.0035258669643032023
1589986555.0707552,0.09760032064128257,-4.374799358717435,8.71,0.3955555555555556,0.4455555555555555,-0.7022222222222222,0.01750601202404809,0.09500400801603207,-0.01750601202404809
1589986555.0807552,0.09087599198396794,-4.388248016032064,8.71,0.3955555555555556,0.4455555555555555,-0.7022222222222222,-0.10857515030060122,0.010949899799599205,0.10857515030060122
1589986555.0907552,0.07,-4.3831028471818705,8.740803796242496,0.38222222222222224,0.4133333333333333,-0.6733333333333333,-0.08189279488669378,-0.03376186325779586,0.04813093162889793
1589986555.1007552,0.07080803968018952,-4.36,8.703535682558485,0.38222222222222224,0.4133333333333333,-0.6733333333333333,0.05239950399763103,0.0625,0.005050248001184483
1589986555.1107552,0.07699666491135686,-4.36,8.645016675443216,0.38222222222222224,0.4133333333333333,-0.6733333333333333,-0.10004168860803932,0.0625,0.0625
1589986555.1207552,0.07066246859396369,-4.362649874375855,8.682649874375855,0.38222222222222224,0.4133333333333333,-0.6733333333333333,-0.179219142575454,0.070780857424546,0.058359571287727
1589986555.1307552,0.0825529540658984,-4.392341137802305,8.730211816263594,0.38562616097675345,0.41985754927951807,-0.6787229030280078,0.017279814559324785,0.15558807417627007,0.015955962911864956
1589986555.1407552,0.08796186770428015,-4.37,8.76,0.3955555555555556,0.4388888888888889,-0.6944444444444444,0.26273832684824905,0.04976167315175097,0.0625
1589986555.1507552,0.08774076142772202,-4.37,8.725166573575251,0.3955555555555556,0.4388888888888889,-0.6944444444444444,0.19155060269184337,0.02418987946163132,0.0625
1589986555.1607552,0.1,-4.375616559741963,8.681233119483926,0.3955555555555556,0.4388888888888889,-0.6944444444444444,0.017551749193634142,0.04494825080636586,0.0625
1589986555.1707551,0.09272033485182135,-4.39,8.720919497722269,0.3955555555555556,0.4388888888888889,-0.6944444444444444,0.01700209282388341,-0.022748953588058295,0.0625
1589986555.1807551,0.08502282918874847,-4.38832572360375,8.74167427639625,0.3968577705304163,0.43795873533541696,-0.6944444444444444,-0.05203577252344069,-0.031107317570322056,0.0625
1589986555.1907551,0.10185758338220549,-4.38,8.741857583382206,0.4033333333333333,0.43333333333333335,-0.6944444444444444,0.025445051930607848,0.09955494806939215,0.0625
1589986555.2007551,0.0863733369814289,-4.38,8.704613358870002,0.4033333333333333,0.43333333333333335,-0.6944444444444444,0.039833356133930714,0.0625,0.08516664386606929
1589986555.210755,0.08572931517624502,-4.38,8.688646575881226,0.4033333333333333,0.43333333333333335,-0.6944444444444444,0.0,-0.04492465955459417,0.017575340445405832
1589986555.220755,0.08543352601156069,-4.384566473988439,8.71456647398844,0.4033333333333333,0.43333333333333335,-0.6944444444444444,-0.028540462427745664,-0.125,0.023121387283236997
1589986555.230755,0.08,-4.387499508125762,8.730001967496952,0.3997215117372124,0.43333333333333335,-0.6927774498616194,-0.04687192578601503,-0.09374385157203007,0.09374385157203007
1589986555.240755,0.07904932289725432,-4.380950677102746,8.756197291589016,0.3888888888888889,0.43333333333333335,-0.6877777777777778,0.0,0.005941731892160517,0.011883463784321034
1589986555.250755,0.07,-4.385793641728536,8.701071387778413,0.3888888888888889,0.43333333333333335,-0.6877777777777778,0.0394346087949743,0.08878973919664954,0.08556539120502571
1589986555.260755,0.08089965042155048,-4.37,8.673598601686203,0.3888888888888889,0.43333333333333335,-0.6877777777777778,0.22156140756734527,0.15343859243265473,-0.0625
1589986555.270755,0.08568558003773181,-4.378628839924536,8.722943259886804,0.3888888888888889,0.43333333333333335,-0.6877777777777778,0.11517437617911935,0.07106975047164774,-0.008569750471647743
1589986555.280755,0.08348690405608063,-4.386513095943919,8.750460712168241,0.39392552808100534,0.43333333333333335,-0.6877777777777778,-0.0625,0.04358630070100791,0.08429315035050396
1589986555.290755,0.08526351145038168,-4.384736488549618,8.765263511450382,0.4033333333333333,0.43333333333333335,-0.6877777777777778,-0.032896946564885496,0.06579389312977099,0.03619083969465649
1589986555.300755,0.08,-4.3871117694586586,8.728229464045246,0.4033333333333333,0.43333333333333335,-0.6877777777777778,0.01805144088338271,0.01805144088338271,-0.04444855911661729
1589986555.310755,0.08,-4.379192611041926,8.652422166874222,0.4033333333333333,0.43333333333333335,-0.6877777777777778,0.0625,0.05745381901203819,-0.010092361975923619
1589986555.320755,0.08314783712928069,-4.3794435113878425,8.705182697034246,0.4033333333333333,0.43333333333333335,-0.6877777777777778,0.04282601794199574,0.0,-0.06597805382598722
1589986555.330755,0.08369179889264614,-4.403154100553677,8.756845899446322,0.4033333333333333,0.43123059963088206,-0.6853245884582513,-0.019713128460480844,0.0,0.0625
