time,acc_x,acc_y,acc_z,mag_x,mag_y,mag_z,gyr_x,gyr_y,gyr_z
1589986753.0555348,-3.68,-0.62,9.03,0.2911111111111111,-0.3855555555555555,-0.6411111111111111,-0.3125,-0.375,0.0625
1589986753.0655348,-3.6601523719389566,-0.6001523719389565,9.08954288418313,0.2911111111111111,-0.3855555555555555,-0.6411111111111111,-0.6846430261445641,-0.1269046492369573,-0.06154767538152135
1589986753.0755348,-3.676173544726821,-0.6080867723634102,9.06573968290977,0.2911111111111111,-0.3855555555555555,-0.6411111111111111,-0.6369576727286858,-0.023915345457371576,0.038584654542628424
1589986753.0855348,-3.670038176231416,-0.5900763524628324,9.06,0.27118746357394363,-0.373379993171731,-0.6267218101120458,-0.37595440578540607,0.06226139855364848,0.0625
1589986753.0955348,-3.6784026522001207,-0.606805304400241,9.026389391199517,0.27111111111111114,-0.37333333333333335,-0.6266666666666667,-0.2174502712477396,0.0625,0.1675331525015069
1589986753.1055348,-3.695967776029312,-0.5940322239706883,8.980080559926721,0.27111111111111114,-0.37333333333333335,-0.6266666666666667,-0.13760069990840124,0.1622986001831975,0.0877013998168025
1589986753.1155348,-3.69,-0.6093675867723422,9.031264826455315,0.27111111111111114,-0.37333333333333335,-0.6266666666666667,0.125,-0.05986494488475904,0.125
1589986753.1255348,-3.69,-0.5864416507242416,9.077116698551517,0.27111111111111114,-0.37333333333333335,-0.6266666666666667,0.125,0.03565978864899336,0.125
1589986753.1355348,-3.6700585064889015,-0.59,9.099970746755549,0.2855555555555556,-0.3855555555555555,-0.6411111111111111,0.24963433444436564,0.0005484983334515282,0.06286566555563436
1589986753.1455348,-3.6849308559676617,-0.59,9.092534572016168,0.2855555555555556,-0.3855555555555555,-0.6411111111111111,0.15668215020211335,0.13997677469683,0.15581784979788665
1589986753.1555347,-3.6701011955191563,-0.5998988044808434,9.010151793278734,0.2855555555555556,-0.3855555555555555,-0.6411111111111111,-0.12689741598418525,0.4375,-0.12436752800527158
1589986753.1655347,-3.6898427939376823,-0.5801572060623176,9.039764190906523,0.2855555555555556,-0.3855555555555555,-0.6411111111111111,-0.4970523863315448,0.4375,-0.0009825378894850745
1589986753.1755347,-3.69,-0.6025633100157258,9.062563310015726,0.2855555555555556,-0.3855555555555555,-0.6411111111111111,-0.35897931240171355,0.6725344793304774,0.0
1589986753.1855347,-3.7082901386549176,-0.6039032871150274,9.076096712884972,0.28149108029890724,-0.3855555555555555,-0.6411111111111111,-0.35060445553107855,0.7881044555310786,0.03810445553107857
1589986753.1955347,-3.7103722824990926,-0.63851087000363,9.089627717500907,0.2788888888888889,-0.3855555555555555,-0.6411111111111111,-0.13430706247731217,0.5718070624773122,-0.05784646876134392
1589986753.2055347,-3.7019674153562967,-0.6078696614251865,8.985576399631857,0.2788888888888889,-0.3855555555555555,-0.6411111111111111,0.1260182701157303,0.46209269195370783,-0.11270365402314607
1589986753.2155347,-3.7,-0.6095206256342904,9.017123753805743,0.2788888888888889,-0.3855555555555555,-0.6411111111111111,0.1875,0.13998044892842215,0.11301564085726226
1589986753.2255347,-3.692372407011705,-0.5794896280468202,9.08102074390636,0.2788888888888889,-0.3855555555555555,-0.6411111111111111,0.2828449123536865,-0.11336228088421607,-0.06568982470737289
1589986753.2355347,-3.671829027073804,-0.57,9.109085486463098,0.27182239941759045,-0.3855555555555555,-0.6360636186316122,0.42606858078872545,-0.47142145197181357,-0.011431419211274566
1589986753.2455347,-3.685151774262505,-0.6003035485250107,9.07969645147499,0.27111111111111114,-0.3855555555555555,-0.6355555555555555,0.3901507054296708,-0.5,0.0
1589986753.2555346,-3.681337997119426,-0.6013379971194263,9.009365979835984,0.27111111111111114,-0.3855555555555555,-0.6355555555555555,0.375,-0.5,-0.05413751800358602
1589986753.2655346,-3.6704128099279507,-0.6,9.038348760288198,0.27111111111111114,-0.3855555555555555,-0.6355555555555555,0.07540031024845517,-0.3202401861490731,-0.002580062049691037
1589986753.2755346,-3.6815841171824513,-0.5942079414087743,9.068960292956127,0.27111111111111114,-0.3855555555555555,-0.6355555555555555,0.026299633804839524,-0.24009926760967903,0.0
1589986753.2855346,-3.69,-0.595333980336723,9.106001941010168,0.2853350586757059,-0.38911154244670426,-0.6355555555555555,-0.10001213131355755,-0.15416262289548083,0.0
1589986753.2955346,-3.684318850710029,-0.5943188507100287,9.102956552130086,0.2977777777777777,-0.3922222222222223,-0.6355555555555555,-0.00996408468839674,-0.16050718306232065,0.03550718306232065
1589986753.3055346,-3.692878565948246,-0.5771214340517542,9.012728604310526,0.2977777777777777,-0.3922222222222223,-0.6355555555555555,0.125,-0.1875,-0.017991037176536245
1589986753.3155346,-3.6871824699585987,-0.5828175300414016,8.995635060082803,0.2977777777777777,-0.3922222222222223,-0.6355555555555555,0.16505478137937998,-0.26760956275875997,-0.0625
1589986753.3255346,-3.6864474035331165,-0.59,9.048684421198697,0.2977777777777777,-0.3922222222222223,-0.6355555555555555,0.10690745583604633,-0.27220372791802316,0.05838881624593051
1589986753.3355346,-3.7019100609439026,-0.5840449695280487,9.087865091415853,0.2818976965192411,-0.388252201907588,-0.6302621951360433,0.0625,-0.17556211910060943,0.08778105955030471
1589986753.3455346,-3.701162443527794,-0.5888375564722058,9.073487330583383,0.27111111111111114,-0.3855555555555555,-0.6266666666666667,0.0072652720487134115,-0.1802347279512866,0.0072652720487134115
1589986753.3555346,-3.7,-0.5830233723468986,9.049070117040696,0.27111111111111114,-0.3855555555555555,-0.6266666666666667,-0.13081176849565124,-0.23110392283188375,0.0
1589986753.3655345,-3.6836856845121795,-0.5881571577439103,9.072628630975641,0.27111111111111114,-0.3855555555555555,-0.6266666666666667,-0.2384822358994399,-0.046071056402240435,-0.05098223589943989
1589986753.3755345,-3.6730838876922784,-0.6038322246154433,9.107664449230885,0.27111111111111114,-0.3855555555555555,-0.6266666666666667,-0.12032289423021938,-0.0432257019232602,-0.019274298076739797
1589986753.3855345,-3.678223428024258,-0.6017765719757421,9.111776571975742,0.28298939603503925,-0.39743384047948366,-0.6385449515905948,-0.16529285030322377,-0.011103574848388122,-0.15418927545483563
1589986753.3955345,-3.6873941500498,-0.5778175498506006,9.0582409496514,0.2855555555555556,-0.4,-0.6411111111111111,-0.1875,-0.046213437811248655,0.1359940646787406
1589986753.4055345,-3.681679856012342,-0.6032805759506328,8.965118704111076,0.2855555555555556,-0.4,-0.6411111111111111,-0.1875,-0.1665017998457275,0.041996400308544984
1589986753.4155345,-3.68,-0.5745223807181504,8.95,0.2855555555555556,-0.4,-0.6411111111111111,-0.13206621987211017,-0.1875,0.0
1589986753.4255345,-3.68,-0.5766292713233336,9.003034170586668,0.2855555555555556,-0.4,-0.6411111111111111,-0.16643294577083517,-0.10463410845832963,0.08286589154167037
1589986753.4355345,-3.693096365607349,-0.5865481828036743,9.062740914018372,0.2891934348909302,-0.4,-0.6316526248391371,-0.1875,-0.10342614252296456,0.08407385747703544
1589986753.4455345,-3.694972709814359,-0.59,9.095081870556921,0.2911111111111111,-0.4,-0.6266666666666667,-0.12465887267949192,-0.18784112732050806,0.1567616909807621
1589986753.4555345,-3.6805495759327576,-0.6041756361008633,9.081648727798273,0.2911111111111111,-0.4,-0.6266666666666667,-0.15109772563039592,-0.22046742478986803,0.16140227436960408
1589986753.4655344,-3.675171594363084,-0.6096568112738325,9.060343188726169,0.2911111111111111,-0.4,-0.6266666666666667,-0.18535507046145344,0.006434788615639675,0.0625
1589986753.4755344,-3.6943091895825124,-0.6,9.084309189582513,0.2911111111111111,-0.4,-0.6266666666666667,-0.125,0.15768918836976625,0.03268918836976624
1589986753.4855344,-3.704742691677135,-0.58948538335427,9.105257308322864,0.2911111111111111,-0.38831709261585556,-0.6243300851898378,-0.026425468946281436,0.1578581770179062,0.0
1589986753.4955344,-3.6925287749287747,-0.5874712250712251,9.0502301994302,0.2911111111111111,-0.37777777777777777,-0.6222222222222222,-0.12428062678062679,-0.18606125356125358,-0.0933903133903134
1589986753.5055344,-3.6839588077179886,-0.59,8.981670461743908,0.2911111111111111,-0.37777777777777777,-0.6222222222222222,-0.1875,-0.16147019294971665,0.02602980705028335
1589986753.5155344,-3.6935566360525844,-0.59,8.98389159013146,0.2911111111111111,-0.37777777777777777,-0.6222222222222222,-0.1451355123356744,0.06459346299297677,0.125
1589986753.5255344,-3.693426038450045,-0.5965739615499551,9.046017730849686,0.2911111111111111,-0.37777777777777777,-0.6222222222222222,-0.125,0.16608725968721985,0.08391274031278015
1589986753.5355344,-3.6825286072280425,-0.5925286072280426,9.09988557108783,0.28696033734891263,-0.37445715876801894,-0.6321840792514987,-0.07830379517526645,0.0941075903505329,0.0625
1589986753.5455344,-3.696873853268656,-0.59,9.11,0.2855555555555556,-0.37333333333333335,-0.6355555555555555,-0.11523079146454872,0.0625,-0.042961582929097436
1589986753.5555344,-3.691640184400814,-0.59,9.043121475206513,0.2855555555555556,-0.37333333333333335,-0.6355555555555555,-0.02050230501017948,-0.09424654248473074,0.04199769498982052
1589986753.5655344,-3.6815522453026386,-0.5815522453026383,9.063791018789447,0.2855555555555556,-0.37333333333333335,-0.6355555555555555,-0.10559693371702174,-0.125,0.11529846685851086
1589986753.5755343,-3.6856684218924527,-0.5970052656773576,9.104010531354715,0.2855555555555556,-0.37333333333333335,-0.6355555555555555,-0.125,-0.19585527365565664,0.08957236317217168
1589986753.5855343,-3.69,-0.5991601040254936,9.108320208050987,0.2819422568973868,-0.37995771420664276,-0.6475998844161183,-0.125,-0.18225065015933484,0.02862532507966741
1589986753.5955343,-3.680541686746988,-0.59,9.094729156626506,0.2788888888888889,-0.3855555555555555,-0.6577777777777778,-0.09544277108433735,-0.09544277108433735,0.029557228915662655
1589986753.6055343,-3.6769410557519095,-0.59,9.044471553984723,0.2788888888888889,-0.3855555555555555,-0.6577777777777778,-0.019118401550564358,0.0025723976741534593,0.0625
1589986753.6155343,-3.69,-0.5976922121089745,8.993845484762822,0.2788888888888889,-0.3855555555555555,-0.6577777777777778,0.014423674318909008,-0.019228977043272977,0.0625
1589986753.6255343,-3.683530646672915,-0.5935306466729147,9.02293870665417,0.2788888888888889,-0.3855555555555555,-0.6577777777777778,-0.040433458294283034,-0.022066541705716966,0.022066541705716966
1589986753.6355343,-3.68,-0.5989905258447951,9.06596210337918,0.28438309912737475,-0.3855555555555555,-0.637798831456011,-0.11869078652996906,-0.05619078652996907,0.028095393264984534
1589986753.6455343,-3.685320675269991,-0.61,9.099358649460017,0.2911111111111111,-0.3855555555555555,-0.6133333333333333,-0.1875,-0.058491559125112086,-0.07051688174977583
1589986753.6555343,-3.6844606020240143,-0.61,9.045684816192114,0.2911111111111111,-0.3855555555555555,-0.6133333333333333,-0.01439381325044864,-0.03462123734991027,-0.08363628795026919
1589986753.6655343,-3.68,-0.6030069409042782,9.044965295478608,0.2911111111111111,-0.3855555555555555,-0.6133333333333333,0.037586761303478294,0.11232647739304341,0.04370661934826085
1589986753.6755342,-3.674011008212476,-0.605988991787524,9.077966975362573,0.2911111111111111,-0.3855555555555555,-0.6133333333333333,0.0,0.11263760265594969,0.025068801327974843
1589986753.6855342,-3.6827479019805303,-0.6036260490097348,9.096373950990264,0.28332072656745366,-0.3855555555555555,-0.627497668867256,-0.03983719368915743,0.14217438737831486,0.0
1589986753.6955342,-3.697330916452836,-0.585338167094329,9.1,0.2788888888888889,-0.3855555555555555,-0.6355555555555555,-0.01668177216977801,0.09586354433955602,0.0
1589986753.7055342,-3.6850437374773986,-0.5874781312613009,8.995306162341787,0.2788888888888889,-0.3855555555555555,-0.6355555555555555,-0.04673832038313053,0.20271496114939158,-0.04673832038313053
1589986753.7155342,-3.68,-0.5977615237347209,8.991046094938884,0.2788888888888889,-0.3855555555555555,-0.6355555555555555,-0.25653809336802313,0.2985095233420058,0.03451904668401158
1589986753.7255342,-3.68,-0.5939367126020615,9.030316436989693,0.2788888888888889,-0.3855555555555555,-0.6355555555555555,-0.42618663871134593,0.4640821849484612,0.1003955462371153
1589986753.7355342,-3.692585859818215,-0.59,9.081464649545538,0.2739943878484719,-0.38066105451513854,-0.639051627727282,-0.5393308119319221,0.6804924357957665,0.04633837613615567
1589986753.7455342,-3.676444555734205,-0.597851814755265,9.060740926223675,0.27111111111111114,-0.37777777777777777,-0.6411111111111111,-0.4643523155591871,0.7009261577795936,0.09814768444081289
1589986753.7555342,-3.6979818659821557,-0.6069954664955389,8.99403626803569,0.27111111111111114,-0.37777777777777777,-0.6411111111111111,-0.5249433311942369,0.7312216655971184,0.08127833440288157
1589986753.7655342,-3.71,-0.5956554140627043,9.027378343749184,0.27111111111111114,-0.37777777777777777,-0.6411111111111111,-0.4280195068378527,0.6603463378919018,0.0625
1589986753.7755342,-3.691478183260611,-0.6085218167393891,9.08086969456565,0.27111111111111114,-0.37777777777777777,-0.6411111111111111,-0.375,0.5864128817929393,0.10108711820706069
1589986753.7855341,-3.68,-0.6149628641316434,9.110074271736712,0.27111111111111114,-0.3816955501198329,-0.6338352481901515,-0.3435179008227707,0.6254641983544585,0.18796419835445854
1589986753.7955341,-3.6871776022236853,-0.61,9.112822397776315,0.27111111111111114,-0.3855555555555555,-0.6266666666666667,-0.26763998610196765,0.7323600138980323,0.07055994440787067
1589986753.8055341,-3.695872482069936,-0.6158724820699358,9.057147661370577,0.27111111111111114,-0.3855555555555555,-0.6266666666666667,-0.28670301293709893,0.6765939741258021,-0.03670301293709893
1589986753.815534,-3.7,-0.6000011180679785,9.039998881932021,0.27111111111111114,-0.3855555555555555,-0.6266666666666667,-0.2291713252832439,0.5416713252832439,0.06249301207513416
1589986753.825534,-3.7,-0.5998085726175614,9.064712858926342,0.27111111111111114,-0.3855555555555555,-0.6266666666666667,-0.1568482105701207,0.4386964211402414,0.1556517894298793
1589986753.835534,-3.710826057756884,-0.607293485560779,9.085413028878442,0.2693067681516305,-0.3855555555555555,-0.6290724572793075,-0.09116856950973809,0.2904214237743452,0.17058428475486903
1589986753.845534,-3.735611368551128,-0.6,9.104388631448872,0.2644444444444444,-0.3855555555555555,-0.6355555555555555,0.19200262588816805,-0.3215052517763361,0.125
1589986753.855534,-3.7069738748971837,-0.6057565312757041,9.05243468724296,0.2644444444444444,-0.3855555555555555,-0.6355555555555555,0.5814132818926012,-1.1363048842583527,0.05304335905369942
1589986753.865534,-3.69,-0.61,9.031205862304022,0.2644444444444444,-0.3855555555555555,-0.6355555555555555,0.6875,-1.4744024795501023,0.0
1589986753.875534,-3.6937479789287018,-0.61,9.057495957857403,0.2644444444444444,-0.3855555555555555,-0.6355555555555555,0.7343497366087728,-1.5156502633912272,0.023424868304386375
1589986753.885534,-3.689263585576435,-0.5992635855764347,9.096841036058914,0.27577732633598556,-0.3855555555555555,-0.6307838158117488,0.7118461147790757,-1.3032948197054341,0.09605129507364144
1589986753.895534,-3.68,-0.570364649090234,9.08727441515039,0.2855555555555556,-0.3855555555555555,-0.6266666666666667,0.5431860378759747,-1.1465930189379874,0.08409301893798737
1589986753.905534,-3.6734250340647465,-0.586299863741014,9.043700136258986,0.2855555555555556,-0.3855555555555555,-0.6266666666666667,0.25343877742799414,-0.6729710919513225,-0.019687074190668605
1589986753.915534,-3.689919440939532,-0.5933601863534892,9.03663981364651,0.2855555555555556,-0.3855555555555555,-0.6266666666666667,0.04200232941861594,-0.3130034941279239,-0.0625
1589986753.925534,-3.694510765503497,-0.59,9.083913875972021,0.2855555555555556,-0.3855555555555555,-0.6266666666666667,-0.06861543120628345,-0.35292314680942516,-0.09680771560314172
1589986753.935534,-3.6789485406165747,-0.5955257296917126,9.12,0.28862540538428477,-0.3855555555555555,-0.6315784263926334,-0.09046418942679639,-0.33389256828038916,-0.09046418942679639
1589986753.945534,-3.698040576053821,-0.5929898559865447,9.105979711973088,0.2911111111111111,-0.3855555555555555,-0.6355555555555555,0.06894020025228634,-0.20618659991590454,-0.1501268001681909
1589986753.955534,-3.696133676092545,-0.576133676092545,9.035290488431876,0.2911111111111111,-0.3855555555555555,-0.6355555555555555,0.009447300771208228,-0.27416452442159384,-0.15861182519280206
1589986753.965534,-3.68,-0.5550054807391168,8.977480817413092,0.2911111111111111,-0.3855555555555555,-0.6355555555555555,-0.14060787269025996,-0.375,-0.14060787269025996
1589986753.975534,-3.68360616807042,-0.5544246722816795,9.03721233614084,0.2911111111111111,-0.3855555555555555,-0.6355555555555555,-0.23257710088024824,-0.375,-0.14242289911975176
1589986753.985534,-3.69,-0.58,9.051223479490806,0.29036342920006286,-0.3864391796322489,-0.635011786892975,-0.30102987977369167,-0.3597065063649222,-0.054853253182461106
1589986753.995534,-3.69,-0.5874398664385679,9.066280066780717,0.2788888888888889,-0.4,-0.6266666666666667,-0.125,-0.125,0.08574958262052476
1589986754.005534,-3.6812950458994007,-0.6043524770502997,9.020827706547303,0.2788888888888889,-0.4,-0.6266666666666667,-0.043391055306881116,-0.07059403687125407,0.07059403687125407
1589986754.015534,-3.67,-0.5957497761469178,8.99375037308847,0.2788888888888889,-0.4,-0.6266666666666667,0.03281203363941219,0.17812779816352686,0.0
1589986754.025534,-3.6730712135897567,-0.5830712135897567,9.044569708718052,0.2788888888888889,-0.4,-0.6266666666666667,0.038390169871958375,0.375,0.019195084935979188
1589986754.035534,-3.687208604668179,-0.59,9.107208604668179,0.2736826744063153,-0.3947937855174264,-0.6266666666666667,0.125,0.32994622082388236,0.0625
1589986754.045534,-3.6844750962899564,-0.59,9.104475096289956,0.2644444444444444,-0.3855555555555555,-0.6266666666666667,0.15734354939592454,0.3146870987918491,0.12718709879184908
1589986754.055534,-3.6889214553187557,-0.59,9.052157089362488,0.2644444444444444,-0.3855555555555555,-0.6266666666666667,0.2269196985807406,0.4144196985807406,0.2663393971614812
1589986754.0655339,-3.687966820361918,-0.6020331796380824,9.042033179638082,0.2644444444444444,-0.3855555555555555,-0.6266666666666667,0.25,0.5879147454760305,0.4253110591070228
1589986754.0755339,-3.694637478315723,-0.6051208405614257,9.059758318877149,0.2644444444444444,-0.3855555555555555,-0.6266666666666667,0.25,0.6570052535089103,0.4390105070178205
1589986754.0855339,-3.6950705981360845,-0.6049764672879718,9.079952934575944,0.27495031983016277,-0.3855555555555555,-0.6266666666666667,0.18779415890035223,0.6561029205498239,0.28169123835052834
1589986754.0955338,-3.6740052459320816,-0.5740314755924886,9.04803672152457,0.2855555555555556,-0.3855555555555555,-0.6266666666666667,0.05006557415101785,0.5001639353775447,0.2999016387734732
1589986754.1055338,-3.681291879159329,-0.5612918791593294,8.991770302101676,0.2855555555555556,-0.3855555555555555,-0.6266666666666667,-0.07057424474580923,0.5161484894916184,0.26913863288128614
1589986754.1155338,-3.684623852780321,-0.57,9.007633030537756,0.2855555555555556,-0.3855555555555555,-0.6266666666666667,-0.3266055207379762,0.8938073609839683,0.2883027603689881
1589986754.1255338,-3.683130224311165,-0.5793906729334947,9.052520897244658,0.2855555555555556,-0.3855555555555555,-0.6266666666666667,-0.48043609805521936,1.1641278038895613,0.35543609805521936
1589986754.1355338,-3.689032534969463,-0.5970976049083898,9.076130139877852,0.2855555555555556,-0.3855555555555555,-0.6266666666666667,-0.44354665644085445,1.237906687118291,0.31854665644085445
1589986754.1455338,-3.712388235714541,-0.61,9.116194117857269,0.2911111111111111,-0.3855555555555555,-0.6344444444444445,-0.375,0.45569854911910807,0.20242647321588106
1589986754.1555338,-3.7,-0.5994667009073789,9.046800205444272,0.2911111111111111,-0.3855555555555555,-0.6344444444444445,-0.14458408234891287,-0.25666623865776406,0.02625032100667693
1589986754.1655338,-3.7,-0.5937038766931341,9.001111630079402,0.2911111111111111,-0.3855555555555555,-0.6344444444444445,0.08564922933208781,-0.3981492293320878,-0.08564922933208781
1589986754.1755338,-3.6928063183616477,-0.5952042122410984,9.031989469397253,0.2911111111111111,-0.3855555555555555,-0.6344444444444445,0.13998683674656737,-0.42251316325343263,-0.11001316325343263
1589986754.1855338,-3.689248407126334,-0.586416135708778,9.079624203563167,0.2911111111111111,-0.3830603916688085,-0.6319492805576975,0.1674495759100686,-0.375,-0.022399151820137166
1589986754.1955338,-3.73,-0.602935306143664,9.111741224574656,0.2911111111111111,-0.37777777777777777,-0.6266666666666667,0.1800369901937004,-0.4300369901937004,0.007463009806299589
1589986754.2055337,-3.6904685816464546,-0.6001171454116137,9.060937163292909,0.2911111111111111,-0.37777777777777777,-0.6266666666666667,0.28161607941129274,-0.9639909676531946,-0.125
1589986754.2155337,-3.6756041323165705,-0.5848791735366858,9.026087438169828,0.2911111111111111,-0.37777777777777777,-0.6266666666666667,0.08997417302143446,-0.9909380152514426,-0.1890103307914262
1589986754.2255337,-3.695980640539549,-0.5840193594604511,9.078038718920903,0.2911111111111111,-0.37777777777777777,-0.6266666666666667,-0.11274199325563923,-0.625,-0.25
1589986754.2355337,-3.6844827092944246,-0.59,9.092758645352788,0.29509582106513765,-0.37655171317653885,-0.6306513766206933,-0.20474153345492258,-0.6077584665450775,-0.19827539963523227
1589986754.2455337,-3.6742264606752517,-0.5815470786494964,9.07886769662374,0.3055555555555556,-0.37333333333333335,-0.6411111111111111,-0.2235846207796762,-0.40400772467805723,-0.009669241559352414
1589986754.2555337,-3.68,-0.5738298534399602,9.02319102592028,0.3055555555555556,-0.37333333333333335,-0.6411111111111111,-0.13962683200049786,-0.16356341600024893,0.03856341600024893
1589986754.2655337,-3.6852117555560793,-0.58,8.990423511112159,0.3055555555555556,-0.37333333333333335,-0.6411111111111111,-0.127646944450991,-0.1575734722254955,0.06514694445099102
1589986754.2755337,-3.694352621515548,-0.5843526215155479,9.017410486062191,0.3055555555555556,-0.37333333333333335,-0.6411111111111111,-0.3235194223608735,-0.07868446211130119,0.0705922310556506
1589986754.2855337,-3.6909452173913047,-0.5930182608695652,9.043018260869564,0.3032080193236715,-0.3790344927536232,-0.6354099516908213,-0.5,0.024771739130434782,0.07545652173913044
1589986754.2955337,-3.6805172844350897,-0.5929884770432735,9.057011522956728,0.2977777777777777,-0.3922222222222223,-0.6222222222222222,-0.4342669722806892,0.025144036959081018,0.25
1589986754.3055336,-3.677618969052726,-0.5744047422631814,9.03083319584227,0.2977777777777777,-0.3922222222222223,-0.6222222222222222,-0.5223221651306951,0.4322925259858109,0.4248518042755792
1589986754.3155336,-3.6545089844395644,-0.5809820311208708,9.043928124483484,0.2977777777777777,-0.3922222222222223,-0.6222222222222222,-0.7904565417581639,1.208420403296262,0.7684130835163279
1589986754.3255336,-3.6544043258665226,-0.5855956741334772,9.102021629332613,0.2977777777777777,-0.3922222222222223,-0.6222222222222222,-1.0676892566603693,2.238040733315341,0.8549188900026988
1589986754.3355336,-3.6675142535779393,-0.5900190047705852,9.135009502385293,0.2977777777777777,-0.3905523880937914,-0.6199957767176477,-1.343809389908079,3.047082864678276,0.718690610091921
1589986754.3455336,-3.69,-0.6225661406584844,9.15,0.2977777777777777,-0.3855555555555555,-0.6133333333333333,-1.4294808104422365,3.342923241768946,0.6490575686732905
1589986754.3555336,-3.699462055406037,-0.6336919630626421,9.108997759907174,0.2977777777777777,-0.3855555555555555,-0.6133333333333333,-1.315862153712269,3.125,0.7533621537122689
1589986754.3655336,-3.7197403748529436,-0.620173083431371,9.021125042303911,0.2977777777777777,-0.3855555555555555,-0.6133333333333333,-1.189122657169103,3.125,0.6266226571691028
1589986754.3755336,-3.7329524184378555,-0.5964762092189276,9.01,0.2977777777777777,-0.3855555555555555,-0.6133333333333333,-1.1839289228548937,2.8494052304731916,0.6690473847634042
1589986754.3855336,-3.7127922343722592,-0.5755844687445179,9.00639611718613,0.29337303211638044,-0.3855555555555555,-0.6233441189274181,-1.197645605520145,2.710024267586691,0.7274757324133092
1589986754.3955336,-3.7091255115961803,-0.5317489768076399,8.99087448840382,0.2855555555555556,-0.3855555555555555,-0.6411111111111111,-1.5800861186903137,2.9211033424283768,0.7445344474761255
1589986754.4055336,-3.738178151938297,-0.49182184806170287,8.970910924030852,0.2855555555555556,-0.3855555555555555,-0.6411111111111111,-1.9488235368251248,3.3238235368251248,0.8693067248071785
1589986754.4155335,-3.753261742738589,-0.48010738589211616,8.986953029045644,0.2855555555555556,-0.3855555555555555,-0.6411111111111111,-2.0822147302904566,3.3940435684647303,1.1901846473029045
1589986754.4255335,-3.7405651384475718,-0.5062165229232864,9.043955969133,0.2855555555555556,-0.3855555555555555,-0.6411111111111111,-1.8432109623241035,3.013050385837494,1.7228211529732183
1589986754.4355335,-3.744239198912431,-0.61,9.118641201631354,0.2855555555555556,-0.3874758225847453,-0.6331099984894871,-1.1504774694121158,1.9894724626148081,2.330502503398654
1589986754.4455335,-3.748540893035051,-0.6239056697762884,9.135364776741238,0.2855555555555556,-0.3922222222222223,-0.6133333333333333,-0.5761791277963952,1.181328400960058,2.1722089824291277
1589986754.4555335,-3.7744920865434315,-0.6534762596302951,9.07609496147882,0.2855555555555556,-0.3922222222222223,-0.6133333333333333,-0.29077337731065545,0.5036690501390702,1.8251978364142074
1589986754.4655335,-3.7710526797146513,-0.6789473202853484,9.027894640570697,0.2855555555555556,-0.3922222222222223,-0.6133333333333333,0.06414338302542527,-0.210524510700567,1.5476981205414304
1589986754.4755335,-3.7493968500178974,-0.6758624666905302,9.053534383327369,0.2855555555555556,-0.3922222222222223,-0.6133333333333333,0.48544947898023305,-0.7796292705723262,1.264550521019767
1589986754.4855335,-3.73,-0.6517727563259015,9.058227243674098,0.2865404201810564,-0.39104038467162133,-0.6172727918353365,0.6875,-1.0071013648155807,0.9627824566680453
1589986754.4955335,-3.73,-0.6596576681580629,9.050342331841938,0.2909209267544794,-0.38578377678351355,-0.6347948181290287,0.6875,-0.7606978700605331,0.5192561661089596
1589986754.5055335,-3.7623324681080055,-0.6376675318919945,8.983002595675984,0.2911111111111111,-0.3855555555555555,-0.6355555555555555,0.28334414864993196,-0.39376622297489794,0.06668829729986389
1589986754.5155334,-3.768970909436232,-0.6310290905637682,8.963087271691306,0.2911111111111111,-0.3855555555555555,-0.6355555555555555,0.20036363204710203,-0.26929544807065303,-0.09927273590579594
1589986754.5255334,-3.7841262410998056,-0.6160841607332036,9.057831678533594,0.2911111111111111,-0.3855555555555555,-0.6355555555555555,0.41039598166991054,-0.6210549656310823,-0.27578900687378355
1589986754.5355334,-3.7573236842862485,-0.5973236842862486,9.098028947141254,0.2878400585720817,-0.3855555555555555,-0.6331766082544432,0.8794078928437833,-1.558996705320404,-0.20863486605472908
1589986754.5455334,-3.75,-0.5973475116213446,9.112652488378655,0.2788888888888889,-0.3855555555555555,-0.6266666666666667,1.108421947633404,-2.184958527022411,-0.4987292635112055
1589986754.5555334,-3.75,-0.6160350793815811,9.093964920618419,0.2788888888888889,-0.3855555555555555,-0.6266666666666667,1.2252192461348819,-2.4964179896930183,-0.6544589948465092
1589986754.5655334,-3.7329087783052968,-0.59,8.991635113221188,0.2788888888888889,-0.3855555555555555,-0.6266666666666667,1.4193201355918958,-3.117039593224313,-0.8397697966121563
1589986754.5755334,-3.7492982044819567,-0.59,9.057192817927827,0.2788888888888889,-0.3855555555555555,-0.6266666666666667,1.3168862219877693,-3.4243413340366917,-0.993420667018346
1589986754.5855334,-3.752265472209955,-0.59,9.113093811116018,0.28077955123756654,-0.3855555555555555,-0.6256353962946607,1.4761726389502239,-3.9523452779004478,-0.927831840262444
1589986754.5955334,-3.7073967496645297,-0.59,9.126745937080663,0.2911111111111111,-0.3855555555555555,-0.62,1.6915675786491724,-4.362797264052483,-0.8709324213508275
1589986754.6055334,-3.67,-0.5965650430245688,9.037327220340302,0.2911111111111111,-0.3855555555555555,-0.62,1.6679369621928903,-4.043889683837558,-0.956110316162442
1589986754.6155334,-3.6722182458023918,-0.6122182458023918,8.96109122901196,0.2911111111111111,-0.3855555555555555,-0.62,1.486135963735051,-3.583631564820614,-1.2777280725298976
1589986754.6255333,-3.6690847737759107,-0.6063559672198884,8.997271193443979,0.2911111111111111,-0.3855555555555555,-0.62,1.3692798360994423,-2.914724795124303,-1.4091100819502789
1589986754.6355333,-3.6402003994215275,-0.5702504992769093,8.990050099855383,0.2911111111111111,-0.3855555555555555,-0.62,1.1887524963845466,-2.689065620480683,-1.4993737518077268
1589986754.6455333,-3.6974950321913997,-0.5787574517129004,9.1050099356172,0.2911111111111111,-0.3922222222222223,-0.62,0.07039012200937923,-1.0159044392337653,-1.8514538291868692
1589986754.6555333,-3.712732702188144,-0.5654654043762878,9.052672978118562,0.2911111111111111,-0.3922222222222223,-0.62,-0.10792061132410088,-0.29542061132410086,-2.261635109407193
1589986754.6655333,-3.7230880256202155,-0.5769119743797846,8.976911974379785,0.2911111111111111,-0.3922222222222223,-0.62,-0.13970064050538505,-0.1341990392419224,-2.77940128101077
1589986754.6755333,-3.6945772495755516,-0.587711375212224,8.99435314091681,0.2911111111111111,-0.3922222222222223,-0.62,-0.3125,0.00046689303904923207,-2.8759337860780985
1589986754.6855333,-3.584769994690984,-0.6417944473938978,9.083282221042442,0.2901993830437664,-0.39112814854140865,-0.6203646912269378,-0.3022430592423722,-0.4272430592423722,-1.6204931919677712
1589986754.6955333,-3.665175006393317,-0.6,9.1,0.2855555555555556,-0.3855555555555555,-0.6222222222222222,-0.21765621004176966,-0.35882810502088486,0.19929673514619384
1589986754.7055333,-3.679476600460319,-0.6,9.1,0.2855555555555556,-0.3855555555555555,-0.6222222222222222,-0.12827124712300741,-0.3141356235615037,-0.11355063506947405
1589986754.7155333,-3.68,-0.6048123233262962,9.010375353347408,0.2855555555555556,-0.3855555555555555,-0.6222222222222222,-0.13886553118402692,-0.24765404157870255,-0.0625
1589986754.7255332,-3.67986584588218,-0.5897316917643596,9.04080492470692,0.2855555555555556,-0.3855555555555555,-0.6222222222222222,-0.0008384632363761221,-0.06082307352724776,-0.061661536763623875
1589986754.7355332,-3.6703590483962087,-0.5714361935848346,9.100359048396209,0.28503693009436537,-0.38527629569183763,-0.621903068092259,-0.05127973761847969,0.06474405247630406,0.0
1589986754.7455332,-3.67913501977277,-0.6065400790910803,9.10913501977277,0.2723605269948877,-0.37845054017673435,-0.6141022046464265,0.22296936789906474,0.11959387357981294,0.0
1589986754.7555332,-3.6875102451288497,-0.5850204902576995,9.062612696417348,0.27111111111111114,-0.37777777777777777,-0.6133333333333333,0.15637806411062224,0.14081709616593338,-0.09362193588937776
1589986754.7655332,-3.68,-0.5757226159717448,8.99144523194349,0.27111111111111114,-0.37777777777777777,-0.6133333333333333,0.08038317491170266,0.0,-0.16961682508829734
1589986754.7755332,-3.6861555143040543,-0.5858963237972971,9.032311028608108,0.27111111111111114,-0.37777777777777777,-0.6133333333333333,0.09935202373310664,0.012823988133446677,-0.08652803559965996
1589986754.7855332,-3.7079852882496835,-0.5713431411668777,9.075970576499367,0.27111111111111114,-0.37777777777777777,-0.6133333333333333,0.008394632292985899,0.05830268385350705,0.049908051560521166
1589986754.7955332,-3.6872162285366965,-0.59,9.075567542926606,0.2855555555555556,-0.3922222222222223,-0.65,-0.125,-0.07989857164564657,-0.01739857164564656
1589986754.8055332,-3.6776837677378134,-0.5923162322621868,9.071470141902505,0.2855555555555556,-0.3922222222222223,-0.65,-0.11052354836133223,-0.11052354836133223,-0.03354709672266447
1589986754.8155332,-3.672926098237452,-0.597073901762548,9.021704392949808,0.2855555555555556,-0.3922222222222223,-0.65,-0.08078811398407444,-0.025923772031851124,0.08078811398407444
1589986754.8255332,-3.681961593307349,-0.5880384066926514,9.053923186614698,0.2855555555555556,-0.3922222222222223,-0.65,-0.1004800836581424,0.0870199163418576,0.08822012548721361
1589986754.8355331,-3.689936305732484,-0.5800636942675159,9.069872611464968,0.2855555555555556,-0.3922222222222223,-0.65,-0.0007961783439490305,0.18670382165605098,-0.06130573248407645
1589986754.8455331,-3.6813772951465165,-0.5886227048534837,9.104490819413934,0.30280096526252287,-0.3922222222222223,-0.6183834155372265,0.05389190533427281,0.3491757160028184,-0.008608094665727192
1589986754.8555331,-3.68,-0.611401200509307,9.11,0.3055555555555556,-0.3922222222222223,-0.6133333333333333,0.0625,0.375,0.08917166878877908
1589986754.865533,-3.6803324915060234,-0.5703324915060229,9.03016624575301,0.3055555555555556,-0.3922222222222223,-0.6133333333333333,0.12396096404367812,0.24584385617471247,0.12396096404367812
1589986754.875533,-3.6955736841149007,-0.5855736841149003,9.03778684205745,0.3055555555555556,-0.3922222222222223,-0.6133333333333333,0.07633223714093643,0.055328948563745706,0.07633223714093643
1589986754.885533,-3.699915152787987,-0.57,9.08025454163604,0.30526330404751073,-0.3920996651382035,-0.613644439777381,-0.24840911477475586,0.3744697049249186,0.12659088522524414
1589986754.895533,-3.6911063740417935,-0.57,9.106680877874618,0.2749219550328445,-0.379375873615924,-0.6459432951800903,-0.08324451328362911,0.3194148377612097,0.29175548671637086
1589986754.905533,-3.661756034737813,-0.5970241389512522,9.054195687359682,0.27111111111111114,-0.37777777777777777,-0.65,-0.40030173689065246,0.661276954001984,0.44847521711133154
1589986754.915533,-3.6690556744809344,-0.626222697923737,8.988498929671593,0.27111111111111114,-0.37777777777777777,-0.65,-0.7652837240467116,1.0718816895525505,0.49409796550583895
1589986754.925533,-3.7038683408215665,-0.6061316591784339,9.01353919287548,0.27111111111111114,-0.37777777777777777,-0.65,-0.9879114349326059,1.8125,0.3125
1589986754.935533,-3.718381412755341,-0.59,9.070539529081554,0.2721901692742173,-0.37711835334476845,-0.6483814127553408,-0.9341279432402931,1.8057558864805863,0.31587205675970687
1589986754.945533,-3.684806961034313,-0.5874034805171565,9.074806961034314,0.2911111111111111,-0.3655555555555556,-0.62,-0.8587717532322283,1.7037282467677717,0.47236948060663
1589986754.955533,-3.67,-0.5820525375350984,9.043579699719212,0.2911111111111111,-0.3655555555555556,-0.62,-0.8125,1.8397985171605598,0.7243432808112686
1589986754.965533,-3.6751258992805753,-0.6002517985611511,8.990251798561152,0.2911111111111111,-0.3655555555555556,-0.62,-0.8552158273381295,2.3263264388489207,0.6677158273381295
1589986754.975533,-3.70403038994592,-0.6489924025135201,9.043022792459439,0.2911111111111111,-0.3655555555555556,-0.62,-1.0813924528714995,3.050379874323999,0.8561075471285005
1589986754.985533,-3.7398174433697613,-0.640182556630239,9.070365113260479,0.29100969076097827,-0.36604237323619315,-0.6201217044201593,-1.25,3.494295105305029,0.6875
1589986754.995533,-3.7310365113260477,-0.6489634886739521,9.087926977347903,0.2861313951811377,-0.3894581920194281,-0.6259756591159682,-1.25,3.2198909789389942,0.6875
1589986755.005533,-3.7461915391854332,-0.6176169216291335,9.057616921629133,0.2855555555555556,-0.3922222222222223,-0.6266666666666667,-0.7440144004552119,2.7827115203641695,0.4851057601820848
1589986755.015533,-3.7517901627420676,-0.6082098372579325,9.006419674515865,0.2855555555555556,-0.3922222222222223,-0.6266666666666667,-0.25655741431039186,2.1045492772070187,0.2789344485862351
1589986755.025533,-3.7634852263431955,-0.6011617421143985,9.005102647487181,0.2855555555555556,-0.3922222222222223,-0.6266666666666667,0.050826217504937855,1.3503693414201066,0.11773911178500888
1589986755.035533,-3.7885892703948287,-0.6095297567982763,9.11388683837759,0.2855555555555556,-0.3922222222222223,-0.6266666666666667,0.4169268599245855,0.722768240129282,0.06543902001077351
1589986755.045533,-3.76,-0.6010759595634138,9.107848080873172,0.2911111111111111,-0.3855555555555555,-0.6222222222222222,0.9845732308993516,-0.5027701981553828,-0.020174241814007815
1589986755.055533,-3.76,-0.6095223327560514,9.090955334487898,0.2911111111111111,-0.3855555555555555,-0.6222222222222222,1.3541020580772485,-1.5057770147811027,-0.1785437391759636
1589986755.065533,-3.7698467165998957,-0.629693433199791,9.09,0.2911111111111111,-0.3855555555555555,-0.6222222222222222,1.4365419787493467,-3.0395074899843233,-0.1259580212506532
1589986755.075533,-3.697160910651301,-0.5885804553256502,9.09,0.2911111111111111,-0.3855555555555555,-0.6222222222222222,1.7318607710734293,-4.249210159005602,-0.32137215421468585
1589986755.085533,-3.6813384386140298,-0.5806692193070147,9.09,0.2911111111111111,-0.3855555555555555,-0.6222222222222222,1.9790868966557897,-4.9414433106362115,-0.37081737933115794
1589986755.095533,-3.602035418067698,-0.566799422152482,9.036725696779497,0.2855555555555556,-0.3855555555555555,-0.6266666666666667,1.8945428279658274,-4.970224974470099,-0.6450036115469875
1589986755.105533,-3.517286084315827,-0.5097887638442301,8.838954537334763,0.2855555555555556,-0.3855555555555555,-0.6266666666666667,1.0846758887102537,-3.9518885092890317,-1.3450367318685246
1589986755.1155329,-3.704124656097223,-0.6114688359756942,8.974406507927084,0.2855555555555556,-0.3855555555555555,-0.6266666666666667,-0.28495932545573305,-1.4947152781901312,-1.6730350533420422
1589986755.1255329,-3.67091760188429,-0.6197705995289274,8.999311798586783,0.2855555555555556,-0.3855555555555555,-0.6266666666666667,-0.12930125883261087,-0.4051088118282762,-0.5315425647724799
1589986755.1355329,-3.6975710390517613,-0.601619307298826,9.027571039051761,0.2855555555555556,-0.3855555555555555,-0.6266666666666667,-0.3547586587646754,-0.6047586587646754,-0.6148793293823377
1589986755.1455328,-3.717019482536724,-0.5404318111214663,9.098077930146895,0.2732637070568105,-0.3789368679023851,-0.6342308811274329,-0.32181411707273777,-0.625,-0.5718141170727378
1589986755.1555328,-3.6883243418650875,-0.5633513162698253,9.056594734920699,0.27111111111111114,-0.37777777777777777,-0.6355555555555555,-0.3959457266864073,-0.6358100434024256,-0.3956085466271853
1589986755.1655328,-3.680247986317996,-0.5802479863179962,8.990743958953988,0.27111111111111114,-0.37777777777777777,-0.6355555555555555,-0.5046497434624296,-1.0015499144874767,-0.18904991448747654
1589986755.1755328,-3.6912889471316523,-0.5925778942633051,9.026444735658263,0.27111111111111114,-0.37777777777777777,-0.6355555555555555,-0.7116677587184853,-1.0705559195728285,-0.2338881608543431
1589986755.1855328,-3.6994926359849005,-0.6089852719698007,9.067463179924502,0.27111111111111114,-0.37777777777777777,-0.6355555555555555,-0.8654869247168815,-1.1218289749056272,-0.13134205018874567
1589986755.1955328,-3.6663143254520167,-0.61,9.101842837273992,0.2855555555555556,-0.4044444444444445,-0.6355555555555555,-0.7047765994436718,-0.75,-0.0625
1589986755.2055328,-3.6339058878071393,-0.61,9.11804705609643,0.2855555555555556,-0.4044444444444445,-0.6355555555555555,-0.8566911509040334,-0.75,-0.0625
1589986755.2155328,-3.6731556370159497,-0.59561478766135,9.0336887259681,0.2855555555555556,-0.4044444444444445,-0.6355555555555555,-0.5603234800920329,-0.525231057208595,-0.017546211441718987
1589986755.2255328,-3.6600155217384347,-0.5800310434768694,9.06003104347687,0.2855555555555556,-0.4044444444444445,-0.6355555555555555,-0.1874029891347831,-0.24961195653913237,-0.12480597826956619
1589986755.2355328,-3.6667271534411854,-0.5934543068823708,9.073454306882372,0.2855555555555556,-0.4044444444444445,-0.6355555555555555,-0.14545529099259116,-0.08182116397036468,-0.04091058198518234
1589986755.2455328,-3.67,-0.6,9.08,0.2901760474046553,-0.38226608356876557,-0.6355555555555555,-0.021038933395255227,0.10396106660474477,0.051980533302372386
1589986755.2555327,-3.67,-0.5926567047563238,9.050626819025295,0.2911111111111111,-0.37777777777777777,-0.6355555555555555,0.1835823810919035,0.21679119054595175,0.016604404727024125
1589986755.2655327,-3.69,-0.59,8.974562085396618,0.2911111111111111,-0.37777777777777777,-0.6355555555555555,0.2982434831355695,0.4327478277118565,0.1297521722881435
1589986755.2755327,-3.69,-0.59,9.021587779127348,0.2911111111111111,-0.37777777777777777,-0.6355555555555555,0.15128819022703915,0.38376273007567974,0.1787372699243203
1589986755.2855327,-3.673173734610123,-0.5647606019151847,9.080478796169631,0.2911111111111111,-0.37777777777777777,-0.6355555555555555,-0.03274623803009577,0.375,0.24008207934336526
1589986755.2955327,-3.661584301276964,-0.5994718995743452,9.118415698723036,0.2911111111111111,-0.4044444444444445,-0.6266666666666667,-0.0724018829810259,0.35849686169829015,0.2599018829810259
1589986755.3055327,-3.689531610775151,-0.5914051676745464,9.08625288620121,0.2911111111111111,-0.4044444444444445,-0.6266666666666667,-0.24707256734469488,0.05957256734469489,0.4375
1589986755.3155327,-3.6818455195162176,-0.6144634414513469,9.024764156129741,0.2911111111111111,-0.4044444444444445,-0.6266666666666667,-0.19903449697636064,0.011534496976360636,0.4375
1589986755.3255327,-3.6810026861017713,-0.6169919416946861,9.065013430508857,0.2911111111111111,-0.4044444444444445,-0.6266666666666667,-0.11246642372785845,0.125,0.5436996355917877
1589986755.3355327,-3.688881229220279,-0.5933563123391625,9.104406146101395,0.2911111111111111,-0.4044444444444445,-0.6266666666666667,-0.01398463474651089,0.125,0.39597695211976636
1589986755.3455327,-3.658929520346805,-0.59,9.092140959306391,0.2855555555555556,-0.3855555555555555,-0.65,-0.04911900433505803,0.20757149349741294,0.542428506502587
1589986755.3555326,-3.650620205368279,-0.59,9.103177740948931,0.2855555555555556,-0.3855555555555555,-0.65,0.05087114934476926,0.40988655196569224,0.375
1589986755.3655326,-3.6577863964872117,-0.59,9.024349638640674,0.2855555555555556,-0.3855555555555555,-0.65,-0.08349493413521503,0.812984802405645,0.375
1589986755.3755326,-3.651564177718448,-0.6,9.049217911140776,0.2855555555555556,-0.3855555555555555,-0.65,-0.5195522214806001,2.0918283322209,0.31983208305522504
1589986755.3855326,-3.6759078905365796,-0.6,9.03704605473171,0.2855555555555556,-0.3855555555555555,-0.65,-0.8238486317072463,2.5482729475608696,0.43394323689021735
1589986755.3955326,-3.726625471737237,-0.5926749056525525,9.110576037821922,0.280672159323924,-0.3961362473907574,-0.6394193081647982,-1.1373455190146393,2.7667181603284536,0.13374528262762825
1589986755.4055326,-3.7471221029397013,-0.575755794120598,9.111511588241196,0.2788888888888889,-0.4,-0.6355555555555555,-1.0984737132537374,2.260355422895555,0.04451314337313133
1589986755.4155326,-3.7593615760878762,-0.6068078804393818,9.04,0.2788888888888889,-0.4,-0.6355555555555555,-0.6675492527461367,0.5571674593368651,0.35639164395849904
1589986755.4255326,-3.7522625797606755,-0.5713128988033783,9.04,0.2788888888888889,-0.4,-0.6355555555555555,-0.4457056175211144,-0.19710090042821116,0.8444476414535484
1589986755.4355326,-3.627123199311976,-0.49856159965598795,9.03122308566514,0.2788888888888889,-0.4,-0.6355555555555555,-0.5395671437786037,-0.49235571459286787,1.493701431335811
1589986755.4455326,-3.6248131816674145,-0.46778022749887815,9.059626363334829,0.28794138879675335,-0.3893015910179783,-0.6256801011106125,-0.8865383489746942,-0.26854403644664704,1.793955963553353
1589986755.4555326,-3.6734651695036473,-0.4038396986601821,9.101540075334954,0.2911111111111111,-0.3855555555555555,-0.6222222222222222,-1.2548127354217327,-0.08897004481952987,3.0120973990368567
1589986755.4655325,-3.758745687978213,-0.24707327194916354,9.146271560108936,0.2911111111111111,-0.3855555555555555,-0.6222222222222222,-1.3540947996368824,-0.8545260018155881,4.995204902087926
1589986755.4755325,-3.7243448966731836,-0.17596064048084537,9.294847231422985,0.2911111111111111,-0.3855555555555555,-0.6222222222222222,-0.708376419834871,-3.542853565138712,8.037804365739769
1589986755.4855325,-3.676906496905851,-0.14207606921846472,9.335508716937841,0.2911111111111111,-0.3855555555555555,-0.6222222222222222,0.6893621447383302,-5.999484981661308,10.452080068184388
1589986755.4955325,-3.5752982693928823,-0.35457924924378914,9.404181556719946,0.2855555555555556,-0.4044444444444445,-0.6355555555555555,6.083726590522158,-5.887175821087952,15.558834650159508
1589986755.5055325,-4.0120673068976345,-0.7844154448833867,9.25165903568654,0.2855555555555556,-0.4044444444444445,-0.6355555555555555,4.480506909205111,2.4322344170978027,16.72875171490438
1589986755.5155325,-3.668759965941636,-0.9269688056351111,9.317588822664293,0.2855555555555556,-0.4044444444444445,-0.6355555555555555,0.1357641845344067,0.6069161699821968,17.56938907810202
1589986755.5255325,-3.49,-0.49,8.97,0.2855555555555556,-0.4044444444444445,-0.6355555555555555,1.6875,-2.0,18.5625
1589986755.5355325,-2.985408203736562,-0.5991009289218244,8.947270639807954,0.2855555555555556,-0.4044444444444445,-0.6355555555555555,1.488618098319591,-0.46576818703684375,17.34079688967749
1589986755.5455325,-1.404718004761719,-0.16211428125365912,8.79654658288123,0.2814404416515966,-0.39278495504989397,-0.6273253277476376,-2.0678105850669373,5.618711213457711,8.313478201475352
1589986755.5555325,-0.3278646598506881,0.585052019308608,8.729635415105088,0.2788888888888889,-0.3855555555555555,-0.6222222222222222,-7.918944697628399,19.6318340928852,-12.273434923395195
1589986755.5655324,-0.35133881445391796,0.4429125050751116,9.159923670320747,0.2788888888888889,-0.3855555555555555,-0.6222222222222222,-10.594502385302476,26.159975131952905,-27.80864672147787
1589986755.5755324,-1.5077402039720882,-0.9099012345679012,9.400640901771338,0.2788888888888889,-0.3855555555555555,-0.6222222222222222,-6.327804616210413,12.373409822866344,-37.79704106280193
1589986755.5855324,-1.877716017613084,-1.1666912563618688,9.065036884542804,0.2788888888888889,-0.3855555555555555,-0.6222222222222222,1.2195237891004753,2.426155858637845,-37.67148810544976
1589986755.5955324,-2.0932765661839,-1.057324646345571,8.995050101044123,0.2839055892369298,-0.39642507297631074,-0.6155332884248343,1.5439002505052206,4.008141419669922,-34.616858580330074
1589986755.6055324,-2.1002505871725385,-0.9099736224028907,8.860316531165312,0.2855555555555556,-0.4,-0.6133333333333333,0.49983514001806684,0.8767310298102982,-30.93362579042457
1589986755.6155324,-2.2442283649503163,-0.8948180668473351,9.042183197831978,0.2855555555555556,-0.4,-0.6133333333333333,0.40511291779584463,1.8713143631436315,-28.70765356820235
1589986755.6255324,-2.2610745797705536,-0.8196418067431487,8.938925420229445,0.2855555555555556,-0.4,-0.6133333333333333,1.7632484271829532,1.8705225842893594,-25.11586134862975
1589986755.6355324,-2.2855830622699207,-0.8114723125766932,8.91441693773008,0.2855555555555556,-0.4,-0.6133333333333333,0.6399429792953,1.7684039072086637,-23.48196251533862
1589986755.6455324,-2.36,-0.8183420012111281,8.843368004844512,0.2911111111111111,-0.37777777777777777,-0.6222222222222222,0.6284541641434831,1.4444083282869662,-20.77137507569551
1589986755.6555324,-2.36,-0.7959309656965768,8.753723862786307,0.2911111111111111,-0.37777777777777777,-0.6222222222222222,0.675143821465465,1.53778764293093,-19.37068535603605
1589986755.6655324,-2.3963478875729183,-0.8172609156796888,8.875391550291674,0.2911111111111111,-0.37777777777777777,-0.6222222222222222,0.06277068234046312,0.9377706823404631,-17.636954216015557
1589986755.6755323,-2.421801650109446,-0.8636033002188921,9.064413200875569,0.2911111111111111,-0.37777777777777777,-0.6222222222222222,0.09084020878935847,0.8295798956053207,-16.409917494527697
1589986755.6855323,-2.4245720980104046,-0.8854279019895953,9.135427901989596,0.2911111111111111,-0.37777777777777777,-0.6222222222222222,0.4981682617846789,1.0160463246098248,-15.084041539255788
1589986755.6955323,-2.412128084557447,-0.8821280845574466,9.053408930131912,0.3077295992676127,-0.38390037867754145,-0.6222222222222222,0.6157021139361658,1.285898943031917,-13.180912155132953
1589986755.7055323,-2.382741469913404,-0.88,9.066344706782129,0.31222222222222223,-0.3855555555555555,-0.6222222222222222,0.44892279130584956,0.801402560876323,-11.79601651740557
1589986755.7155323,-2.357600898174363,-0.8352017963487259,8.958004490871815,0.31222222222222223,-0.3855555555555555,-0.6222222222222222,0.4375,0.6100056135897687,-11.03419286341892
1589986755.7255323,-2.341932321403704,-0.7957969642111127,9.032947500348142,0.31222222222222223,-0.3855555555555555,-0.6222222222222222,0.3870770087731514,0.5625,-10.76207700877315
1589986755.7355323,-2.34,-0.79,9.067174037791531,0.31222222222222223,-0.3855555555555555,-0.6222222222222222,0.10597358281755953,0.6970132085912202,-10.75
1589986755.7455323,-2.3683524672708964,-0.79,9.018965558912386,0.3084418932527694,-0.38114517175786056,-0.6297828801611279,0.10632175226586103,0.9272029204431017,-11.139846424974824
1589986755.7555323,-2.39,-0.8067976997330047,8.862416101868966,0.3055555555555556,-0.37777777777777777,-0.6355555555555555,-0.17994968165947833,1.0100071883343602,-12.119906551653317
1589986755.7655323,-2.4019151268399623,-0.8278726902599436,8.851915126839963,0.3055555555555556,-0.37777777777777777,-0.6355555555555555,-0.13829568587535232,0.8510609145004697,-12.808521570623238
1589986755.7755322,-2.41,-0.8339502606999512,8.944696350200683,0.3055555555555556,-0.37777777777777777,-0.6355555555555555,0.05093261187591433,0.9012434825012191,-13.868095671255485
1589986755.7855322,-2.4226973604430255,-0.861743401107563,9.082532842879663,0.3055555555555556,-0.37777777777777777,-0.6355555555555555,0.521792513844537,1.0,-15.185443530457981
1589986755.7955322,-2.4896009699390222,-0.8714855757229968,9.147028848554006,0.311231838406891,-0.3739935892102208,-0.6279871784204416,0.6435696965374603,1.2128606069250794,-17.230739400206826
1589986755.8055322,-2.4342737217546375,-0.8617842152193297,9.100705291315979,0.31222222222222223,-0.37333333333333335,-0.6266666666666667,0.8817432743959461,1.5580919292751354,-19.040459646375677
1589986755.8155322,-2.45436705798467,-0.8514082355038325,8.961123532557489,0.31222222222222223,-0.37333333333333335,-0.6266666666666667,0.9911985281010466,1.7323970562020932,-21.41554406783977
1589986755.8255322,-2.413696592065107,-0.8566147725621276,8.959844317686382,0.31222222222222223,-0.37333333333333335,-0.6266666666666667,0.917315342973405,1.5432883574335126,-23.114296840938817
1589986755.8355322,-2.37804809886419,-0.865975950567905,9.023783555111146,0.31222222222222223,-0.37333333333333335,-0.6266666666666667,0.5762024716047484,1.5495490731482193,-25.41853671512448
1589986755.8455322,-2.3935845213849287,-0.8935845213849287,9.04427698574338,0.3331862412310478,-0.37682733650147093,-0.6563656935958362,0.4241344195519348,1.7232688391038697,-28.465376782077392
1589986755.8555322,-2.377823067119796,-0.922176932880204,9.017823067119796,0.3388888888888889,-0.37777777777777777,-0.6644444444444444,0.5299038870008497,2.212019435004248,-30.940481627017842
1589986755.8655322,-2.3881181164878567,-0.9481181164878565,8.90733067323548,0.3388888888888889,-0.37777777777777777,-0.6644444444444444,0.6757382280491032,2.4504921520327354,-33.32357342073655
1589986755.8755322,-2.392476916900843,-0.9675230830991569,8.922753914090727,0.3388888888888889,-0.37777777777777777,-0.6644444444444444,0.9380770774789241,2.452980730630269,-36.600386391007625
1589986755.8855321,-2.39,-0.9909154034032418,9.005774409075311,0.3388888888888889,-0.37777777777777777,-0.6644444444444444,1.305016299630609,2.481073757090087,-39.57833536868452
1589986755.8955321,-2.4328558118395636,-1.0061222588342233,9.097344847176457,0.3545346614652376,-0.3750567738514563,-0.6732877072049893,1.5905564708555846,2.7295847062833767,-42.5139700034087
1589986755.9055321,-2.4518074947312964,-1.01,9.074459957850369,0.3644444444444445,-0.37333333333333335,-0.6788888888888889,1.9435157896469968,3.2334221055057957,-46.25895473854057
1589986755.915532,-2.467685528081893,-1.0276855280818928,8.995153063699727,0.3644444444444445,-0.37333333333333335,-0.6788888888888889,1.8526205993175606,3.6072588013648788,-48.83896675938354
1589986755.925532,-2.4544019785910267,-1.0463995053522432,8.911602967886541,0.3644444444444445,-0.37333333333333335,-0.6788888888888889,1.75,3.8125,-52.40983305638211
1589986755.935532,-2.4584197600564575,-1.077629640084686,8.931444460127029,0.3644444444444445,-0.37333333333333335,-0.6788888888888889,1.6924382498235708,3.8412808750882146,-55.064043754410726
1589986755.945532,-2.4831244224145173,-1.105313366378224,8.990935478450812,0.3672217088129044,-0.3710768060339597,-0.6776738357276877,1.5957085398639,3.8652361799546333,-57.2186633621776
1589986755.955532,-2.5135042787852577,-1.107008557570515,9.029743581822114,0.38222222222222224,-0.3588888888888889,-0.6711111111111111,1.4797008712039297,4.192307840835367,-61.73344094658469
1589986755.965532,-2.52,-1.1641991281113768,8.894769137017766,0.38222222222222224,-0.3588888888888889,-0.6711111111111111,1.6841630337974032,4.421040758449351,-64.48308957952467
1589986755.975532,-2.526586516805731,-1.1734134831942686,8.889519100834388,0.38222222222222224,-0.3588888888888889,-0.6711111111111111,1.8323314600716416,4.355168539928359,-66.73046347139702
1589986755.985532,-2.5479234282828744,-1.181948952188583,8.975719237037207,0.38222222222222224,-0.3588888888888889,-0.6711111111111111,2.061702377946611,4.387180951178644,-68.94409759680492
1589986755.995532,-2.569551298358218,-1.2043269475373266,9.029551298358218,0.39495728669984587,-0.3493375905306712,-0.68490743096187,2.3665868442165823,4.586739036847152,-70.94952106529949
1589986756.005532,-2.5622291731426796,-1.2496180447622007,9.00445834628536,0.4088888888888889,-0.3388888888888889,-0.7,2.636545111905502,4.972135335716506,-73.56887968215729
1589986756.015532,-2.565665687104647,-1.3169970613139415,8.925170095133735,0.4088888888888889,-0.3388888888888889,-0.7,2.5895894555959558,5.271865816606066,-76.03115816606066
1589986756.025532,-2.5846555562903686,-1.3373277781451844,8.939311112580738,0.4088888888888889,-0.3388888888888889,-0.7,2.4251041597777925,5.633090293851818,-77.99465285585168
1589986756.035532,-2.577980249899234,-1.34,8.937980249899233,0.4088888888888889,-0.3388888888888889,-0.7,2.187191404675534,5.674876561870214,-79.6893515719468
1589986756.045532,-2.551708999297898,-1.3674365010531533,8.989445752281831,0.42413138947397405,-0.32364638830380377,-0.7096535837038872,1.9196015570148268,5.482101557014826,-81.35205003510511
1589986756.055532,-2.5414447529962,-1.4228895059923998,9.0371104940076,0.44222222222222224,-0.3055555555555556,-0.7211111111111111,1.8930594124524993,5.455559412452499,-83.47468074028062
1589986756.065532,-2.535850200060837,-1.44,8.91387650045628,0.44222222222222224,-0.3055555555555556,-0.7211111111111111,2.1326543744296513,6.0931174977186044,-85.66497999391628
1589986756.075532,-2.5359998777281896,-1.5119985327382772,8.905999266369138,0.44222222222222224,-0.3055555555555556,-0.7211111111111111,2.2999977074035582,6.349999235801186,-87.33747783823439
1589986756.085532,-2.517790385189609,-1.5711048074051956,8.937403204936796,0.44222222222222224,-0.3055555555555556,-0.7211111111111111,2.490675077137454,6.4212700308549815,-88.68714541654225
1589986756.095532,-2.481573945753316,-1.5931478915066324,8.953147891506632,0.44414593369849753,-0.2985602410963726,-0.7247836512021822,2.7170114828746783,6.5,-90.02544050683034
1589986756.105532,-2.463611820596649,-1.631110543522681,9.00166581528402,0.4544444444444444,-0.2611111111111111,-0.7444444444444445,2.875,6.598955672762567,-92.3906010548631
1589986756.115532,-2.46727367870225,-1.7113657770800628,8.907268445839874,0.4544444444444444,-0.2611111111111111,-0.7444444444444445,2.9176151229722658,7.241496598639456,-94.16764782836212
1589986756.125532,-2.48,-1.7709721574635315,8.875810131219609,0.4544444444444444,-0.2611111111111111,-0.7444444444444445,2.872974671950976,7.5,-95.46382926463731
1589986756.135532,-2.4587951569388697,-1.8212048430611305,8.925445811673358,0.4544444444444444,-0.2611111111111111,-0.7444444444444445,2.6799697308679344,7.446987892347174,-96.96566345331316
1589986756.145532,-2.420334012300512,-1.8886639507979512,8.979331975398976,0.46464743146057047,-0.2423161350287737,-0.7444444444444445,2.5,7.405206211560899,-98.66244907746159
1589986756.155532,-2.397366697288014,-1.936316651355993,8.955783440508048,0.4755555555555556,-0.2222222222222222,-0.7444444444444445,2.460520929025043,7.555937212924871,-100.38499770339897
1589986756.1655319,-2.3769678986777123,-1.9530321013222878,8.84529134140513,0.4755555555555556,-0.2222222222222222,-0.7444444444444445,2.356049366735702,7.787901266528596,-101.83345696590727
1589986756.1755319,-2.3898904377067853,-1.9997808754135706,8.826520583609048,0.4755555555555556,-0.2222222222222222,-0.7444444444444445,2.3125,8.289384118891359,-103.3484602972284
1589986756.1855319,-2.3825260478332937,-2.084071157944589,8.869123253611177,0.4755555555555556,-0.2222222222222222,-0.7444444444444445,2.530924402083827,8.82763660312574,-104.67588947430737
1589986756.1955318,-2.37,-2.13,8.904857387947674,0.48628589129554173,-0.2222222222222222,-0.7815879143136273,2.6410706626635214,9.108929337336479,-106.50359210808493
1589986756.2055318,-2.356038971474488,-2.1579220570510245,8.91,0.49,-0.2222222222222222,-0.7944444444444444,2.5377435717155485,9.125,-108.07183356769787
1589986756.2155318,-2.3260611990748976,-2.2298470023127557,8.820229496530866,0.49,-0.2222222222222222,-0.7944444444444444,2.387786870663583,9.312021882227361,-109.27318315246397
1589986756.2255318,-2.300301664636622,-2.279698335363378,8.813340844498578,0.49,-0.2222222222222222,-0.7944444444444444,2.1306562119366625,9.649651086073893,-110.32583866220057
1589986756.2355318,-2.2956246711587096,-2.318123355793547,8.86437532884129,0.49,-0.2222222222222222,-0.7944444444444444,1.919922902629033,9.9277312921129,-111.16600226582257
1589986756.2455318,-2.309862183675894,-2.3893109183794703,8.850137816324105,0.49,-0.2222222222222222,-0.7944444444444444,1.8754306760128312,10.061207971961506,-111.74440121183319
1589986756.2555318,-2.0616952358151783,-2.253693799377544,8.591541776394541,0.5077777777777778,-0.2344444444444445,-0.7955555555555556,1.1500044888676084,9.355772683744314,-112.63557277950682
1589986756.2655318,-2.089414688203096,-2.411113872191813,9.097937808522785,0.5077777777777778,-0.2344444444444445,-0.7955555555555556,-1.4094685012928574,7.436805299036234,-113.67252720037611
1589986756.2755318,-2.241981763693171,-2.551981763693171,9.122670726264108,0.5077777777777778,-0.2344444444444445,-0.7955555555555556,1.5711498916023725,8.764273018555123,-112.7329154179685
1589986756.2855318,-2.1834865704366893,-2.503946281746757,8.53164772519642,0.5077777777777778,-0.2344444444444445,-0.7955555555555556,5.533768043120775,10.90134295633108,-111.44324639137585
1589986756.2955317,-2.2255705984721117,-2.6722823938884464,8.993558977081674,0.5014541158271801,-0.2447203951141656,-0.8461448511603366,0.9332931451493964,7.359888874140932,-112.5767649618028
1589986756.3055317,-2.24,-2.755351990540008,9.032536066219945,0.4988888888888889,-0.2488888888888889,-0.8666666666666667,1.543124260938116,7.534324497437918,-112.105637810406
1589986756.3155317,-2.1613789963377217,-2.696003761259032,8.735759873304959,0.4988888888888889,-0.2488888888888889,-0.8666666666666667,2.8898334653073343,8.457023903790953,-111.45157131545086
1589986756.3255317,-2.1035070231082917,-2.755197100135931,8.789225192569099,0.4988888888888889,-0.2488888888888889,-0.8666666666666667,1.7986803352967828,7.647711826008156,-111.04058110557318
1589986756.3355317,-2.1055078741751343,-2.8944921258248657,8.948769685437837,0.4988888888888889,-0.2488888888888889,-0.8666666666666667,1.4771099854256913,7.21942051941217,-110.14789001457432
1589986756.3455317,-2.09748808937079,-2.9249761787415807,8.857583374404468,0.4414802037128306,-0.21560849168537688,-0.7526813062446379,2.6395083785115823,7.905505585674388,-108.70468827008378
1589986756.3555317,-2.077479973736047,-2.9675333771065877,8.809973298314729,0.4222222222222222,-0.20444444444444448,-0.7144444444444444,2.6404163930838256,7.476040982709565,-107.48358229371854
1589986756.3655317,-2.049940249507551,-3.0134329174874153,8.773253666010067,0.4222222222222222,-0.20444444444444448,-0.7144444444444444,2.353544265703655,6.758860664259138,-106.39346820967388
1589986756.3755317,-2.04,-3.060856011419625,8.716801584012524,0.4222222222222222,-0.20444444444444448,-0.7144444444444444,2.558560114196252,6.8085601141962515,-104.92003960031312
1589986756.3855317,-2.0229243119266056,-3.083415137614679,8.72415137614679,0.4222222222222222,-0.20444444444444448,-0.7144444444444444,2.600587729357798,6.8719323394495415,-103.6096616972477
1589986756.3955317,-1.9946303291958984,-3.08907393416082,8.780739341608202,0.4222222222222222,-0.20444444444444448,-0.7144444444444444,2.3530153804641123,6.659727468969239,-102.5486373448462
1589986756.4055316,-1.8668843043905388,-3.085985793093025,9.041797022595029,0.4744444444444445,-0.09555555555555556,-0.64,2.870697309755913,6.92459192926774,-99.19778206000151
1589986756.4155316,-1.5783402716654376,-2.8033610866617504,8.174079025620287,0.4744444444444445,-0.09555555555555556,-0.64,6.5395098365725435,10.251040749815639,-95.25604824321431
1589986756.4255316,-1.6386933646059492,-2.943328948828069,7.941431356079935,0.4744444444444445,-0.09555555555555556,-0.64,4.337163832585854,7.384274813394399,-94.25722254797864
1589986756.4355316,-1.7082294155120241,-3.0959352603917822,8.52124701385571,0.4744444444444445,-0.09555555555555556,-0.64,-2.2688599896480333,0.9569845914954611,-94.634816949355
1589986756.4455316,-1.719840830664967,-3.236136102216557,8.567091118226754,0.5045731132319873,-0.042646673782309685,-0.6304470074576084,3.6347751577703855,6.385496005222743,-89.5066896975161
1589986756.4555316,-1.7431423008549902,-3.3357115042749514,8.83570176923728,0.52,-0.015555555555555557,-0.6255555555555555,3.016240053331076,5.95188827986117,-86.80539712604758
1589986756.4655316,-1.7764791050533626,-3.4626768676867687,8.89070335604989,0.52,-0.015555555555555557,-0.6255555555555555,0.9375,4.108269576957696,-84.53343512922721
1589986756.4755316,-1.7136640749248984,-3.3954961123873475,8.725496112387347,0.52,-0.015555555555555557,-0.6255555555555555,2.289282006538258,4.687182474818872,-81.27926063571303
1589986756.4855316,-1.674170214159408,-3.367531927434672,8.826808566376318,0.52,-0.015555555555555557,-0.6255555555555555,2.749733938044404,4.6662232300740065,-78.81675494465911
1589986756.4955316,-1.6725106366214937,-3.4224964544595022,8.977617002836434,0.5205547676576672,0.001087474174458104,-0.627774626186224,2.390514201859439,3.9687056807437755,-76.39184377954616
1589986756.5055315,-1.6658474502950287,-3.4854660760326004,8.777542350885087,0.5222222222222223,0.05111111111111112,-0.6344444444444445,2.6992849232579466,4.087261641085982,-72.37632481701303
1589986756.5155315,-1.6708403883495146,-3.5535774757281553,8.81715495145631,0.5222222222222223,0.05111111111111112,-0.6344444444444445,2.7782864077669904,4.09078640776699,-69.26373300970874
1589986756.5255315,-1.5841065637065639,-3.4792341974627687,8.812042140099283,0.5222222222222223,0.05111111111111112,-0.6344444444444445,2.591356867071153,3.775666023166023,-65.08192360728076
1589986756.5355315,-1.5419657739299297,-3.4419657739299296,8.801623513229226,0.5222222222222223,0.05111111111111112,-0.6344444444444445,2.42467913059309,3.5625,-61.95618956833077
1589986756.5455315,-1.5161600447677672,-3.43,8.692143928371573,0.5314488590437108,0.06741150282907418,-0.6279857986694025,2.191400391717963,3.424100447677672,-58.7812031337437
1589986756.5555315,-1.48,-3.448193377816946,8.786386755633892,0.5555555555555556,0.11,-0.6111111111111112,1.8560485647740148,3.0625,-55.13186532166688
1589986756.5655315,-1.475164676871994,-3.4948353231280063,8.826482091847945,0.5555555555555556,0.11,-0.6111111111111112,1.6916169217998487,2.911396152249811,-50.779474596547765
1589986756.5755315,-1.4770146609754864,-3.503507330487743,8.804551313414201,0.5555555555555556,0.11,-0.6111111111111112,1.5625,2.7280791844516052,-47.58167188264471
1589986756.5855315,-1.485482564973227,-3.5133880762700795,8.843223847459841,0.5555555555555556,0.11,-0.6111111111111112,1.5625,2.6380905543946715,-44.778107450698705
1589986756.5955315,-1.45,-3.566582301256485,8.812151917713736,0.5535864962032233,0.12427568030440853,-0.6219409375489383,1.5901898971421717,2.1946202057156565,-39.84572637718535
1589986756.6055315,-1.4322917653298983,-3.55130235465722,8.804583530659796,0.5511111111111111,0.14222222222222222,-0.6355555555555555,1.4313161832957624,1.9866544166398303,-35.889007416317796
1589986756.6155314,-1.390486132751636,-3.4878317925279596,8.76,0.5511111111111111,0.14222222222222222,-0.6355555555555555,1.1875,1.7447435164987362,-32.74416571448357
1589986756.6255314,-1.3251339981302588,-3.4805704442366956,8.76,0.5511111111111111,0.14222222222222222,-0.6355555555555555,1.1875,1.5178263823967315,-29.79424297115751
1589986756.6355314,-1.2726384854005612,-3.5498153527992518,8.874969225466542,0.5511111111111111,0.14222222222222222,-0.6355555555555555,1.0,1.1246153183317742,-24.478123922891328
1589986756.6455314,-1.3285142800278635,-3.482971439944273,8.863828573324044,0.564723816263273,0.15370794219435877,-0.6440634962756567,0.9042856668988623,0.8178570836235778,-19.906070670381794
1589986756.6555314,-1.306198093996905,-3.52,8.835782845972142,0.5866666666666667,0.17222222222222222,-0.6577777777777778,0.5836666123645842,0.6487619125193451,-16.154356723955363
1589986756.6655314,-1.3060503940676322,-3.52756299258454,8.77848740148309,0.5866666666666667,0.17222222222222222,-0.6577777777777778,0.2935925185386497,0.6496850370772994,-13.570905482004893
1589986756.6755314,-1.34,-3.5631375262699265,8.75970628940489,0.5866666666666667,0.17222222222222222,-0.6577777777777778,0.2303904608129581,0.3517190783740838,-9.847464631708442
1589986756.6855314,-1.3379944960440318,-3.5479944960440313,8.744011007911936,0.5866666666666667,0.17222222222222222,-0.6577777777777778,0.2811640006879945,0.1686984004127967,-7.71170880632955
1589986756.6955314,-1.3222693953008449,-3.541346976504224,8.795885767105913,0.6108735498756781,0.17499592758992144,-0.6608036381789042,0.0,-0.09928604441196069,-4.486732571637395
1589986756.7055314,-1.3445129645036051,-3.5717068774265113,8.833413754853023,0.6933333333333334,0.18444444444444444,-0.6711111111111111,-0.02591600804215197,-0.450458004021076,-1.6905158069883526
1589986756.7155313,-1.3809403912635134,-3.547623843494595,8.75475231301081,0.6933333333333334,0.18444444444444444,-0.6711111111111111,-0.19647353276182483,-0.6191225546030414,1.8549010351098054
1589986756.7255313,-1.3470104861773118,-3.5301048617731174,8.74494756911344,0.6933333333333334,0.18444444444444444,-0.6711111111111111,-0.23776215443279314,-0.8498689227836034,4.665538608198284
1589986756.7355313,-1.3430777412676405,-3.4630777412676403,8.826166119014605,0.6933333333333334,0.18444444444444444,-0.6711111111111111,-0.23562294630477312,-0.9759717658455052,8.00512474121066
1589986756.7455313,-1.3355522186350328,-3.4555522186350327,8.905232374802914,0.8018063585020565,0.19591093759124392,-0.7206463615052848,-0.560500976049253,-1.126999023950747,11.590486335310459
1589986756.7555313,-1.3163604054998834,-3.4080800901110853,8.801919909888914,1.2188888888888891,0.24,-0.9111111111111112,-0.5397525343742717,-1.450750844791424,16.729018585411325
1589986756.7655313,-1.37,-3.4421404682274246,8.764696607740087,1.2188888888888891,0.24,-0.9111111111111112,-0.9936096512183469,-1.661341376015289,20.63058408982322
1589986756.7755313,-1.3945499611778056,-3.521564235800036,8.734549961177805,1.2188888888888891,0.24,-0.9111111111111112,-1.1623215672221228,-1.9626784327778772,25.37205100639073
1589986756.7855313,-1.4463629543749574,-3.5948468935415674,8.790604923958261,1.2188888888888891,0.24,-0.9111111111111112,-1.0397684648434835,-2.217793084634795,29.329443156243606
1589986756.7955313,-1.4846746356859848,-3.6328795916996843,8.842228863071654,1.1870938449025885,0.08347055268282852,-0.9393733724322672,-1.1569278423208649,-2.654216473037405,34.0978863071654
1589986756.8055313,-1.5200311020729018,-3.5600622041458037,8.850093306218707,1.0888888888888888,-0.4,-1.0266666666666666,-1.0625,-3.0828797614368475,39.28726053967223
1589986756.8155313,-1.493244176013805,-3.5098662640207077,8.784370146678171,1.0888888888888888,-0.4,-1.0266666666666666,-1.0836119499568593,-3.4172238999137186,42.58242558239862
1589986756.8255312,-1.4466404249101878,-3.443280849820376,8.779842549461128,1.0888888888888888,-0.4,-1.0266666666666666,-1.1877460164669886,-3.75,47.41182834281589
1589986756.8355312,-1.459149464620819,-3.470850535379181,8.856597858483276,1.0888888888888888,-0.4,-1.0266666666666666,-1.0784475383596424,-3.771263384479523,50.14610815211392
1589986756.8455312,-1.45,-3.4664950829748005,8.84160786724032,0.9685450727309977,-0.28835935259168205,-0.9498386942566414,-1.2668811462814997,-4.118168023970497,53.72086470497849
1589986756.8555312,-1.4456655786138046,-3.425665578613805,8.9,0.6433333333333333,0.013333333333333334,-0.7422222222222222,-1.3125,-4.383319732672559,56.366884277239045
1589986756.8655312,-1.469788908933299,-3.432766675257128,8.85318885739053,0.6433333333333333,0.013333333333333334,-0.7422222222222222,-1.5252779209521354,-4.339097240119017,58.08513928261837
1589986756.8755312,-1.4666371040723982,-3.3948108597285067,8.774231674208144,0.6433333333333333,0.013333333333333334,-0.7422222222222222,-1.8371380090497738,-4.4242760180995475,59.19529411764706
1589986756.8855312,-1.4309714966391558,-3.351295328852208,8.793876286905471,0.6433333333333333,0.013333333333333334,-0.7422222222222222,-1.8588690121671063,-4.5483929634986815,59.65523802433421
1589986756.8955312,-1.5166204373351484,-3.465493916446865,8.915212286224794,0.6433333333333333,0.013333333333333334,-0.7422222222222222,-1.8142601888879435,-4.6822194333361695,59.566020377775885
1589986756.9055312,-1.5125569484314656,-3.380227793725863,8.881392371078665,0.5811111111111111,0.09555555555555556,-0.7144444444444444,-1.7020572169100183,-4.406961855393321,57.918511596208255
1589986756.9155312,-1.5059229229742905,-3.350730230410017,8.817423923641401,0.5811111111111111,0.09555555555555556,-0.7144444444444444,-1.8079360599373941,-4.194472597116026,56.28968029968697
1589986756.9255311,-1.5260658376005853,-3.4060658376005852,8.743032918800292,0.5811111111111111,0.09555555555555556,-0.7144444444444444,-1.5,-3.9866770299926846,54.0296817849305
1589986756.9355311,-1.5363179504726059,-3.4034307771267267,8.75552307429109,0.5811111111111111,0.09555555555555556,-0.7144444444444444,-1.4309615713613617,-3.8240064047731064,51.914743809075745
1589986756.9455311,-1.5279054406396664,-3.349763601599166,8.802398748479053,0.5800863317689322,0.09628754079996911,-0.7144444444444444,-1.1002954980010429,-3.875,49.56207630801321
1589986756.9555311,-1.568930243178445,-3.491069756821555,8.9250930471515,0.5733333333333334,0.10111111111111112,-0.7144444444444444,-1.0066859801347185,-3.771221029797922,46.79084370361913
1589986756.965531,-1.54156704124737,-3.51843295875263,8.863525842806583,0.5733333333333334,0.10111111111111112,-0.7144444444444444,-1.1777059922039372,-3.514691011694094,45.03788857990964
1589986756.975531,-1.563397914663906,-3.5762145973526582,8.753591658655624,0.5733333333333334,0.10111111111111112,-0.7144444444444444,-0.9162630333505879,-3.041263033350588,41.12080806773645
1589986756.985531,-1.579179484074119,-3.53,8.80447862419765,0.5733333333333334,0.10111111111111112,-0.7144444444444444,-0.9132478503088288,-2.904380374227928,37.03258598764685
1589986756.995531,-1.6059836952220141,-3.5260108698519903,8.858005434925994,0.5671280197697632,0.08648430056841001,-0.7233091781066875,-0.9252038097248239,-2.5628396828747064,32.46548920929742
1589986757.005531,-1.6495775083682596,-3.4969483277544935,8.827159573570363,0.5422222222222223,0.027777777777777776,-0.7588888888888888,-0.5842135242327924,-2.0013202863491886,26.002782973756013
1589986757.015531,-1.6838301155653097,-3.4391505778265494,8.773830115565309,0.5422222222222223,0.027777777777777776,-0.7588888888888888,-0.4421573334247797,-1.701472000274339,19.629102225575256
1589986757.025531,-1.884873427611532,-3.5880240643800296,8.500387530275802,0.5422222222222223,0.027777777777777776,-0.7588888888888888,-0.2967468161575123,-1.2770553363544026,14.429972556449723
1589986757.035531,-4.918100126952586,-6.535936965281228,0.8039642324888225,0.5422222222222223,0.027777777777777776,-0.7588888888888888,-19.473964370480765,42.677988905447926,-13.787916735662638
1589986757.045531,-4.185304068834768,-4.758287880997521,-5.608198191628992,0.5341283035989176,0.039693824639865184,-0.735056795164714,-52.653533797579115,82.9713203660493,-96.88123906227213
1589986757.055531,-1.4710611082946612,-0.29170631361385174,-0.013082322661155055,0.5022222222222222,0.08666666666666667,-0.6411111111111111,-24.242555229497327,-83.65584906212221,-254.19797191241275
1589986757.065531,0.12578209942274282,-0.6741271086700666,0.2949319060696072,0.5022222222222222,0.08666666666666667,-0.6411111111111111,-17.587159530348035,-52.55973981393264,-254.93940901193744
1589986757.075531,-0.09984382964919597,-0.6142803188284907,0.10738287223689699,0.5022222222222222,0.08666666666666667,-0.6411111111111111,-15.095425529449928,-52.036276588349786,-242.49630717364104
1589986757.085531,0.7510351846466996,-0.3869845885431812,1.2372957255015993,0.5022222222222222,0.08666666666666667,-0.6411111111111111,-11.50997746437918,-41.05483061936609,-228.40673160802558
1589986757.095531,2.231807534960828,-0.8961715553891815,3.860903767480414,0.49881357493218775,0.11308368316443398,-0.6470762438686715,-7.211349233936737,-32.809518636861945,-214.55580530228082
1589986757.105531,2.087635542168675,-0.6823525681674063,2.8910439124920737,0.4888888888888889,0.19,-0.6644444444444444,29.489433061192134,13.29656289632213,-204.93438887127456
1589986757.115531,0.9506265060240964,1.3921902346227015,-0.34710462904248596,0.4888888888888889,0.19,-0.6644444444444444,111.23273620798984,112.49395212428661,-203.4383243500317
1589986757.125531,-0.5523567062622535,0.33048408488063663,-1.4986498097105292,0.4888888888888889,0.19,-0.6644444444444444,30.261228159958485,186.53535672067812,-162.46059061815245
1589986757.135531,0.8087765677502934,-0.1838553095016396,7.520653009999595,0.4888888888888889,0.19,-0.6644444444444444,-10.344867110643294,33.392580259908506,-127.44519958706125
1589986757.145531,2.655191252938243,-0.8699249709143576,19.133480542298834,0.48332916505079765,0.19824372844958357,-0.6598432936818861,1.520677517392027,-8.964085167509555,-115.84124136334496
1589986757.155531,0.7963347873181299,-0.6952404929886706,5.3784437483532885,0.4566666666666666,0.23777777777777775,-0.6377777777777778,21.09908625837993,-23.183134386252526,-104.39040955531485
1589986757.165531,1.2975663907942705,-2.1144746617827463,11.289897368557458,0.4566666666666666,0.23777777777777775,-0.6377777777777778,4.740236838467784,0.6845065829258603,-92.36374012993072
1589986757.175531,0.27575064360626844,-2.8319197608721947,12.050823988803844,0.4566666666666666,0.23777777777777775,-0.6377777777777778,-15.551139701435805,22.878199673445412,-83.1692101352869
1589986757.185531,0.1057892700541656,-1.3857589631158111,5.87390185710601,0.4566666666666666,0.23777777777777775,-0.6377777777777778,-10.149563934743359,22.190579055971114,-71.85738812225948
1589986757.195531,-0.12410207634769149,-1.8928722272375547,6.9219359362909465,0.4566666666666666,0.23777777777777775,-0.6377777777777778,1.5563005787335555,3.089312774052104,-67.88500088663915
1589986757.205531,-0.07022792170707648,-2.975555526712009,10.338053060588754,0.4444444444444444,0.2788888888888889,-0.64,1.3349952624474326,5.517924822179534,-59.23076910596542
1589986757.2155309,-0.11,-2.2,7.09,0.4444444444444444,0.2788888888888889,-0.64,1.625,1.375,-55.875
1589986757.2255309,-0.12879959702417856,-2.7357885151890886,8.51876937383757,0.4444444444444444,0.2788888888888889,-0.64,0.9200151115933044,3.8424471094234347,-49.17764356013639
1589986757.2355309,-0.2323811059907834,-2.2487870967741936,7.027746543778802,0.4444444444444444,0.2788888888888889,-0.64,0.875,2.6038940092165896,-41.53678571428571
1589986757.2455308,-0.3047222750417274,-3.122362088271957,9.649725127295007,0.44209878890743437,0.2844598207892878,-0.6427854659501995,1.0516469121717267,2.581599533075574,-30.646279658152164
1589986757.2555308,-0.2730735573647025,-2.495982498296453,7.777190044112901,0.4266666666666667,0.3211111111111111,-0.6611111111111111,2.5116625721765953,1.0509741598823656,-22.301247624000286
1589986757.2655308,-0.3476632170903767,-2.8783886263809397,8.61494825635565,0.4266666666666667,0.3211111111111111,-0.6611111111111111,-0.37998718887262073,0.8115932383867962,-11.828821709037669
1589986757.2755308,-0.28485758019432983,-2.536446825502462,7.672863702914947,0.4266666666666667,0.3211111111111111,-0.6611111111111111,1.5390739385065886,1.1605134433648343,-5.548258019432982
1589986757.2855308,-0.40910012817612906,-3.2002544673150872,9.447571439342532,0.4266666666666667,0.3211111111111111,-0.6611111111111111,-2.0943319761743195,-0.5952885847847394,5.118211848752168
1589986757.2955308,-0.31337796781816135,-2.7301339034544845,7.783913581636098,0.42672922162626226,0.3231128698181697,-0.6622996553434272,1.559152413637898,-0.5879679119312854,12.745302126701924
1589986757.3055308,-0.37,-2.9,8.52,0.42777777777777776,0.3566666666666667,-0.6822222222222222,-2.6875,-2.0625,20.0
1589986757.3155308,-0.3886558539309474,-2.982914906359766,8.808129299600187,0.42777777777777776,0.3566666666666667,-0.6822222222222222,-2.557945458812865,-2.269787265899416,22.966798993185385
1589986757.3255308,-0.44975865585393093,-3.2544829149063594,9.7518281292996,0.42777777777777776,0.3566666666666667,-0.6822222222222222,-2.133620445458813,-2.9487072872658993,32.683841798993186
1589986757.3355308,-0.4473566258572356,-3.0781048163575604,9.169377088645687,0.42777777777777776,0.3566666666666667,-0.6822222222222222,-0.074653740160598,-2.995323809372971,41.93453333122159
1589986757.3455307,-0.4340707011514278,-3.018318155181425,8.764156385118548,0.42777777777777776,0.3566666666666667,-0.6822222222222222,-2.6488016519108633,-3.2859534123125167,46.003347772375236
1589986757.3555307,-0.4418010779272152,-3.1455184434335446,8.878010779272152,0.4177777777777778,0.3422222222222222,-0.6944444444444444,0.016752991495253167,-3.4185868275316453,53.550787430775316
1589986757.3655307,-0.46384385152592666,-4.016557008006958,9.606751426159475,0.4177777777777778,0.3422222222222222,-0.6944444444444444,-2.2019518559259166,-3.758170039139444,56.13085173057737
1589986757.3755307,-0.6617304939931474,-5.201726156915471,9.723835277789826,0.4177777777777778,0.3422222222222222,-0.6944444444444444,-11.381310448020123,-4.873435941362709,-6.067181333217675
1589986757.3855307,-1.421752005480542,-1.7832682150670702,9.094894919449294,0.4177777777777778,0.3422222222222222,-0.6944444444444444,-28.131350688382575,-7.743951791120638,-199.9274435924068
1589986757.3955307,0.12465832644871946,-3.658312286085212,12.461910185294464,0.4200340952306018,0.3414969773266716,-0.6950891065738227,9.76081007317361,25.93314056414493,-278.24755473268027
1589986757.4055307,0.40516936150123917,-2.3877623037885045,6.909441756166647,0.4457017716406363,0.3332466527663034,-0.7024227284052612,21.25969992918683,15.929622034698454,-232.71607606514812
1589986757.4155307,-0.6391942883244296,-3.332963477846404,11.21159454252974,0.4488888888888889,0.3322222222222222,-0.7033333333333334,11.841448126228826,12.26820522113876,-221.82975567493497
1589986757.4255307,-2.305902419913811,-3.9083337853720277,9.431178916915288,0.4488888888888889,0.3322222222222222,-0.7033333333333334,-25.087290555404877,4.342304417924841,-192.12101075852092
1589986757.4355307,-10.943373061745127,-16.1559644437358,8.128765894686492,0.4488888888888889,0.3322222222222222,-0.7033333333333334,0.6863564794515088,6.4586239885199515,-23.7565472156894
1589986757.4455307,0.1328514484793321,0.7424456231756693,12.813483883117291,0.4425742722729635,0.3404633320430062,-0.703868470334683,3.632369903643953,-16.43963427073852,105.53287718527353
1589986757.4555306,-0.9562186755137538,-1.7007252141982865,6.364912388069316,0.38333333333333336,0.4177777777777778,-0.7088888888888889,10.370231873671326,1.5209165431939704,121.65165500386523
1589986757.4655306,-0.6252248276750628,-2.0857588739290085,8.134716227533337,0.38333333333333336,0.4177777777777778,-0.7088888888888889,-11.372348692263095,-6.585055240610705,125.32467346840173
1589986757.4755306,-0.19511621808472596,-2.541545283333731,9.979519631916466,0.38333333333333336,0.4177777777777778,-0.7088888888888889,-15.572739111259446,-19.288147841323575,130.15494254654683
1589986757.4855306,8.204701210779845,-15.48462023174066,7.223962504882177,0.38333333333333336,0.4177777777777778,-0.7088888888888889,-6.191426897539383,-10.417408215076163,85.85100572842077
1589986757.4955306,2.329005376344085,-6.22986559139785,8.783172043010753,0.38333333333333336,0.4177777777777778,-0.7088888888888889,0.170866935483871,1.77016129032258,-2.226814516129039
1589986757.5055306,-0.33341258310218813,-1.1111878659798353,9.069773257605776,0.37831173532533985,0.3966870661442052,-0.6958327340681059,19.626956478668603,13.6997837141725,-50.16232443974816
1589986757.5155306,-0.7946567755093878,-2.5565619563695985,9.742155325828318,0.37777777777777777,0.3944444444444444,-0.6944444444444444,-6.023814760752634,-0.03748550318929844,-38.46135100277939
1589986757.5255306,-0.5514408830057387,-2.8081646037871666,10.169879826438184,0.37777777777777777,0.3944444444444444,-0.6944444444444444,-12.209046509767852,-6.746889434324449,-27.87307292395673
1589986757.5355306,-0.02693765281173599,-7.046656479217603,8.37392216788916,0.37777777777777777,0.3944444444444444,-0.6944444444444444,0.3774577220863886,2.353822840260799,-19.332951303993482
1589986757.5455306,-2.7185912568074424,-13.734187027187387,8.379989828569007,0.37778794920877096,0.3944506603189402,-0.6944444444444444,-0.3096392850331631,-2.2468532135364794,-5.682795713165646
1589986757.5555305,-0.25663643491343713,-3.5752904155453376,8.362213981479519,0.3955637962982584,0.40531367798473816,-0.6944444444444444,4.689817708885169,3.252549479773686,2.538533565722277
1589986757.5655305,0.004480399343735819,-4.776950815094077,8.300085523789576,0.3977777777777778,0.4066666666666667,-0.6944444444444444,-3.2843905993646803,-1.7931218801270639,0.02565931860229692
1589986757.5755305,-0.02480224805389744,-5.450451705239642,9.361581491953782,0.3977777777777778,0.4066666666666667,-0.6944444444444444,-2.1405371853946313,-2.0218925629210736,-2.4908181921318113
1589986757.5855305,-0.14075815552240745,-4.274620922238796,8.45066779082085,0.3977777777777778,0.4066666666666667,-0.6944444444444444,0.9453974533584106,0.7639330263527682,-0.19511506366603973
1589986757.5955305,0.06958983587229686,-4.381640656510813,8.942362942508765,0.3978689253617118,0.40694010941846875,-0.6944444444444444,-1.2371823710092769,-0.9041741646241196,-0.23718237100927678
1589986757.6055305,0.06,-4.42,8.53,0.4,0.4133333333333333,-0.6944444444444444,-0.9375,-0.125,0.0625
1589986757.6155305,0.03720624219725343,-4.388917602996255,8.52378352059925,0.4,0.4133333333333333,-0.6944444444444444,-0.6396270287141074,-0.125,0.11430399500624219
1589986757.6255305,-0.021120661157024795,-4.274813223140495,8.610704132231405,0.4,0.4133333333333333,-0.6944444444444444,0.5,-0.125,0.25233471074380165
1589986757.6355305,0.07,-4.29,8.96,0.4,0.4133333333333333,-0.6944444444444444,0.5,-0.125,0.0625
1589986757.6455305,0.048299268630164066,-4.3279762798972135,8.862346708835739,0.4,0.4133333333333333,-0.6944444444444444,0.0252965012848389,0.01062957106147458,0.0625
1589986757.6555305,0.03678468312400751,-4.38713873249603,8.746076584379962,0.40452312208267166,0.40881021125066164,-0.704244542290233,-0.41740426952504694,0.125,0.020095730474953083
1589986757.6655304,0.019481013164739307,-4.386886078988436,8.653632907846825,0.4066666666666667,0.4066666666666667,-0.7088888888888889,0.10142401264455203,-0.05276899683886199,0.11851266455924132
1589986757.6755304,0.011089392181185227,-4.336536353087111,8.712374254731705,0.4066666666666667,0.4066666666666667,-0.7088888888888889,0.7307955864111081,0.10457389660277702,0.013617402264815323
1589986757.6855304,0.02857971899816738,-4.302130421502749,8.710710140500916,0.4066666666666667,0.4066666666666667,-0.7088888888888889,0.46413026878436164,-0.04918486560781918,0.0
1589986757.6955304,0.01239602535857201,-4.317603974641428,8.780415898565712,0.4066666666666667,0.4066666666666667,-0.7088888888888889,-0.1676366282990872,-0.11751242075446247,-0.05501242075446248
1589986757.7055304,0.061880085826484764,-4.36446864499413,8.767765677502934,0.3918437850019567,0.3976082389826772,-0.698183474353265,-0.7132150520221854,-0.31028602080887413,0.030143010404437065
1589986757.7155304,0.02,-4.41,8.715958875819341,0.38666666666666666,0.3944444444444444,-0.6944444444444444,-0.4219572146897728,-0.12305715183622161,-0.0605571518362216
1589986757.7255304,0.02,-4.41,8.618040405854359,0.38666666666666666,0.3944444444444444,-0.6944444444444444,-0.045347714824458984,-0.07598096435305737,-0.013480964353057373
1589986757.7355304,0.03,-4.335650190920662,8.773624840899448,0.38666666666666666,0.3944444444444444,-0.6944444444444444,0.6159378977513789,0.05796894887568944,-0.0625
1589986757.7455304,0.03,-4.291162494696648,8.810697921086126,0.38666666666666666,0.3944444444444444,-0.6944444444444444,0.523255197284684,0.011627598642341967,-0.0625
1589986757.7555304,0.06890494296577948,-4.35,8.854524714828896,0.38666666666666666,0.4,-0.6877777777777778,-0.31934410646387834,-0.009125475285171103,-0.12271863117870722
1589986757.7655303,0.044369698742322314,-4.35,8.731848493711611,0.38666666666666666,0.4,-0.6877777777777778,-0.47268938286048556,-0.2135858438139807,-0.07160353904650482
1589986757.7755303,0.02847665141241584,-4.403144931355872,8.67380837146896,0.38666666666666666,0.4,-0.6877777777777778,0.08154185734480197,-0.0625,0.06726046433620049
1589986757.7855303,0.010886938294248657,-4.32,8.725765098912618,0.38666666666666666,0.4,-0.6877777777777778,0.3069566356609459,-0.07081504650858116,0.11945663566094589
1589986757.7955303,0.021876850517489846,-4.32,8.797199528363684,0.38666666666666666,0.4,-0.6877777777777778,0.23826968426568845,-0.1738454736014673,0.05076968426568845
1589986757.8055303,0.03886018544762522,-4.328860185447625,8.836709721828562,0.3955268521142919,0.4,-0.681378754954493,-0.14475695428594565,-0.13924768190468478,0.055376159047657615
1589986757.8155303,0.0402196261682243,-4.371317757009346,8.776266355140187,0.4066666666666667,0.4,-0.6733333333333333,-0.7445093457943925,-0.24862733644859814,0.06387266355140186
1589986757.8255303,0.04805943925233645,-4.4183566355140185,8.64298953271028,0.4066666666666667,0.4,-0.6733333333333333,-0.5485140186915888,-0.1996285046728972,0.1128714953271028
1589986757.8355303,0.04409798971482001,-4.4004899485741,8.70443216456288,0.4066666666666667,0.4,-0.6733333333333333,-0.020461664329125773,-0.15061243571762506,0.08811243571762506
1589986757.8455303,0.033527758030116976,-4.334694306210818,8.78941672590965,0.4066666666666667,0.4,-0.6733333333333333,0.47430604924707553,-0.0036454630646933356,0.10295151231176888
1589986757.8555303,0.03,-4.31,8.83825332894953,0.39391555701682285,0.4,-0.686792837963724,0.3632639117211902,0.022652782344238037,0.125
1589986757.8655303,0.03891435906840272,-4.363486154410416,8.82434256372639,0.38666666666666666,0.4,-0.6944444444444444,-0.1957179534201357,0.05571474417751696,0.013570511644966074
1589986757.8755302,0.032578200856734886,-4.377421799143265,8.693829414564494,0.38666666666666666,0.4,-0.6944444444444444,-0.4355449785816278,-0.0302724892908139,0.04638624464540695
1589986757.8855302,0.05,-4.3695501481097185,8.680824728465517,0.38666666666666666,0.4,-0.6944444444444444,0.002811574314260372,-0.1875,0.0009371914380867907
1589986757.8955302,0.05,-4.327433769015782,8.758038090137733,0.38666666666666666,0.4,-0.6944444444444444,0.2660389436513648,-0.1875,0.08867964788378827
1589986757.9055302,0.04102096727060199,-4.318979032729398,8.825916130917593,0.380680644847068,0.3950116484836677,-0.6944444444444444,0.038286272647574504,-0.1875,0.18111895455873758
1589986757.9155302,0.04,-4.339299940840071,8.772100177479787,0.38,0.3944444444444444,-0.6944444444444444,-0.4824985210017748,-0.0668753697495563,0.1875
1589986757.9255302,0.04934786620530565,-4.386739331026528,8.639129873125722,0.38,0.3944444444444444,-0.6944444444444444,-0.675272491349481,-0.0625,-0.1046208189158016
1589986757.9355302,0.0595082525097839,-4.39,8.649016505019569,0.38,0.3944444444444444,-0.6944444444444444,-0.09323421813850596,-0.0030734218138506048,-0.0655734218138506
1589986757.9455302,0.028529759558533707,-4.358529759558533,8.752278281434766,0.38,0.3944444444444444,-0.6944444444444444,0.33087800551832874,0.0,0.13418900275916437
1589986757.9555302,0.02908223415431306,-4.3318355316913735,8.825411170771565,0.4102741138477102,0.40554495285527153,-0.6944444444444444,0.5510279269289133,0.11352792692891328,0.01720810960663008
1589986757.9655302,0.02021093000958773,-4.320210930009588,8.83,0.4133333333333333,0.4066666666666667,-0.6944444444444444,0.01186481303930964,0.0026366251198465945,0.0
1589986757.9755301,0.03809127717630491,-4.347136915764457,8.730497975530323,0.4133333333333333,0.4066666666666667,-0.6944444444444444,-0.2826762058797641,-0.11307048235190563,0.0
1589986757.9855301,0.04,-4.35,8.710784198402196,0.4133333333333333,0.4066666666666667,-0.6944444444444444,-0.2549012400137235,-0.06740124001372347,-0.057598759986276525
1589986757.9955301,0.04,-4.36535105792852,8.756053173785562,0.4133333333333333,0.4066666666666667,-0.6944444444444444,0.03783233615975912,-0.20641616807987956,0.12938822410650608
1589986758.00553,0.028530751708428247,-4.341326879271071,8.787203872437358,0.40951025056947604,0.4066666666666667,-0.6906213616805872,0.19668280182232345,-0.1424757972665148,0.0799757972665148
1589986758.01553,0.027291619860705458,-4.327291619860706,8.785416760278588,0.4066666666666667,0.4066666666666667,-0.6877777777777778,-0.023435744776454714,-0.10807262412940913,0.04557262412940913
1589986758.02553,0.03601716217387536,-4.34203432434775,8.70177689173962,0.4066666666666667,0.4066666666666667,-0.6877777777777778,-0.3130363179336049,-0.20021452717344196,0.0625
1589986758.03553,0.03396672922166735,-4.3680998123349974,8.67413308311333,0.4066666666666667,0.4066666666666667,-0.6877777777777778,-0.5129158847291581,-0.13687617290626292,0.024792057635420972
1589986758.04553,0.0357960981749528,-4.391592196349905,8.718980490874763,0.4066666666666667,0.4066666666666667,-0.6877777777777778,-0.20024386406544997,0.046176840780365006,0.0
1589986758.05553,0.032644134477825465,-4.370576537911302,8.791491058655222,0.411570577014783,0.4066666666666667,-0.6877777777777778,0.29237079756795425,0.07902584048640915,0.045974159513590844
1589986758.06553,0.0235944973858875,-4.33437798954355,8.790783492157662,0.4133333333333333,0.4066666666666667,-0.6877777777777778,0.375,0.0625,0.0625
1589986758.07553,0.02,-4.3444923444456505,8.739179425923915,0.4133333333333333,0.4066666666666667,-0.6877777777777778,0.06884569442936256,0.0625,0.0625
1589986758.08553,0.02720587085678549,-4.357205870856785,8.737205870856785,0.4133333333333333,0.4066666666666667,-0.6877777777777778,-0.2702201571294559,0.0625,-0.07261007856472795
1589986758.09553,0.03,-4.372559512992913,8.746279756496456,0.4133333333333333,0.4066666666666667,-0.6877777777777778,-0.17875760948573508,-0.055245434308558966,-0.04650304379429401
1589986758.10553,0.018864690637454537,-4.368864690637455,8.761135309362546,0.405909793758303,0.4066666666666667,-0.6958199456507272,0.11148920878977286,-0.09020215824204543,0.0
1589986758.11553,0.03411324547688184,-4.327849006030824,8.818226490953764,0.4,0.4066666666666667,-0.7022222222222222,0.25,0.03797185615367432,0.05023592807683716
1589986758.12553,0.04,-4.346854785559108,8.704677667390825,0.4,0.4066666666666667,-0.7022222222222222,-0.1416322894036664,0.006552530085190522,0.0625
1589986758.13553,0.04852208162618557,-4.375566244878557,8.732610408130927,0.4,0.4066666666666667,-0.7022222222222222,-0.3472890304909795,0.15978903049097948,0.009236989836340179
1589986758.14553,0.036179902439024386,-4.373089951219512,8.74,0.4,0.4066666666666667,-0.7022222222222222,-0.375,0.10112439024390245,0.08637560975609755
