time,acc_x,acc_y,acc_z,mag_x,mag_y,mag_z,gyr_x,gyr_y,gyr_z
1589986879.459694,-3.78,-0.79,8.85,0.27111111111111114,-0.3888888888888889,-0.6522222222222223,0.6875,-1.5,-0.1875
1589986879.469694,-3.7549234724381204,-0.7732823149587469,8.866717685041252,0.27111111111111114,-0.3888888888888889,-0.6522222222222223,0.7397427657539161,-1.5,-0.1875
1589986879.479694,-3.7436918931057717,-0.7826162137884572,8.907848641365371,0.2669057065149587,-0.3846834842927365,-0.643110512263892,0.552871659555356,-1.0268919829328542,-0.1480743319110712
1589986879.4896939,-3.7638315751832647,-0.7820561416055785,8.961775433577687,0.2644444444444444,-0.38222222222222224,-0.6377777777777778,0.23890354013946005,-0.2038597353835151,-0.27394734489540495
1589986879.4996939,-3.783393157807094,-0.78,8.923123947675172,0.2644444444444444,-0.38222222222222224,-0.6377777777777778,0.2293536181471682,-0.1880608544415046,-0.10323190926415898
1589986879.5096939,-3.7807157172589223,-0.8078528482232329,9.011411392892931,0.2644444444444444,-0.38222222222222224,-0.6377777777777778,0.30802676713173516,-0.4821070685269406,-0.11605353426347029
1589986879.5196939,-3.78,-0.81,9.04475399459668,0.2644444444444444,-0.38222222222222224,-0.6377777777777778,0.4672124662292551,-0.693390582786569,-0.3183905827865689
1589986879.5296938,-3.7330229482691557,-0.7831559704395177,8.979467911318553,0.2689184493711915,-0.3911702320757164,-0.6437431176801072,0.7302751847530143,-1.231937961882536,-0.6052751847530143
1589986879.5396938,-3.7784106230847803,-0.7836821246169561,9.063139121552604,0.27111111111111114,-0.3955555555555556,-0.6466666666666666,0.3849336057201226,-0.9671769662921348,-0.516473442288049
1589986879.5496938,-3.740820219095813,-0.759671912361675,8.860328087638324,0.27111111111111114,-0.3955555555555556,-0.6466666666666666,-0.06352527386976589,0.18237363065117054,-0.30839890452093643
1589986879.5596938,-3.7796930434299063,-0.7441227826280375,8.875877217371963,0.27111111111111114,-0.3955555555555556,-0.6466666666666666,-0.11211630428738253,-0.060581521436912644,-0.11403478285046989
1589986879.5696938,-3.757642643430791,-0.7642680174269068,8.91235735656921,0.27111111111111114,-0.3955555555555556,-0.6466666666666666,-0.125,-0.074441630360611,0.038616739278778026
1589986879.5796938,-3.789941694321534,-0.7859766777286136,8.94396501659292,0.2870877888397247,-0.3849044370698132,-0.635127954973779,-0.125,-0.0625,0.012572882098082598
1589986879.5896938,-3.77,-0.8005397047086992,8.947301476456504,0.2911111111111111,-0.38222222222222224,-0.6322222222222222,0.0625,0.059126845570630485,-0.11488053671189147
1589986879.5996938,-3.77,-0.81,8.9,0.2911111111111111,-0.38222222222222224,-0.6322222222222222,0.0625,0.0,0.0625
1589986879.6096938,-3.77,-0.797016366456678,8.925967267086644,0.2911111111111111,-0.38222222222222224,-0.6322222222222222,0.02192614517711862,0.08114770964576276,-0.059221564468644156
1589986879.6196938,-3.7769789687924016,-0.7830210312075984,9.02374762550882,0.2911111111111111,-0.38222222222222224,-0.6322222222222222,0.17447421981004071,0.125,-0.03776289009497964
1589986879.6296937,-3.78,-0.78,9.06,0.26730078405647706,-0.38222222222222224,-0.637182707025271,0.19419454596570143,0.013389091931402863,0.0
1589986879.6396937,-3.7684369280667207,-0.7905210239777598,9.035310784200162,0.2644444444444444,-0.38222222222222224,-0.6377777777777778,0.05598720027800301,0.07552559944399398,-0.0625
1589986879.6496937,-3.7408549783549785,-0.8,8.949358766233766,0.2644444444444444,-0.38222222222222224,-0.6377777777777778,-0.0625,0.3058204816017316,-0.06383590367965368
1589986879.6596937,-3.7757725607725607,-0.8,8.92317057942058,0.2644444444444444,-0.38222222222222224,-0.6377777777777778,-0.0625,0.03302686896436896,-0.11839462620712621
1589986879.6696937,-3.78584815267224,-0.7941518473277599,8.91415184732776,0.2644444444444444,-0.38222222222222224,-0.6377777777777778,-0.0990509542015007,0.0731019084030014,-0.0518980915969986
1589986879.6796937,-3.7839416871542717,-0.8021166256914567,8.934233251382913,0.26040556921395885,-0.3936657020419313,-0.629026881445059,-0.125,-0.026457821143208354,-0.07572891057160418
1589986879.6896937,-3.7796550966125166,-0.7703449033874833,8.89896528983755,0.2577777777777778,-0.4011111111111111,-0.6233333333333333,-0.18318870765645953,0.19181129234354047,-0.05818870765645952
1589986879.6996937,-3.7704350311050536,-0.7795649688949463,8.871305093315161,0.2577777777777778,-0.4011111111111111,-0.6233333333333333,-0.06793788881317184,0.30706211118682813,0.05706211118682816
1589986879.7096937,-3.7601704503529527,-0.7701704503529527,8.909318198588188,0.2577777777777778,-0.4011111111111111,-0.6233333333333333,-0.0010653147059546952,0.3739346852940453,-0.2446734264702265
1589986879.7196937,-3.7297608357005405,-0.7926793732245946,8.94023916429946,0.2577777777777778,-0.4011111111111111,-0.6233333333333333,-0.0944973884358105,0.6584921653074315,-0.48624347108952626
1589986879.7296937,-3.695051851851852,-0.793762962962963,8.993659259259259,0.27440987654320986,-0.3934880658436214,-0.6323423868312757,-0.2809259259259259,1.0618518518518518,-0.8743518518518518
1589986879.7396936,-3.7388385404245175,-0.8096128468081724,9.029806423404086,0.28444444444444444,-0.3888888888888889,-0.6377777777777778,-0.5588704388266158,1.862901462755386,-1.981852194133079
1589986879.7496936,-3.7690545497021377,-0.829369699801425,8.9525212007943,0.28444444444444444,-0.3888888888888889,-0.6377777777777778,-0.5019696881205467,1.69340906436164,-2.54477280691508
1589986879.7596936,-3.809526777020448,-0.7805915287244402,8.969763388510225,0.28444444444444444,-0.3888888888888889,-0.6377777777777778,-0.2529576436222006,0.9463729308666018,-2.8095423563777993
1589986879.7696936,-3.80174853708053,-0.7965029258389396,8.994754388758409,0.28444444444444444,-0.3888888888888889,-0.6377777777777778,-0.09528507025994187,0.37021192428645355,-2.760928356753314
1589986879.7796936,-3.799713400923113,-0.79,8.950573198153773,0.2788888888888889,-0.3888888888888889,-0.6377777777777778,0.11783502307783345,-0.057126267308375084,-2.48925253461675
1589986879.7896936,-3.7914402935027023,-0.79,8.967119412994595,0.2788888888888889,-0.3888888888888889,-0.6377777777777778,-0.08899266243244308,0.09799449682433231,-2.1790110063513355
1589986879.7996936,-3.8167387948335305,-0.8256517264447074,8.8541318890547,0.2788888888888889,-0.3888888888888889,-0.6377777777777778,-0.0692941774301446,0.1807058225698554,-1.9578825322904339
1589986879.8096936,-3.8051281444681018,-0.8151281444681019,8.884615566595695,0.2788888888888889,-0.3888888888888889,-0.6377777777777778,0.03044909707436322,-0.044872742685908074,-1.5192290631653655
1589986879.8196936,-3.8,-0.8030048105978196,8.927980757608722,0.2788888888888889,-0.3888888888888889,-0.6377777777777778,0.23737973505451204,0.006159801290884059,-1.287560132472744
1589986879.8296936,-3.806757567431424,-0.7932424325685763,8.973787837157118,0.28264309301745766,-0.3791279581546102,-0.6182559163092204,0.39696959289279665,-0.06420438933919492,-0.9121216284288135
1589986879.8396935,-3.8006765554735216,-0.79,9.008646889052956,0.28444444444444444,-0.3744444444444445,-0.6088888888888889,0.20441388683804282,-0.06672847170951071,-0.4003708302570642
1589986879.8496935,-3.785676926388291,-0.7971615368058546,8.94554616874731,0.28444444444444444,-0.3744444444444445,-0.6088888888888889,0.09798078992681877,-0.24153842014636245,-0.24072118489022815
1589986879.8596935,-3.796366712620629,-0.8054555708735431,8.947277854367716,0.28444444444444444,-0.3744444444444445,-0.6088888888888889,0.09659731795964407,-0.34659731795964405,-0.1875
1589986879.8696935,-3.803201656900384,-0.81,8.997193372398465,0.28444444444444444,-0.3744444444444445,-0.6088888888888889,0.20997928874520105,-0.6724275106082036,-0.22998964437260053
1589986879.8796935,-3.793729750628262,-0.8225404987434757,9.003729750628262,0.2886246106922697,-0.37932130506690726,-0.6235194707562772,0.36756717572008507,-1.321957761453702,-0.13243282427991493
1589986879.8896935,-3.7058967694021536,-0.762717415521723,8.90748644634237,0.2911111111111111,-0.38222222222222224,-0.6322222222222222,0.33237096175269215,-1.4673064426290383,-0.11506451912365392
1589986879.8996935,-3.7292203554568175,-0.8022938072757567,8.909610177728409,0.2911111111111111,-0.38222222222222224,-0.6322222222222222,0.1490818522632602,-0.538700187447931,-0.0432909261316301
1589986879.9096935,-3.732488651748029,-0.8037329776220435,8.92,0.2911111111111111,-0.38222222222222224,-0.6322222222222222,0.11722296328740942,-0.007777036712590585,-0.10944592657481883
1589986879.9196935,-3.756453140705658,-0.813226570352829,8.939839855529243,0.2911111111111111,-0.38222222222222224,-0.6322222222222222,0.04233393529481916,0.08266606470518084,-0.08366696764740958
1589986879.9296935,-3.7780965836116103,-0.7957102491651683,8.982386334446442,0.26952022148014954,-0.393017667037703,-0.6313226018209321,0.20241459029026457,-0.026810942717698433,-0.011896352427433858
1589986879.9396935,-3.793327048585932,-0.7966635242929659,8.99,0.2644444444444444,-0.3955555555555556,-0.6311111111111111,0.208352973168963,-0.10414702683103698,-0.04164702683103698
1589986879.9496934,-3.7550267481849446,-0.8,8.945026748184944,0.2644444444444444,-0.3955555555555556,-0.6311111111111111,0.07506687046236149,-0.06878343523118075,-0.0625
1589986879.9596934,-3.7859687085411045,-0.7910078228647239,8.94,0.2644444444444444,-0.3955555555555556,-0.6311111111111111,-0.04990221419095109,0.04990221419095109,-0.0625
1589986879.9696934,-3.79,-0.797032693208431,8.961098079625293,0.2644444444444444,-0.3955555555555556,-0.6311111111111111,-0.10645433255269321,-0.025408665105386405,0.025408665105386405
1589986879.9796934,-3.778616840361052,-0.8056915798194741,8.981383159638948,0.27266561529479594,-0.38796678246292343,-0.6349054976574272,-0.1961447477434265,0.008644747743426495,0.09807237387171325
1589986879.9896934,-3.7827787539245903,-0.8036106230377049,8.983610623037706,0.2788888888888889,-0.38222222222222224,-0.6377777777777778,-0.21006639398565544,0.022566393985655443,0.045132787971310886
1589986879.9996934,-3.783496251409868,-0.813007497180264,8.901955016918416,0.2788888888888889,-0.38222222222222224,-0.6377777777777778,-0.1468515713116748,-0.08129685737665038,-0.04064842868832519
1589986880.0096934,-3.770537330726338,-0.815268665363169,8.888388007820986,0.2788888888888889,-0.38222222222222224,-0.6377777777777778,-0.125,-0.09542915851980592,-0.03292915851980592
1589986880.0196934,-3.76,-0.81,8.946933510452352,0.2788888888888889,-0.38222222222222224,-0.6377777777777778,-0.06888851989093198,-0.11861148010906802,-0.028055740054534015
1589986880.0296934,-3.7651346527273795,-0.81,8.98,0.2851645755556863,-0.3782286034342603,-0.6349251929292336,-0.03209157954612322,-0.28377473863836966,-0.0625
1589986880.0396934,-3.783642732049037,-0.8031786339754816,9.000464098073556,0.2911111111111111,-0.3744444444444445,-0.6322222222222222,0.022767075306479867,-0.2470993870402802,-0.019866462346760067
1589986880.0496933,-3.784027858386535,-0.8,8.932362159024956,0.2911111111111111,-0.3744444444444445,-0.6322222222222222,0.0625,-0.03819645966337784,0.07465177016831108
1589986880.0596933,-3.766439965816835,-0.7932199829084177,8.920680102549495,0.2911111111111111,-0.3744444444444445,-0.6322222222222222,-0.10700042728955989,0.10487510682238997,0.04024978635522006
1589986880.0696933,-3.766678982520961,-0.7966789825209607,8.973394912604803,0.2911111111111111,-0.3744444444444445,-0.6322222222222222,-0.14575635924399602,0.16674364075600398,-0.08348728151200796
1589986880.0796933,-3.77,-0.8,9.006519128329298,0.2911111111111111,-0.3643494215765402,-0.6560831853645412,-0.27986682808716706,0.1875,-0.1766222760290557
1589986880.0896933,-3.77,-0.8,8.985118614070318,0.2911111111111111,-0.3622222222222222,-0.6611111111111111,-0.1569913379394847,0.1875,-0.10974566896974235
1589986880.0996933,-3.762505791652425,-0.8224826250427253,8.902552124871825,0.2911111111111111,-0.3622222222222222,-0.6611111111111111,-0.15617760434468878,0.28117760434468875,-0.0625
1589986880.1096933,-3.7678101867196996,-0.814379626560601,8.8878101867197,0.2911111111111111,-0.3622222222222222,-0.6611111111111111,-0.13868633300187824,0.36131366699812173,-0.11131366699812176
1589986880.1196933,-3.77,-0.8038875319619891,8.932787276266078,0.2911111111111111,-0.3622222222222222,-0.6611111111111111,-0.08679707476243179,0.5278117009502729,-0.125
1589986880.1296933,-3.77,-0.804705292090223,8.978821168360891,0.28797424971762914,-0.36797313477693916,-0.6469952348404423,-0.0036838488722132495,0.625,-0.125
1589986880.1396933,-3.77,-0.8037637634105026,8.987527526821005,0.28444444444444444,-0.3744444444444445,-0.6311111111111111,-0.05442943605307736,0.8198823934217956,0.03090591473743648
1589986880.1496933,-3.762212235141797,-0.8,8.909910116276174,0.28444444444444444,-0.3744444444444445,-0.6311111111111111,-0.3196941214550706,1.2782147125463736,0.125
1589986880.1596932,-3.76,-0.7944358042146368,8.928949370497543,0.28444444444444444,-0.3744444444444445,-0.6311111111111111,-0.6184335656096411,1.8270909075607622,0.15977622365852018
1589986880.1696932,-3.7783373033377443,-0.7945843258344362,8.955415674165565,0.28444444444444444,-0.3744444444444445,-0.6311111111111111,-1.0417162917218057,2.474020364652257,0.2161520364652257
1589986880.1796932,-3.7834544111958928,-0.8248183832061605,9.007909560814374,0.2734140519083731,-0.39190923262655747,-0.6072119272829565,-1.3125,2.709090069974331,0.09488510496149652
1589986880.1896932,-3.816311309838991,-0.8154754760644035,8.97642642819321,0.27111111111111114,-0.3955555555555556,-0.6022222222222222,-1.267110862701261,2.324386901610088,-0.16444568649369498
1589986880.1996932,-3.825513459780988,-0.8234596206570362,8.933080758685929,0.27111111111111114,-0.3955555555555556,-0.6022222222222222,-1.0537138654182232,1.8790503599429222,-0.3060817527376505
1589986880.2096932,-3.82,-0.84,8.902635894215338,0.27111111111111114,-0.3955555555555556,-0.6022222222222222,-0.7136539669248483,1.2858335950038378,-0.42442301653757586
1589986880.2196932,-3.811817467797675,-0.8318174677976751,8.91,0.27111111111111114,-0.3955555555555556,-0.6022222222222222,-0.36078876060320453,0.6875,-0.46021834747093937
1589986880.2296932,-3.787274321712363,-0.8072743217123631,8.93120946381273,0.2795948966362024,-0.38989969853882805,-0.6173045076001623,-0.2765118297659102,0.793547319063641,-0.2329645107022693
1589986880.2396932,-3.7845837406933893,-0.8045837406933894,8.964861246897797,0.2911111111111111,-0.38222222222222224,-0.6377777777777778,-0.4340311724449124,1.0894139655561406,-0.1857655862224562
1589986880.2496932,-3.8,-0.8094050251985062,8.938215075595519,0.2911111111111111,-0.38222222222222224,-0.6377777777777778,-0.5625,1.3824371850186723,-0.21689070374533193
1589986880.2596931,-3.816705875569394,-0.833411751138788,8.960117626708183,0.2911111111111111,-0.38222222222222224,-0.6377777777777778,-0.49289218512752503,1.3955882776912876,-0.11789218512752503
1589986880.2696931,-3.8345228573481167,-0.8464314279556503,9.004522857348116,0.2911111111111111,-0.38222222222222224,-0.6377777777777778,-0.2678928494456285,0.8602142651883427,-0.09076785842572858
1589986880.2796931,-3.8171615730982946,-0.83,9.005432314619659,0.2941562346980051,-0.38222222222222224,-0.648435710331907,0.08024016813565815,-0.17281657166123782,-0.125
1589986880.289693,-3.7715562861064122,-0.83,8.987704190737608,0.2977777777777777,-0.38222222222222224,-0.6611111111111111,0.2884244039449746,-0.5194535763301522,-0.048151192110050756
1589986880.299693,-3.766110452035181,-0.7994477398240949,8.888343219472285,0.2977777777777777,-0.38222222222222224,-0.6611111111111111,0.006977398240949062,0.19785487829822046,0.07638065043976273
1589986880.309693,-3.7897487653612036,-0.7668341564258643,8.836582921787068,0.2977777777777777,-0.38222222222222224,-0.6611111111111111,-0.5577893505225681,1.3030787010451361,0.24842978350752268
1589986880.319693,-3.829788795240456,-0.7778732771442737,8.88170431333664,0.2977777777777777,-0.38222222222222224,-0.6611111111111111,-1.0478879524045612,2.1343319286068416,0.7593319286068418
1589986880.329693,-3.890713813615334,-0.8035712712051113,8.95749944921789,0.28496046608406156,-0.3950395339159384,-0.6415081638148393,-1.377230667547918,2.3950897774840274,2.037935117867372
1589986880.339693,-3.916785714285714,-0.8235714285714285,8.966428571428573,0.2788888888888889,-0.4011111111111111,-0.6322222222222222,-1.140625,1.7388392857142856,3.6875
1589986880.349693,-3.8943386331672665,-0.8235846582918166,8.915092608042718,0.2788888888888889,-0.4011111111111111,-0.6322222222222222,-0.5589452575623942,0.5553905151247884,5.4528765702843796
1589986880.359693,-3.8441194905647795,-0.82,8.89,0.2788888888888889,-0.4011111111111111,-0.6322222222222222,-0.08824681602987264,-0.7223861438954458,6.7603840212486945
1589986880.369693,-3.784901838986514,-0.8083006129955047,8.905599182672661,0.2788888888888889,-0.4011111111111111,-0.6322222222222222,0.08687372292603188,-1.2012525541479362,7.333742337556191
1589986880.379693,-3.7249560127962775,-0.7950439872037226,8.938406645339537,0.2788888888888889,-0.3979352673161747,-0.6307277074951934,0.040933546604624116,-0.8728006398138723,7.488941853279046
1589986880.389693,-3.6962358052730324,-0.82,8.976235805273033,0.2788888888888889,-0.38222222222222224,-0.6233333333333333,-0.6808408215661104,0.892576774958033,6.630949442085514
1589986880.399693,-3.693636491178843,-0.8236364911788432,8.944544561748097,0.2788888888888889,-0.38222222222222224,-0.6233333333333333,-1.323868419206622,2.068192978148785,5.13065790396689
1589986880.409693,-3.741337386018237,-0.83,8.916534954407295,0.2788888888888889,-0.38222222222222224,-0.6233333333333333,-1.6141717325227964,2.625,3.214095744680851
1589986880.419693,-3.8029028360224606,-0.8270971639775392,8.954514180112303,0.2788888888888889,-0.38222222222222224,-0.6233333333333333,-1.5786436491577227,2.425430023455825,1.8609309474731681
1589986880.429693,-3.8288662073110524,-0.8058503445167107,8.980566896344474,0.2846535633450438,-0.38222222222222224,-0.63014613041788,-1.047193959688325,1.731150857535364,0.7087586129177668
1589986880.439693,-3.8393999265965255,-0.7793999265965256,8.954099889894788,0.2911111111111111,-0.38222222222222224,-0.6377777777777778,-0.6174990824565696,0.9699963298262785,0.4118756881575728
1589986880.449693,-3.7894908924624646,-0.7548090846734243,8.884299977135889,0.2911111111111111,-0.38222222222222224,-0.6377777777777778,-0.3734090389452024,0.34176129868150296,0.7531819221095952
1589986880.459693,-3.7199587834884156,-0.7299862611628052,8.855034347092987,0.2911111111111111,-0.38222222222222224,-0.6377777777777778,-0.25,0.2500858677324674,1.5632728095922064
1589986880.469693,-3.6666727789163343,-0.7293308884334664,8.8939963326502,0.2911111111111111,-0.38222222222222224,-0.6377777777777778,-0.4832722108366591,0.6915673426095711,2.5332263689641534
1589986880.479693,-3.58291497033849,-0.7019433135589934,8.952813772246133,0.28793972057436057,-0.38222222222222224,-0.6377777777777778,-1.0175860765383273,1.3925860765383273,3.475708580512582
1589986880.489693,-3.4680525995125917,-0.6542280666125102,9.01154386677498,0.28444444444444444,-0.38222222222222224,-0.6377777777777778,-1.4928729183590577,1.6875,4.46896958773355
1589986880.499693,-3.4012669006229768,-0.65,8.974027040996763,0.28444444444444444,-0.38222222222222224,-0.6377777777777778,-1.5890836257787209,1.4720017546723252,4.920249122663837
1589986880.509693,-3.3361522893402222,-0.6625279173313651,8.927472082668634,0.28444444444444444,-0.38222222222222224,-0.6377777777777778,-1.2101523250553585,1.0776015500369056,4.843401033357937
1589986880.519693,-2.883614861435387,-0.9737994112272865,9.085224241193787,0.28444444444444444,-0.38222222222222224,-0.6377777777777778,-0.9333773220992793,1.1040566947518018,4.583443305248198
1589986880.529693,-2.51,-1.163898631001923,9.13759119478805,0.28806831915863856,-0.38222222222222224,-0.6341539030635837,0.3480577160405247,3.560220130298769,5.626583890594954
1589986880.5396929,-2.2851996355003474,-1.0063331814584782,8.76026618066713,0.2911111111111111,-0.38222222222222224,-0.6311111111111111,2.858057960240761,5.34388863576413,8.459308529771468
1589986880.5496929,-1.9620630022016898,-0.9302171581264936,8.604728552341884,0.2911111111111111,-0.38222222222222224,-0.6311111111111111,2.6681258350426225,3.6426440977776107,10.24253518940178
1589986880.5596929,-1.8007380511300481,-0.9044112634309004,8.683092997406447,0.2911111111111111,-0.38222222222222224,-0.6311111111111111,0.9686967395331605,1.2140839199703595,11.147077621341237
1589986880.5696929,-1.8958786979876532,-0.8887785616932574,8.844428766134852,0.2911111111111111,-0.38222222222222224,-0.6311111111111111,-0.6235719153371282,-0.8430359576685641,11.779107873005692
1589986880.5796928,-2.0253180107372803,-0.8685114919470396,8.993193481209758,0.28855810932156434,-0.384775224011769,-0.6315366114093689,-0.7034841233449877,-0.9188936493379951,12.748647093101011
1589986880.5896928,-2.1133216630196934,-0.8464821298322392,8.964071480671043,0.28444444444444444,-0.3888888888888889,-0.6322222222222222,-0.125,-0.599553245805981,13.359933442742523
1589986880.5996928,-2.23,-0.8350145423791745,8.960087254275047,0.28444444444444444,-0.3888888888888889,-0.6322222222222222,-0.125,-0.5932955506507973,13.5625
1589986880.6096928,-2.2481102038720278,-0.8435826529040209,8.966220407744055,0.28444444444444444,-0.3888888888888889,-0.6322222222222222,-0.0684056128999127,-0.75,13.477608419349869
1589986880.6196928,-2.2770939788865583,-0.86,9.00645301055672,0.28444444444444444,-0.3888888888888889,-0.6322222222222222,-0.02216868402049448,-0.6391565798975276,13.197650527836045
1589986880.6296928,-2.2699745766559225,-0.8620025423344078,8.979974576655922,0.28444444444444444,-0.3888888888888889,-0.6322222222222222,-0.012436441639805694,-0.3999523312298543,12.774872883279611
1589986880.6396928,-2.219136458000639,-0.8602878473331204,8.88543177099968,0.28444444444444444,-0.3888888888888889,-0.6322222222222222,0.06609809166400511,-0.18929904583200255,11.88939236665602
1589986880.6496928,-2.236175280642772,-0.85,8.800876403213858,0.28444444444444444,-0.3888888888888889,-0.6322222222222222,-0.03369850133910764,-0.18260299732178473,10.77016852812126
1589986880.6596928,-2.22,-0.8451872295051119,8.758502163959106,0.28444444444444444,-0.3888888888888889,-0.6322222222222222,-0.18047889355830143,-0.370319262372201,9.130025716615442
1589986880.6696928,-2.2424459583387923,-0.8250360277741386,8.863596881959912,0.28444444444444444,-0.3888888888888889,-0.6322222222222222,-0.5152872396174506,-0.6402872396174506,7.330038975501114
1589986880.6796927,-2.2771320575402823,-0.8,8.987207654758306,0.28444444444444444,-0.39239415189521026,-0.6277609783959951,-0.5707535962676573,-0.7495275173873601,5.336788306190332
1589986880.6896927,-2.2209422032849977,-0.7938677754106247,9.008537213937187,0.28444444444444444,-0.4011111111111111,-0.6166666666666667,-0.02918399079101093,-0.28419438526561747,2.9209719263280873
1589986880.6996927,-2.122536384931454,-0.7967151799086056,8.943284820091394,0.28444444444444444,-0.4011111111111111,-0.6166666666666667,0.16138253139280365,0.010265062785607314,0.09056631849775365
1589986880.7096927,-2.1519852774398416,-0.8104117780481267,8.931985277439841,0.28444444444444444,-0.4011111111111111,-0.6166666666666667,0.13998159679980204,0.04237117759861435,-2.081708662391488
1589986880.7196927,-2.187053371684244,-0.7829466283157559,8.97,0.28444444444444444,-0.4011111111111111,-0.6166666666666667,0.24274928092042186,0.4486657078938958,-4.511744966442953
1589986880.7296927,-2.191430272919077,-0.7785697270809229,8.957141836248553,0.28444444444444444,-0.4011111111111111,-0.6295248304181129,0.5089243177023072,0.9017878411488464,-8.062604216293472
1589986880.7396927,-2.214304734732695,-0.7727810610692208,8.911523673663474,0.28444444444444444,-0.4011111111111111,-0.6466666666666666,0.4019045920793424,0.9730954079206575,-11.69905661979485
1589986880.7496927,-2.202495090980495,-0.7824950909804949,8.833713182353712,0.28444444444444444,-0.4011111111111111,-0.6466666666666666,0.304641477942139,1.070358522057861,-14.438359078413406
1589986880.7596927,-2.206994990967318,-0.7730899983576942,8.760084989325012,0.28444444444444444,-0.4011111111111111,-0.6466666666666666,0.17784375513220563,1.1971562448677944,-17.165749712596487
1589986880.7696927,-2.322933386529992,-0.7998285942271395,8.899485782681419,0.28444444444444444,-0.4011111111111111,-0.6466666666666666,0.1864287139196219,1.2909524759464146,-21.39452675433885
1589986880.7796926,-2.3679870179692175,-0.8191372934153789,8.957411880246138,0.28444444444444444,-0.4011111111111111,-0.6466666666666666,0.30710808384611843,1.3714053892307456,-23.888567066153115
1589986880.7896926,-2.362574876556155,-0.82355003526967,8.932574876556155,0.2977777777777777,-0.38222222222222224,-0.6466666666666666,1.0221877204354375,1.9375,-28.586399967590033
1589986880.7996926,-2.41,-0.8145510088093209,8.966346973572039,0.2977777777777777,-0.38222222222222224,-0.6466666666666666,0.9801657075873828,1.9943876101165103,-31.93864556692242
1589986880.8096926,-2.377386620530565,-0.8393181084198384,8.924659054209918,0.2977777777777777,-0.38222222222222224,-0.6466666666666666,1.212357266435986,2.391333621683968,-36.72654988465975
1589986880.8196926,-2.354338038916444,-0.85,8.940753529187333,0.2977777777777777,-0.38222222222222224,-0.6466666666666666,1.3573063716138878,2.692209557420832,-39.95149752003052
1589986880.8296926,-2.383535491004976,-0.846464508995024,8.963535491004977,0.2991526909463795,-0.38457921622553953,-0.6503985738385857,1.3933063624378004,2.8125,-43.078307744651894
1589986880.8396926,-2.4022272789960004,-0.8366818369880016,8.969977244517999,0.3055555555555556,-0.3955555555555556,-0.6677777777777778,1.2014204937250035,2.882102468625017,-46.45227382430009
1589986880.8496926,-2.4262696058473407,-0.8931348029236705,8.852382364915954,0.3055555555555556,-0.3955555555555556,-0.6677777777777778,1.351685036545881,3.4766850365458812,-50.67927354155761
1589986880.8596926,-2.433953725127256,-0.9080616998303255,8.782092549745489,0.3055555555555556,-0.3955555555555556,-0.6677777777777778,1.462692811969767,3.612885623939534,-53.79260951719883
1589986880.8696926,-2.406690978016771,-0.963163153882605,8.853163153882605,0.3055555555555556,-0.3955555555555556,-0.6677777777777778,1.6038627747903662,3.853862774790366,-57.43020659496879
1589986880.8796926,-2.406071119376663,-1.019106679064995,8.9,0.3153368034401799,-0.39353184909666783,-0.6677777777777778,1.8203057363645108,4.089277984416584,-60.31022341039536
1589986880.8896925,-2.424060761832092,-1.0440607618320918,8.920303809160458,0.3377777777777778,-0.3888888888888889,-0.6677777777777778,2.2518988072528665,4.412120238549427,-63.505348788176946
1589986880.8996925,-2.432163642408441,-1.0564909272253233,8.941345430366235,0.3377777777777778,-0.3888888888888889,-0.6677777777777778,2.4104544698944865,4.375,-65.77738783705752
1589986880.9096925,-2.4395028784405675,-1.078508635321703,8.91198848623773,0.3377777777777778,-0.3888888888888889,-0.6677777777777778,2.3187140194929046,4.375,-67.56632661988836
1589986880.9196925,-2.47895391463734,-1.137104608536266,8.932895391463733,0.3377777777777778,-0.3888888888888889,-0.6677777777777778,2.606903803351663,4.866788589945012,-71.01825166928515
1589986880.9296925,-2.541523545706371,-1.1526038781163435,8.937174515235457,0.34374269005847957,-0.3813542628501077,-0.6737426900584795,2.4918628808864267,5.070637119113574,-73.45637119113573
1589986880.9396925,-2.5415493508259126,-1.206921521310584,8.917686085242336,0.3588888888888889,-0.3622222222222222,-0.6888888888888889,2.2547785245734486,5.25,-75.98113868873632
1589986880.9496925,-2.5890363549769804,-1.2028909350690586,8.883254484838863,0.3588888888888889,-0.3622222222222222,-0.6888888888888889,2.14005695348468,5.271079734878552,-77.73943284648357
1589986880.9596925,-2.573303658469292,-1.263303658469292,8.76651829234646,0.3588888888888889,-0.3622222222222222,-0.6888888888888889,2.3962042691338494,5.604908538267699,-80.72267529015764
1589986880.9696925,-2.578694688700818,-1.2739159338975459,8.80652655649591,0.3588888888888889,-0.3622222222222222,-0.6888888888888889,2.288025413140338,5.445658195619887,-82.49751143355572
1589986880.9796925,-2.57,-1.3103302111446262,8.855739006191458,0.3647554285512692,-0.3591614189201108,-0.6897816231853381,2.168042546435942,5.514347515478647,-84.79923400539768
1589986880.9896924,-2.57,-1.3929355608591885,8.9,0.41,-0.33555555555555555,-0.6966666666666667,2.5305787589498805,5.667810262529833,-86.8268198090692
1589986880.9996924,-2.566426120903821,-1.4378693954808943,8.878556725422927,0.41,-0.33555555555555555,-0.6966666666666667,2.8125,6.084836744351118,-89.44694930793801
1589986881.0096924,-2.56,-1.4870826688853451,8.846833067554138,0.41,-0.33555555555555555,-0.6966666666666667,2.9192666805334073,6.27447335274677,-91.45310008320044
1589986881.0196924,-2.56,-1.5311224068104803,8.882244813620959,0.41,-0.33555555555555555,-0.6966666666666667,3.142378760641375,6.614636281924126,-93.20886281924126
1589986881.0296924,-2.5622671802673747,-1.5713359013368724,8.942267180267374,0.4127709981045688,-0.3262349255674604,-0.704727752061776,3.1024807399734566,6.707490369986728,-95.0159360534749
1589986881.0396924,-2.557509628023891,-1.6224903719761086,8.937509628023891,0.4222222222222222,-0.29444444444444445,-0.7322222222222222,2.8645432165671196,6.614543216567119,-97.31712664022324
1589986881.0496924,-2.5130267790956267,-1.6554132690882135,8.862200240919199,0.4222222222222222,-0.29444444444444445,-0.7322222222222222,2.841167068198666,6.7356664659006675,-99.16974668736101
1589986881.0596924,-2.466378783605941,-1.701727298364354,8.788106081970295,0.4222222222222222,-0.29444444444444445,-0.7322222222222222,2.574336987685655,6.925663012314345,-101.20700848373754
1589986881.0696924,-2.457831342955528,-1.742168657044472,8.824337314088945,0.4222222222222222,-0.29444444444444445,-0.7322222222222222,2.429216426111803,7.206324639167705,-102.95556908931057
1589986881.0796924,-2.4516853981976703,-1.74831460180233,8.836629203604659,0.4222222222222222,-0.29444444444444445,-0.7322222222222222,2.582865045058246,7.436797567587369,-104.06952157667229
1589986881.0896924,-2.4,-1.7947023650326672,8.83,0.4566666666666666,-0.25,-0.7766666666666666,3.0176338688725024,7.722767737745005,-106.58444890727085
1589986881.0996923,-2.4,-1.8347655981354831,8.83,0.4566666666666666,-0.25,-0.7766666666666666,3.1678709930080617,8.023241986016124,-107.83642494173385
1589986881.1096923,-2.3894925056775174,-1.9212687358062073,8.691268735806206,0.4566666666666666,-0.25,-0.7766666666666666,3.5609140802422408,8.503171839515518,-110.11007759273278
1589986881.1196923,-2.374708494208494,-1.9958967181467182,8.775313706563708,0.4566666666666666,-0.25,-0.7766666666666666,3.3528595559845558,8.566143822393823,-112.40834942084942
1589986881.1296923,-2.3836762620970227,-2.09475538844028,8.887892087365675,0.4597114293606927,-0.24039728688807158,-0.7799456418756178,2.927697815858144,8.467221177751751,-114.28003580307794
1589986881.1396923,-2.358825933803004,-2.1546962647879835,8.869433404227038,0.4711111111111111,-0.20444444444444448,-0.7922222222222223,3.1763653961185696,8.878541223581019,-115.76062367074306
1589986881.1496923,-2.344409274266817,-2.203976814332958,8.77043245993386,0.4711111111111111,-0.20444444444444448,-0.7922222222222223,3.3353767670894356,9.357528982083803,-117.75665951956972
1589986881.1596923,-2.32622377392049,-2.243020980863608,8.725286716511315,0.4711111111111111,-0.20444444444444448,-0.7922222222222223,2.7311188696024504,9.321940565198775,-119.19466791278285
1589986881.1696923,-2.2719179465273864,-2.288082053472613,8.779223928703182,0.4711111111111111,-0.20444444444444448,-0.7922222222222223,2.5841880570063878,9.589038502611498,-121.23344028503195
1589986881.1796923,-2.252683290840122,-2.315366581680244,8.744633418319756,0.4772230513580554,-0.20533887472448512,-0.793265724215603,2.7957294322492383,10.025155851626142,-122.57624681300913
1589986881.1896923,-2.253472857310353,-2.3797488568413647,8.719916285613788,0.5166666666666667,-0.2111111111111111,-0.8,2.5015696447414704,10.270135713448235,-124.24686071051705
1589986881.1996922,-2.2137412677273898,-2.4619055629541364,8.72748253545478,0.5166666666666667,-0.2111111111111111,-0.8,2.1054414616480925,10.457058538351907,-125.43028784374197
1589986881.2096922,-2.1938221959392865,-2.51926670609107,8.693822195939285,0.5166666666666667,-0.2111111111111111,-0.8,2.2555563768972995,10.67375073920757,-126.6259732899665
1589986881.2196922,-2.18,-2.555067463944356,8.692914969095161,0.5166666666666667,-0.2111111111111111,-0.8,2.6471407215776184,11.008687628770158,-127.21440618561492
1589986881.2296922,-2.18,-2.6005496258888043,8.731899679333262,0.5166666666666667,-0.2111111111111111,-0.8,2.5253135020835593,10.846251336111413,-127.2956243319443
1589986881.2396922,-2.199267062066661,-2.77119254865926,9.415142761674046,0.5155555555555555,-0.2111111111111111,-0.8122222222222222,1.099223122546153,9.919176551666528,-127.60722057472225
1589986881.2496922,-2.1362001503633783,-2.778199983292958,9.092800768523933,0.5155555555555555,-0.2111111111111111,-0.8122222222222222,-0.5212461364965335,8.342503759084455,-127.86999937348592
1589986881.2596922,-2.1320927062031356,-2.7318609406952965,8.454185412406272,0.5155555555555555,-0.2111111111111111,-0.8122222222222222,4.538513974096796,11.101738241308793,-125.752172801636
1589986881.2696922,-2.0797883782786806,-2.797324247189702,8.540143475644088,0.5155555555555555,-0.2111111111111111,-0.8122222222222222,3.2310571864018485,9.687925912982701,-124.98195390917739
1589986881.2796922,-2.037428525730737,-2.852734615538406,8.903632692230797,0.5083628560384928,-0.2154738960640836,-0.8116326566880367,0.8418369387020672,7.627806489663721,-124.82474559158703
1589986881.2896922,-2.0961275940661364,-2.953361589827662,8.85331920508617,0.4515272501899316,-0.24994795207058793,-0.8069740004709416,0.5797875264904635,7.156117547682834,-123.93377759006758
1589986881.2996922,-1.9836725480106894,-2.8932006572941393,8.734837917240693,0.4477777777777778,-0.25222222222222224,-0.8066666666666666,3.0034109582219863,9.220224658489219,-120.85112329244609
1589986881.3096921,-1.9627870267399206,-2.9697809019536243,8.915845768254021,0.4477777777777778,-0.25222222222222224,-0.8066666666666666,3.2209684714591598,8.915644139957177,-119.32822069978589
1589986881.3196921,-1.9847373097198364,-3.0735084601867757,8.864390017571917,0.4477777777777778,-0.25222222222222224,-0.8066666666666666,1.2214493375979782,6.964882080593891,-116.79391128156529
1589986881.3296921,-1.9598830714962276,-3.0903507855113173,8.649766142992455,0.4477582896938157,-0.25165057175933486,-0.8059715916720195,3.4470004409315087,8.5657886141686,-114.04167211026554
1589986881.339692,-1.9249380014587891,-3.1586068563092633,8.627213712618525,0.4444444444444444,-0.15444444444444444,-0.6877777777777778,4.564916119620715,8.694657184536835,-110.04276075857038
1589986881.349692,-1.8700274925657858,-3.1899842899624082,8.689968579924816,0.4444444444444444,-0.15444444444444444,-0.6877777777777778,2.7509082365482804,7.1257855018795935,-108.37583459574707
1589986881.359692,-1.884502281475439,-3.2667534222131587,8.80450228147544,0.4444444444444444,-0.15444444444444444,-0.6877777777777778,1.8625570368859772,6.104708888832241,-104.9980881490734
1589986881.369692,-1.8345177824927,-3.207540911287104,8.616277545532846,0.4444444444444444,-0.15444444444444444,-0.6877777777777778,2.598632176543495,6.507684652227801,-101.74584059828162
1589986881.379692,-1.6240077385194989,-2.966778332145403,7.985992261480502,0.4497708990937786,-0.13966353279254207,-0.682584484494677,4.346648762855106,7.8518035332450875,-98.44571581305367
1589986881.389692,-1.5813002749210876,-3.086359230220955,8.028699725078912,0.48773308895903333,-0.0343184559164602,-0.6455713493760536,9.044469758680378,11.695475257102128,-94.49527543020059
1589986881.399692,-1.7110125187781673,-3.3079218828242363,9.384050075112668,0.4888888888888889,-0.031111111111111114,-0.6444444444444445,-2.3711129193790685,1.3637894341512267,-93.90908237356034
1589986881.409692,-1.60922146192476,-3.2580238465830664,8.924190772664533,0.4888888888888889,-0.031111111111111114,-0.6444444444444445,-3.1968481101876596,0.40831583507092306,-91.50149041144167
1589986881.419692,-1.550852851225272,-3.2140226859200185,8.310362355309513,0.4888888888888889,-0.031111111111111114,-0.6444444444444445,4.218727014052882,6.92910408036855,-84.84150826526268
1589986881.429692,-1.621529385120598,-3.3650979504019927,8.63090159664817,0.489851835075932,-0.02703275078951673,-0.6444444444444445,5.942161136904088,7.746326859925263,-80.86936502094893
1589986881.439692,-1.6499767393314049,-3.460058151671488,9.019720871976858,0.5077777777777778,0.048888888888888885,-0.6444444444444445,1.3739823457489637,4.185973518623445,-78.43350207258521
1589986881.449692,-1.6174674907292954,-3.4974674907292953,8.73822496909765,0.5077777777777778,0.048888888888888885,-0.6444444444444445,0.9177503090234858,3.1012814173877215,-74.32115574783684
1589986881.459692,-1.5552529048207664,-3.435252904820766,8.530843016069221,0.5077777777777778,0.048888888888888885,-0.6444444444444445,2.9915698393077874,4.224600329625051,-70.95119901112484
1589986881.469692,-1.5582708286548395,-3.5082708286548394,8.78345834269032,0.5077777777777778,0.048888888888888885,-0.6444444444444445,3.3132158095665845,4.446679205030317,-66.00449135414327
1589986881.479692,-1.5448150524526003,-3.4948150524526005,8.8103698950948,0.5077777777777778,0.048888888888888885,-0.6444444444444445,2.3460818950306375,3.059052284174393,-63.6076812181194
1589986881.489692,-1.5005738124862769,-3.4702869062431385,8.780573812486276,0.49792123089934703,0.10036196703180529,-0.6356830694413949,1.876793164019615,2.8705170899509627,-58.86898466661788
1589986881.499692,-1.512667371049851,-3.4340010565747767,8.625334742099701,0.4977777777777778,0.10111111111111112,-0.6355555555555555,2.379151258284507,3.091657861876861,-54.1957034626837
1589986881.509692,-1.5202579893475365,-3.453041420962526,8.65443313677002,0.4977777777777778,0.10111111111111112,-0.6355555555555555,1.9304142096252614,2.8141124334221037,-50.4868047959863
1589986881.519692,-1.4576878147029204,-3.4204048338368582,8.635029204431017,0.4977777777777778,0.10111111111111112,-0.6355555555555555,1.4927744209466265,2.4375,-46.83561178247734
1589986881.529692,-1.4407923464249748,-3.4964344410876134,8.744849748237664,0.4977777777777778,0.10111111111111112,-0.6355555555555555,1.4399760825780463,2.4375,-43.350921450151056
1589986881.539692,-1.438687061355244,-3.494748245420977,8.761312938644755,0.5522222222222222,0.14888888888888888,-0.6355555555555555,1.679294133470276,2.3503824004108282,-38.93379520944905
1589986881.549692,-1.43,-3.4692015481651377,8.77,0.5522222222222222,0.14888888888888888,-0.6355555555555555,1.56749032396789,2.062895701930428,-34.54530861764144
1589986881.559692,-1.4242515075876387,-3.5156886306907293,8.755628768969096,0.5522222222222222,0.14888888888888888,-0.6355555555555555,1.2320359612113716,1.3570359612113716,-30.38922268118663
1589986881.569692,-1.388063061232782,-3.4887087074885215,8.677747755068872,0.5522222222222222,0.14888888888888888,-0.6355555555555555,1.1290352890983706,1.237894132704888,-26.471565052212426
1589986881.579692,-1.36249949209703,-3.471666328064687,8.78000203161188,0.5522222222222222,0.14888888888888888,-0.6355555555555555,1.1822927247978545,1.0781218256064362,-22.796801988948033
1589986881.5896919,-1.306393105890686,-3.5593448235155236,8.781065517648447,0.5710839071866105,0.17569233594354594,-0.6504463594748096,0.9082974265139889,0.8391379412111911,-15.345754633455318
1589986881.5996919,-1.3094872719777388,-3.5,8.667949087910955,0.5733333333333334,0.17888888888888888,-0.6522222222222223,0.8525681490260744,0.7996817994434711,-14.310931541791199
1589986881.6096919,-1.3022827991342885,-3.5,8.639131196537154,0.5733333333333334,0.17888888888888888,-0.6522222222222223,0.5373724621251159,0.6195699783572091,-11.654282180768835
1589986881.6196918,-1.3215050603983023,-3.449247469800849,8.693762650995755,0.5733333333333334,0.17888888888888888,-0.6522222222222223,0.009406627489389488,-0.12029668625530526,-5.205680705190989
1589986881.6296918,-1.338621857655893,-3.4406890711720535,8.736554644139732,0.5733333333333334,0.17888888888888888,-0.6522222222222223,0.11638661034933072,-0.06680669482533463,-3.2800410137120473
1589986881.6396918,-1.3110800900461836,-3.424599549769083,8.781080090046183,0.6877777777777778,0.19,-0.6733333333333333,-0.11149887442270649,-0.33275168836594027,-0.8127291768200701
1589986881.6496918,-1.32,-3.3863686288748696,8.781243135297053,0.6877777777777778,0.19,-0.6733333333333333,-0.004975491308491808,-0.5199019652339673,1.4390686697226887
1589986881.6596918,-1.3196840063883186,-3.4584200319415923,8.680315993611682,0.6877777777777778,0.19,-0.6733333333333333,-0.07039984029203741,-0.75,3.731647843942505
1589986881.6696918,-1.3101145334245952,-3.4105726671229752,8.689885466575404,0.6877777777777778,0.19,-0.6733333333333333,-0.3096366643851243,-0.75,6.961344969199178
1589986881.6796918,-1.318828692558427,-3.427657385116854,8.751800847908989,0.6877777777777778,0.19,-0.6733333333333333,-0.3676793284901681,-1.0258966424508404,10.421118366390422
1589986881.6896918,-1.306606266023552,-3.441855038456525,8.783212532047102,1.1155555555555556,0.2888888888888889,-0.8988888888888888,-0.3379530048233607,-1.2087108373528006,15.78535773258593
1589986881.6996918,-1.2610418024594794,-3.3325003259027506,8.692083604918958,1.1155555555555556,0.2888888888888889,-0.8988888888888888,-0.6796864815539043,-1.4934887346282535,20.45571524790336
1589986881.7096918,-1.3013712347573287,-3.4706621981749173,8.623806024388273,1.1155555555555556,0.2888888888888889,-0.8988888888888888,-0.9977842606799645,-1.8102842606799645,24.69962347573286
1589986881.7196918,-1.3702014309993915,-3.4703021464990873,8.710235002832624,1.1155555555555556,0.2888888888888889,-0.8988888888888888,-1.4985312322961035,-2.562080352084601,29.76321890933507
1589986881.7296917,-1.4230053085461298,-3.549507962819195,8.771839526637152,1.1155555555555556,0.2888888888888889,-0.8988888888888888,-1.1135029585178036,-2.4520722738622296,33.22847337333977
1589986881.7396917,-1.4494267765300493,-3.5859023687067326,8.786475592176682,1.0802995537047253,-0.19462199363678245,-1.021205630004014,-1.0220275488957307,-2.680334706625616,36.075374615151894
1589986881.7496917,-1.46,-3.5769665337263743,8.79,1.0611111111111111,-0.4577777777777778,-1.0877777777777775,-0.9040272238598925,-3.0524319403502687,40.014251343852955
1589986881.7596917,-1.4163110457909833,-3.426450579027517,8.69638081240925,1.0611111111111111,-0.4577777777777778,-1.0877777777777775,-0.9920239844884371,-3.4370639586358323,42.91893172079187
1589986881.7696917,-1.4353419910261553,-3.400455988034874,8.723126983547951,1.0611111111111111,-0.4577777777777778,-1.0877777777777775,-0.8735750373910188,-3.436075037391019,46.64352451391675
1589986881.7796917,-1.4442906664074902,-3.3800346648524315,8.74429066640749,1.0611111111111111,-0.4577777777777778,-1.0877777777777775,-0.9909166747659313,-3.624783344672304,49.04325007289338
1589986881.7896917,-1.4337991494142193,-3.3189957470710962,8.771004252928904,0.7806948679541361,-0.16427085005082115,-0.8569683393070489,-1.3962872131279087,-4.045031896966779,51.6839466979618
1589986881.7996917,-1.493091312794893,-3.3,8.79,0.6088888888888889,0.015555555555555557,-0.7155555555555555,-1.4498369414376908,-4.243831529281155,54.47777199555926
1589986881.8096917,-1.48124239216724,-3.3404141307224133,8.691035326806032,0.6088888888888889,0.015555555555555557,-0.7155555555555555,-1.86723504895475,-4.317676634030167,56.59614812119608
1589986881.8196917,-1.5367372320719768,-3.358912410690659,8.737281026726647,0.6088888888888889,0.015555555555555557,-0.7155555555555555,-1.5203922995501455,-4.5489051336332365,58.09913336861604
1589986881.8296916,-1.5069378781851301,-3.3352034086388476,8.715203408638848,0.6088888888888889,0.015555555555555557,-0.7155555555555555,-1.7582978266786708,-4.459180869328532,59.27235087205042
1589986881.8396916,-1.5096649209582,-3.3589947628746,8.788492144311899,0.5577777777777778,0.12,-0.7388888888888889,-1.6833115119774997,-4.932264389971874,60.06773561002812
1589986881.8496916,-1.4914249979496432,-3.299715000410071,8.698860001640284,0.5577777777777778,0.12,-0.7388888888888889,-1.439281247437054,-4.623218752562946,60.357187525629456
1589986881.8596916,-1.5344240547855328,-3.2911151890428934,8.664460756171573,0.5577777777777778,0.12,-0.7388888888888889,-1.4930300684819158,-4.569469931518084,59.81969931518084
1589986881.8696916,-1.5892737973111604,-3.309709518924464,8.748692835160089,0.5577777777777778,0.12,-0.7388888888888889,-1.7463689865558014,-4.50090775336105,58.949300793693645
1589986881.8796916,-1.5487418789110765,-3.235735382039938,8.75,0.5577777777777778,0.12,-0.7388888888888889,-1.3374187891107656,-4.396854697277692,57.751329018693454
1589986881.8896916,-1.5494695672033802,-3.1915912983898593,8.78787826881352,0.566195170847449,0.10842608452920204,-0.7525671526271046,-1.25,-4.07907602489437,55.842825739408475
1589986881.8996916,-1.5846651100445368,-3.241997665066805,8.798666277511135,0.5666666666666667,0.10777777777777778,-0.7533333333333333,-1.4666569377783543,-3.9000072966662342,53.962580263328576
1589986881.9096916,-1.625905954382355,-3.303858931573533,8.710235114044112,0.5666666666666667,0.10777777777777778,-0.7533333333333333,-1.0511755702205605,-3.65058778511028,51.49948090482523
1589986881.9196916,-1.6455037363087317,-3.3255037363087316,8.769766813389293,0.5666666666666667,0.10777777777777778,-0.7533333333333333,-1.0,-3.528101648070427,49.26358378544375
1589986881.9296916,-1.65,-3.319515246948071,8.774272870422106,0.5666666666666667,0.10777777777777778,-0.7533333333333333,-0.7706460269890452,-3.205116320414487,47.049257335636035
1589986881.9396915,-1.6335177395031353,-3.337470434161441,8.76,0.5275976047481723,0.04917418490003616,-0.7173165418772213,-0.6311760854036035,-2.9718380427018016,43.639569608699105
1589986881.9496915,10.76,0.22,-1.01,0.4955555555555556,0.0011111111111111113,-0.6877777777777778,-83.375,130.0625,-74.1875
1589986881.9596915,7.33342956694873,0.492702837232454,-1.4289347934295669,0.4955555555555556,0.0011111111111111113,-0.6877777777777778,-59.11828023892484,43.138470632155304,-143.7217832254853
1589986881.9696915,1.469902379499695,0.1468029286150091,-0.6688178767541184,0.4955555555555556,0.0011111111111111113,-0.6877777777777778,-22.857106086028065,-83.09268227577792,-246.65931017388652
1589986881.9796915,0.5668734442552077,-0.7534337744006289,0.3796927813441635,0.4955555555555556,0.0011111111111111113,-0.6877777777777778,-16.679479726188916,-56.26084108476353,-231.89883155377964
1589986881.9896915,-0.16041742052209873,-0.5859201344016541,0.19221051951408633,0.5344444444444445,0.15444444444444444,-0.6733333333333333,-10.971891961747222,-40.147413737399845,-212.26286265830964
1589986881.9996915,-0.07007753941586974,-0.17035668131300086,-0.06977513569397778,0.5344444444444445,0.15444444444444444,-0.6733333333333333,-8.939244636857069,-38.00184156112691,-200.01051628327733
1589986882.0096915,-0.17549155567760538,-0.08368872717286834,-0.33852395990663187,0.5344444444444445,0.15444444444444444,-0.6733333333333333,-10.615774749416449,-36.98104747356859,-188.61170705753125
1589986882.0196915,2.51,-2.49,6.03,0.5344444444444445,0.15444444444444444,-0.6733333333333333,27.8125,4.25,-179.875
1589986882.0296915,2.51,-2.49,6.03,0.5344444444444445,0.15444444444444444,-0.6733333333333333,27.8125,4.25,-179.875
1589986882.0396914,-4.961718923567563,2.820499337083886,13.599985129179059,0.44222222222222224,0.2255555555555556,-0.6822222222222222,-15.78886681656932,215.9832109775325,-134.68586398573834
1589986882.0496914,1.6963772530189551,-0.16286881427598798,9.023483355430537,0.44222222222222224,0.2255555555555556,-0.6822222222222222,-38.47411267782277,7.776803310997224,-104.95551071415774
1589986882.0596914,3.0306007291544157,-0.23503869222627308,15.673406327178643,0.44222222222222224,0.2255555555555556,-0.6822222222222222,31.558532282723746,15.763878925085264,-92.14116194284371
1589986882.0696914,-0.40257908973303547,0.6429871809949429,2.118265318123015,0.44222222222222224,0.2255555555555556,-0.6822222222222222,41.91726449488416,51.40285046454193,-83.94049894155005
1589986882.0796914,0.6004863987007714,-0.22844742184328048,5.481556638246042,0.44222222222222224,0.2255555555555556,-0.6822222222222222,-2.7670320747056465,9.03212038164839,-72.63045066991474
1589986882.0896914,1.3237530144253957,-1.2470118823168326,9.585635769719824,0.4580928126354969,0.2255555555555556,-0.6638457491121147,-29.700149625115095,-15.539267001359232,-62.90389600780462
1589986882.0996914,-0.17219784621910125,-2.557579235101444,10.44156043075618,0.4633333333333333,0.2255555555555556,-0.6577777777777778,-7.309539729481349,9.389128296062399,-51.38873653886938
1589986882.1096914,0.5196536041661757,-3.2296635011899992,10.579930720833236,0.4633333333333333,0.2255555555555556,-0.6577777777777778,37.290169839998114,16.184097898060656,-47.0646649739614
1589986882.1196914,0.3758225381176201,-2.0405359394703657,6.164565229852115,0.4633333333333333,0.2255555555555556,-0.6577777777777778,25.67317365012037,13.596811231800986,-46.724584073713174
1589986882.1296914,-0.17085993962126056,-2.467321836977404,8.575910712652089,0.4633333333333333,0.2255555555555556,-0.6577777777777778,-6.900052030921234,1.3280978410026538,-48.59327829109871
1589986882.1396914,-0.34223128918152207,-2.679369943613631,9.896857072811963,0.4440573280877277,0.24217280145693973,-0.6584424676138332,-17.48434052463839,-4.0513343606626275,-48.329225475431656
1589986882.1496913,-0.20576420798065295,-2.6992853688029017,9.267125755743653,0.4311111111111111,0.2533333333333333,-0.6588888888888889,8.172732769044739,4.912885429262394,-41.918818016928654
1589986882.1596913,-0.11103452036865355,-2.208867317445602,6.474041009979822,0.4311111111111111,0.2533333333333333,-0.6588888888888889,5.338059660795114,6.269397256912254,-37.47906555052626
1589986882.1696913,-0.2469505261634518,-2.516698091752982,8.090525129731851,0.4311111111111111,0.2533333333333333,-0.6588888888888889,-3.050930089520147,-1.5604596952593601,-37.11652220430441
1589986882.1796913,-0.36645792347717365,-2.679318979940797,8.704387468054202,0.4311111111111111,0.2533333333333333,-0.6588888888888889,-1.3428082884406773,1.4254157550239936,-33.12380145801541
1589986882.1896913,-0.3704549293305926,-2.74,8.38127380212566,0.4266666666666667,0.2911111111111111,-0.6644444444444444,1.5243996685628696,3.3391743152158324,-23.569271157002404
1589986882.1996913,-0.4038719186704272,-2.74,8.474841372277195,0.4266666666666667,0.2911111111111111,-0.6644444444444444,-1.2742731886482779,0.7075864047038576,-19.475689962872668
1589986882.2096913,-0.43699295223179324,-2.6380422866092403,8.001714956930305,0.4266666666666667,0.2911111111111111,-0.6644444444444444,0.5611785434612377,0.499559514487079,-10.277995301487863
1589986882.2196913,-0.540646268985252,-3.1567801012546775,9.293886198547217,0.4266666666666667,0.2911111111111111,-0.6644444444444444,1.7540391811578253,0.4778202729473916,-1.3466899625797932
1589986882.2296913,-0.48917361947848226,-3.055390456271171,8.92256257530634,0.4266666666666667,0.2911111111111111,-0.6644444444444444,-0.5842493236638098,-0.9888646077250096,6.71578818741901
1589986882.2396913,-0.5071809506415232,-3.089234281539656,8.898723802566092,0.42253544992871966,0.3258133317098661,-0.6537032809257822,-0.7852381169809597,-0.9567143052828637,15.378475868681797
1589986882.2496912,-0.4340253802370066,-2.8143124630649123,8.080701066840843,0.4211111111111111,0.3377777777777778,-0.65,-0.5055908058847314,-1.7677735529221485,25.09366543808902
1589986882.2596912,-0.49458994434788156,-3.019605810782797,8.802161343305002,0.4211111111111111,0.3377777777777778,-0.65,-0.5807374304348519,-2.175818436956834,29.797321243482003
1589986882.2696912,-0.5152568675418775,-3.0994563857401634,8.998853013128164,0.4211111111111111,0.3377777777777778,-0.65,-0.026060243888774703,-2.190710844273469,34.44504215765
1589986882.2796912,-0.49614100675956346,-3.1036920811147612,8.788877685887995,0.4211111111111111,0.3377777777777778,-0.65,0.5010432007854688,-2.1628596918545373,39.94370492050904
1589986882.2896912,-0.48445170372509383,-3.1678068149003753,8.727162864568294,0.4107025459620753,0.3491325761221805,-0.6746020630795393,-2.0620916654634707,-3.2915305551544902,47.45724444123592
1589986882.2996912,-0.5094607327804385,-3.1573651831951097,8.738382198341315,0.4088888888888889,0.3511111111111111,-0.6788888888888889,-2.5426619748471753,-3.28293521006113,51.577429622707626
1589986882.3096912,4.437884110870309,-22.675592848180678,3.317947701608304,0.4088888888888889,0.3511111111111111,-0.6788888888888889,-2.523736027147257,-4.060111782821946,54.88841144348124
1589986882.3196912,1.664981412639405,-12.261404894671623,5.817891109045849,0.4088888888888889,0.3511111111111111,-0.6788888888888889,-26.666889327757126,-5.232046739467163,-84.50261384758366
1589986882.3296912,-0.9528208944769377,-3.7333166392323047,7.735730921444332,0.4088888888888889,0.3511111111111111,-0.6788888888888889,-23.457529637866422,4.8386531187616,-230.89669649423877
1589986882.3396912,-1.3998142798184068,-2.90410647957078,10.501370202228642,0.4208300087127987,0.3443444765442289,-0.6884417847480166,19.164955633512175,25.80558708212959,-321.1429529508873
1589986882.3496912,0.010517553980550542,-3.2662591537356658,9.196471779415575,0.44222222222222224,0.3322222222222222,-0.7055555555555556,55.018531163907795,39.576764816689824,-286.4339738986084
1589986882.3596911,-0.19925857038657913,-3.2894037199124724,9.469039387308534,0.44222222222222224,0.3322222222222222,-0.7055555555555556,-4.618809263311455,7.27598924142961,-251.5665025528811
1589986882.3696911,-1.091792715274633,-3.425288865886006,9.977333247072522,0.44222222222222224,0.3322222222222222,-0.7055555555555556,-16.543240926441094,6.4404638675033965,-229.85231205926118
1589986882.3796911,0.32194465919340276,-1.0942684576729804,10.617394021388996,0.44222222222222224,0.3322222222222222,-0.7055555555555556,-6.421013319804148,11.588334299703646,-137.9945903395181
1589986882.389691,-0.10133105802047782,0.165938566552901,8.937178612059158,0.38732650739476676,0.3921084565794463,-0.7122095815952472,9.09613196814562,-4.295861774744026,57.950796359499435
1589986882.399691,-0.85328932866345,-1.3824879374954075,6.536824071125915,0.3688888888888889,0.4122222222222222,-0.7144444444444444,13.821099892233462,5.592715961693894,113.68596616375615
1589986882.409691,-0.5894657779746683,-2.179179637945269,8.123199895290067,0.3688888888888889,0.4122222222222222,-0.7144444444444444,-7.183651406536317,-5.535143271379956,119.72966085056684
1589986882.419691,0.12611683417085423,-2.3818856783919595,9.07188567839196,0.3688888888888889,0.4122222222222222,-0.7144444444444444,-19.28679334170854,-21.788968278894473,126.16930747487437
1589986882.429691,0.001961707219784614,-2.6882124052652574,8.575426605504587,0.3688888888888889,0.4122222222222222,-0.7144444444444444,-3.6945016453929007,-9.808329178300758,134.1666421519745
1589986882.439691,11.931618144460248,-18.02491070017386,6.924279437332069,0.3708376446622061,0.4356072915020283,-0.6998287761445656,-3.294345661450925,-10.4981981981982,113.3072348664454
1589986882.449691,2.5325621559679963,-6.900234095234197,8.464091346252225,0.3711111111111111,0.4388888888888889,-0.6977777777777778,-11.862458818473879,-11.131683684953652,-14.139983936646942
1589986882.459691,-0.01194189104571075,-2.093182968065122,7.751679398872887,0.3711111111111111,0.4388888888888889,-0.6977777777777778,15.07361772072636,18.75573418910457,-65.90574045084534
1589986882.469691,-0.11292917775243885,-1.8629836564044089,6.647197939102158,0.3711111111111111,0.4388888888888889,-0.6977777777777778,23.487454601123357,15.553019025296676,-61.28990614046201
1589986882.479691,-0.36722976718403544,-2.2083730598669624,7.434305709534367,0.3711111111111111,0.4388888888888889,-0.6977777777777778,3.2868018985587604,4.867464661862528,-51.58315722006652
1589986882.489691,-2.8947648520442737,-12.977256381296588,8.159588434605828,0.3788045076926938,0.40619195341716235,-0.7045094997866627,-15.484673593855884,-6.24970917099616,-32.91869776372261
1589986882.499691,-1.059053242320819,-12.411020477815699,8.518935153583618,0.38,0.4011111111111111,-0.7055555555555556,-11.829654436860068,-5.92238481228669,-12.686953924914675
1589986882.509691,2.0110103972274063,-4.803048329969151,9.205097688235519,0.38,0.4011111111111111,-0.7055555555555556,1.610832349468713,-0.5846940815782458,24.745044178695206
1589986882.519691,-0.8155647645591902,-1.7061273287369811,8.171940736394308,0.38,0.4011111111111111,-0.7055555555555556,6.941534032565645,4.25149900982837,7.609954892181312
1589986882.529691,-0.9633723177056849,-4.17459574900844,8.380291874300823,0.38,0.4011111111111111,-0.7055555555555556,0.5348761822434662,0.937493643852334,-5.964392860774941
1589986882.539691,-0.25143373588662155,-5.497676368113588,9.123452178241166,0.3846593141749404,0.4049938729235614,-0.7117679744554761,-5.625689296099337,-4.231870366489403,-7.870335381028475
1589986882.549691,-0.07371757147099317,-4.070051021785492,8.40816672515725,0.38666666666666666,0.4066666666666667,-0.7144444444444444,2.2172880166293227,1.1776904543368518,-0.09095848068460999
1589986882.559691,0.02679055281598755,-4.343185569685959,8.659208928107967,0.38666666666666666,0.4066666666666667,-0.7144444444444444,1.04622372177524,0.6687516221126395,0.5061056319750843
1589986882.569691,-0.07267079517754793,-4.598621121285987,8.546770208841162,0.38666666666666666,0.4066666666666667,-0.7144444444444444,-0.4288820080374201,-0.33486025100467753,-0.004580753014032546
1589986882.579691,-0.08254898886972878,-4.454276924282803,8.526629957673617,0.38666666666666666,0.4066666666666667,-0.7144444444444444,0.43520242200971937,-0.04603239144066473,-0.013633602445524376
1589986882.589691,-0.006358815320204684,-4.434564738719181,8.769591254458057,0.3904558846332765,0.4112137282265984,-0.7144444444444444,0.7897425957512793,0.125,0.022757404248720733
1589986882.599691,-0.02900910796832807,-4.416486338047508,8.779234061055426,0.3922222222222223,0.4133333333333333,-0.7144444444444444,0.024772300791798263,0.125,-0.11880692480205043
1589986882.609691,-0.033038948959423324,-4.560104173933263,8.599895826066735,0.3922222222222223,0.4133333333333333,-0.7144444444444444,-0.5545459830252296,-0.005519707010812697,-0.01347372398558308
1589986882.619691,-0.048324166525638854,-4.532271111863259,8.505567777965815,0.3922222222222223,0.4133333333333333,-0.7144444444444444,-0.6875,-0.10067534692841429,-0.09020138771365713
1589986882.629691,-0.04489082829319943,-4.492663757560201,8.542882100973802,0.3922222222222223,0.4133333333333333,-0.7144444444444444,-0.5222434344568687,-0.125,-0.11667575762437232
1589986882.6396909,-0.023713512241054616,-4.517621625863152,8.64237837413685,0.389884084885262,0.41182042093882953,-0.712381382088303,-0.180371645480226,-0.08631758082234778,0.0
1589986882.6496909,-0.0389359061160009,-4.452128187767998,8.722623937410669,0.37333333333333335,0.4011111111111111,-0.6977777777777778,0.24334941322500564,0.14139960881667044,0.023050195591664786
1589986882.6596909,-0.023193005181347152,-4.5091580310880826,8.66529792746114,0.37333333333333335,0.4011111111111111,-0.6977777777777778,0.06513115284974093,0.0625,0.0625
1589986882.6696908,-0.025789878641625574,-4.55,8.57842024271675,0.37333333333333335,0.4011111111111111,-0.6977777777777778,-0.0625,0.0625,0.0625
1589986882.6796908,-0.022645561279501618,-4.544708877440996,8.611164490236012,0.37333333333333335,0.4011111111111111,-0.6977777777777778,0.0036390319875404392,0.02943048400622978,0.02943048400622978
1589986882.6896908,-0.03378724516466283,-4.484553058024046,8.685148980658651,0.3758581634431086,0.4032151362025905,-0.7040898530522158,0.3768622582331417,-0.015159435441714587,-0.0625
1589986882.6996908,-0.03524334479458367,-4.46232320725958,8.752809896848747,0.38,0.4066666666666667,-0.7144444444444444,0.5091254297968877,0.03277090496614796,-0.12195819006770409
1589986882.7096908,-0.03642672852510238,-4.487866357374488,8.66503870097285,0.38,0.4066666666666667,-0.7144444444444444,-0.12933758610078822,-0.2008352664094492,-0.026831786872440644
1589986882.7196908,-0.033633927724556575,-4.52729465047899,8.60909821682633,0.38,0.4066666666666667,-0.7144444444444444,-0.49436385516456416,-0.23292409655695723,-0.017075903443042773
1589986882.7296908,-0.039249587351229256,-4.5415008252975415,8.61075041264877,0.38,0.4066666666666667,-0.7144444444444444,-0.5335950395274086,-0.1007851185822257,-0.03359503952740857
1589986882.7396908,-0.03830186005314438,-4.523899379982285,8.635094419840566,0.38,0.40926625332152344,-0.7079454778073024,-0.32940212577502215,-0.0974844995571302,-0.0487422497785651
1589986882.7496908,-0.03976496922216004,-4.4805875769445995,8.68505875769446,0.38,0.4133333333333333,-0.6977777777777778,0.12279658645775043,-0.1264689423614997,-0.09411723559037492
1589986882.7596908,-0.03809981564392942,-4.479275414801158,8.647149723465894,0.38,0.4133333333333333,-0.6977777777777778,0.20984288583091915,0.034219038056360285,0.0059380761127205695
1589986882.7696908,-0.03940763512893457,-4.526469211709645,8.594123153161421,0.38,0.4133333333333333,-0.6977777777777778,-0.07716286592640176,0.022067426814719647,-0.05879771955584105
1589986882.7796907,-0.04654199278523709,-4.533458007214763,8.614580072147628,0.38,0.4133333333333333,-0.6977777777777778,-0.057824729446390666,-0.04322509018453644,-0.125
1589986882.7896907,-0.04107974006016644,-4.538920259939833,8.669202599398336,0.38,0.4133333333333333,-0.6977777777777778,0.1470097477437587,-0.11150324924791957,-0.125
1589986882.7996907,-0.03833805684176912,-4.491690284208846,8.669971658949386,0.37333333333333335,0.4066666666666667,-0.7144444444444444,0.333274289477886,-0.052112855261057,0.052112855261057
1589986882.8096907,-0.030134266186759413,-4.450268532373519,8.719127269786064,0.37333333333333335,0.4066666666666667,-0.7144444444444444,0.4362412544991305,0.0008391636672463299,-0.00041958183362316494
1589986882.8196907,-0.04685222745382108,-4.4931477725461795,8.605738862730895,0.37333333333333335,0.4066666666666667,-0.7144444444444444,0.013917059036580942,0.0856528431727635,-0.0625
1589986882.8296907,-0.04,-4.511052401305825,8.638618449836772,0.37333333333333335,0.4066666666666667,-0.7144444444444444,-0.5086346885201763,0.017269377040352706,-0.0625
1589986882.8396907,-0.04,-4.558942376751809,8.639024695677797,0.3813552850469298,0.4086721545950658,-0.7074252366950475,-0.4684927533562918,0.08739710134251671,-0.0625
1589986882.8496907,-0.03832448601280755,-4.515026541961578,8.658324486012807,0.4,0.4133333333333333,-0.6911111111111111,-0.22905607516009438,-0.010471962419952815,-0.08344392483990563
1589986882.8596907,-0.038032297192099496,-4.507870811231602,8.641967702807902,0.4,0.4133333333333333,-0.6911111111111111,0.025605572351865613,-0.03739907127468907,-0.08709628509875628
1589986882.8696907,-0.05,-4.479995501574448,8.63,0.4,0.4133333333333333,-0.6911111111111111,0.18751405757984704,0.0,0.020842705053231374
1589986882.8796906,-0.04618686071473671,-4.512373721429473,8.641439417855791,0.4,0.4133333333333333,-0.6911111111111111,0.014835758934208867,0.09532848213158227,-0.038667879467104434
1589986882.8896906,-0.04113441215323646,-4.504537648612946,8.66,0.3984874504623514,0.41421565389696163,-0.6943883017760164,-0.04831984808454425,0.22163969616908852,0.007090075957727873
1589986882.8996906,-0.039516467755980125,-4.5190329355119605,8.680967064488039,0.38666666666666666,0.4211111111111111,-0.72,0.1607831147876863,0.03276103826256211,0.0625
1589986882.9096906,-0.03549172621286198,-4.483524821361414,8.667049642722828,0.38666666666666666,0.4211111111111111,-0.72,0.2843232888303874,-0.04046986649116209,-0.1091164441519368
1589986882.9196906,-0.04,-4.47,8.663621034062313,0.38666666666666666,0.4211111111111111,-0.72,0.1648685371105404,-0.125,-0.13927640283290527
1589986882.9296906,-0.0354193808223016,-4.483741857533095,8.670838761644603,0.38666666666666666,0.4211111111111111,-0.72,-0.22378869860614975,-0.09637113013938503,-0.03387113013938503
1589986882.9396906,-0.032187730085766024,-4.508750920343064,8.664375460171533,0.38666666666666666,0.41673565093957904,-0.7136798908633426,-0.5625,-0.0351533739279247,-0.0273466260720753
1589986882.9496906,-0.03945143884892086,-4.538354316546763,8.67945143884892,0.38666666666666666,0.4011111111111111,-0.6911111111111111,-0.5350719424460432,0.059071492805755396,-0.1215714928057554
1589986882.9596906,-0.03087904676258993,-4.51263714028777,8.67087904676259,0.38666666666666666,0.4011111111111111,-0.6911111111111111,-0.1064523381294964,0.005494042266187049,-0.06799404226618705
1589986882.9696906,-0.037684793411898336,-4.498472809882153,8.625369586823796,0.38666666666666666,0.4011111111111111,-0.6911111111111111,0.2595449382365469,-0.07697004117563538,-0.10098502058781769
1589986882.9796906,-0.04591626519381564,-4.492251204418554,8.662251204418553,0.38666666666666666,0.4011111111111111,-0.6911111111111111,0.29842997238404323,-0.02552334253865226,-0.03697665746134774
1589986882.9896905,-0.04,-4.502865357921872,8.68,0.38666666666666666,0.40824575318923917,-0.696263908167537,0.1429084870116994,0.004387269482450926,-0.044591512988300615
1589986882.9996905,-0.04400795965994332,-4.50202387897983,8.675992040340056,0.38666666666666666,0.4211111111111111,-0.7055555555555556,0.0625,0.125,-0.125
1589986883.0096905,-0.04477482118444255,-4.512162231776664,8.643874105922214,0.38666666666666666,0.4211111111111111,-0.7055555555555556,0.11148605139585108,0.125,-0.09234263240276594
1589986883.0196905,-0.028159838817998654,-4.484479516453996,8.586561450638012,0.38666666666666666,0.4211111111111111,-0.7055555555555556,0.2730020147750168,0.09049697783747482,0.0
1589986883.0296905,-0.024073244934274724,-4.484439469605648,8.680366224671374,0.38666666666666666,0.4211111111111111,-0.7055555555555556,0.22225331496469777,-0.011584438321565929,-0.05091556167843407
1589986883.0396905,-0.03366173672086269,-4.512676526558274,8.706338263279138,0.3842255088527582,0.41826309366155123,-0.7055555555555556,-0.1373151270323507,0.10827170901078356,-0.10211414549460822
1589986883.0496905,-0.04,-4.511448090156577,8.68473587979123,0.38,0.4133333333333333,-0.7055555555555556,-0.3511498121737974,0.1875,-0.15790075130481035
1589986883.0596905,-0.04,-4.528037356083823,8.642336204754411,0.38,0.4133333333333333,-0.7055555555555556,-0.2634339020955852,0.1384339020955852,-0.2634339020955852
1589986883.0696905,-0.03576406901996165,-4.52,8.603887447840307,0.38,0.4133333333333333,-0.7055555555555556,0.04339827450095861,-0.036025431374760344,-0.009550862749520696
1589986883.0796905,-0.03,-4.514802267699115,8.66039546460177,0.38,0.4133333333333333,-0.7055555555555556,0.1875,0.0,0.07874291344026549
1589986883.0896904,-0.03213461914380661,-4.5042692382876135,8.692134619143806,0.38,0.4176025716209465,-0.7038952962214838,0.1741586303512087,0.013341369648791295,0.08497589105362612
1589986883.0996904,-0.04,-4.52,8.686692471453455,0.38,0.43333333333333335,-0.6977777777777778,0.09727598219469712,0.04863799109734856,-0.0625
1589986883.1096904,-0.03489360707103774,-4.525106392928962,8.599148856568302,0.38,0.43333333333333335,-0.6977777777777778,0.06382991161202825,0.0,-0.030585044193985875
1589986883.1196904,-0.03,-4.5105601165560465,8.613459679470873,0.38,0.43333333333333335,-0.6977777777777778,0.09462518211882241,-0.060749635762355175,-0.060749635762355175
1589986883.1296904,-0.03796003229713363,-4.493980016148567,8.685920064594267,0.38,0.43333333333333335,-0.6977777777777778,0.0625,-0.10012489907145741,-0.07524979814291481
1589986883.1396904,-0.046399393957398775,-4.5,8.699198181872196,0.38,0.43333333333333335,-0.7037787878487799,0.017492424467484627,-0.03999621223374231,-0.022503787766257687
1589986883.1496904,-0.04,-4.510188773471834,8.68,0.38,0.43333333333333335,-0.7144444444444444,-0.2216995854974031,0.03183991709948062,-0.0625
1589986883.1596904,-0.03017161580393482,-4.523276128065355,8.643962591281094,0.38,0.43333333333333335,-0.7144444444444444,-0.35452419959153086,0.0625,-0.08297580040846912
1589986883.1696904,-0.011683392350754496,-4.529438869216415,8.576172438619434,0.38,0.43333333333333335,-0.7144444444444444,-0.3160070673974052,0.0625,-0.1214929326025948
1589986883.1796904,-0.04477251333542517,-4.507386256667712,8.663068716661437,0.38,0.43333333333333335,-0.7144444444444444,-0.010648729212425476,-0.05965641669281456,0.09232820834640729
1589986883.1896904,-0.03,-4.499370009163503,8.700629990836497,0.38041999389099795,0.43165335776934155,-0.7144444444444444,0.31643744272810576,0.12106255727189423,-0.003937442728105773
1589986883.1996903,-0.025572628253097196,-4.4944273717469025,8.70778631412655,0.38666666666666666,0.4066666666666667,-0.7144444444444444,0.319657853163715,0.0625,-0.07633553670907126
1589986883.2096903,-0.011623014883179513,-4.50837698511682,8.700811507441589,0.38666666666666666,0.4066666666666667,-0.7144444444444444,0.14528768603974393,0.0625,-0.11992807849006401
1589986883.2196903,-0.05792316896209363,-4.5120768310379065,8.574537817265345,0.38666666666666666,0.4066666666666667,-0.7144444444444444,-0.012980193986914792,0.0024009699345739766,-0.1745198060130852
1589986883.2296903,-0.04510329690222434,-4.50775824225556,8.64224175774444,0.38666666666666666,0.4066666666666667,-0.7144444444444444,-0.001291211277804176,0.2193956056389021,-0.07909340845835314
1589986883.2396903,-0.0325856867004586,-4.482928433502293,8.685171373400916,0.3832190843993885,0.40839045780030575,-0.7101349666103468,0.15517891624426744,0.10883945812213372,0.03017891624426744
1589986883.2496903,-0.04,-4.511820194028445,8.687730291042667,0.37333333333333335,0.4133333333333333,-0.6977777777777778,-0.03974757464443816,0.011376212677780918,-0.0625
1589986883.2596903,-0.042797449013485686,-4.508392347040457,8.639228060851657,0.37333333333333335,0.4133333333333333,-0.6977777777777778,-0.22246811266857106,-0.02753188733142895,-0.02753188733142895
1589986883.2696903,-0.04976333621205076,-4.529290008636153,8.562603301667442,0.37333333333333335,0.4133333333333333,-0.6977777777777778,-0.3095417026506344,0.05954170265063442,0.05954170265063442
1589986883.2796903,-0.03,-4.524321444368491,8.6212320559733,0.37333333333333335,0.4133333333333333,-0.6977777777777778,-0.11651805460613615,-0.05323645904539789,0.0717635409546021
1589986883.2896903,-0.03196643356643357,-4.51,8.701966433566433,0.3759552447552448,0.4133333333333333,-0.6964668220668221,0.12395104895104894,-0.13833916083916084,-0.03791958041958042
1589986883.2996902,-0.03184774350402675,-4.51,8.71,0.38666666666666666,0.4133333333333333,-0.6911111111111111,0.3240483969001671,0.037024198450083576,-0.013927404649749273
1589986883.3096902,-0.024142550911039656,-4.51,8.656146838156484,0.38666666666666666,0.4133333333333333,-0.6911111111111111,0.09465434083601287,-0.025890943193997856,-0.07321811361200428
1589986883.3196902,-0.03,-4.51,8.595083814973407,0.38666666666666666,0.4133333333333333,-0.6911111111111111,-0.16270953743351446,0.03177384358378617,0.0
1589986883.3296902,-0.030892399795108206,-4.51,8.634461998975542,0.38666666666666666,0.4133333333333333,-0.6911111111111111,-0.2165350076834422,0.2276900051222948,-0.0055774987194263026
1589986883.3396902,-0.03760628761685235,-4.51,8.668031438084261,0.38666666666666666,0.4133333333333333,-0.6911111111111111,0.03523578563196311,0.05984280957869126,-0.047539297605327185
1589986883.3496902,-0.04919129226493747,-4.500808707735063,8.695956461324688,0.4,0.4211111111111111,-0.6977777777777778,0.2348367299675776,0.04733672996757758,0.005054423344140806
1589986883.3596902,-0.037511088400613186,-4.5124889115993865,8.640044353602454,0.4,0.4211111111111111,-0.6977777777777778,0.0469443025038324,-0.0938886050076648,0.015832907511497192
1589986883.3696902,-0.033047874212852504,-4.52,8.607968083858097,0.4,0.4211111111111111,-0.6977777777777778,-0.012699475886885438,-0.006349737943442719,-0.10595078616967185
1589986883.3796902,-0.05765557163531114,-4.52,8.591562952243125,0.4,0.4211111111111111,-0.6977777777777778,-0.11523154848046309,-0.057615774240231545,0.04784732272069464
1589986883.3896902,-0.02086458478092553,-4.518270830438149,8.644322923904628,0.4005763898539504,0.419862266427552,-0.6984502326073866,-0.09798172559607711,-0.0625,-0.125
1589986883.3996902,-0.029191399813384686,-4.50161720037323,8.685956999066923,0.4061275998755898,0.4078346447139999,-0.7049266442992993,0.16223124416827145,-0.0625,-0.125
1589986883.4096901,-0.037727288965098416,-4.4868181331047055,8.695000178616082,0.4066666666666667,0.4066666666666667,-0.7055555555555556,0.125,-0.06818222412746044,0.019886668095595326
1589986883.4196901,-0.030235594612938947,-4.509293216161183,8.612591540742327,0.4066666666666667,0.4066666666666667,-0.7055555555555556,0.125,0.11911013467652626,-0.12058260100739471
1589986883.4296901,-0.03,-4.5,8.652501925446703,0.4066666666666667,0.4066666666666667,-0.7055555555555556,0.15624518638324092,0.04687259319162046,0.0
1589986883.43969,-0.030975363357883073,-4.502926090073649,8.691950726715765,0.40471593995090055,0.40807552485027554,-0.7064225452070072,0.05640397901323079,0.0,0.006096020986769211
1589986883.44969,-0.04,-4.526719537742582,8.716560924514837,0.38666666666666666,0.4211111111111111,-0.7144444444444444,0.0,0.04100577821773061,0.02149422178226939
1589986883.45969,-0.04,-4.52,8.684095882522316,0.38666666666666666,0.4211111111111111,-0.7144444444444444,-0.057380146847106246,0.06761985315289376,-0.0625
1589986883.46969,-0.036992145992145994,-4.52,8.589023562023561,0.38666666666666666,0.4211111111111111,-0.7144444444444444,-0.20629908754908755,-0.043700912450912455,-0.0625
1589986883.47969,-0.03224142234510301,-4.52,8.623448534070617,0.38666666666666666,0.4211111111111111,-0.7144444444444444,-0.25,0.0,-0.0765088896568938
1589986883.48969,-0.03947026728365219,-4.52,8.670529732716348,0.38631351152243476,0.4211111111111111,-0.713973570918802,-0.2433783410456523,-0.006621658954347675,-0.12168917052282616
1589986883.49969,-0.03330149851058508,-4.51339700297883,8.683301498510584,0.38,0.4211111111111111,-0.7055555555555556,-0.06309690292652978,-0.10436563430884326,-0.041865634308843255
1589986883.50969,-0.037506540712188695,-4.5,8.670052325697508,0.38,0.4211111111111111,-0.7055555555555556,0.10925236164646202,-0.015747638353537978,-0.015584120548820673
1589986883.51969,-0.03249434664376699,-4.502494346643767,8.611247173321884,0.38,0.4211111111111111,-0.7055555555555556,0.2266155002146844,0.1016155002146844,-0.046910333476456276
1589986883.52969,-0.0477136936973184,-4.52,8.638290450421453,0.38,0.4211111111111111,-0.7055555555555556,0.03392117121647992,-0.04821058560823996,0.03392117121647992
1589986883.53969,-0.03852864822877701,-4.519264324114388,8.70073567588561,0.38049045059040765,0.4211111111111111,-0.7055555555555556,-0.06709797428507185,0.004597974285071851,-0.05790202571492815
1589986883.54969,-0.021381410846057932,-4.510690705423029,8.709309294576972,0.38620619638464737,0.4211111111111111,-0.7055555555555556,-0.12068309110606898,0.05818309110606897,-0.004316908893931028
1589986883.55969,-0.03,-4.523922036595068,8.69049323786794,0.38666666666666666,0.4211111111111111,-0.7055555555555556,-0.024512728719172636,-0.10600636435958632,-0.0625
