time,acc_x,acc_y,acc_z,mag_x,mag_y,mag_z,gyr_x,gyr_y,gyr_z
1589987503.1920314,-3.77,-0.94,9.04,0.33,-0.3322222222222222,-0.6466666666666666,0.0625,-0.0625,-1.125
1589987503.2020314,-3.77,-0.946429425470599,8.988564596235207,0.33,-0.3322222222222222,-0.6466666666666666,0.0625,-0.022316090808755906,-0.9240804540437795
1589987503.2120314,-3.7771115347950426,-0.9571115347950429,8.917330791229743,0.33,-0.3322222222222222,-0.6466666666666666,0.10694709246901811,0.17778836987607244,-0.5902645376549094
1589987503.2220314,-3.78,-0.940930503537245,8.919069496462756,0.33,-0.3322222222222222,-0.6466666666666666,0.125,0.19040782355389096,-0.559592176446109
1589987503.2320313,-3.7724725192552158,-0.94,8.927527480744784,0.33,-0.3322222222222222,-0.6466666666666666,-0.06318701861960666,0.1875,-0.421359736035295
1589987503.2420313,-3.783099028417644,-0.9269009715823564,8.949648542626466,0.33,-0.3402271840330044,-0.6510330094725478,-0.2068689276102723,0.10563107238972769,-0.41593446380513616
1589987503.2520313,-3.7803425175580765,-0.9393149648838465,8.911712587790383,0.33,-0.34444444444444444,-0.6533333333333333,-0.1896407347379795,0.0625,-0.4978592652620205
1589987503.2620313,-3.78,-0.9498469816714309,8.841071128299983,0.33,-0.34444444444444444,-0.6533333333333333,-0.37213090633933077,0.0625,-0.25382545821422564
1589987503.2720313,-3.7508585941725654,-0.95,8.859427603884956,0.33,-0.34444444444444444,-0.6533333333333333,-0.375,0.24463378642146605,-0.31071126214048866
1589987503.2820313,-3.75,-0.95,8.941645227037322,0.33,-0.34444444444444444,-0.6533333333333333,-0.375,0.07990577700557988,-0.22745288850278994
1589987503.2920313,-3.7568813538869947,-0.95,9.00752541554798,0.33841054363966067,-0.33068173667045425,-0.6388060306830103,-0.2459746146188422,0.17203384717487707,-0.14449153820628075
1589987503.3020313,-3.7528584340752458,-0.9428584340752457,9.048566263699017,0.3422222222222222,-0.3244444444444444,-0.6322222222222222,-0.05359563891085753,0.20536521297028584,-0.08036521297028584
1589987503.3120313,-3.7385417563074514,-0.9457291218462741,8.974063172305888,0.3422222222222222,-0.3244444444444444,-0.6322222222222222,0.03580701153921377,0.008464942303931161,-0.13411402307842754
1589987503.3220313,-3.698662718204489,-0.95,8.94133728179551,0.3422222222222222,-0.3244444444444444,-0.6322222222222222,-0.13335801122194513,-0.027070994389027436,-0.5302515196384039
1589987503.3320312,-3.6787300603995665,-0.9556349698002168,8.95,0.3422222222222222,-0.3244444444444444,-0.6322222222222222,-0.2579371225027102,-0.03521856125135512,-1.0124041737649063
1589987503.3420312,-3.67,-0.9546976529078506,8.94469765290785,0.3422222222222222,-0.3350491386287432,-0.6245632764224509,-0.34563966932593365,-0.02936033067406637,-2.6380867730373456
1589987503.3520312,-3.676155151013653,-0.95,8.915379395945386,0.3422222222222222,-0.34444444444444444,-0.6177777777777778,-0.375,0.0,-3.8125
1589987503.3620312,-3.732174981384959,-0.967391660461653,8.830433358153389,0.3422222222222222,-0.34444444444444444,-0.6177777777777778,-0.26630212211466864,0.27174469471332835,-5.06252559568131
1589987503.3720312,-3.754640741939784,-0.9553592580602159,8.871242596789244,0.3422222222222222,-0.34444444444444444,-0.6177777777777778,-0.15849536287634974,0.4955092742473005,-5.936284778427377
1589987503.3820312,-3.7732755417956656,-0.95,8.96301547987616,0.3422222222222222,-0.34444444444444444,-0.6177777777777778,0.08243034055727552,0.603986068111455,-5.93858359133127
1589987503.3920312,-3.7856333893466685,-0.9556333893466685,9.022533557386673,0.3397184936237029,-0.3375591907985162,-0.6102665919822197,0.257917366833357,0.6602086834166785,-5.777291316583321
1589987503.4020312,-3.8050480059084197,-0.9750480059084194,9.04,0.3377777777777778,-0.3322222222222222,-0.6044444444444445,0.12439992614475628,0.49939992614475626,-5.467849889217135
1589987503.4120312,-3.909339924689394,-0.98,8.954851493123376,0.3377777777777778,-0.3322222222222222,-0.6044444444444445,-0.026196361329816162,0.3931518193350919,-4.177599122047482
1589987503.4220312,-3.7421812372930585,-0.9720069706651177,8.912006970665118,0.3377777777777778,-0.3322222222222222,-0.6044444444444445,-0.1624128666860296,-0.12456433343014811,-0.7400704327621259
1589987503.4320312,-3.732040440808816,-0.97,8.917006740134802,0.3377777777777778,-0.3322222222222222,-0.6044444444444445,-0.23129212584251685,-0.1624157483149663,0.04379212584251685
1589987503.4420311,-3.7672354970610784,-0.9613822514694608,8.937235497061078,0.3416078882357952,-0.3379673879092484,-0.6283826348070535,-0.46544371326348066,0.09044371326348069,0.008639071684129827
1589987503.4520311,-3.7610720812664655,-0.9778558374670685,8.948927918733533,0.3422222222222222,-0.3388888888888889,-0.6322222222222222,-0.22100253957705362,0.125,-0.11159898416917856
1589987503.4620311,-3.754268518660316,-0.9742685186603164,8.90414814928253,0.3422222222222222,-0.3388888888888889,-0.6322222222222222,-0.1875,0.16082175837302257,-0.08917824162697743
1589987503.472031,-3.75,-0.975522845030617,8.903137070183702,0.3422222222222222,-0.3388888888888889,-0.6322222222222222,-0.08394665567593028,0.11846443711728687,-0.0625
1589987503.482031,-3.75,-0.98,8.945535450830098,0.3422222222222222,-0.3388888888888889,-0.6322222222222222,-0.06473104512540487,0.09486552256270243,-0.09486552256270243
1589987503.492031,-3.738981855249745,-0.9855090723751274,8.976527217125383,0.3422222222222222,-0.3388888888888889,-0.6322222222222222,-0.05613659531090724,0.15943170234454637,-0.05613659531090724
1589987503.502031,-3.763791106740959,-0.9731044466295203,8.99,0.3422222222222222,-0.3388888888888889,-0.6322222222222222,0.31679162569649294,0.1875,0.10559720856549765
1589987503.512031,-3.777240126193043,-0.97,8.932078990455652,0.3422222222222222,-0.3388888888888889,-0.6322222222222222,0.2844984225869574,0.1875,-0.010752366119563928
1589987503.522031,-3.763470227482023,-0.9589801516546819,8.898980151654682,0.3422222222222222,-0.3388888888888889,-0.6322222222222222,0.18112594784176184,0.25637405215823816,0.00637405215823815
1589987503.532031,-3.7549799774910357,-0.9549799774910356,8.914899887455178,0.3422222222222222,-0.3388888888888889,-0.6322222222222222,0.03162542204308111,0.3125,0.00025028136205407225
1589987503.542031,-3.755519359092967,-0.964480640907033,8.9534419227211,0.3486942590879366,-0.3388888888888889,-0.6292351282842001,-0.0625,0.22848798299313033,-0.034495994331043445
1589987503.552031,-3.7714643560152843,-0.975366089003821,8.975366089003822,0.3566666666666667,-0.3388888888888889,-0.6255555555555555,-0.09603805627388166,0.05792388745223667,0.0
1589987503.562031,-3.781949606045123,-0.98,8.891445666496356,0.3566666666666667,-0.3388888888888889,-0.6255555555555555,-0.0746850377820206,0.0503149622179794,0.0503149622179794
1589987503.572031,-3.7732861787359213,-0.9732861787359214,8.91699674884855,0.3566666666666667,-0.3388888888888889,-0.6255555555555555,-0.10446138290049155,0.1464227658009831,-0.021422765800983096
1589987503.582031,-3.77,-0.9648804298781738,8.975836990852782,0.3566666666666667,-0.3388888888888889,-0.6255555555555555,0.002989253045654061,0.25149462652282706,0.03349193978424053
1589987503.592031,-3.763582643751326,-0.96,8.997165287502652,0.34739715208524885,-0.3460192847207487,-0.6348250701369734,0.28543390621684706,0.3125,0.125
1589987503.602031,-3.766156764079737,-0.9661567640797367,8.959216179601317,0.3422222222222222,-0.35,-0.64,0.33652022450164504,0.23554044900329013,0.08652022450164507
1589987503.612031,-3.77,-0.97,8.902911026769221,0.3422222222222222,-0.35,-0.64,0.12705513384610218,0.1875,-0.030222433076948912
1589987503.622031,-3.7632317085218627,-0.97,8.89,0.3422222222222222,-0.35,-0.64,-0.02210364347671455,0.14519817826164272,-0.020198178261642726
1589987503.632031,-3.76,-0.9587497526765889,8.92937586563194,0.3422222222222222,-0.35,-0.64,-0.13281404577131928,0.125,0.0
1589987503.642031,-3.7653905409371027,-0.9553905409371026,8.96,0.346414865173302,-0.344010510069886,-0.6358073570489202,-0.25488176171378263,0.09130911914310869,0.03369088085689132
1589987503.652031,-3.7773491598778004,-0.96,8.96,0.35,-0.3388888888888889,-0.6322222222222222,-0.35843224923625255,0.0625,0.0625
1589987503.662031,-3.755988427469283,-0.9680038575102391,8.895969139918089,0.35,-0.3388888888888889,-0.6322222222222222,-0.375,0.11252410943899419,-0.08757232831698258
1589987503.672031,-3.741883328899316,-0.9781166711006845,8.953050039906161,0.35,-0.3388888888888889,-0.6322222222222222,-0.1213540281036109,0.1757291943792778,-0.07427080562072219
1589987503.682031,-3.746358508479625,-0.98,8.97,0.35,-0.3388888888888889,-0.6322222222222222,-0.0625,0.14775932200234562,-0.0625
1589987503.692031,-3.758927624100038,-0.9710723758999621,8.97446381205002,0.3445442297166435,-0.33591301418887626,-0.6257744937055282,-0.006702349374763168,0.15289882531261842,-0.006702349374763168
1589987503.702031,-3.77,-0.96,8.997070646287158,0.3377777777777778,-0.3322222222222222,-0.6177777777777778,0.16919153929474062,0.1875,0.0625
1589987503.712031,-3.7643326309670857,-0.96,8.936324202572115,0.3377777777777778,-0.3322222222222222,-0.6177777777777778,0.21457894354428542,0.25834211291142917,0.0979210564557146
1589987503.7220309,-3.766553285517641,-0.96,8.899659856552924,0.3377777777777778,-0.3322222222222222,-0.6177777777777778,-0.01729017242628414,0.3534580344852568,0.125
1589987503.7320309,-3.77,-0.96,8.928510188937725,0.3377777777777778,-0.3322222222222222,-0.6177777777777778,-0.125,0.10505974465818069,0.047874212759480186
1589987503.7420309,-3.77,-0.9665262528047868,8.966105011219147,0.32835096817086346,-0.3322222222222222,-0.6177777777777778,-0.4105235602094241,-0.14407816005983545,0.040789080029917726
1589987503.7520308,-3.7755058994372845,-0.97,8.952470502813577,0.3233333333333333,-0.3322222222222222,-0.6177777777777778,-0.5969118714830278,-0.22191187148302777,0.028088128516972226
1589987503.7620308,-3.7626926950449846,-0.9873073049550154,8.883847186786625,0.3233333333333333,-0.3322222222222222,-0.6177777777777778,-0.5889431146770512,-0.2860568853229488,-0.03605688532294884
1589987503.7720308,-3.75,-0.9821976821794793,8.873736423760695,0.3233333333333333,-0.3322222222222222,-0.6177777777777778,-0.4141473514956617,-0.27541183787391543,-0.0625
1589987503.7820308,-3.7595890410958903,-0.9795890410958904,8.942739726027398,0.3233333333333333,-0.3322222222222222,-0.6177777777777778,-0.16267123287671234,-0.10017123287671234,-0.002568493150684935
1589987503.7920308,-3.77,-0.99,9.0,0.31921313380793254,-0.3322222222222222,-0.6254295768963791,0.13243498474502396,0.09560874618625599,0.09560874618625599
1589987503.8020308,-3.7634214424353867,-0.9768428848707733,8.993421442435388,0.31555555555555553,-0.3322222222222222,-0.6322222222222222,0.20888401522116662,0.24834795433650014,0.16611598477883338
1589987503.8120308,-3.753148850381606,-0.97,8.887232755724092,0.31555555555555553,-0.3322222222222222,-0.6322222222222222,-0.02659842557480921,0.3553196851149618,0.059040944655114475
1589987503.8220308,-3.761673720661793,-0.958326279338207,8.869184301654483,0.31555555555555553,-0.3322222222222222,-0.6322222222222222,-0.08851962293189689,0.41148037706810314,0.07296075413620624
1589987503.8320308,-3.77,-0.95,8.899705675448748,0.31555555555555553,-0.3322222222222222,-0.6322222222222222,-0.1231604715546781,0.3161790568906438,0.125
1589987503.8420308,-3.7595995176212247,-0.9604004823787753,8.923867309838368,0.32480042878113363,-0.3364594557839455,-0.6299110039158277,-0.2308353432448972,0.2308353432448972,0.19000301486734583
1589987503.8520308,-3.7379758362313127,-0.9779758362313125,8.94190334492525,0.3422222222222222,-0.34444444444444444,-0.6255555555555555,-0.32515102355429676,0.41370818843437424,0.23659385867421934
1589987503.8620307,-3.7264143455306753,-0.9735856544693245,8.881314764245403,0.3422222222222222,-0.34444444444444444,-0.6255555555555555,-0.4870517021663936,1.0814240851993446,0.004731021299836158
1589987503.8720307,-3.717635011280316,-0.9776350112803158,8.84655492103779,0.3422222222222222,-0.34444444444444444,-0.6255555555555555,-0.7466247179921037,1.7250929744782855,0.021531743513818383
1589987503.8820307,-3.70640654064875,-0.9520327032437508,8.92874767481,0.3422222222222222,-0.34444444444444444,-0.6255555555555555,-1.0048773628359347,2.4745912094531155,-0.42479560472655764
1589987503.8920307,-3.7046343810134705,-0.917682809493265,8.993903143040411,0.3422222222222222,-0.33981006343097425,-0.6309623334046041,-1.22637708466966,3.063271728672226,-0.72637708466966
1589987503.9020307,-3.7376236436432566,-0.9276236436432564,9.048811821821628,0.3422222222222222,-0.3244444444444444,-0.6488888888888888,-1.6175738863851763,3.6324261136148235,-1.2827955455407052
1589987503.9120307,-3.7860038610038607,-0.9586679536679537,9.007992277992278,0.3422222222222222,-0.3244444444444444,-0.6488888888888888,-1.4708011583011582,3.074927606177606,-1.8604609073359073
1589987503.9220307,-3.8064592200829543,-0.9609728133886363,8.926459220082954,0.3422222222222222,-0.3244444444444444,-0.6488888888888888,-1.018240251036931,1.7886709623082355,-2.25
1589987503.9320307,-3.786544483985765,-0.9603665480427046,8.91,0.3422222222222222,-0.3244444444444444,-0.6488888888888888,-0.6613211743772243,0.7624332740213523,-2.271596975088968
1589987503.9420307,-3.7636476952506324,-0.9840880761873418,8.91,0.3404052994722925,-0.3276240592568214,-0.6393500444517578,-0.4261009523417735,0.4658028570253203,-2.3125
1589987503.9520307,-3.718992011203412,-0.9984031955186352,8.905798402240682,0.3377777777777778,-0.3322222222222222,-0.6255555555555555,-0.5787799579872052,1.107659775931761,-2.4175399439829404
1589987503.9620306,-3.684376229644203,-1.0043762296442031,8.843762296442032,0.3377777777777778,-0.3322222222222222,-0.6255555555555555,-1.0741342119610306,2.706808376988172,-2.8436885177898406
1589987503.9720306,-3.68,-0.9951151469762217,8.839078824190228,0.3377777777777778,-0.3322222222222222,-0.6255555555555555,-1.558181988391687,4.171667290769519,-3.2762123197903015
1589987503.9820306,-3.6961423090338332,-0.9819288454830833,8.896142309033834,0.3377777777777778,-0.3322222222222222,-0.6255555555555555,-1.9265565050575515,4.975889431461458,-3.802668294384374
1589987503.9920306,-3.729669723137185,-0.9458256921570373,8.987688061960295,0.3377777777777778,-0.32846177433553914,-0.6287787966012839,-2.429243078429627,4.732167497551856,-4.733486156859254
1589987504.0020306,-3.724831544025222,-0.8138208081765542,8.994270024109296,0.3377777777777778,-0.3244444444444444,-0.6322222222222222,-3.035110449421995,3.712081950998372,-5.755615199159266
1589987504.0120306,-3.670726357818739,-0.5823606629109008,8.856361920910135,0.3377777777777778,-0.3244444444444444,-0.6322222222222222,-4.540936252256194,3.8306982579445386,-6.495460263632883
1589987504.0220306,-3.6812939012933015,-0.3474121974133968,8.971186359365943,0.3377777777777778,-0.3244444444444444,-0.6322222222222222,-7.4986557259080096,4.999663931477002,-7.39117376616627
1589987504.0320306,-3.5864550245516846,-0.9045011421479576,9.354512473694623,0.3377777777777778,-0.3244444444444444,-0.6322222222222222,-8.368976743349462,4.197609583250895,-8.090726567980287
1589987504.0420306,-3.168433889602054,-2.626726572528883,9.699512195121951,0.33808015974896594,-0.3244444444444444,-0.6312394808158608,-4.2779204107830555,0.9456033376123235,-7.493982670089859
1589987504.0520306,-2.878521228807419,-1.540868714679032,8.087476814954355,0.3422222222222222,-0.3244444444444444,-0.6177777777777778,8.9239059556586,3.3739120689030573,0.8983752354731198
1589987504.0620306,-2.396979725099762,-1.151658672256036,7.787555322665162,0.3422222222222222,-0.3244444444444444,-0.6177777777777778,3.682045830142287,2.2771448869361923,4.080477346930549
1589987504.0720305,-1.7728642735042734,-1.0930276923076923,8.698216068376068,0.3422222222222222,-0.3244444444444444,-0.6177777777777778,-0.27536324786324795,0.20304700854700852,7.49591452991453
1589987504.0820305,-1.840264774986445,-1.0377483583348395,8.757284474968372,0.3422222222222222,-0.3244444444444444,-0.6177777777777778,1.567054114705705,0.025246249774082796,10.73178354117718
1589987504.0920305,-1.9302598051461404,-1.0029869264718128,8.913246731617953,0.3422222222222222,-0.3244444444444444,-0.6155266883170956,0.6842524356732451,0.25892559746856525,14.284094221000917
1589987504.1020305,-2.044834657306484,-0.9649669314612969,9.0234771845557,0.3422222222222222,-0.3244444444444444,-0.6111111111111112,-0.2334449473489747,-1.4689566783668946,17.177775725106226
1589987504.1120305,-2.1812846086152042,-0.9730730870771939,9.156650044001173,0.3422222222222222,-0.3244444444444444,-0.6111111111111112,-0.5495915788523592,-1.4182932057675384,19.965047273055486
1589987504.1220305,-2.1955770225978957,-0.96,9.094422977402104,0.3422222222222222,-0.3244444444444444,-0.6111111111111112,-0.38942556494738656,-1.2560052613420736,21.975978954631707
1589987504.1320305,-2.2133473633464362,-0.9644491211154788,9.014364941036861,0.3422222222222222,-0.3244444444444444,-0.6111111111111112,-0.8614910906326485,-1.0625,23.472982181265298
1589987504.1420305,-2.23,-0.9608316151202749,8.851237113402062,0.3366193203512791,-0.3336128293241695,-0.6080549828178694,-1.3698024054982818,-1.1484536082474226,24.97667525773196
1589987504.1520305,-2.23,-0.9436168598233995,8.699785458057395,0.33,-0.34444444444444444,-0.6044444444444445,-1.1582376172737308,-1.25,26.445497895971304
1589987504.1620305,-2.2347521944632005,-0.9411880486158001,8.652871708305199,0.33,-0.34444444444444444,-0.6044444444444445,-0.9777240884537475,-1.2871265192437542,26.941827734638757
1589987504.1720304,-2.2731369675848003,-0.9531369675848003,8.653328448941604,0.33,-0.34444444444444444,-0.6044444444444445,-0.7536818577849944,-1.6409241896200075,27.711984663670027
1589987504.1820304,-2.275814113861007,-0.96,8.789534135315302,0.33,-0.34444444444444444,-0.6044444444444445,-0.5639558271396827,-1.8386617883687073,28.303779403877098
1589987504.1920304,-2.25171078844533,-0.96,8.90201632058846,0.33,-0.34444444444444444,-0.6044444444444445,-0.21244899816106044,-1.9893075722166884,28.25356414259444
1589987504.2020304,-2.227207656247105,-0.9772076562471048,9.02558468750579,0.3377777777777778,-0.3322222222222222,-0.6488888888888888,0.14976074227797437,-1.7224042969111897,27.40826562471048
1589987504.2120304,-2.227613806903452,-0.9636551609137902,9.04,0.3377777777777778,-0.3322222222222222,-0.6488888888888888,0.263965315991329,-1.8204310488577622,26.513016925129232
1589987504.2220304,-2.2834283521901684,-0.9234283521901684,9.074283521901682,0.3377777777777778,-0.3322222222222222,-0.6488888888888888,-0.6071360059427601,-1.7678639940572398,24.45541195245792
1589987504.2320304,-2.2871417302870665,-0.9276181085725554,9.13618897371609,0.3377777777777778,-0.3322222222222222,-0.6488888888888888,-0.8184547285686115,-1.532726357156943,22.684473335774854
1589987504.2420304,-2.23,-0.8765755528901795,9.029179976011616,0.3385387660244046,-0.3322222222222222,-0.6435619711625014,-0.9910069860909454,-0.9375,19.579228741872356
1589987504.2520304,-2.2326022796661915,-0.8573977203338082,8.870458307890631,0.3422222222222222,-0.3322222222222222,-0.6177777777777778,-1.2445785840287673,-0.8887072562589049,16.64474353755343
1589987504.2620304,-2.2501688481675393,-0.83,8.711013089005235,0.3422222222222222,-0.3322222222222222,-0.6177777777777778,-1.0441290357766144,-0.3340368673647469,12.415532286212915
1589987504.2720304,-2.222471408269608,-0.83,8.60882147932598,0.3422222222222222,-0.3322222222222222,-0.6177777777777778,-0.6794194525275766,-0.3441073966298978,8.486201106449212
1589987504.2820303,-2.241393259712765,-0.8434542541626137,8.74763403330091,0.3422222222222222,-0.3322222222222222,-0.6177777777777778,-0.2541733421067689,-0.4159109114836642,4.137158837329061
1589987504.2920303,-2.267904918134266,-0.8640316939552447,8.912253551641959,0.33729459627692315,-0.33714984816752125,-0.6267370976783215,0.3265846977622334,-0.03532104057692903,0.311728156241295
1589987504.3020303,-2.301431035656733,-0.8597137928686533,9.001144828525387,0.33,-0.34444444444444444,-0.64,0.8821551782836651,0.4714331918563744,-4.405463412696612
1589987504.3120303,-2.35,-0.8644377811094452,9.015937031484258,0.33,-0.34444444444444444,-0.64,1.1851574212893554,0.7429722638680659,-8.785982008995502
1589987504.3220303,-2.3596439357038483,-0.875178032148076,9.028575742815393,0.33,-0.34444444444444444,-0.64,1.0993135046273745,0.9676372990745251,-13.510297430589382
1589987504.3320303,-2.3806043864484128,-0.87,9.07,0.33,-0.34444444444444444,-0.64,0.8380838770461333,1.0828467691282222,-17.24647895222591
1589987504.3420303,-2.4021100329432277,-0.87,9.07,0.33,-0.34444444444444444,-0.64,0.636468441157243,1.250859632368964,-19.901082191429634
1589987504.3520303,-2.3772351618343905,-0.87,9.030323066420367,0.33,-0.3644444444444445,-0.64,0.17885988073247128,2.011520159023372,-26.378443498514176
1589987504.3620303,-2.3267054855031724,-0.87,8.853469199261104,0.33,-0.3644444444444445,-0.64,0.02095464219741386,2.222060477070115,-31.010330495542526
1589987504.3720303,-2.2842812668152814,-0.9014270889384273,8.697145822123145,0.33,-0.3644444444444445,-0.64,0.25885444692136217,2.9195965293258515,-37.963479610269815
1589987504.3820302,-2.3084624106387888,-0.9094874702129295,8.681025059574141,0.33,-0.3644444444444445,-0.64,0.6618735106464755,3.171483444154047,-42.34631192828042
1589987504.3920302,-2.3636264695404345,-0.9463735304595653,8.816996081225508,0.3325966235205637,-0.3644444444444445,-0.6414163401021257,1.7046691307445672,3.4015563769148556,-49.34270239579622
1589987504.4020302,-2.3412130388314925,-0.9687869611685073,8.876765229782688,0.34172802121679924,-0.3644444444444445,-0.6463971024818904,1.9848370146063412,3.494945671535447,-53.40513671179195
1589987504.4120302,-2.393310454311995,-1.0299656814679927,8.976586590091983,0.3422222222222222,-0.3644444444444445,-0.6466666666666666,2.396119321100061,3.854953133025167,-61.08941057337629
1589987504.4220302,-2.403097816744026,-1.0297981286377367,8.949798128637736,0.3422222222222222,-0.3644444444444445,-0.6466666666666666,2.603746101328618,4.456861354650163,-66.33671320513766
1589987504.4320302,-2.4559597129906297,-1.0848992824765737,9.001919425981258,0.3422222222222222,-0.3644444444444445,-0.6466666666666666,2.519883072138545,4.861744618574304,-71.37692466004025
1589987504.4420302,-2.4723925825418362,-1.12,9.027607417458164,0.35338760741745817,-0.35673501180963874,-0.6538444142921754,2.0651854364540934,5.199768204432384,-76.1541157847128
1589987504.4520302,-2.48,-1.1323470186821791,9.00765298131782,0.3888888888888889,-0.3322222222222222,-0.6766666666666666,1.8492770444121267,5.6175606891151135,-81.52849871350263
1589987504.4620302,-2.487474496499988,-1.1686862412499701,8.885357049000168,0.3888888888888889,-0.3322222222222222,-0.6766666666666666,1.742426595312612,5.968431206249851,-85.88504610937238
1589987504.4720302,-2.477669301026927,-1.2223306989730727,8.721165349486537,0.3888888888888889,-0.3322222222222222,-0.6766666666666666,1.6947834342908523,6.194783434290852,-90.06719097534427
1589987504.4820302,-2.4524214089956473,-1.2662107044978237,8.74,0.3888888888888889,-0.3322222222222222,-0.6766666666666666,2.0065845155569884,6.331908451555699,-93.58687328711913
1589987504.4920301,-2.4866084304728244,-1.2932168609456494,8.76423091173369,0.3962315894142497,-0.32781660190700573,-0.6783799634559174,2.561408071365463,6.4300702539402055,-96.71591330122267
1589987504.5020301,-2.515980768047895,-1.3519615360957906,8.855980768047894,0.4222222222222222,-0.31222222222222223,-0.6844444444444444,3.1308293010477106,6.6623798002993455,-100.12842530703463
1589987504.5120301,-2.53453827247191,-1.3981530898876404,8.87,0.4222222222222222,-0.31222222222222223,-0.6844444444444444,3.4942284058988764,6.835092608848314,-102.82569456636236
1589987504.52203,-2.55364528780442,-1.4709358634132594,8.891871726826519,0.4222222222222222,-0.31222222222222223,-0.6844444444444444,3.6647169512223763,7.216132195110495,-106.02523719499307
1589987504.53203,-2.5687649183417087,-1.5104514761306533,8.95337311557789,0.4222222222222222,-0.31222222222222223,-0.6844444444444444,3.5884795069095476,7.484561479271357,-108.50638936871859
1589987504.54203,-2.59,-1.574699100513992,9.01,0.43062170823021767,-0.30358941715844917,-0.6933105685639952,3.4606274093375213,7.789372590662478,-110.79121305682467
1589987504.55203,-2.5770438194898624,-1.6472749073468498,8.979768912143012,0.4622222222222222,-0.27111111111111114,-0.7266666666666667,3.0965636581643774,8.01847612818836,-114.0342135382603
1589987504.56203,-2.5278358796660894,-1.6914427468892739,8.872097968183965,0.4622222222222222,-0.27111111111111114,-0.7266666666666667,2.611474247913057,8.169672389352653,-116.07193061899511
1589987504.57203,-2.4732514577259477,-1.7527602040816326,8.753251457725947,0.4622222222222222,-0.27111111111111114,-0.7266666666666667,2.371929664723032,8.290643221574344,-118.10811315597668
1589987504.58203,-2.468746872145212,-1.811253127854788,8.745933590181515,0.4622222222222222,-0.27111111111111114,-0.7266666666666667,2.712915061365532,8.445332049092425,-119.99232434364698
1589987504.59203,-2.4451996747379834,-1.8486661245633056,8.72213257438863,0.46453318877243704,-0.26128950327269806,-0.7291702137627327,3.0349939013371885,8.67916327852066,-121.6183102939405
1589987504.60203,-2.4604574109126824,-1.9138564727182947,8.784771294543658,0.4755555555555556,-0.21444444444444444,-0.7411111111111112,3.6043720681425397,8.952410295448935,-123.8073985680191
1589987504.61203,-2.4328428935890054,-1.9828927660274873,8.798578553205498,0.4755555555555556,-0.21444444444444444,-0.7411111111111112,3.9064058513702578,8.995557978767179,-125.05868138424822
1589987504.62203,-2.4340397470641375,-2.091986750978621,8.785894007828967,0.4755555555555556,-0.21444444444444444,-0.7411111111111112,3.962334387232761,9.411837548931045,-127.5728470340259
1589987504.63203,-2.4117393918570693,-2.106377770142587,8.85115959457138,0.4755555555555556,-0.21444444444444444,-0.7411111111111112,4.073371199106683,9.823371199106683,-128.9873357241024
1589987504.64203,-2.434489945155393,-2.2283668494820232,8.87734673979281,0.48147376261087416,-0.20689362854627935,-0.742335567743246,4.158165752589884,9.977041438147472,-131.0994820231566
1589987504.65203,-2.4062498664482357,-2.311250044517255,8.906249866448235,0.5077777777777778,-0.17333333333333334,-0.7477777777777778,3.7226552761850495,9.894531945582107,-132.51172361907476
1589987504.66203,-2.3406885656372958,-2.3486228687254083,8.803442828186478,0.5077777777777778,-0.17333333333333334,-0.7477777777777778,3.2155058920551647,10.206898821588966,-135.0862681829021
1589987504.67203,-2.2810461814377523,-2.39,8.741117919593483,0.5077777777777778,-0.17333333333333334,-0.7477777777777778,2.851218054102526,10.182371842773875,-136.70987146913765
1589987504.68203,-2.0844597110754415,-2.349607062600321,8.809214125200642,0.5077777777777778,-0.17333333333333334,-0.7477777777777778,2.470284911717496,10.032170947030497,-138.690569823435
1589987504.69203,-1.9363463884430177,-2.241888282504013,8.593776565008026,0.5077777777777778,-0.17333333333333334,-0.7477777777777778,2.8910613964686998,10.28463683788122,-139.5321227929374
1589987504.70203,-2.1650047883937487,-2.469372007253907,8.730627992746093,0.5344444444444445,-0.14666666666666667,-0.8,3.746134900258777,11.855494936528313,-140.63273019948244
1589987504.71203,-2.1005439793472247,-2.517071731513922,8.69,0.5344444444444445,-0.14666666666666667,-0.8,3.1942997418403096,11.50679974184031,-141.80099806380233
1589987504.72203,-2.100656674907293,-2.6426695214550593,8.684660957089882,0.5344444444444445,-0.14666666666666667,-0.8,3.3375267636411796,11.666711272735299,-142.7125267636412
1589987504.73203,-2.043253954518708,-2.666043058391887,8.660226714201654,0.5344444444444445,-0.14666666666666667,-0.8,3.4651362015852687,11.960742532276488,-142.88371594960367
1589987504.74203,-2.0940657990377627,-2.760407912498702,8.81992108269011,0.5344444444444445,-0.14666666666666667,-0.8,2.9207235817382577,12.323684278841162,-143.01981910456544
1589987504.75203,-2.0533945824195365,-2.8821172426056547,8.8418985240946,0.5733333333333334,-0.15444444444444444,-0.8,2.718066504652955,11.747338875387745,-142.99201662616323
1589987504.76203,-1.730201529251378,-2.534063185347638,8.294956434117717,0.5733333333333334,-0.15444444444444444,-0.8,2.0965414024064963,11.695545116867208,-142.83663535060163
1589987504.7720299,-1.9129582462365402,-2.947114300268756,9.781978077956753,0.5733333333333334,-0.15444444444444444,-0.8,-2.5149725974459414,8.316016441532435,-143.4159479351473
1589987504.7820299,-1.8834878532909411,-2.851335523195559,9.413598166136765,0.5733333333333334,-0.15444444444444444,-0.8,-2.0544977076709587,8.592301375397424,-142.5410456445748
1589987504.7920299,-1.7244496038254065,-2.783715742259282,7.9160671026892455,0.5714602365411511,-0.1569865043766919,-0.8058868756325731,9.909399760912091,14.62600155110751,-137.8576550119544
1589987504.8020298,-1.8239014799739177,-3.015770119939141,8.852572269754392,0.5585683266700477,-0.17448266777318922,-0.8464043066560406,3.6936575016301454,11.621726125787903,-138.1684421249185
1589987504.8120298,-1.7240973522791705,-2.9886342159069432,8.940840019930928,0.5577777777777778,-0.17555555555555555,-0.8488888888888889,-0.6864218398309307,7.275313138949503,-138.33894284462465
1589987504.8220298,-1.637618425800244,-3.017460524733252,8.34269411178502,0.5577777777777778,-0.17555555555555555,-0.8488888888888889,3.9077711293620387,10.698437312073676,-136.1319285751104
1589987504.8320298,-1.6578199173896717,-3.1134597521690153,8.913684855431926,0.5577777777777778,-0.17555555555555555,-0.8488888888888889,3.5699779145832924,10.087380679460068,-133.97837654894366
1589987504.8420298,-1.6882917559256443,-3.2091458779628224,8.958896413516689,0.5553577653391074,-0.17275593332258385,-0.8415339491243022,0.18150093290028332,7.96041220371778,-133.23353603759242
1589987504.8520298,-1.65,-3.256765147251923,8.853545066591634,0.5011111111111111,-0.11,-0.6766666666666666,4.124815348902645,9.582902480772837,-129.31139209341586
1589987504.8620298,-1.65,-3.39,9.14,0.5011111111111111,-0.11,-0.6766666666666666,3.875,9.0,-127.8125
1589987504.8720298,-1.6,-3.380800522181038,8.589199477818962,0.5011111111111111,-0.11,-0.6766666666666666,1.932578327155745,8.170029372683404,-124.91232050026808
1589987504.8820298,-1.5979873397175783,-3.393622788508359,8.592478493751015,0.5011111111111111,-0.11,-0.6766666666666666,3.2747626197045934,8.64473096899854,-121.63678785911378
1589987504.8920298,-1.5639482226911217,-3.4548931991559813,8.803521019315047,0.5011111111111111,-0.11,-0.6766666666666666,2.6365291754585294,7.921399732186334,-119.72208752637559
1589987504.9020298,-1.3713638003607937,-3.3410607336139506,9.227423932651835,0.49780303334001474,0.011296184940201764,-0.6402778111846061,2.623105832832231,7.562973541791942,-115.27793896572459
1589987504.9120297,-1.3111485090666277,-3.2786415708532437,8.00746530893308,0.4977777777777778,0.012222222222222223,-0.64,5.156336727667299,9.276609091667884,-110.07948036433446
1589987504.9220297,-1.374555434405511,-3.4455850721118106,8.52,0.4977777777777778,0.012222222222222223,-0.64,3.2057354909054863,6.4585620384596325,-107.54865533776082
1589987504.9320297,-1.248917078796212,-3.3352864207935062,8.528917078796212,0.4977777777777778,0.012222222222222223,-0.64,-1.685522055399082,3.9243557472666386,-104.46179392783482
1589987504.9420297,-1.3094954814886794,-3.444540666601885,8.597063259158487,0.4991231604746327,0.017323464947796886,-0.6378137531176109,4.683781945389175,7.63389490817219,-98.83231342920999
1589987504.9520297,-1.3013440870663686,-3.517903216402682,8.711182781070839,0.5208602122674614,0.09974311966227231,-0.6024910439542642,3.613911427460888,6.767809250801672,-95.1132397240307
1589987504.9620297,-1.290050357184682,-3.596633095210212,8.950352500292773,0.5244444444444445,0.11333333333333333,-0.5966666666666667,1.3106116055744232,5.134734746457431,-89.86904204239373
1589987504.9720297,-1.2479480701989192,-3.6247012865340538,8.655636491392434,0.5244444444444445,0.11333333333333333,-0.5966666666666667,2.8894473675405283,5.704869882722969,-86.14123538219597
1589987504.9820297,-1.2252611160847509,-3.6440763951059383,8.911426439868697,0.5244444444444445,0.11333333333333333,-0.5966666666666667,2.276354073410922,4.657881975529692,-80.22754401671143
1589987504.9920297,-1.1918836168307967,-3.602354521038496,8.569307072515668,0.5244444444444445,0.11333333333333333,-0.5966666666666667,2.9021821844225606,4.44927260519248,-76.10750895255148
1589987505.0020297,-1.1086701099004765,-3.575319560398094,8.74813428611858,0.51,0.19333333333333333,-0.6255555555555555,2.8956181312202256,3.7706181312202256,-70.26856044526201
1589987505.0120296,-1.1050964187327825,-3.6227410468319556,8.4673347107438,0.51,0.19333333333333333,-0.6255555555555555,3.349905303030303,4.224905303030303,-64.83109504132231
1589987505.0220296,-1.1310600649724674,-3.6921201299449344,8.821260281547358,0.51,0.19333333333333333,-0.6255555555555555,2.601001082874456,3.5691254060779207,-59.477068117411235
1589987505.0320296,-1.078574560154871,-3.591425439845129,8.611403518761032,0.51,0.19333333333333333,-0.6255555555555555,1.812362993224392,3.258908999032056,-54.697231039685704
1589987505.0420296,-1.0666338324887548,-3.603366167511245,8.706929340089962,0.51,0.19333333333333333,-0.6255555555555555,2.334769828616979,3.3335385469452827,-51.63741957524341
1589987505.0520296,-1.06,-3.656919204631261,8.783459602315629,0.5317218539959542,0.2237439289276692,-0.6194734364366884,1.794139084654753,2.984006628072825,-46.02756628072825
1589987505.0620296,-1.0664560676072177,-3.6506317971783475,8.79,0.5377777777777778,0.23222222222222225,-0.6177777777777778,1.6432008450902191,2.794299154909781,-41.83051746402656
1589987505.0720296,-1.0464593094500108,-3.663540690549989,8.782153103150003,0.5377777777777778,0.23222222222222225,-0.6177777777777778,1.3932413681251352,2.210525841562748,-36.691982628126574
1589987505.0820296,-1.0334922472906225,-3.656984494581245,8.708414720196847,0.5377777777777778,0.23222222222222225,-0.6177777777777778,1.353173454433609,1.7777858189647373,-32.61814400861211
1589987505.0920296,-1.0216773268636965,-3.65,8.761549404499338,0.5377777777777778,0.23222222222222225,-0.6177777777777778,1.166933171592413,1.2608830502867225,-26.72414672474636
1589987505.1020296,-1.012674179323861,-3.598719255267026,8.69941597256247,0.5499874789046764,0.24524590342424737,-0.6405692198813218,0.987640862322391,0.8669953454189123,-22.212089661930428
1589987505.1120296,-0.9687651079015588,-3.6318523381476617,8.643208093458574,0.5544444444444444,0.25,-0.6488888888888888,0.6913590378076289,0.44135903780762886,-15.28926371073629
1589987505.1220295,-0.9546443120223546,-3.653033531966468,8.56554371612295,0.5544444444444444,0.25,-0.6488888888888888,0.7354865249301418,0.4854865249301417,-11.45017233107767
1589987505.1320295,-0.9500952217256788,-3.7397143348229633,8.709857167411483,0.5544444444444444,0.25,-0.6488888888888888,0.3125,-0.00029756789274664835,-4.726194568580268
1589987505.1420295,-0.9645135785493296,-3.6964592643520113,8.688229632176006,0.5544444444444444,0.25,-0.6488888888888888,0.3125,-0.045354932966655215,-1.1216053626675833
1589987505.1520295,-1.019976807478405,-3.74004638504319,8.789976807478403,0.5933333333333334,0.2911111111111111,-0.6488888888888888,-0.2495651402200923,-0.12601467281978465,4.257972429298308
1589987505.1620295,-1.0100506448940954,-3.759898710211809,8.780050644894095,0.5933333333333334,0.2911111111111111,-0.6488888888888888,-0.06344959176428824,-0.5602842858833275,7.670090817654716
1589987505.1720295,-0.9791788002329644,-3.775894001164822,8.64574839836925,0.5933333333333334,0.2911111111111111,-0.6488888888888888,-0.442632498543972,-0.8586924868957484,11.469787419918463
1589987505.1820295,-0.9703589124988401,-3.7282054375057996,8.710897281247101,0.5933333333333334,0.2911111111111111,-0.6488888888888888,-0.5022432031177507,-1.3817296093532523,14.68332328106152
1589987505.1920295,-0.985926510160527,-3.6503674491973648,8.749816275401317,0.5933333333333334,0.2911111111111111,-0.6488888888888888,-0.599540688503294,-1.6736220655098821,17.213057901085644
1589987505.2020295,-0.9800437242798353,-3.6001311728395065,8.690306069958847,0.8256464334705076,0.38514260402377676,-0.73296410608139,-0.625,-2.1855870627572016,20.861882716049383
1589987505.2120295,-0.9925294452602871,-3.5812058321095694,8.733853058411004,0.8266666666666667,0.3855555555555555,-0.7333333333333333,-0.8990816150687806,-2.1483454835616027,22.67610775616627
1589987505.2220294,-1.0198800529636265,-3.5766266843212087,8.673853103824285,0.8266666666666667,0.3855555555555555,-0.7333333333333333,-1.0625,-2.166416777007555,25.7794220733702
1589987505.2320294,-0.9814929959691903,-3.5219906612922536,8.613234824599912,0.8266666666666667,0.3855555555555555,-0.7333333333333333,-0.8858864289420122,-2.5578343875962806,30.21675704393982
1589987505.2420294,-1.0317101009697889,-3.588946801293052,8.722038552101209,0.8266666666666667,0.3855555555555555,-0.7333333333333333,-1.2520528195713774,-2.4009059344694097,33.30301662210161
1589987505.2520294,-1.0905647947895694,-3.6302823973947844,8.780282397394783,1.5322222222222222,0.05111111111111112,-1.5588888888888892,-1.4339700325651925,-2.7517649837174036,37.99678387650086
1589987505.2620294,-1.1123238002118472,-3.64,8.785817159618674,1.5322222222222222,0.05111111111111112,-1.5588888888888892,-1.318309500529618,-2.8386427523832802,42.387927768271815
1589987505.2720294,-1.146498818544773,-3.64,8.724302126619408,1.5322222222222222,0.05111111111111112,-1.5588888888888892,-1.4037470463619326,-3.2231117086286973,45.33552309948668
1589987505.2820294,-1.13305998938241,-3.6220399929216067,8.682039992921606,1.5322222222222222,0.05111111111111112,-1.5588888888888892,-1.3252499557600426,-3.7117501327198728,50.37262652627854
1589987505.2920294,-1.1536726159813337,-3.5785729220326656,8.733263385958,1.5322222222222222,0.05111111111111112,-1.5588888888888892,-1.4604538498833368,-3.9719307748250055,53.21675006060423
1589987505.3020294,-1.1758916859757294,-3.538216628048541,8.77589168597573,1.0504132357625662,0.03867310738457108,-1.0947549603564215,-1.452030887955072,-4.235469112044928,56.78979794211208
1589987505.3120294,-1.1935888637099383,-3.5435888637099384,8.766411136290062,0.7144444444444444,0.03,-0.7711111111111111,-1.4174651990935578,-4.482360796374231,60.0359339592101
1589987505.3220294,-1.2005431617663156,-3.5201810539221055,8.651991593143158,0.7144444444444444,0.03,-0.7711111111111111,-1.443157935065788,-4.689763174026315,62.84305284935525
1589987505.3320293,-1.2280907239967598,-3.5293635746655863,8.752999321321452,0.7144444444444444,0.03,-0.7711111111111111,-1.7301117082995818,-4.804544683319833,64.39260322481775
1589987505.3420293,-1.2380466688654352,-3.505859993403694,8.727813324538259,0.7144444444444444,0.03,-0.7711111111111111,-1.850583360817942,-4.913083360817942,66.71283393799472
1589987505.3520293,-1.24,-3.481280558118081,8.794877767527677,0.6073276381201311,0.19119519398318985,-0.7295123513735138,-1.3485156970710332,-5.054496511761992,68.01047732645296
1589987505.3620293,-1.2799708183441927,-3.450021886241856,8.780014590827903,0.6,0.20222222222222225,-0.7266666666666667,-1.3125,-5.0625,68.0625
1589987505.3720293,-1.1600607264852314,-3.3312145297046283,8.620242905940925,0.6,0.20222222222222225,-0.7266666666666667,-1.5022772431961777,-4.689018162130785,67.68104781094416
1589987505.3820293,-1.1694248844633965,-3.518497689267933,8.657699537853587,0.6,0.20222222222222225,-0.7266666666666667,-1.853433167377375,-4.923122111584917,66.6861060257641
1589987505.3920293,-1.201814930801091,-3.6174910597030006,8.77135225780382,0.6,0.20222222222222225,-0.7266666666666667,-1.6264458531164765,-4.83807834124659,65.5810725830892
1589987505.4020293,-1.11074167564808,-3.54074167564808,8.818046968063985,0.5919791253048954,0.20222222222222225,-0.7607553841208615,-1.1677225736003176,-4.135738697600544,63.73339029440127
1589987505.4120293,-1.0540452147341786,-3.511618085893671,8.672944687149371,0.5911111111111111,0.20222222222222225,-0.7644444444444445,-0.7228956289240612,-3.890169555253169,61.03498681037981
1589987505.4220293,-1.074738682665469,-3.5780313773300394,8.653815329333632,0.5911111111111111,0.20222222222222225,-0.7644444444444445,-1.3832754499663127,-4.222887724983156,58.18401496679393
1589987505.4320292,-1.083477604971086,-3.509119284508459,8.676089580115656,0.5911111111111111,0.20222222222222225,-0.7644444444444445,-0.752610807801444,-3.2960808699400164,53.26053751661219
1589987505.4420292,-1.0852563747454176,-3.4447436252545827,8.69,0.5911111111111111,0.20222222222222225,-0.7644444444444445,-0.2532046843177189,-2.5232382892057026,47.984799389002035
1589987505.4520292,-1.135638562789043,-3.467383137673426,8.740202419067947,0.582490493695403,0.16266880113838492,-0.7482173998972291,-0.3980723052294557,-2.5461446104589114,41.275511383849164
1589987505.4620292,-1.168165588403898,-3.456331176807796,8.827293014495128,0.5722222222222222,0.11555555555555555,-0.7288888888888889,-0.1929535869298174,-2.2723722463352716,32.52503634018508
1589987505.4720292,-4.871629209083791,-8.487915035238842,5.10515896632733,0.5722222222222222,0.11555555555555555,-0.7288888888888889,-11.349980422866093,14.13148737274863,18.353036902897415
1589987505.4820292,0.8549717330560789,-7.432010526999806,-4.175799380509888,0.5722222222222222,0.11555555555555555,-0.7288888888888889,-89.495523046765,80.94036730781727,-252.83117946801826
1589987505.4920292,-0.5120964977359361,-3.7066942106474965,-0.25447977691933854,0.5722222222222222,0.11555555555555555,-0.7288888888888889,-70.86409699659751,-97.16421179871574,-490.67728133234414
1589987505.5020292,-0.2800058703819662,-2.4921309486537258,0.3742599405134628,0.5487708289849023,0.17002330759062134,-0.6630736885131845,-69.72202762993112,-93.42848162570445,-518.1210668440826
1589987505.5120292,-0.1807447977864534,-2.4255312132812796,-0.021489595572906795,0.5377777777777778,0.1955555555555556,-0.6322222222222222,-75.6082420498048,-48.93495337906985,-499.1171137664405
1589987505.5220292,-0.22048914073456394,-2.1870651555926166,-0.10097828146912784,0.5377777777777778,0.1955555555555556,-0.6322222222222222,-74.71399433347231,-42.128734649205924,-485.35563502065725
1589987505.5320292,-0.6291867630039724,-5.123900722529793,9.26088893059335,0.5377777777777778,0.1955555555555556,-0.6322222222222222,1.8444684245097136,68.15364705514372,-443.76551992430643
1589987505.5420291,-0.7394915731466957,-3.723454406500141,7.9829459796468365,0.5377777777777778,0.1955555555555556,-0.6322222222222222,40.90109257471542,117.06716594264108,-419.31509693898073
1589987505.5520291,-0.3856252225783476,-2.798419916310541,3.6666535345441593,0.4188888888888889,0.3655555555555556,-0.6488888888888888,95.11483373397436,182.7389155982906,-379.6767508569266
1589987505.5620291,-0.23,-2.24,4.28,0.4188888888888889,0.3655555555555556,-0.6488888888888888,134.25,221.1875,-344.375
1589987505.572029,0.3551846498518465,-0.6684960612849609,10.783100383031003,0.4188888888888889,0.3655555555555556,-0.6488888888888888,151.32771735202718,141.2850193322252,-318.9796379272964
1589987505.582029,0.2579930088133576,0.17418950578260395,3.9133338291621715,0.4188888888888889,0.3655555555555556,-0.6488888888888888,90.49022210033097,-2.1522349484957815,-257.19684327470156
1589987505.592029,0.08907168417407364,-0.13190257416599332,-0.6484926699757589,0.4188888888888889,0.3655555555555556,-0.6488888888888888,20.449796548539766,3.301124033244836,-225.1015641232829
1589987505.602029,0.06191473576075791,-0.08191473576075792,-0.1279985161511243,0.31951267612778855,0.4617260840340398,-0.6008036246496469,-51.53238428832325,50.95199962903778,-189.95628352927747
1589987505.612029,0.8882689618814037,-1.3735886033878102,11.15073532445504,0.31555555555555553,0.4655555555555556,-0.5988888888888889,-104.95250074495152,17.958686707772713,-157.34092419831757
1589987505.622029,-0.301256916404965,-1.324505009720353,4.075072528787199,0.31555555555555553,0.4655555555555556,-0.5988888888888889,-22.968578647624753,-36.639459024973824,-124.56729786650715
1589987505.632029,-0.08304467200949839,-1.3124424903532206,5.114776639952509,0.31555555555555553,0.4655555555555556,-0.5988888888888889,10.059241892994951,1.5213945161769118,-100.29118896556842
1589987505.642029,1.7645465835295338,-2.7767328141574605,14.509085146568005,0.31555555555555553,0.4655555555555556,-0.5988888888888889,32.15981798659802,56.48772832526972,-72.22876995420557
1589987505.652029,1.3448477889438004,-3.1798414506439343,15.251003288567176,0.2841332655614958,0.4989417386742441,-0.6113268786782042,11.07760168837611,37.68633453362973,-56.31315794308391
1589987505.662029,0.6372943674564149,-2.468095663835494,9.724807778274474,0.26222222222222225,0.5222222222222223,-0.62,-5.74188366115333,-36.423802805096116,-45.7027897295485
1589987505.672029,0.64,-1.9410437812452659,7.590445387062566,0.26222222222222225,0.5222222222222223,-0.62,-5.23227541281624,-29.577336767156492,-29.081105135585517
1589987505.682029,0.8120606129743706,-2.623135599665374,9.992025629325424,0.26222222222222225,0.5222222222222223,-0.62,4.5534094798083515,31.4746629971861,2.068740968894975
1589987505.692029,0.5111456275812534,-2.4761734602262524,9.380122104507093,0.26222222222222225,0.5222222222222223,-0.62,3.4368041838750223,32.407535015263065,16.412753636200396
1589987505.702029,0.4809648747055044,-2.3341068751338616,7.513884129363889,0.22142833345232144,0.5548573332381429,-0.6332580138502177,-0.9942171771257229,-22.887589687299204,27.50807185692868
1589987505.712029,0.6112399510660609,-2.485879937084935,8.869519398811605,0.21777777777777774,0.5577777777777778,-0.6344444444444445,-14.248369778923454,-5.658633891121983,46.68149248514506
1589987505.722029,0.3816712898751734,-2.3536448862177015,7.232935994246674,0.21777777777777774,0.5577777777777778,-0.6344444444444445,-0.7294556171983348,1.1415263651307344,65.37046187137207
1589987505.732029,0.5333068590361163,-3.069713090678384,9.660481471908264,0.21777777777777774,0.5577777777777778,-0.6344444444444445,-1.1992827266959607,-5.688604401156097,80.03305860375497
1589987505.742029,0.4651142262710324,-2.9084933443755427,9.107443593835214,0.21777777777777774,0.5577777777777778,-0.6344444444444445,-5.474597026683095,-6.423230553255095,92.50198835518209
1589987505.752029,0.3975992408666772,-2.8642290052190416,8.470221413885813,0.2157586940095243,0.5591238336232801,-0.6472319749767164,-2.371708445358216,-6.702504744583267,104.06550490273604
1589987505.762029,0.35358712276644155,-2.8061420524489873,7.922774648412728,0.21444444444444444,0.56,-0.6555555555555556,-3.3066876189055097,-8.56757796471071,119.28522634013504
1589987505.772029,0.41160856066172113,-3.230061147583722,9.285798118171261,0.21444444444444444,0.56,-0.6555555555555556,-5.775229303438959,-9.65259936482355,131.61391403787357
1589987505.782029,0.3276235317688898,-2.9574447143680036,7.891124746424904,0.21444444444444444,0.56,-0.6555555555555556,-2.7090883192666984,-9.46132353677778,142.93047033484436
1589987505.792029,3.3412523667838783,-15.45091154990533,6.782978090343522,0.21444444444444444,0.56,-0.6555555555555556,-14.603301663510955,-17.986441709494187,181.60959899918853
1589987505.802029,2.5039353870086645,-9.694190438290251,8.78533111444748,0.2389954516859714,0.5541545220853508,-0.6707537981336437,-24.67506964166199,-29.821842835953184,274.61723088472047
1589987505.812029,-0.10581569115815692,-3.0592528019925274,11.952229140722292,0.2611111111111111,0.5488888888888889,-0.6844444444444444,3.879981320049815,-20.437188667496883,359.6471046077211
1589987505.8220289,-0.823670263497466,-3.3513320741308696,8.184894432704356,0.2611111111111111,0.5488888888888889,-0.6844444444444444,21.71062966356853,-7.5802063658294845,366.365970910553
1589987505.8320289,-0.7917039053343919,-3.786727911988204,9.794848587955087,0.2611111111111111,0.5488888888888889,-0.6844444444444444,-20.345759612112964,-27.018943045631545,357.1502140750822
1589987505.8420289,8.125125451586008,-12.018858231767833,7.357577116995515,0.2611111111111111,0.5488888888888889,-0.6844444444444444,-33.54324556353964,-40.0653348187701,340.41420610186987
1589987505.8520288,3.6709509202453994,-12.120099693251532,9.682461017382414,0.36076303680981603,0.5019938650306749,-0.6844444444444444,-29.461360876789367,-27.76234582694274,70.68317037321066
1589987505.8620288,-0.8504839673371842,-5.030056263692491,15.771453561707494,0.3744444444444445,0.4955555555555556,-0.6844444444444444,-3.356814919006837,4.320912583814643,-47.86789546405099
1589987505.8720288,-1.9656707558369608,1.1401163434903046,6.292217649386625,0.3744444444444445,0.4955555555555556,-0.6844444444444444,56.31029877324891,35.48730213692125,-83.4190344281757
1589987505.8820288,-0.8033226033383787,-0.005482743183611083,3.6554437314801,0.3744444444444445,0.4955555555555556,-0.6844444444444444,26.26824276791234,3.769547155130148,-69.36892307446332
1589987505.8920288,-1.3434999012443216,-1.4243274738297453,8.274615840410824,0.3744444444444445,0.4955555555555556,-0.6844444444444444,-21.2927488643097,0.48434722496543525,-57.56751185068141
1589987505.9020288,-1.3088666543141252,-2.2211333456858746,9.736835278858626,0.4044824628222813,0.4680739642737049,-0.6882790850884236,-22.75449709715274,-1.2813175529615215,-43.15422148106973
1589987505.9120288,-0.8175997326391332,-2.51,8.577895236755085,0.4266666666666667,0.4477777777777778,-0.6911111111111111,8.755305442200804,5.4012171955252235,-20.429239516639697
1589987505.9220288,-0.6294948096885813,-2.2345595650024714,7.259883341571923,0.4266666666666667,0.4477777777777778,-0.6911111111111111,0.5792572911517553,4.454946243203164,-6.023032006920415
1589987505.9320288,1.0779270753601002,-5.7234493076334285,7.48398789228307,0.4266666666666667,0.4477777777777778,-0.6911111111111111,-3.7930989492728413,-0.9934068610395936,-0.4564400528842807
1589987505.9420288,-0.26753839394484036,-15.270339704032114,7.94467936812254,0.4266666666666667,0.4477777777777778,-0.6911111111111111,-7.566086014418948,-4.708730253829409,-11.493821520579953
1589987505.9520288,-4.2708432211184695,-14.091792908388523,8.650946238042678,0.42145726024037283,0.44343660575586624,-0.6911111111111111,-6.79356805325607,0.17910831723693899,-39.23568714357984
1589987505.9620287,-0.6346023478835985,-1.3655315806878305,10.378856646825398,0.4133333333333333,0.43666666666666665,-0.6911111111111111,18.129810474537038,5.541878513558201,-14.143782035383602
1589987505.9720287,1.4533932678912755,-1.8295611818446884,9.235737033077397,0.4133333333333333,0.43666666666666665,-0.6911111111111111,16.77812874590987,7.748831681083358,14.61385642433667
1589987505.9820287,0.697540209650316,-6.326657597823477,9.41455869408658,0.4133333333333333,0.43666666666666665,-0.6911111111111111,-10.243893534448269,-3.6018194366647993,11.01072257341762
1589987505.9920287,-0.16210701476065661,-7.0142264450269,10.018050593185267,0.4133333333333333,0.43666666666666665,-0.6911111111111111,-15.133839581321562,-7.912147365153815,-3.8036604186784384
1589987506.0020287,-0.483349478390462,-4.877940387481371,8.595862891207155,0.40977993045206157,0.44614240768339125,-0.6988101506871999,3.738911140089419,2.7177859538002975,-4.653995901639344
1589987506.0120287,-0.2236493817238671,-4.386755557179127,8.388646915925404,0.4066666666666667,0.4544444444444444,-0.7055555555555556,6.464760771886245,3.834891961497014,0.923564813969205
1589987506.0220287,0.08482105512370279,-4.7265513159452315,8.83069210432861,0.4066666666666667,0.4544444444444444,-0.7055555555555556,-2.1054605808309987,-1.6614721027502664,0.17675985479225031
1589987506.0320287,0.04036609152288073,-4.561867779444861,8.72904744936234,0.4066666666666667,0.4544444444444444,-0.7055555555555556,-1.3276057295573893,-0.9608472430607651,-0.047161009002250565
1589987506.0420287,-0.0102368544653441,-4.48440786383664,8.684881572767328,0.4066666666666667,0.4544444444444444,-0.7055555555555556,-0.36907863836639754,0.03791153183780277,-0.06101965959159938
1589987506.0520287,-0.004084090519458255,-4.546756814675124,8.665495456883251,0.4125659085281064,0.4517217174314722,-0.6937570718326762,-0.39526990828047315,-0.14789773701354364,-0.09947443425338591
1589987506.0620286,-0.021185052270244968,-4.549667264783897,8.618814947729755,0.4211111111111111,0.4477777777777778,-0.6766666666666666,-0.0625,0.0,-0.027546711655484474
1589987506.0720286,-0.015168909108508375,-4.51,8.691570999903204,0.4211111111111111,0.4477777777777778,-0.6766666666666666,0.2619301132513793,0.09269431807182267,0.0
1589987506.0820286,-0.016107724768491385,-4.503892275231508,8.695569100926035,0.4211111111111111,0.4477777777777778,-0.6766666666666666,-0.006732798030711473,0.010480160590786547,0.0
1589987506.0920286,-0.015088987019938445,-4.549110129800615,8.68,0.4211111111111111,0.4477777777777778,-0.6766666666666666,-0.09653084437307641,0.02958149337615415,0.06138766225076944
1589987506.1020286,-0.017251597247236808,-4.585496805505526,8.650993611011053,0.4211111111111111,0.4477777777777778,-0.6843211304276389,0.10782248279523006,0.10233875860238498,0.10233875860238498
1589987506.1120286,-0.03,-4.563201492824439,8.609604478473317,0.4211111111111111,0.4477777777777778,-0.6977777777777778,0.3075559809164711,0.08250933015274518,0.022481339694509633
1589987506.1220286,-0.03661768314294283,-4.497205485427629,8.63,0.4211111111111111,0.4477777777777778,-0.6977777777777778,0.2729763624962513,0.08363948035660732,0.020221039286785356
1589987506.1320286,-0.03404664006127303,-4.495720159632362,8.659766799693635,0.4211111111111111,0.4477777777777778,-0.6977777777777778,-0.06104249808521789,-0.04912549885113074,0.09970849961704358
1589987506.1420286,-0.03,-4.5407667468658985,8.655772128656452,0.4211111111111111,0.4477777777777778,-0.6977777777777778,-0.3821882518677979,-0.06010391604406737,0.10336797201468911
1589987506.1520286,-0.02977514120279919,-4.580224858797201,8.610899435188802,0.4209362209355105,0.4479276836425783,-0.6977777777777778,-0.7443785300699798,0.05968926503498988,0.06390536748250507
1589987506.1620286,-0.029108992169739833,-4.58089100783026,8.65,0.4133333333333333,0.4544444444444444,-0.6977777777777778,-0.34818346383766946,-0.024545865959417365,0.04909173191883473
1589987506.1720285,-0.03953913967491834,-4.546052186233224,8.629078279349837,0.4133333333333333,0.4544444444444444,-0.6977777777777778,0.08717383604234721,0.018913081978826393,-0.0814130819788264
1589987506.1820285,-0.028588193516749245,-4.524294096758375,8.632940967583746,0.4133333333333333,0.4544444444444444,-0.6977777777777778,0.16948568578047585,-0.035661895260158616,0.08051431421952415
1589987506.1920285,-0.03764421971960469,-4.527644219719605,8.68057687887842,0.4133333333333333,0.4544444444444444,-0.6977777777777778,0.0625,0.014723626752470697,0.1727763732475293
1589987506.2020285,-0.03,-4.539602454301419,8.657840981720568,0.4185606544803783,0.44965273339298645,-0.7008270484468875,0.037996932123226385,0.0625,0.07599386424645277
1589987506.2120285,-0.024435696342135896,-4.553307089026408,8.675564303657865,0.4266666666666667,0.44222222222222224,-0.7055555555555556,0.17388448930825318,0.09727689786165064,0.0
1589987506.2220285,-0.029611703151521514,-4.54,8.651164890545434,0.4266666666666667,0.44222222222222224,-0.7055555555555556,0.2524268553029905,0.125,0.030036572348504736
1589987506.2320285,-0.04,-4.533191158502722,8.630213262245917,0.4266666666666667,0.44222222222222224,-0.7055555555555556,0.1449447406420082,0.125,0.0625
1589987506.2420285,-0.036163045770934404,-4.508489137312803,8.661510862687196,0.4266666666666667,0.44222222222222224,-0.7055555555555556,-0.08138578358995993,0.07703807213668003,0.038519036068340014
1589987506.2520285,-0.03,-4.516500971952236,8.68,0.42421287296738563,0.4397684285229412,-0.6888697584004444,-0.3953155373507359,-0.02760517911691197,0.02760517911691197
1589987506.2620285,-0.015031258441708793,-4.564968741558292,8.67002083896114,0.4211111111111111,0.43666666666666665,-0.6677777777777778,-0.43763024350712,-0.03131512175355999,0.09368487824644
1589987506.2720284,-0.013795009066574562,-4.575401663644476,8.600221627378177,0.4211111111111111,0.43666666666666665,-0.6677777777777778,-0.20256238666781798,0.028739602222030335,0.125
1589987506.2820284,-0.025385748700897923,-4.551542994803592,8.566914010392816,0.4211111111111111,0.43666666666666665,-0.6677777777777778,0.08651721185816394,0.0625,0.09616092938061202
1589987506.2920284,-0.025164198772410447,-4.532582099386206,8.625492596317232,0.4211111111111111,0.43666666666666665,-0.6677777777777778,0.1875,0.0625,0.046361878836217355
1589987506.3020284,-0.03970905433991054,-4.539854527169956,8.66912716301973,0.4211111111111111,0.43666666666666665,-0.6677777777777778,0.1875,0.0625,0.0009092051877795868
1589987506.3120284,-0.03290582926052844,-4.548717487781586,8.681282512218415,0.4266666666666667,0.4477777777777778,-0.6911111111111111,-0.04433856712169729,0.07264573151321087,0.10683856712169729
1589987506.3220284,-0.03685475120136413,-4.565282126802046,8.64584638040614,0.4266666666666667,0.4477777777777778,-0.6911111111111111,0.01965780499147419,0.22051329251278873,0.05267109750426291
1589987506.3320284,-0.026665566574808997,-4.543332783287404,8.596662266299237,0.4266666666666667,0.4477777777777778,-0.6911111111111111,0.10417010445372188,0.020840208907443772,0.04165979109255623
1589987506.3420284,-0.039538059791091366,-4.547690298955457,8.651847760835635,0.4266666666666667,0.4477777777777778,-0.6911111111111111,0.05095149477728419,-0.05961287369432105,0.1192257473886421
1589987506.3520284,-0.02555117937945823,-4.5088976412410835,8.69222441031027,0.42370078625297214,0.449260717984625,-0.6859208203871457,-0.24311025775677214,0.027805128878386067,-0.013902564439193034
1589987506.3620284,-0.012182741116751269,-4.5421827411167515,8.678172588832487,0.4133333333333333,0.4544444444444444,-0.6677777777777778,-0.45114213197969544,0.09771573604060914,-0.021573604060913708
1589987506.3720284,-0.015079134827094935,-4.554920865172905,8.570474808962569,0.4133333333333333,0.4544444444444444,-0.6677777777777778,-0.31546755601606014,0.0,0.0019783706773734006
1589987506.3820283,-0.020925232959131262,-4.543612150561303,8.583700931836525,0.4133333333333333,0.4544444444444444,-0.6677777777777778,0.011565411989140795,0.0341413529972852,-0.0567172940054296
1589987506.3920283,-0.03449368912454614,-4.525506310875453,8.651455823871823,0.4133333333333333,0.4544444444444444,-0.6677777777777778,0.20925667108524004,0.09058555702841335,0.02808555702841335
1589987506.4020283,-0.04,-4.52,8.697621589050529,0.4162972846307614,0.4544444444444444,-0.6741291019865523,0.2648650684341913,0.07736506843419128,0.0625
1589987506.4120283,-0.031212663633030692,-4.537574672733938,8.683637990899093,0.4211111111111111,0.4544444444444444,-0.6844444444444444,0.1051187215596627,0.0823812784403373,0.0899604261467791
1589987506.4220283,-0.024415739048568422,-4.5644157390485685,8.619089826660021,0.4211111111111111,0.4544444444444444,-0.6844444444444444,0.0,0.1875,0.06980326189289472
1589987506.4320283,-0.0194283564337209,-4.554142534650581,8.611714930698838,0.4211111111111111,0.4544444444444444,-0.6844444444444444,0.03303638614462218,0.02231806927688909,0.13214554457848873
1589987506.4420283,-0.026118516397988942,-4.535970370900503,8.660148145497486,0.4211111111111111,0.4544444444444444,-0.6844444444444444,0.08768518187185773,-0.049444454384426836,0.19962963625628455
1589987506.4520283,-0.04385111876075731,-4.523851118760757,8.696148881239242,0.4228191336775674,0.4568356760374832,-0.6800035857716581,0.009708476764199656,0.043284746127366616,0.009708476764199656
1589987506.4620283,-0.026166135809162373,-4.52533545676335,8.698498407427488,0.4266666666666667,0.4622222222222222,-0.67,-0.27396165119273513,0.0,-0.15415339522905938
1589987506.4720283,-0.02,-4.551948854854573,8.65856259659969,0.4266666666666667,0.4622222222222222,-0.67,-0.3246803428410847,0.03654102852325418,0.0
1589987506.4820282,-0.025957067029921555,-4.56,8.587871201089765,0.4266666666666667,0.4622222222222222,-0.67,-0.2633049931889708,0.1875,0.0
1589987506.4920282,-0.03909154962656771,-4.56,8.627274648879704,0.4266666666666667,0.4622222222222222,-0.67,-0.017033444501855455,0.1875,0.0
1589987506.5020282,-0.03258036419615548,-4.542258907411533,8.652901820980778,0.42150593827435573,0.45706149382991124,-0.6737271927277801,0.3125,0.07862727622597177,0.0
1589987506.5120282,-0.03800518134715026,-4.5259844559585485,8.6860103626943,0.4066666666666667,0.44222222222222224,-0.6844444444444444,0.28756476683937826,0.08759715025906736,0.02493523316062176
1589987506.5220282,-0.037106745929180666,-4.55,8.652233135177047,0.4066666666666667,0.44222222222222224,-0.6844444444444444,0.09866567588524167,-0.018082837942620833,0.10279141897131042
1589987506.5320282,-0.044753705991352685,-4.551748764669549,8.616502470660901,0.4066666666666667,0.44222222222222224,-0.6844444444444444,-0.040640441630636195,0.11714889592340952,0.0515702208153181
1589987506.5420282,-0.023801471131810453,-4.540992644340948,8.630411769054483,0.4066666666666667,0.44222222222222224,-0.6844444444444444,0.0625,0.25620402713092333,0.0
1589987506.5520282,-0.03,-4.512785825570988,8.685571651141975,0.40326176874657,0.4437699030949934,-0.6844444444444444,0.027677180362647928,0.027677180362647928,0.017411409818676036
1589987506.5620282,-0.026254709452311575,-4.5274905810953765,8.703745290547689,0.3944444444444444,0.4477777777777778,-0.6844444444444444,-0.08590806592305265,-0.0625,0.015683868153894692
1589987506.5720282,-0.022796457774912633,-4.548389373324738,8.676442506701049,0.3944444444444444,0.4477777777777778,-0.6844444444444444,-0.21238930546601975,-0.010066416720388154,-0.07997786109320396
1589987506.5820282,-0.025007231703789413,-4.560014463407579,8.60497830488863,0.3944444444444444,0.4477777777777778,-0.6844444444444444,-0.31268079259473536,0.18740960370263232,-0.09379519814868384
1589987506.5920281,-0.02724897707623564,-4.564497954152471,8.627248977076235,0.3944444444444444,0.4477777777777778,-0.6844444444444444,-0.16484694663676364,0.13673473318381812,0.005459160089709134
1589987506.6020281,-0.03792992649324354,-4.584824816233109,8.64621022052027,0.39570948936524,0.4472027573592343,-0.6844444444444444,-0.09265510145693032,-0.05603102029138606,0.13793795941722786
1589987506.6120281,-0.02,-4.540240546406738,8.699278360779784,0.4066666666666667,0.44222222222222224,-0.6844444444444444,0.19050683008423105,0.001503415042115534,0.2409795097473068
1589987506.622028,-0.02,-4.548592564567196,8.674222306298413,0.4066666666666667,0.44222222222222224,-0.6844444444444444,0.294907057089946,0.05370352854497302,-0.07222117126983812
1589987506.632028,-0.03570342069556524,-4.544296579304435,8.584296579304434,0.4066666666666667,0.44222222222222224,-0.6844444444444444,-0.008951206884239091,0.0625,0.19629275869456544
1589987506.642028,-0.013238770263514964,-4.5667612297364855,8.606761229736485,0.4066666666666667,0.44222222222222224,-0.6844444444444444,-0.05575256195101049,0.0625,-0.08451537170606299
1589987506.652028,-0.01412626965560129,-4.5420631348278,8.668252539311203,0.4096467503068232,0.4447438314562008,-0.6844444444444444,0.0,0.17460540732624596,0.09921081465249193
1589987506.662028,-0.03,-4.55,8.69683903966597,0.4211111111111111,0.4544444444444444,-0.6844444444444444,-0.039512004175365344,0.10524399791231732,0.0
1589987506.672028,-0.03,-4.548263992590212,8.676111940721698,0.4211111111111111,0.4544444444444444,-0.6844444444444444,-0.14670009262234657,0.08420009262234655,0.0
1589987506.682028,-0.03,-4.540335708749977,8.612685669999811,0.4211111111111111,0.4544444444444444,-0.6844444444444444,-0.24580364062529536,0.18330364062529536,0.0
1589987506.692028,-0.02,-4.564295732075928,8.631408535848143,0.4211111111111111,0.4544444444444444,-0.6844444444444444,-0.32152248821182444,0.0,0.044674162737274814
1589987506.702028,-0.024317309937618842,-4.54784134503119,8.666475964906429,0.41943215724648153,0.45300534113190477,-0.6844444444444444,-0.16051681288988223,0.013491593555058879,0.013491593555058879
1589987506.712028,-0.036637608739262854,-4.54,8.700087173782212,0.4133333333333333,0.4477777777777778,-0.6844444444444444,-0.020470109240785656,0.10452989075921434,0.04148505462039283
1589987506.722028,-0.0318253315344368,-4.541825331534437,8.698096021586759,0.4133333333333333,0.4477777777777778,-0.6844444444444444,0.07390832209023002,0.16468335581953997,0.011408322090230016
1589987506.732028,-0.025318509615384614,-4.546329627403846,8.614681490384616,0.4133333333333333,0.4477777777777778,-0.6844444444444444,0.10206017127403846,0.08543982872596154,0.039560171274038464
1589987506.742028,-0.0025480365876117783,-4.54,8.645096073175225,0.4133333333333333,0.4477777777777778,-0.6844444444444444,0.046574771327426386,0.15685045734514724,0.015925228672573614
1589987506.752028,-0.013623052210590729,-4.541207684070197,8.661207684070197,0.4133333333333333,0.4485829004912424,-0.6835051346120691,-0.007548025438730686,0.21225987280634656,0.07004802543873069
1589987506.762028,-0.03946588462858391,-4.55,8.67,0.4133333333333333,0.4544444444444444,-0.6766666666666666,-0.05582355785729885,-0.0491471157145977,0.11832355785729885
1589987506.772028,-0.02705555414562343,-4.544111108291247,8.646444433164987,0.4133333333333333,0.4544444444444444,-0.6766666666666666,0.0072916402304393085,0.15069442682029288,-0.03680557317970713
1589987506.782028,-0.02,-4.53,8.601118798647692,0.4133333333333333,0.4544444444444444,-0.6766666666666666,-0.125,0.03933583615064078,-0.03234334460256309
1589987506.792028,-0.013411851171336702,-4.539882223242995,8.629882223242994,0.4133333333333333,0.4544444444444444,-0.6766666666666666,-0.1455879650895728,0.041175930179145614,0.08382406982085439
1589987506.802028,-0.0017297675009528648,-4.558270232499047,8.651729767500953,0.41467870805629664,0.4532912661104758,-0.67801204138963,-0.16587790623808918,0.11418895311904459,0.010811046880955405
1589987506.812028,-0.019477604528751614,-4.5468407984904164,8.669477604528751,0.4211111111111111,0.4477777777777778,-0.6844444444444444,-0.0032649716953024113,0.0822450094348992,0.0625
1589987506.822028,-0.04,-4.537997117001682,8.673976936013453,0.4211111111111111,0.4477777777777778,-0.6844444444444444,0.1625540562184672,0.15003603747897815,0.03746396252102187
1589987506.832028,-0.04,-4.535738430968854,8.621476861937708,0.4211111111111111,0.4477777777777778,-0.6844444444444444,0.20490441933398768,0.19620220966699384,-0.026634806444662568
1589987506.842028,-0.04,-4.55,8.654447086366464,0.4211111111111111,0.4477777777777778,-0.6844444444444444,-0.07639714489519699,0.03470571020960603,0.07639714489519699
1589987506.852028,-0.04,-4.55,8.669790028166954,0.4211111111111111,0.4477777777777778,-0.6844444444444444,-0.1243438380217288,-0.06118767604345758,0.1243438380217288
1589987506.862028,-0.03809535232383808,-4.548095352323838,8.666190704647676,0.4211111111111111,0.4544444444444444,-0.6677777777777778,0.011904047976011994,0.113095952023988,0.03869190404797601
1589987506.8720279,-0.03180704647676162,-4.5418070464767615,8.653614092953523,0.4211111111111111,0.4544444444444444,-0.6677777777777778,0.05120595952023988,0.07379404047976013,-0.03991191904047976
1589987506.8820279,-0.018438149790105537,-4.549219074895053,8.591561850209894,0.4211111111111111,0.4544444444444444,-0.6677777777777778,-0.004880781905920201,-0.1582153085644788,0.0527384361881596
1589987506.8920279,-0.001982816116756249,-4.540991408058378,8.608017183883243,0.4211111111111111,0.4544444444444444,-0.6677777777777778,-0.05630369963513673,0.15032219781082035,-0.05010739927027345
1589987506.9020278,-0.03540722276969451,-4.551530925743435,8.66612370297374,0.4219616254130195,0.4534238272821543,-0.6745818921930452,-0.23086342820706046,-0.1587951423105907,-0.019136571792939542
1589987506.9120278,-0.012914442790058413,-4.557085557209941,8.685427786049708,0.4266666666666667,0.4477777777777778,-0.7122222222222222,-0.08856946512426984,-0.018215267437865078,-0.125
1589987506.9220278,-0.02,-4.552769366197182,8.630614436619718,0.4266666666666667,0.4477777777777778,-0.7122222222222222,0.0519256161971831,-0.045191461267605634,-0.09038292253521127
1589987506.9320278,-0.0232401768172888,-4.553519646365422,8.60592141453831,0.4266666666666667,0.4477777777777778,-0.7122222222222222,0.1875,-0.040502210216110016,-0.040502210216110016
1589987506.9420278,-0.03,-4.54,8.65189570529156,0.4266666666666667,0.4477777777777778,-0.7122222222222222,0.153732105381502,-0.125,-0.108116052690751
1589987506.9520278,-0.03,-4.539114845275428,8.634425773622864,0.4254864603672367,0.44728602515301524,-0.7109436653978397,0.05143556594284362,-0.10840334891426542,-0.05143556594284362
1589987506.9620278,-0.03,-4.53448974653681,8.684489746536808,0.4133333333333333,0.44222222222222224,-0.6977777777777778,-0.07653045792753009,0.0625,0.0484695420724699
1589987506.9720278,-0.03,-4.549117334009123,8.689408008109478,0.4133333333333333,0.44222222222222224,-0.6977777777777778,-0.11396667511403953,0.045950012671059304,0.0
1589987506.9820278,-0.028726030322442878,-4.5425479393551145,8.587643818065343,0.4133333333333333,0.44222222222222224,-0.6977777777777778,-0.01592462096946402,-0.10907537903053598,0.01592462096946402
1589987506.9920278,-0.02017845919751249,-4.559821540802487,8.640535377592538,0.4133333333333333,0.44222222222222224,-0.6977777777777778,-0.1272307399689061,0.0,0.12276926003109391
1589987507.0020278,-0.02711554364724951,-4.55288445635275,8.661346630941749,0.4133333333333333,0.44222222222222224,-0.6977777777777778,-0.2139442955906189,0.0,0.036055704409381106
1589987507.0120277,-0.020128515026992186,-4.540128515026992,8.689742969946016,0.4210111549790061,0.4477063805405599,-0.6846157978137674,-0.18830321891870117,0.0,-0.18509034324389656
1589987507.0220277,-0.02,-4.523787489288774,8.665681233933162,0.4211111111111111,0.4477777777777778,-0.6844444444444444,-0.08617180805484148,0.10132819194515852,-0.13683590402742074
1589987507.0320277,-0.024779415677718054,-4.554779415677718,8.57870097387047,0.4211111111111111,0.4477777777777778,-0.6844444444444444,0.07337621733808739,-0.10324756532382523,-0.11412378266191261
1589987507.0420277,-0.01016884328358209,-4.532033768656716,8.634236380597015,0.4211111111111111,0.4477777777777778,-0.6844444444444444,0.1504221082089552,0.025422108208955223,-0.0625
1589987507.0520277,-0.049294776119402986,-4.539858955223881,8.689012686567164,0.4211111111111111,0.4477777777777778,-0.6844444444444444,0.24823694029850746,0.12323694029850746,-0.0625
1589987507.0620277,-0.02039320458139646,-4.559737863612402,8.680131068193798,0.4134352752618435,0.4543570656485785,-0.6767686085951768,0.06495752863372789,0.125,-0.0008191762112426323
1589987507.0720277,-0.02788828493544227,-4.544223430129115,8.686771134289865,0.4133333333333333,0.4544444444444444,-0.6766666666666666,-0.01319821915348579,-0.01319821915348579,-0.03610356169302842
1589987507.0820277,-0.02104190131074221,-4.557916197378515,8.611460914418164,0.4133333333333333,0.4544444444444444,-0.6766666666666666,-0.05598811680786119,-0.05598811680786119,0.049476233615722384
