time,acc_x,acc_y,acc_z,mag_x,mag_y,mag_z,gyr_x,gyr_y,gyr_z
1589987564.3377266,-3.76,-0.76,8.94,0.26666666666666666,-0.3855555555555555,-0.6088888888888889,0.1875,0.1875,-0.0625
1589987564.3477266,-3.76,-0.7455578128228083,8.983326561531575,0.26666666666666666,-0.3855555555555555,-0.6088888888888889,0.1423681650712761,0.05210449521382826,-0.017368165071276087
1589987564.3577266,-3.7802638812534357,-0.7535092541689573,9.027018508337914,0.26666666666666666,-0.3855555555555555,-0.6088888888888889,0.125,0.1266492578339747,0.08443283855598313
1589987564.3677266,-3.780432924262539,-0.76,9.049567075737462,0.27304471715830714,-0.37811449664864166,-0.6227079982874433,0.18479422335912962,-0.05167689343651849,-0.05438267007738887
1589987564.3777266,-3.7596578503670144,-0.7596578503670147,9.008289251835073,0.2733333333333333,-0.37777777777777777,-0.6233333333333333,0.05608469438152494,0.0,-0.05608469438152494
1589987564.3877265,-3.7525146039477493,-0.7525146039477494,8.972573019738748,0.2733333333333333,-0.37777777777777777,-0.6233333333333333,-0.07785117597969923,0.0,0.07785117597969923
1589987564.3977265,-3.7667744722873717,-0.75,8.976774472287373,0.2733333333333333,-0.37777777777777777,-0.6233333333333333,0.08468090359214911,0.2096809035921491,-0.03226067769411184
1589987564.4077265,-3.755150148631979,-0.7425750743159896,9.009699702736041,0.2733333333333333,-0.37777777777777777,-0.6233333333333333,0.125,0.15718842894986956,-0.0625
1589987564.4177265,-3.769537139226113,-0.7106942911608307,9.039537139226113,0.279845713075371,-0.38537555414348823,-0.6168209535912957,0.125,0.0028928798367947456,-0.0014464399183973728
1589987564.4277265,-3.7618848363235755,-0.7424606547056972,9.031884836323576,0.28,-0.3855555555555555,-0.6166666666666667,0.125,0.05071977297765187,0.0
1589987564.4377265,-3.7598484514824526,-0.7695453544473584,8.930303097035095,0.28,-0.3855555555555555,-0.6166666666666667,0.25094717823467,0.06723589117334988,-0.18465846529599006
1589987564.4477265,-3.7514516225901384,-0.744354867770415,8.947096754819723,0.28,-0.3855555555555555,-0.6166666666666667,0.3034273588116354,0.32963679405817703,-0.02721792356509381
1589987564.4577265,-3.75,-0.74,8.98809795739073,0.28,-0.3855555555555555,-0.6166666666666667,0.24446793323083682,0.2389358664616736,-0.0340160333845816
1589987564.4677265,-3.760053021442495,-0.74,9.035079532163742,0.2827925059562487,-0.3794120424518085,-0.6127571583279185,0.21891569200779726,0.125,-0.031084307992202728
1589987564.4777265,-3.758123461311522,-0.7162469226230442,9.061876538688479,0.2855555555555556,-0.37333333333333335,-0.6088888888888889,0.13865744979551975,-0.060570917007467084,-0.03711418340149342
1589987564.4877264,-3.758495670995671,-0.725487012987013,8.968051948051947,0.2855555555555556,-0.37333333333333335,-0.6088888888888889,-0.1498917748917749,-0.08130411255411255,-0.009402056277056273
1589987564.4977264,-3.76,-0.7366519238501477,8.989911543100886,0.2855555555555556,-0.37333333333333335,-0.6088888888888889,-0.2706490481268465,0.020649048126846495,-0.0831490481268465
1589987564.5077264,-3.7661697347049268,-0.7585092041147807,9.02850920411478,0.2855555555555556,-0.37333333333333335,-0.6088888888888889,-0.19681747428262047,0.10106084190579318,-0.125
1589987564.5177264,-3.7639824196761063,-0.77,9.033982419676105,0.2782007351596856,-0.37600781347728607,-0.6222612896086526,-0.125,0.20021975404867065,-0.08739012297566467
1589987564.5277264,-3.7683566359119944,-0.7616433640880057,9.021643364088005,0.2733333333333333,-0.37777777777777777,-0.6311111111111111,0.03168692334989354,0.14554205110007096,-0.0625
1589987564.5377264,-3.789555555555556,-0.76,8.951555555555554,0.2733333333333333,-0.37777777777777777,-0.6311111111111111,0.12361111111111112,-0.11944444444444444,0.05972222222222222
1589987564.5477264,-3.770686624682771,-0.6924031863896982,8.978970062975844,0.2733333333333333,-0.37777777777777777,-0.6311111111111111,0.06464570213365917,-0.125,-0.05820859573268165
1589987564.5577264,-3.77,-0.7042942391553821,9.008588478310765,0.2733333333333333,-0.37777777777777777,-0.6311111111111111,-0.11617798944227678,-0.1696694973605692,0.07150849208170759
1589987564.5677264,-3.77,-0.735963145705367,9.045963145705368,0.28391091121329776,-0.3739313858214271,-0.6243799251874974,-0.24158988688618133,-0.349769660658544,-0.14544943443090658
1589987564.5777264,-3.77,-0.7574811059907834,9.032518894009216,0.2855555555555556,-0.37333333333333335,-0.6233333333333333,-0.30462845622119816,-0.32037154377880184,-0.07824308755760369
1589987564.5877264,-3.7611046894432656,-0.7866859316702027,8.96773282610286,0.2855555555555556,-0.37333333333333335,-0.6233333333333333,-0.36809569097958883,-0.4236913819591777,-0.006904309020411149
1589987564.5977263,-3.7672345979812043,-0.768296206056387,8.988938391924817,0.2855555555555556,-0.37333333333333335,-0.6233333333333333,-0.375,-0.21141881308736513,-0.13564871214758092
1589987564.6077263,-3.7792435794542536,-0.7507564205457464,9.018487158908506,0.2855555555555556,-0.37333333333333335,-0.6233333333333333,-0.25945525682182985,-0.09611381420545746,-0.07195525682182986
1589987564.6177263,-3.7832160699417154,-0.74,9.043391965029143,0.2881937505782219,-0.37333333333333335,-0.6233333333333333,-0.10380021856786012,-0.04130021856786012,0.08369978143213988
1589987564.6277263,-3.764381625441696,-0.7512367491166078,9.016289752650177,0.2933333333333333,-0.37333333333333335,-0.6233333333333333,-0.027385159010600707,-0.07022968197879859,0.08988515901060071
1589987564.6377263,-3.777520366598778,-0.768760183299389,8.963719450101834,0.2933333333333333,-0.37333333333333335,-0.6233333333333333,0.0,-0.015497708757637466,-0.21125572810590632
1589987564.6477263,-3.773909401277107,-0.7760905987228931,8.972181197445787,0.2933333333333333,-0.37333333333333335,-0.6233333333333333,0.0,0.0,-0.13580127394575459
1589987564.6577263,-3.7647487107503586,-0.7747487107503586,8.995753867748924,0.2933333333333333,-0.37333333333333335,-0.6233333333333333,-0.032820557810259075,-0.16410278905129533,-0.029679442189740925
1589987564.6677263,-3.7652532956310485,-0.7647467043689514,9.031013182524195,0.2892474367314066,-0.37333333333333335,-0.6198311362459675,-0.029666902305946076,-0.14833451152973037,-0.032833097694053924
1589987564.6777263,-3.77,-0.746611454135394,9.023222908270787,0.2855555555555556,-0.37333333333333335,-0.6166666666666667,0.041839205826893926,0.08367841165378785,-0.020660794173106074
1589987564.6877263,-3.77,-0.7149046943120754,8.968174490520127,0.2855555555555556,-0.37333333333333335,-0.6166666666666667,0.010218113150157151,0.125,0.05228188684984285
1589987564.6977262,-3.786826111690528,-0.7352391675357921,8.976826111690528,0.2855555555555556,-0.37333333333333335,-0.6166666666666667,-0.15774479709870107,0.01983680193419929,-0.04266319806580071
1589987564.7077262,-3.777888117655144,-0.746055941172428,9.028447529379424,0.2855555555555556,-0.37333333333333335,-0.6166666666666667,-0.11180073534464985,0.07569926465535015,-0.024650367672324924
1589987564.7177262,-3.7631713720553854,-0.75,9.053171372055386,0.2855555555555556,-0.369539651141881,-0.6166666666666667,0.02285784930767848,0.21035784930767848,0.0
1589987564.7277262,-3.7532461362802265,-0.7635077274395465,9.063507727439546,0.2855555555555556,-0.36777777777777776,-0.6166666666666667,0.0625,0.1655767035028341,0.0
1589987564.7377262,-3.7751777075404758,-0.7616074308198413,8.969289169838095,0.2855555555555556,-0.36777777777777776,-0.6166666666666667,0.0625,0.2299071147519835,0.0
1589987564.7477262,-3.7710040405023855,-0.7240161620095414,8.96799191899523,0.2855555555555556,-0.36777777777777776,-0.6166666666666667,-0.049949493720183036,0.13755050627981696,0.05622474686009152
1589987564.7577262,-3.77,-0.7174108581695593,8.980356567321763,0.2855555555555556,-0.36777777777777776,-0.6166666666666667,-0.0625,0.09263572711949172,0.0625
1589987564.7677262,-3.7707568879148403,-0.7115137758296806,9.009243112085159,0.2855555555555556,-0.36853466569261806,-0.6160779760662354,-0.05776945053224797,0.004730549467752035,0.05776945053224797
1589987564.7777262,-3.7726910497766433,-0.7336544751116784,9.007308950223356,0.2855555555555556,-0.37777777777777777,-0.6088888888888889,-0.06852140834396937,0.10818093889597957,0.0
1589987564.7877262,-3.752108196593522,-0.7478918034064778,8.992378688077327,0.2855555555555556,-0.37777777777777777,-0.6088888888888889,-0.1875,0.11351434306427095,0.0
1589987564.7977262,-3.7306788783595395,-0.7646605608202305,8.987284486561842,0.2855555555555556,-0.37777777777777777,-0.6088888888888889,-0.21662850512644044,-0.05825701025288087,0.0
1589987564.8077261,-3.7165793402218776,-0.7768413195562451,9.060785938003102,0.2855555555555556,-0.37777777777777777,-0.6088888888888889,-0.29275824722653165,-0.125,-0.08551649445306325
1589987564.8177261,-3.6980552260175905,-0.7939815913274698,9.112036817345059,0.2855555555555556,-0.37777777777777777,-0.6088888888888889,-0.2754602168132543,-0.10011505420331357,-0.42419462057680507
1589987564.8277261,-3.675443991556882,-0.795443991556882,9.095443991556882,0.2855555555555556,-0.37777777777777777,-0.6088888888888889,-0.1534750527694883,-0.11945010553897664,-0.9153004221559066
1589987564.837726,-3.663415967206715,-0.8031680655865704,9.030743704860432,0.2855555555555556,-0.37777777777777777,-0.6088888888888889,-0.1875,-0.3521008198321296,-1.7224526644544214
1589987564.847726,-3.676938744582184,-0.7930612554178159,9.0,0.2855555555555556,-0.37777777777777777,-0.6088888888888889,-0.45216788409662656,-0.5433671536386506,-2.688136498651229
1589987564.857726,-3.3558140216061614,-0.8408527024931511,8.96821706094178,0.2855555555555556,-0.37777777777777777,-0.6088888888888889,-0.5794573476455487,-0.443313978531677,-3.0906007167594205
1589987564.867726,-3.0719240745107284,-0.7392320993476381,8.688464198695277,0.2855555555555556,-0.37414533609298994,-0.627051097312828,0.29446180146191936,3.149603572270691,-3.7097309007309596
1589987564.877726,-2.3884706041519475,-0.8669730769808938,8.495451648302092,0.2855555555555556,-0.37333333333333335,-0.6311111111111111,-1.1117771297145347,4.67331129834794,-6.965976992919742
1589987564.887726,-1.7937569806229152,-1.0042955661332034,8.532955661332034,0.2855555555555556,-0.37333333333333335,-0.6311111111111111,-3.923686331097035,10.78953187661632,-10.658579607211124
1589987564.897726,-2.2456377003982437,-1.0771346880424795,9.761275400796487,0.2855555555555556,-0.37333333333333335,-0.6311111111111111,-9.151281527621771,27.989482283263555,-12.44636475033187
1589987564.907726,-2.435171494902594,-1.1558641364691633,9.302380942767739,0.2855555555555556,-0.37333333333333335,-0.6311111111111111,-6.605457000100939,23.0880160492581,-14.176781568587867
1589987564.917726,-1.6289481637211747,-0.7488364759214243,8.889306550160962,0.2813298513019294,-0.37333333333333335,-0.620124280051683,1.4696615695420796,-3.4946968825964113,-18.40520292687734
1589987564.927726,-1.4977994011976048,-0.666002994011976,9.08255988023952,0.28,-0.37333333333333335,-0.6166666666666667,1.7775074850299402,-8.071014221556887,-20.028910928143713
1589987564.937726,-2.010588799833995,-0.8639696002905092,9.41116800249008,0.28,-0.37333333333333335,-0.6166666666666667,-1.8657400202318888,2.823599979249345,-21.953110004409513
1589987564.947726,-1.9680683568297594,-0.7267805947162659,8.658953323065987,0.28,-0.37333333333333335,-0.6166666666666667,3.080485132093354,2.4544744402322,-21.136443401255775
1589987564.957726,-2.0858497610802655,-0.7954643941885435,8.83893269621404,0.28,-0.37333333333333335,-0.6166666666666667,0.9835730591398892,2.2130061325956163,-21.417798794761175
1589987564.967726,-2.101272835387004,-0.8628429850351822,8.92538865580919,0.28397611942489887,-0.36935721390843457,-0.6270045771714035,0.03801493178289439,0.7726268540847676,-21.821694030590333
1589987564.977726,-2.1458254414623052,-0.8875728878044746,8.963398329266779,0.2855555555555556,-0.36777777777777776,-0.6311111111111111,0.45691736280550843,1.8762186737521194,-22.004247911583473
1589987564.987726,-2.189560646421595,-0.9047803232107974,8.966977091102823,0.2855555555555556,-0.36777777777777776,-0.6311111111111111,0.6167621204049014,2.122582578582845,-22.2417621204049
1589987564.997726,-2.2378412602698425,-0.9147301575337303,8.957841260269843,0.2855555555555556,-0.36777777777777776,-0.6311111111111111,0.4577381849702269,1.4670634845858144,-22.79226181502977
1589987565.007726,-2.2889178069084295,-0.9155410965457851,8.968787675820495,0.2855555555555556,-0.36777777777777776,-0.6311111111111111,0.2854451727107454,1.527868146588843,-23.410445172710745
1589987565.017726,-2.30669488372093,-0.9166948837209302,8.953432093023256,0.28815912144702843,-0.3651742118863049,-0.6285075452196383,0.6252645348837209,1.6880290697674418,-23.938558139534884
1589987565.027726,-2.2768649211028262,-0.93,8.966450494191086,0.2933333333333333,-0.36,-0.6233333333333333,0.75,1.7278155886942952,-24.946733570313853
1589987565.037726,-2.23,-0.9434564554388343,8.925514514853722,0.2933333333333333,-0.36,-0.6233333333333333,0.75,1.5,-26.060685643284764
1589987565.047726,-2.2562496393884026,-0.9862496393884027,8.933124819694202,0.2933333333333333,-0.36,-0.6233333333333333,0.9550753077218963,2.0742108616213097,-27.693346415520722
1589987565.057726,-2.264716562822522,-1.0264171858873896,8.971700623064867,0.2933333333333333,-0.36,-0.6233333333333333,1.0625,2.275935552922289,-29.112101506058636
1589987565.067726,-2.248705843872656,-1.05,8.977411687745311,0.3104837185637447,-0.3629281145515336,-0.6233333333333333,0.9919115242040994,2.1875,-30.666914249890972
1589987565.077726,-2.264552178093336,-1.0401279491161897,8.935063974558094,0.3388888888888889,-0.36777777777777776,-0.6233333333333333,0.9058501590119074,2.3109006360476294,-32.83135492936913
1589987565.0877259,-2.312509243883538,-1.0487638658253073,8.873708402524079,0.3388888888888889,-0.36777777777777776,-0.6233333333333333,1.0156827742721133,2.6329569356802836,-35.21978993689804
1589987565.0977259,-2.3076287691547206,-1.0847424616905585,8.926598615916955,0.3388888888888889,-0.36777777777777776,-0.6233333333333333,1.0238399036085022,2.5953596144340088,-37.45426347009392
1589987565.1077259,-2.3143439444494542,-1.076093425917576,8.99912525926594,0.3388888888888889,-0.36777777777777776,-0.6233333333333333,0.9103503471909099,2.52988321760303,-39.5078287041212
1589987565.1177258,-2.335060887834105,-1.0955479905069447,9.014939112165894,0.3450744184639061,-0.363841531684585,-0.631768146390175,0.9706527448157802,2.6573916468894683,-42.140983056452555
1589987565.1277258,-2.34,-1.133570172353148,8.926412240590926,0.3511111111111111,-0.36,-0.64,1.2857456911712979,2.991118536756947,-44.92439764333451
1589987565.1377258,-2.3755759071720224,-1.13,8.862212046413989,0.3511111111111111,-0.36,-0.64,1.375,3.310291183187617,-47.26938770213846
1589987565.1477258,-2.4351824500434405,-1.14005212858384,8.88015638575152,0.3511111111111111,-0.36,-0.64,1.3435870981754996,3.374674196350999,-49.66325477845352
1589987565.1577258,-2.461212686567164,-1.1382835820895523,8.918787313432835,0.3511111111111111,-0.36,-0.64,1.367420708955224,3.367420708955224,-51.73227611940298
1589987565.1677258,-2.440620090337785,-1.1108267871170465,8.939379909662215,0.3511111111111111,-0.36,-0.64,1.4961244353888452,3.4961244353888454,-53.4483258051846
1589987565.1777258,-2.3864788390309064,-1.14,8.977605804845467,0.3711111111111111,-0.3466666666666667,-0.6533333333333333,1.25,3.601231859857915,-56.8336230190054
1589987565.1877258,-2.393066525956894,-1.1504002110646587,8.896133051913788,0.3711111111111111,-0.3466666666666667,-0.6533333333333333,1.3366684255388237,3.877501319154118,-58.98418029792588
1589987565.1977258,-2.371519456657261,-1.1827208150141084,8.87,0.3711111111111111,-0.3466666666666667,-0.6533333333333333,1.5,3.946996604107881,-60.992047542489665
1589987565.2077258,-2.3704426221158252,-1.2139234961544338,8.89088524423165,0.3711111111111111,-0.3466666666666667,-0.6533333333333333,1.5543886568532572,3.9185109254826056,-62.28282101563694
1589987565.2177258,-2.435655967078189,-1.2987871604938273,8.986868806584363,0.3756339460448102,-0.34040427983539095,-0.6491584087791495,1.9103497942386831,4.222849794238683,-63.91854938271605
1589987565.2277257,-2.452370996069248,-1.3223709960692482,8.968247330712833,0.3855555555555555,-0.32666666666666666,-0.64,2.1617270915224,4.5109541830448,-65.1868605558808
1589987565.2377257,-2.428656597940298,-1.3270151030895532,8.90328298970149,0.3855555555555555,-0.32666666666666666,-0.64,1.9748112113805854,4.385259342817155,-66.05037757723883
1589987565.2477257,-2.431078167819392,-1.351078167819392,8.898773587367872,0.3855555555555555,-0.32666666666666666,-0.64,1.7778807255644005,4.2846192744356,-66.7904312932272
1589987565.2577257,-2.4531262214553586,-1.3906278500625033,8.925624592848214,0.3855555555555555,-0.32666666666666666,-0.64,1.914077768191982,4.367192589397328,-67.4258092416853
1589987565.2677257,-2.488303489692043,-1.4446427917536342,8.930982093815226,0.39247020721699394,-0.31446434020530467,-0.6448809305845448,2.1021206378849464,4.529017448460214,-68.08705234538064
1589987565.2777257,-2.5024168947055325,-1.4817220701963116,8.944138964901844,0.4044444444444445,-0.2933333333333333,-0.6533333333333333,1.9892370612730517,4.614237061273052,-69.00207763236169
1589987565.2877257,-2.4561268512556342,-1.5125820991629104,8.877899227301995,0.4044444444444445,-0.2933333333333333,-0.6533333333333333,1.831646410173857,4.5977845299420474,-69.52420717965228
1589987565.2977257,-2.4246701260192736,-1.519340252038547,8.845989621942179,0.4044444444444445,-0.2933333333333333,-0.6533333333333333,1.8499351371386212,4.724935137138621,-70.12055226093402
1589987565.3077257,-2.4282290053265836,-1.5429160213063353,8.909374031959503,0.4044444444444445,-0.2933333333333333,-0.6533333333333333,2.014646924936723,4.838215641645575,-70.75715641645574
1589987565.3177257,-2.44,-1.6002080128736067,8.9774479967816,0.4132346777522725,-0.2887964387228414,-0.6607057870753826,2.156900040230021,4.843099959769979,-71.31640024138012
1589987565.3277256,-2.433772675905549,-1.63,8.9616969012074,0.4388888888888889,-0.27555555555555555,-0.6822222222222222,2.301894367453756,4.788920775590317,-72.03068310236127
1589987565.3377256,-2.4084516432661385,-1.635419248568515,8.924580751431485,0.4388888888888889,-0.27555555555555555,-0.6822222222222222,2.4709683112400973,4.932661385206683,-72.70725645148639
1589987565.3477256,-2.3870612355606613,-1.714693822196694,8.874693822196694,0.4388888888888889,-0.27555555555555555,-0.6822222222222222,2.0882654445082647,4.911734555491735,-74.07321283266322
1589987565.3577256,-2.3803692003318653,-1.7481539983406726,8.908153998340673,0.4388888888888889,-0.27555555555555555,-0.6822222222222222,2.0046150041483184,4.995384995851682,-74.95154245644265
1589987565.3677256,-2.4085791938451244,-1.8214208061548756,8.913806935384958,0.4481947309410096,-0.26328876375957827,-0.6847601791455278,2.2887066538440095,5.297586692311981,-77.06500703852372
1589987565.3777256,-2.3691336542021473,-1.8660829322473158,8.899133654202148,0.4633333333333333,-0.2433333333333333,-0.6888888888888889,2.25,5.505414661236579,-79.03519529803776
1589987565.3877256,-2.365539029421344,-1.9158983823689066,8.833382911735967,0.4633333333333333,-0.2433333333333333,-0.6888888888888889,2.314745955922267,5.689745955922267,-80.75131636087286
1589987565.3977256,-2.375241503976862,-1.944758496023138,8.818550976138829,0.4633333333333333,-0.2433333333333333,-0.6888888888888889,2.404740600144613,5.809481200289226,-82.57669920462762
1589987565.4077256,-2.3498792515990194,-1.9781690477613725,8.845975850319803,0.4633333333333333,-0.2433333333333333,-0.6888888888888889,2.4626509355012254,5.925301871002451,-84.50528274254289
1589987565.4177256,-2.3120965448834516,-2.0476620929079186,8.891372458257564,0.46640689921199097,-0.23279539317793574,-0.7064521224812181,2.5,6.049396594478426,-86.5534489171764
1589987565.4277256,-2.3,-2.1028920303812186,8.922729221935532,0.4711111111111111,-0.21666666666666667,-0.7333333333333333,2.5268583966275395,6.286150379765236,-88.65440227859142
1589987565.4377255,-2.2932424562414,-2.12,8.8363485968449,0.4711111111111111,-0.21666666666666667,-0.7333333333333333,2.6892039454737446,6.626703945473745,-90.69772367284247
1589987565.4477255,-2.274951896809749,-2.1502886191415067,8.805144309570753,0.4711111111111111,-0.21666666666666667,-0.7333333333333333,2.7797467753046536,7.032753224695346,-93.22867128298928
1589987565.4577255,-2.27,-2.1959333874591698,8.863816815512717,0.4711111111111111,-0.21666666666666667,-0.7333333333333333,2.6001040820950476,7.212395917904953,-95.04666937295848
1589987565.4677255,-2.2617198027937553,-2.228280197206245,8.91343960558751,0.4695010727654524,-0.20562640372500685,-0.7344833607230895,2.588375616269515,7.314689040673788,-96.66400986031225
1589987565.4777255,-2.23,-2.2654572934112167,8.855457293411217,0.4633333333333333,-0.16333333333333333,-0.7388888888888889,2.683236489522487,7.57529053143254,-98.3821688248029
1589987565.4877255,-2.23,-2.333988807646746,8.923988807646746,0.4633333333333333,-0.16333333333333333,-0.7388888888888889,2.6296962440259795,7.735911267922062,-100.04191643519464
1589987565.4977255,-2.216382538706612,-2.445956346766531,8.782338885473143,0.4633333333333333,-0.16333333333333333,-0.7388888888888889,2.6050545665418365,7.86700890112347,-102.66352670337041
1589987565.5077255,-2.2120087193237405,-2.4584104631884887,8.81200871932374,0.4633333333333333,-0.16333333333333333,-0.7388888888888889,2.5849891008453243,8.36244550422662,-104.39721662197843
1589987565.5177255,-2.1749084659999522,-2.437820369000167,8.790183068000095,0.4769107573334606,-0.15513030633325642,-0.7538806278890294,2.6090889562498507,8.5625,-105.86709818125402
1589987565.5277255,-2.16,-2.5344824108678887,8.816822684938009,0.5166666666666667,-0.13111111111111112,-0.7977777777777778,2.3242013703505964,8.58235821913745,-107.54202260188646
1589987565.5377254,-2.1504089727576545,-2.6140149545960907,8.765241872869055,0.5166666666666667,-0.13111111111111112,-0.7977777777777778,2.052275681058637,8.824813067548863,-108.73721960132329
1589987565.5477254,-2.1316941906567832,-2.5862120324082056,8.675647302189278,0.5166666666666667,-0.13111111111111112,-0.7977777777777778,2.551911308395104,9.253529563868298,-109.43500258576107
1589987565.5577254,-2.137524010926073,-2.6996325667459686,8.786054277909948,0.5166666666666667,-0.13111111111111112,-0.7977777777777778,2.234525068287955,9.35263569477487,-110.65824632126179
1589987565.5677254,-2.111180615062363,-2.72,9.052986765685995,0.5249035725242523,-0.14248588586682465,-0.8052302164108315,1.9154368593100384,9.459563140689962,-111.3015051255197
1589987565.5777254,-2.15,-2.72,9.48,0.54,-0.16333333333333333,-0.8188888888888889,1.875,9.5,-111.625
1589987565.5877254,-1.66,-2.4704213747645953,8.564958804143126,0.54,-0.16333333333333333,-0.8188888888888889,3.4645421374764593,6.1111258239171375,-112.48419844632768
1589987565.5977254,-1.6314083796062595,-2.4654928968053653,9.117041898031298,0.54,-0.16333333333333333,-0.8188888888888889,3.821293358332732,7.846844126343116,-111.23943535011178
1589987565.6077254,-1.5711873236379423,-2.4525752116344695,9.086839157803343,0.54,-0.16333333333333333,-0.8188888888888889,-4.156663772520078,15.100230627306273,-110.829221836336
1589987565.6177254,-1.5428841912166147,-2.4957683824332295,9.0050551418401,0.5467297795054341,-0.16109007349818863,-0.8317075165182872,-4.734891954750934,11.228837271516237,-111.32092141468847
1589987565.6277254,-1.5684486497141732,-2.5745702739996057,8.144570273999605,0.5633333333333334,-0.15555555555555556,-0.8633333333333333,4.187325464879427,5.484059810105789,-110.6109796964321
1589987565.6377254,-1.677806304842379,-2.823969667424981,8.705878669699924,0.5633333333333334,-0.15555555555555556,-0.8633333333333333,2.6310529736756583,8.792852887011158,-109.65153152421189
1589987565.6477253,-1.6357377386650198,-2.7957433997220935,9.008609438526067,0.5633333333333334,-0.15555555555555556,-0.8633333333333333,1.1872877103597343,6.607193402295302,-109.7143514229839
1589987565.6577253,-1.5483895443530766,-2.6958258848766534,8.496992412505461,0.5633333333333334,-0.15555555555555556,-0.8633333333333333,2.6140098021689906,8.503699400150955,-108.61308495213125
1589987565.6677253,-1.7006609836952844,-2.923877049365176,8.360177705613062,0.5318206556465132,-0.162369107487841,-0.8224520217396206,2.164645490832826,10.24338114245766,-107.76872336107165
1589987565.6777253,-1.7927471006244808,-3.137471006244809,9.02978189313071,0.44,-0.18222222222222226,-0.7033333333333334,0.8612818008428953,5.348201925739072,-107.82694304303689
1589987565.6877253,-1.7905670261941449,-3.2131443246019518,8.874536209553158,0.44,-0.18222222222222226,-0.7033333333333334,1.3363379558294812,6.703929121725732,-106.01031073446327
1589987565.6977253,-1.7521024936186924,-3.2035939524838013,8.692102493618693,0.44,-0.18222222222222226,-0.7033333333333334,3.998316316512861,8.239836540349499,-104.05974867465149
1589987565.7077253,-1.56768446366653,-3.078794787666381,8.490555161999925,0.44,-0.18222222222222226,-0.7033333333333334,1.3246441687483688,6.498265118750233,-102.60765118750233
1589987565.7177253,-1.6271105964099595,-3.214962362478286,8.579409380428489,0.4419095412725986,-0.1488052499517468,-0.6925921636749662,2.3754704690214243,6.576396931094384,-100.93192675159236
1589987565.7277253,-1.6087391711542964,-3.242111917583704,8.97349098571763,0.4488888888888889,-0.02666666666666667,-0.6533333333333333,2.4466606181222197,6.619680695387498,-98.77364054085695
1589987565.7377253,-1.494315871774824,-3.163346364347146,8.571227521501172,0.4488888888888889,-0.02666666666666667,-0.6533333333333333,2.740373338545739,7.110144644253323,-96.66849100860047
1589987565.7477252,-1.3382017326174254,-3.056522131480395,8.05549519469386,0.4488888888888889,-0.02666666666666667,-0.6533333333333333,5.841653318594053,9.901928326490097,-93.64673667824754
1589987565.7577252,-1.4034324541535763,-3.2412391320230873,8.933767078249435,0.4488888888888889,-0.02666666666666667,-0.6533333333333333,4.175262110031417,7.13034266091912,-92.65048038284503
1589987565.7677252,-1.3207473194974921,-3.061494638994984,9.24522341355667,0.4512771821105538,-0.022221787615234766,-0.6511440645468072,-4.743402282453638,-1.7508656987713405,-93.80125598223735
1589987565.7777252,-1.4884305145315975,-3.4047084564052073,9.153128031214674,0.4888888888888889,0.04777777777777778,-0.6166666666666667,6.1875,9.0625,-85.75
1589987565.7877252,-1.4433967017380442,-3.5133967017380443,8.802731333488579,0.4888888888888889,0.04777777777777778,-0.6166666666666667,4.763663812265809,7.556122583991362,-85.27538793742194
1589987565.7977252,-1.4217866539105477,-3.5027377820298176,8.880719923463285,0.4888888888888889,0.04777777777777778,-0.6166666666666667,2.319889579845332,4.790889340668102,-82.65271964442319
1589987565.8077252,-1.3938497790868924,-3.5253755522827688,8.71617378497791,0.4888888888888889,0.04777777777777778,-0.6166666666666667,3.1732695139911633,5.082013991163476,-77.51966126656848
1589987565.8177252,-1.38,-3.5937922215637963,8.741376664691389,0.49483381675659377,0.07030592548697528,-0.614476430083828,2.5431006923868633,3.9823998846021893,-75.0477945763029
1589987565.8277252,-1.3653795449712949,-3.6580693174569423,8.857450563470126,0.51,0.12777777777777774,-0.6088888888888889,2.9724112268764618,4.006033382947055,-71.86381033382948
1589987565.8377252,-1.3484064677901102,-3.646900696928353,8.652032338950551,0.51,0.12777777777777774,-0.6088888888888889,3.1659353220988975,4.061951491574173,-69.4745957631181
1589987565.8477252,-1.3870721634278549,-3.770630922969136,8.845360817139275,0.51,0.12777777777777774,-0.6088888888888889,2.77927836572145,3.7719587742910874,-67.05798978575906
1589987565.8577251,-1.213630675437189,-3.5827177923953153,8.657862987325524,0.51,0.12777777777777774,-0.6088888888888889,2.8144452911920426,3.7121370126744746,-63.26724691159955
1589987565.8677251,-1.2686876303545644,-3.674479383924274,8.810798973207122,0.51,0.12777777777777774,-0.6088888888888889,2.3174033370768488,3.5592010267928766,-61.31731309160918
1589987565.8777251,-1.1313767137303048,-3.407571925516677,8.598279107837119,0.5066666666666667,0.16666666666666666,-0.6166666666666667,1.7650578064252098,3.1918022304072027,-57.437735318191116
1589987565.887725,-1.165706977695928,-3.596388377327604,8.55536627788009,0.5066666666666667,0.16666666666666666,-0.6166666666666667,2.140545068549212,3.299084305299775,-54.326555146306525
1589987565.897725,-1.2076062741532165,-3.7343623550807004,8.856487838145034,0.5066666666666667,0.16666666666666666,-0.6166666666666667,1.46210786542396,3.052852921118436,-49.72203909979541
1589987565.907725,-1.1965196520882908,-3.769558956264872,8.737818782309018,0.5066666666666667,0.16666666666666666,-0.6166666666666667,1.9483760872240912,2.592371738327726,-46.717071726019526
1589987565.917725,-1.177843372461657,-3.719640562076943,8.682156627538342,0.5078647930768572,0.1680644808118889,-0.6166666666666667,1.988767564904464,2.428514051923571,-44.05720375289178
1589987565.927725,-1.1239366806614688,-3.7106561134435783,8.736063319338532,0.537812955188073,0.20300400327497403,-0.6166666666666667,1.7080035451118156,2.2039028360894526,-40.80034112329706
1589987565.937725,-1.1123425575298573,-3.7123425575298574,8.783635498592096,0.54,0.20555555555555555,-0.6166666666666667,1.5625,1.9986879794154773,-36.10531969123216
1589987565.947725,-1.088109772141241,-3.703231595011314,8.603231595011314,0.54,0.20555555555555555,-0.6166666666666667,1.5211512655896438,1.8065930379413777,-32.922640504130925
1589987565.957725,-1.0590662213186175,-3.8065704742541806,8.737809841915274,0.54,0.20555555555555555,-0.6166666666666667,1.0761884880295423,1.6816638832413593,-28.601761856354507
1589987565.967725,-1.0008114238251924,-3.679594288087404,8.781622847650384,0.5416679267517845,0.20735871961153882,-0.6169371412750642,0.807428601092547,1.307428601092547,-25.282822333322684
1589987565.977725,-1.0226473726327021,-3.6647052547345957,8.809410509469192,0.5811111111111111,0.25,-0.6233333333333333,0.6544078420912244,1.1709539210456121,-20.68187349959989
1589987565.987725,-1.0269929275283662,-3.67405657977307,8.763461101406014,0.5811111111111111,0.25,-0.6233333333333333,0.5249115941045776,1.049823188209155,-17.536262317464086
1589987565.997725,-1.0127655568935399,-3.7878755448516817,8.685210562914468,0.5811111111111111,0.25,-0.6233333333333333,0.3470694611692474,0.6941389223384948,-15.046472456369465
1589987566.007725,-1.0192127616689222,-3.8129148550203,8.772361714993233,0.5811111111111111,0.25,-0.6233333333333333,0.36023928129229177,0.0954785625845835,-10.402126104984307
1589987566.017725,-1.013174148406231,-3.75856733565608,8.790477554781306,0.5811111111111111,0.25,-0.6233333333333333,0.2470152826168332,-0.1309694347663336,-8.213128797258776
1589987566.027725,-1.033879020643303,-3.737959673547768,8.8,0.7411889902384382,0.3269435109617539,-0.7002768442950872,0.03825612097935671,-0.2997479596735478,-4.027874459913586
1589987566.037725,-1.0418491603053435,-3.7390754198473286,8.748905038167939,0.7822222222222223,0.3466666666666667,-0.72,-0.17594274809160304,-0.4779503816793893,1.4449541984732823
1589987566.047725,-1.0589251908396946,-3.7305374045801525,8.646448854961832,0.7822222222222223,0.3466666666666667,-0.72,-0.06921755725190841,-0.8514885496183207,5.5538740458015265
1589987566.057725,-1.0675205219953694,-3.7525615659861082,8.670082087981477,0.7822222222222223,0.3466666666666667,-0.72,-0.579535887181646,-1.0160097874131762,9.666767522626815
1589987566.067725,-1.0795647439281943,-3.8269532074973602,8.81390641499472,0.7822222222222223,0.3466666666666667,-0.72,-0.8097796495512144,-1.3613982477560718,16.198109160506863
1589987566.077725,-1.1277208919866084,-3.9015813379799127,8.764325626015623,1.3796170922768023,0.3714108328819451,-1.5126970391108847,-1.1107555749163027,-1.6732555749163027,20.56336878634219
1589987566.087725,-1.1363497161507612,-3.9517317407683894,8.789032308466867,1.5333333333333334,0.37777777777777777,-1.7166666666666666,-0.95553896633739,-2.08053896633739,27.442485807538063
1589987566.097725,-1.2164478047256124,-3.9735766740160763,8.650681064564852,1.5333333333333334,0.37777777777777777,-1.7166666666666666,-1.183090354334126,-2.308090354334126,31.44739023628062
1589987566.107725,-1.1704511898558276,-3.7222559492791385,8.710902379711657,1.5333333333333334,0.37777777777777777,-1.7166666666666666,-0.875,-2.8322395561924614,37.88207562532569
1589987566.117725,-1.179558146604134,-3.7677907330206706,8.729116293208268,1.5333333333333334,0.37777777777777777,-1.7166666666666666,-0.875,-3.2306689139308666,41.80945072303283
1589987566.127725,-1.1979883092766102,-3.759824639149152,8.867812948425762,0.7088888888888889,-0.09,-0.7833333333333333,-1.125,-3.562865335105934,46.25365335105934
1589987566.1377249,-1.1941407951380096,-3.6431055963535073,8.731718409723982,0.7088888888888889,-0.09,-0.7833333333333333,-1.1379399848062801,-3.8383799696125602,49.03467966573816
1589987566.1477249,-1.2315553811765825,-3.666889237646835,8.664666143529747,0.7088888888888889,-0.09,-0.7833333333333333,-1.2888845294145623,-4.0625,51.86940302943834
1589987566.1577249,-1.2427027405705318,-3.65,8.701711875805637,0.7088888888888889,-0.09,-0.7833333333333333,-1.5281535476097068,-4.090653547609707,54.07207483326795
1589987566.1677248,-1.2603327635487307,-3.65,8.778108642044499,0.7088888888888889,-0.09,-0.7833333333333333,-1.711799620299277,-4.274299620299277,55.35759734209494
1589987566.1777248,-1.290698546818662,-3.6982966092435445,8.875196124849765,0.6184285731628849,0.0916872442971434,-0.7281372084835682,-1.8125,-4.375,57.52864706632189
1589987566.1877248,-1.2800388117629498,-3.6900582176444243,8.750291088222122,0.5777777777777777,0.17333333333333334,-0.7033333333333334,-1.500606433796089,-4.624514852963129,59.809346544260336
1589987566.1977248,-1.271268140116764,-3.6376088407005835,8.680145120934112,0.5777777777777777,0.17333333333333334,-0.7033333333333334,-1.9365929941618014,-4.625,60.903982485404505
1589987566.2077248,-1.296414997053624,-3.682829994107248,8.76685498919662,0.5777777777777777,0.17333333333333334,-0.7033333333333334,-1.779875024553133,-4.845124975446867,62.27318736495777
1589987566.2177248,-1.2911063135674534,-3.6455315678372675,8.788893686432546,0.5777777777777777,0.17333333333333334,-0.7033333333333334,-1.75,-4.875,63.43803972366148
1589987566.2277248,-1.2971099895248073,-3.6897699266736503,8.811329968574421,0.559607804547715,0.19229330539948578,-0.7286132960882032,-1.8388748690600896,-4.963874869060089,63.873562041710315
1589987566.2377248,-1.281810597261529,-3.7027158958922937,8.755473506846178,0.5522222222222222,0.2,-0.7388888888888889,-1.7556581164422778,-4.695987174663417,64.35802565067317
1589987566.2477248,-1.3092561631958646,-3.743884244793797,8.68685959201034,0.5522222222222222,0.2,-0.7388888888888889,-1.8414255099870764,-4.8246382649806145,64.10072347003877
1589987566.2577248,-1.3010152850608057,-3.7315229275912083,8.716954144817583,0.5522222222222222,0.2,-0.7388888888888889,-1.5190365948901037,-4.637691063260069,63.34740042396519
1589987566.2677248,-1.3367629272270165,-3.757572195420262,8.738381463613509,0.5522222222222222,0.2,-0.7388888888888889,-1.6148841475844262,-4.567557926207787,61.87644815519467
1589987566.2777247,-1.3615070667209987,-3.8569858665580026,8.800957599674009,0.5644444444444444,0.13444444444444445,-0.7477777777777778,-1.3467424989812768,-4.284242498981277,59.26962248268171
1589987566.2877247,-1.3689256728873402,-3.83838850933101,8.746777018662021,0.5644444444444444,0.13444444444444445,-0.7477777777777778,-1.1639990944105645,-4.101499094410564,56.357706394149204
1589987566.2977247,-1.349233886382751,-3.8079570303540025,8.68974462879425,0.5644444444444444,0.13444444444444445,-0.7477777777777778,-0.7515960700359354,-3.684307859928129,52.68934933863445
1589987566.3077247,-1.3011304381068889,-3.679681168285037,8.67371014603563,0.5644444444444444,0.13444444444444445,-0.7477777777777778,-0.8518115872773148,-3.4838768254453703,48.88115968346204
1589987566.3177247,0.9905682715074979,-8.644632991318073,-5.625958958168903,0.5644444444444444,0.13444444444444445,-0.7477777777777778,-59.656176006314126,127.67161602209944,-46.88624704025257
1589987566.3277247,-1.1522762109135498,-4.6458415082771305,-0.7789921827099944,0.5142377716465699,0.11827619388241706,-0.6473644321820288,-68.7546510959534,-83.39761361894543,-391.48680832311464
1589987566.3377247,-1.086348015010863,-2.2634129962472844,-0.07309895318980841,0.4988888888888889,0.11333333333333333,-0.6166666666666667,-63.660366877345446,-50.18127222002765,-533.2077634307723
1589987566.3477247,0.23203895579627265,-2.607240967503196,0.3477756845858844,0.4988888888888889,0.11333333333333333,-0.6166666666666667,-63.64606110812084,-60.53277959530377,-517.1106817264348
1589987566.3577247,-0.5440039023077441,-2.5155268115454485,1.19436789342663,0.4988888888888889,0.11333333333333333,-0.6166666666666667,-65.14523481127632,-50.43540377110946,-503.52993170961446
1589987566.3677247,-1.2308432143695704,-3.4228025945057525,4.770321671753933,0.4988888888888889,0.11333333333333333,-0.6166666666666667,-40.68776414651327,-6.315170814745244,-475.9302194617281
1589987566.3777246,-0.11456700273753088,-1.1278760766508646,-1.066371770047406,0.44,0.3111111111111111,-0.6466666666666666,45.56923532750217,114.45083294384723,-428.8523235627963
1589987566.3877246,-0.14134106144806613,-2.3534415057085076,2.8470264804700562,0.44,0.3111111111111111,-0.6466666666666666,72.53745163293578,143.5687499004793,-404.3036217576153
1589987566.3977246,0.5599240457954492,-0.6036180952532599,6.4936050381363355,0.44,0.3111111111111111,-0.6466666666666666,102.13250883743889,181.38697532682602,-378.13140614799124
1589987566.4077246,2.342675003871767,2.3861189406845287,7.926341567291312,0.44,0.3111111111111111,-0.6466666666666666,101.66468561251355,193.331672506582,-332.61156980796034
1589987566.4177246,-0.23801939743231282,-0.28401496742005516,0.03568869486677695,0.44,0.3111111111111111,-0.6466666666666666,19.18022327476828,92.41564966344811,-299.73859029913336
1589987566.4277246,-0.9870965044859633,0.2403009936649838,5.295981284368267,0.2966666666666667,0.4444444444444444,-0.6088888888888889,10.617796732803807,16.82254719104737,-268.2117607807827
1589987566.4377246,2.7692547512621797,-1.9716975914075312,20.489983760491366,0.2966666666666667,0.4444444444444444,-0.6088888888888889,7.540893213171689,-45.811406646943425,-246.75773486992313
1589987566.4477246,-0.7449212806154579,-1.09,1.8809282930233349,0.2966666666666667,0.4444444444444444,-0.6088888888888889,-6.91607130699709,-48.365553673854954,-208.36742698245197
1589987566.4577246,-0.3522834578659813,-1.09,4.243894099024731,0.2966666666666667,0.4444444444444444,-0.6088888888888889,14.946716550644222,-1.2490149439177642,-184.76453968308002
1589987566.4677246,0.9437894218639427,-1.1926873019291713,8.565597366234885,0.2966666666666667,0.4444444444444444,-0.6088888888888889,14.076122657764378,59.97855835205071,-150.92674263868804
1589987566.4777246,-0.4288444929530679,-1.0041754852180516,7.288678878185356,0.22666666666666666,0.4888888888888889,-0.6111111111111112,-22.151292530726522,35.35557941441655,-123.26836769800218
1589987566.4877245,0.9151273142523932,-2.930439039797852,11.881431313474902,0.22666666666666666,0.4888888888888889,-0.6111111111111112,2.142997716118373,-20.172357135915252,-104.78852227999417
1589987566.4977245,0.7568283491099337,-2.064582899199716,8.422444079895364,0.22666666666666666,0.4888888888888889,-0.6111111111111112,9.154766787115653,10.15658322064333,-78.87830588130971
1589987566.5077245,0.49648030326542375,-2.3528253785275663,9.854358332040169,0.22666666666666666,0.4888888888888889,-0.6111111111111112,-10.022656232680838,12.016212119532687,-59.177862233700594
1589987566.5177245,0.5338040870533802,-2.2723918258932394,9.189134607145917,0.22666666666666666,0.4888888888888889,-0.6111111111111112,-2.779529656841744,0.344906713220805,-43.794110401850745
1589987566.5277245,0.39023185189511184,-1.8519505927699587,7.381711148747299,0.16333333333333333,0.5255555555555556,-0.59,7.576786340010512,6.257592127547743,-21.183200227763827
1589987566.5377245,0.5535326753489458,-2.521483968930678,9.6434275535829,0.16333333333333333,0.5255555555555556,-0.59,-2.1702315598902064,-1.6012600011680185,-7.149535712199967
1589987566.5477245,0.5616633188114679,-2.4466331881146792,8.726432316802754,0.16333333333333333,0.5255555555555556,-0.59,0.3184511387055542,0.21931495056478756,12.086430099392167
1589987566.5577245,0.5366629867523084,-2.4844530309112804,8.431082898434363,0.16333333333333333,0.5255555555555556,-0.59,-1.0627759935768766,-1.9309388799678846,27.28687650541951
1589987566.5677245,0.5627450113999894,-2.6091500379999646,8.805685148199863,0.16333333333333333,0.5255555555555556,-0.59,-3.063313022499514,-3.7165003799996468,40.70401893812192
1589987566.5777245,0.5399784416384354,-2.6499784416384355,8.691047890360332,0.15638589467200495,0.5443136399411422,-0.607368596653321,-0.6781211502925775,-3.7652544656606097,59.72353326147213
1589987566.5877244,2.7937512062093557,-6.2010299979022445,7.727577302286553,0.15222222222222226,0.5555555555555556,-0.6177777777777778,-2.0050175687014895,-5.6148311306901615,77.94578088944829
1589987566.5977244,16.676499128167798,-19.676899832405073,7.595525553994346,0.15222222222222226,0.5555555555555556,-0.6177777777777778,-27.790175170557465,-31.418463586192885,142.72460153882616
1589987566.6077244,3.135962993685567,-7.3008356046114,13.552793418090097,0.15222222222222226,0.5555555555555556,-0.6177777777777778,-14.965008210458603,-11.537235911022329,189.6318730849317
1589987566.6177244,-1.4099938442597724,-1.2621391197291476,5.550532471529701,0.15222222222222226,0.5555555555555556,-0.6177777777777778,33.300265466297326,3.688365650969528,213.5934133579563
1589987566.6277244,-1.2991835883171072,-1.5120057950857673,5.554927445526194,0.1658843300880853,0.5573771699376707,-0.6241534281151805,8.19330232962448,-8.617747450162263,213.1781496291145
1589987566.6377244,0.29477533039647574,-2.570784140969163,9.144114537444935,0.1688888888888889,0.5577777777777778,-0.6255555555555555,-40.35170704845815,-30.99030837004405,209.05941629955947
1589987566.6477244,-0.5921251101321585,-3.1990052863436125,9.96634515418502,0.1688888888888889,0.5577777777777778,-0.6255555555555555,-6.226826817180616,-15.862188876651983,216.16154873348017
1589987566.6577244,-0.6221884088813223,-2.331488023456527,6.052213000401977,0.1688888888888889,0.5577777777777778,-0.6255555555555555,11.470197559764488,-5.778292071599157,222.47702229788845
1589987566.6677244,-0.42606802825552825,-2.879090525184275,8.02243012899263,0.1688888888888889,0.5577777777777778,-0.6255555555555555,-8.710282459305894,-14.199679437960688,223.45030088682432
1589987566.6777244,-0.1,-3.16,9.1,0.2288888888888889,0.52,-0.6555555555555556,-15.6875,-25.0625,225.4375
1589987566.6877244,-0.1,-3.16,9.1,0.2288888888888889,0.52,-0.6555555555555556,-15.6875,-25.0625,225.4375
1589987566.6977243,-0.19806844325153375,-3.3757505751533743,8.972511023773007,0.2288888888888889,0.52,-0.6555555555555556,-7.658146208780675,-16.297632884394172,232.6087549127684
1589987566.7077243,-0.17082068378493404,-3.4286321936917767,9.154802336028752,0.2288888888888889,0.52,-0.6555555555555556,-9.627658474015227,-19.893995011112686,233.9050146001797
1589987566.7177243,7.437763044505601,-11.247515080755011,6.393540711088873,0.2288888888888889,0.52,-0.6555555555555556,-7.17189280849526,-17.378099546882385,235.67362327301032
1589987566.7277243,8.480028218109386,-14.709724043489086,7.358555896754918,0.2820874484742856,0.49613522560655104,-0.6525724587563744,-14.646754917420532,-20.82847383600299,175.22192972445845
1589987566.7377243,0.23020538325159423,-3.673707490041675,5.98559001634777,0.3477777777777778,0.4666666666666667,-0.6488888888888888,-19.287617139830996,-7.664092180700422,-75.45165175796092
1589987566.7477243,-7.733721375350331,-7.630926925968966,2.58646455670244,0.3477777777777778,0.4666666666666667,-0.6488888888888888,41.01263329687606,36.01894353681044,-149.5657597921936
1589987566.7577243,-4.790857292460014,-3.8050899657273423,5.354602532368622,0.3477777777777778,0.4666666666666667,-0.6488888888888888,39.35544197448591,31.239643826161462,-102.1441504426885
1589987566.7677243,-1.6616337369874654,-0.9644338219672828,9.176910983641385,0.3477777777777778,0.4666666666666667,-0.6488888888888888,-2.6401768642447436,2.2564398767792646,-15.393244104525174
1589987566.7777243,-0.4213622145172232,-1.5797763247154593,9.650273045903369,0.38038499870187514,0.450363056204618,-0.6617959138380107,-18.991649864325016,-14.644332507349061,27.12699625951609
1589987566.7877243,-0.7475072857199889,-3.4543674398179567,7.964791009621143,0.4011111111111111,0.44,-0.67,0.4482015250109761,-2.010736456545171,45.141777116850974
1589987566.7977242,-1.2063483237939494,-5.387290269828291,8.06634832379395,0.4011111111111111,0.44,-0.67,0.8527596075224859,-1.352177023712183,56.61511651676206
1589987566.8077242,5.863788974966388,-9.612241500736284,8.435179588962162,0.4011111111111111,0.44,-0.67,-7.148308950637045,-10.442918080542928,83.14164239067802
1589987566.8177242,-1.0219525771861315,-3.65774752421843,9.78088200392673,0.4011111111111111,0.44,-0.67,-4.07797768020885,-4.852601997885607,28.607987766726353
1589987566.8277242,-2.6431448563346733,-3.1194836980794998,7.128764627065654,0.3584908606686187,0.4524742196417051,-0.6959879575868857,12.807819711180587,12.636428092898615,-32.7377326187286
1589987566.8377242,-0.9748689392472079,-2.8861327393634193,8.011489121311898,0.3555555555555556,0.4533333333333333,-0.6977777777777778,4.204085358964425,4.177098465039705,-8.181874031570793
1589987566.8477242,1.6129278825392255,-5.694632935079891,9.167711961997984,0.3555555555555556,0.4533333333333333,-0.6977777777777778,-6.700185331797899,-6.504313912480207,15.901099395422484
1589987566.8577242,0.6057283385759222,-4.536726336860166,8.685131255361739,0.3555555555555556,0.4533333333333333,-0.6977777777777778,-2.1474799828424365,-2.3420646268229914,6.140377466399771
1589987566.8677242,-0.2033876930337432,-4.093111087805774,8.520949634251854,0.3555555555555556,0.4533333333333333,-0.6977777777777778,3.0968724600823263,1.4318744920164652,-1.853826918539105
1589987566.8777242,-0.006650045330915691,-4.57393183878678,8.721674977334542,0.3661462082291639,0.445857578504904,-0.685941165966098,0.34798431962416565,0.013040365119920905,-0.7005403651199209
1589987566.8877242,-0.01240127538352978,-4.562337244857956,8.640651020568173,0.3744444444444445,0.44,-0.6766666666666666,-1.5856457282492227,-0.7447305490944255,0.25933832945665525
1589987566.8977242,-0.04263370877453295,-4.475267417549066,8.595561475686248,0.3744444444444445,0.44,-0.6766666666666666,-0.3402407769609496,-0.1588402913603561,-0.0512199028798813
1589987566.9077241,-0.006089392776044304,-4.497821214447912,8.681731821671868,0.3744444444444445,0.44,-0.6766666666666666,0.08624291408687695,-0.125,-0.0625
1589987566.9177241,-0.014438455894802188,-4.495786161747277,8.74466307353688,0.3744444444444445,0.44,-0.6766666666666666,0.3125,-0.06390386026299452,-0.03195193013149726
1589987566.9277241,-0.030706219647767832,-4.501822011585045,8.73676554911942,0.3894177572341519,0.4369020732159226,-0.6725360976212301,0.13824161839564683,0.08712919080217658,-0.14521531800362764
1589987566.937724,-0.025107282528273968,-4.534678152415178,8.674249022302083,0.4066666666666667,0.43333333333333335,-0.6677777777777778,-0.25402309481027374,0.09173845259486312,-0.18481793679315084
1589987566.947724,-0.03,-4.531119434040782,8.64,0.4066666666666667,0.43333333333333335,-0.6677777777777778,-0.12476591760299621,0.10424469413233459,-0.09724823137744486
1589987566.957724,-0.04435995442684406,-4.518460068359734,8.64,0.4066666666666667,0.43333333333333335,-0.6677777777777778,0.43912400308721383,-0.03687428791943839,0.009624572751663063
1589987566.967724,-0.04423772131891783,-4.498475442637836,8.732196458897315,0.4066666666666667,0.43333333333333335,-0.6677777777777778,0.4184430329729457,-0.08898575824323643,-0.009528483513527142
1589987566.977724,-0.034088983050847455,-4.51364406779661,8.758622881355933,0.3876200564971752,0.42939265536723165,-0.6723752354048964,0.01694915254237289,-0.21027542372881355,-0.0625
1589987566.987724,-0.035530903328050714,-4.502345483359747,8.741061806656102,0.3744444444444445,0.4266666666666667,-0.6755555555555556,-0.32577258320126784,-0.20879556259904913,-0.0625
1589987566.997724,-0.0223955910607746,-4.515208817878451,8.638505410051573,0.3744444444444445,0.4266666666666667,-0.6755555555555556,-0.5108517039134391,-0.125,-0.09917585195671959
1589987567.007724,-0.022648600281222037,-4.489405598875112,8.673837402531,0.3744444444444445,0.4266666666666667,-0.6755555555555556,-0.04865061357535472,-0.08547312412118113,-0.0064193723635433825
1589987567.017724,-0.026580095574485766,-4.497618948680657,8.733160191148972,0.3744444444444445,0.4266666666666667,-0.6755555555555556,0.2927488053189279,-0.041125597340536044,0.019751194681072094
1589987567.027724,-0.02077041346353626,-4.561525451901101,8.721540826927074,0.3744444444444445,0.4266666666666667,-0.6755555555555556,0.3653698317057968,-0.004815084147101599,-0.0528698317057968
1589987567.037724,-0.032374447317927754,-4.476118920497205,8.715753316092433,0.3744444444444445,0.43333333333333335,-0.6677777777777778,0.003138817051806124,0.08047911278885458,-0.014840295737048469
1589987567.047724,-0.03608228654651374,-4.548246859639541,8.660205716366285,0.3744444444444445,0.43333333333333335,-0.6677777777777778,-0.17525714545785545,-0.05025714545785545,-0.05025714545785545
1589987567.057724,-0.023825688250139674,-4.515302753000559,8.627651376500278,0.3744444444444445,0.43333333333333335,-0.6677777777777778,-0.05326834530988113,0.0,-0.023910551563372955
1589987567.067724,-0.039641082274986195,-4.501435670900055,8.681778023191606,0.3744444444444445,0.43333333333333335,-0.6677777777777778,0.16292794036443953,-0.020085588072887905,-0.0625
1589987567.077724,-0.044867818054382405,-4.465396545836853,8.77,0.3765461363813358,0.43081130300906373,-0.6757642071379648,0.28042386283989,-0.0861440342900275,-0.015211931419945007
1589987567.087724,-0.022629225541048112,-4.532112323376856,8.767370774458952,0.38,0.4266666666666667,-0.6888888888888889,-0.039326596315507056,-0.125,0.029634680736898587
1589987567.097724,-0.035530414949589195,-4.521060829899178,8.677043775756161,0.38,0.4266666666666667,-0.6888888888888889,-0.6382603737397299,-0.05586981313013503,-0.0625
1589987567.107724,-0.020910004379975783,-4.523636668126659,8.629089995620024,0.38,0.4266666666666667,-0.6888888888888889,-0.4318334063329297,-0.11931247262515136,-0.10227082420838379
1589987567.117724,-0.015462790286802381,-4.49814883885279,8.689165112581222,0.38,0.4266666666666667,-0.6888888888888889,-0.07928780353742565,-0.08507268212245539,0.07985463575508922
1589987567.127724,-0.0257424293251197,-4.508712146625599,8.764454575950717,0.38,0.4266666666666667,-0.681232316455396,0.27784109969198867,0.03589018328199811,0.17821963343600378
1589987567.137724,-0.03,-4.520087674241485,8.745394534086682,0.38,0.4266666666666667,-0.6755555555555556,0.2516438920278432,0.0625,0.0010959280185621478
1589987567.147724,-0.024713618340988498,-4.536431908295057,8.647136183409884,0.38,0.4266666666666667,-0.6755555555555556,-0.06965954147528758,0.029460114631178105,-0.02588034389353433
1589987567.157724,-0.026618469633658333,-4.526907651831708,8.626473878534634,0.38,0.4266666666666667,-0.6755555555555556,-0.22886543521036457,0.08273087042072914,-0.06159630563109372
1589987567.167724,-0.024758870269845017,-4.52048225946031,8.671446778380929,0.38,0.4266666666666667,-0.6755555555555556,-0.11897175674612542,0.09224293918653136,-0.09224293918653136
1589987567.177724,-0.02,-4.49801637998358,8.74264482668856,0.38236915703825336,0.4266666666666667,-0.6696326629599222,0.06663254170087507,0.01807830553274995,-0.08471084723362503
1589987567.1877239,-0.013190880206696693,-4.467236479173214,8.789358960930135,0.38666666666666666,0.4266666666666667,-0.6588888888888889,0.10238600258370867,-0.08377849935407283,-0.0611645019377815
1589987567.1977239,-0.009974256354786371,-4.5349613845321795,8.660180205516495,0.38666666666666666,0.4266666666666667,-0.6588888888888889,-0.28068685776095187,-0.1561695511087074,0.00016089778258518428
1589987567.2077239,-0.02,-4.540038034248513,8.606603276252477,0.38666666666666666,0.4266666666666667,-0.6588888888888889,-0.4792459046844042,-0.1667459046844042,-0.041745904684404186
1589987567.2177238,-0.02,-4.521379469434833,8.648276816608996,0.38666666666666666,0.4266666666666667,-0.6588888888888889,-0.3857698961937716,-0.11637831603229527,0.008621683967704729
1589987567.2277238,-0.029310995752713544,-4.520689004247287,8.723277489381783,0.3933912747102931,0.4297703319175712,-0.6728553825179592,0.08298430863614914,-0.03340313827277017,0.03340313827277017
1589987567.2377238,-0.03012927284027346,-4.514935363579863,8.769741454319453,0.4011111111111111,0.43333333333333335,-0.6888888888888889,0.21915397762585456,0.0925380671224363,-0.03084602237414543
1589987567.2477238,-0.02,-4.524693762575453,8.705512273641851,0.4011111111111111,0.43333333333333335,-0.6888888888888889,0.12882796780684105,0.09949195171026157,-0.0625
1589987567.2577238,-0.026180530381194056,-4.536180530381194,8.659444243049553,0.4011111111111111,0.43333333333333335,-0.6888888888888889,-0.09201325952985137,-0.07725662976492569,-0.0625
1589987567.2677238,-0.01924023389139668,-4.518480467782793,8.6953798830543,0.4011111111111111,0.43333333333333335,-0.6888888888888889,-0.15387573091061463,-0.057751461821229255,-0.028875730910614628
1589987567.2777238,-0.025713904931141715,-4.515713904931141,8.726189841551902,0.3900531780114188,0.44089928755943864,-0.6778309557891966,0.005949207759514297,0.0,-0.032737301939878574
1589987567.2877238,-0.03153900256800301,-4.504617007704009,8.75,0.38,0.4477777777777778,-0.6677777777777778,0.1514406169749906,0.026440616974990592,-0.08894061697499059
1589987567.2977238,-0.02,-4.478110408560311,8.717558365758755,0.38,0.4477777777777778,-0.6677777777777778,0.10301657749675745,-0.0050867380025940295,-0.1081033154993515
1589987567.3077238,-0.02561784306363807,-4.516853529190914,8.635617843063638,0.38,0.4477777777777778,-0.6677777777777778,-0.23033455744321382,-0.11727696170452412,-0.02738848085226206
1589987567.3177238,-0.025149872847792555,-4.5348501271522075,8.673950890065452,0.38,0.4477777777777778,-0.6677777777777778,-0.2518734105974069,-0.0018734105974069284,0.0
1589987567.3277237,-0.015236423932568743,-4.525709271797706,8.719527152134862,0.3773535688514271,0.43507490826462775,-0.6778342161423548,-0.008865897471327905,0.032727649578554646,0.02977235042144535
1589987567.3377237,-0.015536427986709685,-4.498927144026581,8.74660928396013,0.3744444444444445,0.4211111111111111,-0.6888888888888889,0.22210267491693553,0.0,0.02789732508306448
1589987567.3477237,-0.02,-4.495418846955314,8.705811530446862,0.3744444444444445,0.4211111111111111,-0.6888888888888889,0.2161322065292892,-0.13547117388284324,-0.03386779347071081
1589987567.3577237,-0.02,-4.515515744263673,8.68068765901823,0.3744444444444445,0.4211111111111111,-0.6888888888888889,-0.006446803295908132,-0.18535106556803063,-0.030175532784015316
1589987567.3677237,-0.02437608069164265,-4.53,8.7,0.3744444444444445,0.4211111111111111,-0.6888888888888889,-0.21485050432276656,-0.07029899135446685,0.0
1589987567.3777237,-0.03465698452130709,-4.5206860309573855,8.718627938085229,0.37703165806739286,0.42680298108159753,-0.6857842325413508,-0.22089384674183069,-0.08731845977450793,0.0
1589987567.3877237,-0.034844412578100996,-4.51,8.724533237734304,0.38,0.43333333333333335,-0.6822222222222222,-0.05861031445252485,-0.1875,-0.03222242138686879
1589987567.3977237,-0.0251874260160463,-4.500374852032093,8.685937130080232,0.38,0.43333333333333335,-0.6822222222222222,0.03242141260028936,-0.15742141260028936,-0.03242141260028936
1589987567.4077237,-0.024973925110230756,-4.499947850220462,8.669947850220462,0.38,0.43333333333333335,-0.6822222222222222,-0.06217406387788446,-0.125,0.0
1589987567.4177237,-0.018178233438485805,-4.5139405888538375,8.687881177707675,0.38,0.43333333333333335,-0.6822222222222222,-0.22351472134595163,-0.10037131966351209,-0.049257360672975814
1589987567.4277236,-0.012121028131957092,-4.528080685421305,8.704040342710652,0.3858360505820534,0.4283951366869804,-0.6822222222222222,-0.29924357417526815,-0.08775214194157728,-0.125
1589987567.4377236,-0.022047502047502048,-4.532047502047502,8.725904995904996,0.3944444444444444,0.4211111111111111,-0.6822222222222222,-0.13779688779688778,-0.1498515561015561,-0.10014844389844389
1589987567.4477236,-0.012087996444588097,-4.52,8.733296028443295,0.3944444444444444,0.4211111111111111,-0.6822222222222222,0.002749888893378044,-0.13530008888529757,-0.0625
1589987567.4577236,-0.016618116369466248,-4.52,8.67,0.3944444444444444,0.4211111111111111,-0.6822222222222222,0.18658968192749217,0.0625,-0.08363677269083594
1589987567.4677236,-0.01027436211564348,-4.52,8.67,0.3944444444444444,0.4211111111111111,-0.6822222222222222,0.06764428966831526,0.0625,-0.12328523677722825
1589987567.4777236,-0.03,-4.523757677275265,8.713757677275266,0.386929089893914,0.4211111111111111,-0.6734543085799367,-0.17992741485203795,-0.03901451702959241,-0.03901451702959241
1589987567.4877236,-0.03,-4.53,8.724937862271307,0.3744444444444445,0.4211111111111111,-0.6588888888888889,-0.28241508241299523,-0.09258491758700475,0.0
1589987567.4977236,-0.026289219197707735,-4.518867657593123,8.700313753581662,0.3744444444444445,0.4211111111111111,-0.6588888888888889,-0.07153809992836677,-0.16430761998567336,-0.023192380014326646
1589987567.5077236,-0.02,-4.507696819309722,8.665393638619445,0.3744444444444445,0.4211111111111111,-0.6588888888888889,0.07689487931423415,-0.125,-0.0625
1589987567.5177236,-0.02,-4.525786162326554,8.701572324653108,0.3744444444444445,0.4211111111111111,-0.6588888888888889,-0.1415094563771146,-0.0723270290819236,-0.0361635145409618
1589987567.5277236,-0.026794459048350417,-4.5301916885725255,8.693397229524175,0.3744444444444445,0.4252632805295475,-0.6588888888888889,-0.22876731547390494,-0.021232684526095048,0.0
1589987567.5377235,-0.03550011486331266,-4.536500344589938,8.691000229726624,0.3744444444444445,0.43333333333333335,-0.6588888888888889,-0.1875,-0.09062428210429589,0.02812428210429589
1589987567.5477235,-0.03,-4.510251550188189,8.655628875470471,0.3744444444444445,0.43333333333333335,-0.6588888888888889,-0.06564437735235981,-0.09453609433808996,-0.028891716985730134
1589987567.5577235,-0.019334229369916345,-4.505332885315042,8.672663082520335,0.3744444444444445,0.43333333333333335,-0.6588888888888889,0.16249159965703427,-0.0625,-0.025008400342965725
1589987567.5677235,-0.013863656500859457,-4.51,8.721590969502579,0.3744444444444445,0.43333333333333335,-0.6588888888888889,0.2258521468696284,0.009943559391114812,0.014204293739256788
1589987567.5777235,-0.017690388987117958,-4.514619222025764,8.735380777974235,0.38060340714546326,0.43333333333333335,-0.665817721927535,0.11532465584743622,0.11056493116948725,-0.04806493116948724
1589987567.5877235,-0.018957823960880194,-4.527014058679707,8.725971882640588,0.4011111111111111,0.43333333333333335,-0.6888888888888889,-0.125,0.0625,0.0
1589987567.5977235,-0.04,-4.51955704838879,8.738006717749554,0.4011111111111111,0.43333333333333335,-0.6888888888888889,-0.12223155242993597,0.05973155242993597,-0.0027684475700640284
1589987567.6077235,-0.03264285839451873,-4.5,8.669619044281283,0.4011111111111111,0.43333333333333335,-0.6888888888888889,0.0,-0.09315475668950532,-0.09434524331049468
1589987567.6177235,-0.010593512888359295,-4.5,8.728417298964375,0.4011111111111111,0.43333333333333335,-0.6888888888888889,0.0,-0.18502702963183626,-0.0024729703681637405
1589987567.6277235,-0.0356369797301435,-4.497818489865072,8.732181510134929,0.40232306118607125,0.4318789932433812,-0.6874345487989367,-0.2988655616566984,-0.14659668497009531,0.02159668497009532
1589987567.6377234,-0.021307454754380926,-4.496537273771905,8.730847816719333,0.4066666666666667,0.4266666666666667,-0.6822222222222222,-0.22548522335535764,0.0,-0.14134318442976157
1589987567.6477234,-0.03,-4.536782760121898,8.653913800609491,0.4066666666666667,0.4266666666666667,-0.6822222222222222,-0.002176752285589903,-0.0402154984762734,-0.1896767522855899
1589987567.6577234,-0.033336387962318095,-4.521659030094205,8.633345551849272,0.4066666666666667,0.4266666666666667,-0.6822222222222222,0.13542621238224406,-0.13542621238224406,-0.0833524247644881
1589987567.6677234,-0.04634198351198523,-4.48731603297603,8.70731603297603,0.4066666666666667,0.4266666666666667,-0.6822222222222222,0.09604958779963063,-0.09604958779963063,-0.1875
1589987567.6777234,-0.03450914294800445,-4.502745428525998,8.73372714262999,0.39934552393067263,0.4266666666666667,-0.6758162223282274,-0.09681785657497217,0.07965892828748608,-0.13602321513754173
1589987567.6877234,-0.02,-4.514591403268773,8.742451580387357,0.38,0.4266666666666667,-0.6588888888888889,-0.13010745914032687,0.09630372957016343,-0.02869627042983656
1589987567.6977234,-0.024409579423325986,-4.524409579423326,8.670313785190066,0.38,0.4266666666666667,-0.6588888888888889,-0.09005987139578742,0.0625,-0.007380257208425167
1589987567.7077234,-0.025948453126460415,-4.53,8.640257734367697,0.38,0.4266666666666667,-0.6588888888888889,-0.09967783204037761,-0.03878867183848958,0.01185566408075521
1589987567.7177234,-0.022623822256175197,-4.524752355487649,8.690990578049401,0.38,0.4266666666666667,-0.6588888888888889,-0.07889888910109498,-0.171101110898905,-0.0625
1589987567.7277234,-0.029299242424242422,-4.5114015151515146,8.74439393939394,0.38,0.4266666666666667,-0.6588888888888889,-0.12062026515151514,-0.12937973484848486,-0.0625
1589987567.7377234,-0.04,-4.514122589614943,8.742061294807472,0.38,0.43333333333333335,-0.6755555555555556,-0.16364927764008946,0.012883092546696487,-0.012883092546696487
1589987567.7477233,-0.043168735093180255,-4.52683126490682,8.715143913975018,0.38,0.43333333333333335,-0.6755555555555556,-0.23328162267049357,0.0625,-0.04269540566762339
1589987567.7577233,-0.044973621694998925,-4.517486810847499,8.652565945762502,0.38,0.43333333333333335,-0.6755555555555556,0.03174459321877024,0.03108513559374325,-0.03141486440625675
1589987567.7677233,-0.02324156916724019,-4.50662078458362,8.706896077081899,0.38,0.43333333333333335,-0.6755555555555556,0.20689951823812802,-0.0625,-0.1038799036476256
1589987567.7777233,-0.011814504119924551,-4.501814504119925,8.74,0.3826209503954466,0.4345430027466164,-0.674144274573392,0.0,-0.03981869850094312,-0.07384065074952845
1589987567.7877233,-0.025297942776069993,-4.51529794277607,8.732053085835895,0.3944444444444444,0.44,-0.6677777777777778,-0.033112142350437454,0.029387857649562546,-0.125
1589987567.7977233,-0.03411438223938224,-4.527057191119691,8.689400337837839,0.3944444444444444,0.44,-0.6677777777777778,-0.1433925555019305,-0.025714888996138996,-0.088214888996139
1589987567.8077233,-0.02037963630841654,-4.519620363691583,8.64113890892525,0.3944444444444444,0.44,-0.6677777777777778,-0.1875,0.060127273072396646,-0.002372726927603356
1589987567.8177233,-0.027062840563300543,-4.5070628405633,8.693497275493595,0.3944444444444444,0.44,-0.6677777777777778,-0.13242826056188522,0.0,-0.11757173943811479
1589987567.8277233,-0.02064471879286694,-4.501289437585734,8.749355281207134,0.39487425697302236,0.4391403749428441,-0.6682792257277854,-0.016117969821673527,0.004029492455418382,-0.23388203017832648
1589987567.8377233,-0.036529017568371756,-4.52,8.743264508784186,0.4011111111111111,0.4266666666666667,-0.6755555555555556,-0.25,0.0625,-0.04080635980232348
1589987567.8477232,-0.04613322640225528,-4.523866773597745,8.703598716827063,0.4011111111111111,0.4266666666666667,-0.6755555555555556,-0.1291633250704773,-0.03416933994361815,-0.14916733498590454
1589987567.8577232,-0.02955983751692532,-4.53,8.650880324966149,0.4011111111111111,0.4266666666666667,-0.6755555555555556,0.040749661493594415,-0.12224898448078325,-0.12224898448078325
1589987567.8677232,-0.012204685266886225,-4.523385944199341,8.698818741067544,0.4011111111111111,0.4266666666666667,-0.6755555555555556,0.013779282918038899,0.0,0.013779282918038899
1589987567.8777232,-0.02285790102162664,-4.500952633673876,8.732857901021626,0.39973508469329083,0.42613742573673585,-0.6755555555555556,0.05654603953827783,0.01190792092344434,0.044638118614833494
1589987567.8877232,-0.04881456165277832,-4.51,8.756443684958334,0.38666666666666666,0.4211111111111111,-0.6755555555555556,-0.0024696632233785184,0.12006067355324296,-0.12253033677662148
1589987567.8977232,-0.02,-4.513805830916897,8.639553352664823,0.38666666666666666,0.4211111111111111,-0.6755555555555556,-0.08628644323060669,-0.023786443230606694,-0.03871355676939331
1589987567.9077232,-0.023476884409966408,-4.52,8.614338190869764,0.38666666666666666,0.4211111111111111,-0.6755555555555556,-0.14673052756229005,-0.04076947243770995,0.06519158268687016
