time,acc_x,acc_y,acc_z,mag_x,mag_y,mag_z,gyr_x,gyr_y,gyr_z
1589987585.4418778,-3.87,-0.76,8.84,0.2966666666666667,-0.38,-0.6311111111111111,-0.0625,-0.0625,0.125
1589987585.4518778,-3.864186365767093,-0.774186365767093,8.944534085582267,0.2966666666666667,-0.38,-0.6311111111111111,-0.125,-0.036335213955668653,-0.19549717906649702
1589987585.4618778,-3.8501426371124357,-0.7601426371124356,8.979643407218912,0.2966666666666667,-0.38,-0.6311111111111111,-0.125,-0.12410851804727784,-0.06383722292908325
1589987585.4718778,-3.8595857948888153,-0.7769428034074566,8.97917158977763,0.26222222222222225,-0.3855555555555555,-0.6233333333333333,0.043392521296603606,-0.1033037393516982,-0.1875
1589987585.4818778,-3.848193286998913,-0.79,8.92771006950163,0.26222222222222225,-0.3855555555555555,-0.6233333333333333,0.125,-0.011291956256793703,-0.11068793438519055
1589987585.4918778,-3.8553506242136844,-0.7853506242136843,8.937896254717895,0.26222222222222225,-0.3855555555555555,-0.6233333333333333,0.1831171973289461,0.03344140133552695,0.0
1589987585.5018778,-3.843380245827643,-0.7733802458276429,8.983239508344715,0.26222222222222225,-0.3855555555555555,-0.6233333333333333,0.29137346357723204,0.020686731788616006,0.020686731788616006
1589987585.5118778,-3.842584193766284,-0.76,9.013146048441572,0.26851431910536416,-0.3799625805483182,-0.6233333333333333,0.27668598620090706,0.10182560551963718,0.10182560551963718
1589987585.5218778,-3.8650211560395893,-0.7550211560395894,9.010042312079179,0.2822222222222222,-0.36777777777777776,-0.6233333333333333,0.03138222524743368,0.09414667574230104,0.15638222524743367
1589987585.5318778,-3.866716354141942,-0.7768654165677664,8.939552812722525,0.2822222222222222,-0.36777777777777776,-0.6233333333333333,0.0,-0.04197721338713506,-0.0009316401614051784
1589987585.5418777,-3.863771548858852,-0.79,8.922456902282295,0.2822222222222222,-0.36777777777777776,-0.6233333333333333,-0.07785563926434744,-0.02357218036782628,0.015355639264347437
1589987585.5518777,-3.8552551214682813,-0.7852551214682812,8.958469271190314,0.2822222222222222,-0.36777777777777776,-0.6233333333333333,-0.0953445091767573,-0.08896647246972812,0.0328445091767573
1589987585.5618777,-3.85,-0.7764929570576152,8.993507042942385,0.28456025085047876,-0.37635054941471846,-0.6260610333996326,0.025176073559620454,-0.20941901838990512,0.0
1589987585.5718777,-3.85,-0.7603453034342167,9.0,0.2888888888888889,-0.3922222222222223,-0.6311111111111111,0.1875,-0.25,0.0
1589987585.5818777,-3.853884073011416,-0.75,8.968927415908675,0.2888888888888889,-0.3922222222222223,-0.6311111111111111,0.28460182528539163,-0.20144908735730419,-0.024275456321347904
1589987585.5918777,-3.8606625779920587,-0.751325155984118,8.922650311968235,0.2888888888888889,-0.3922222222222223,-0.6311111111111111,0.4333588875496313,-0.10843555019852524,-0.05835888754963131
1589987585.6018777,-3.864948935825848,-0.7725255320870762,8.975153192522457,0.2888888888888889,-0.3922222222222223,-0.6311111111111111,0.375,0.14078457554422594,0.0
1589987585.6118777,-3.851371854009873,-0.7793140729950635,9.015884437970382,0.2888888888888889,-0.3922222222222223,-0.6311111111111111,0.375,0.18321295621914704,0.0
1589987585.6218777,-3.8528464784160987,-0.77,9.02007465108731,0.2888888888888889,-0.3744444444444445,-0.6233333333333333,0.4197095098993833,-0.16970950989938333,-0.04470950989938331
1589987585.6318777,-3.86,-0.77,8.926393276574776,0.2888888888888889,-0.3744444444444445,-0.6233333333333333,0.2235877658846396,-0.09471755317692793,0.09084734046921625
1589987585.6418777,-3.8559485705270906,-0.7618971410541815,8.88810285894582,0.2888888888888889,-0.3744444444444445,-0.6233333333333333,-0.03878573682273133,-0.11314286841136567,0.08621426317726867
1589987585.6518776,-3.85,-0.7565278004239361,8.915231534322517,0.2888888888888889,-0.3744444444444445,-0.6233333333333333,-0.2010995842165335,-0.1739004157834665,-0.048900415783466496
1589987585.6618776,-3.85,-0.78,8.98073194614443,0.2871002311981504,-0.3774255405956753,-0.6272087583299333,-0.2667686658506732,-0.057925336597307225,-0.016768665850673194
1589987585.6718776,-3.852193457538995,-0.7821934575389948,9.01,0.2822222222222222,-0.3855555555555555,-0.6377777777777778,-0.285081780762565,0.152418219237435,-0.021372671143847492
1589987585.6818776,-3.855678285094528,-0.7856782850945282,8.971104565850753,0.2822222222222222,-0.3855555555555555,-0.6377777777777778,-0.10646784552240393,0.25,0.1520107181591987
1589987585.6918776,-3.8586091106780764,-0.775695444660962,8.94152277669519,0.2822222222222222,-0.3855555555555555,-0.6377777777777778,0.0,0.25,0.10678958739303566
1589987585.7018776,-3.87,-0.7614870992963253,8.982769351055513,0.2822222222222222,-0.3855555555555555,-0.6377777777777778,-0.07980844409695075,0.25,0.02660281469898358
1589987585.7118776,-3.862274950023066,-0.7422749500230663,8.992274950023067,0.2847972388812001,-0.3834097083397406,-0.632198575016659,-0.11507765646624635,0.15343687528832844,-0.03406312471167154
1589987585.7218776,-3.8555331303319322,-0.7576656516596623,8.946801218008405,0.2888888888888889,-0.38,-0.6233333333333333,-0.17291032287288924,-0.0691641291491557,-0.08375380627626645
1589987585.7318776,-3.854390419217214,-0.7631712576516416,8.869513772954924,0.2888888888888889,-0.38,-0.6233333333333333,-0.4527395195696531,0.05029939946206641,-0.1402395195696531
1589987585.7418776,-3.859385657175492,-0.7687713143509831,8.867542628701967,0.2888888888888889,-0.38,-0.6233333333333333,-0.6211603573468222,0.09950946397976666,-0.22066982132658888
1589987585.7518775,-3.872357356468185,-0.79,8.926501495277293,0.2888888888888889,-0.38,-0.6233333333333333,-0.6875,0.07366738963077014,-0.17276652207384596
1589987585.7618775,-3.8785669025552956,-0.79,8.96996831788707,0.2888888888888889,-0.38,-0.6233333333333333,-0.6875,0.26771570485298907,-0.1339568590294022
1589987585.7718775,-3.8520738012149414,-0.7837785963551764,9.041704795140236,0.27,-0.38,-0.6311111111111111,-0.5731549696264702,0.17453874240661754,-0.0625
1589987585.7818775,-3.8714957528277805,-0.7676638352185203,8.983176576735179,0.27,-0.38,-0.6311111111111111,-0.2792020597684961,0.14894948505787597,-0.038550514942124026
1589987585.7918775,-3.8850284060456644,-0.775028406045664,8.957400578840176,0.27,-0.38,-0.6311111111111111,-0.06285507557080072,0.10981884446350092,0.0
1589987585.8018775,-3.8700418051238077,-0.7600418051238075,9.009853682066673,0.27,-0.38,-0.6311111111111111,0.12447743595240648,-0.12434679494050804,0.0
1589987585.8118775,-3.8518794418122595,-0.7637588836245188,9.001879441812259,0.27355005675649,-0.3789558656598559,-0.6296493230349093,0.11325348867337874,-0.375,-0.11325348867337874
1589987585.8218775,-3.8596420639620965,-0.7792841279241931,9.009642063962096,0.2882127874839602,-0.3746432977988353,-0.6236117280294804,0.06473710023689666,-0.375,-0.06473710023689666
1589987585.8318775,-3.86,-0.7671829923817627,8.946195908581151,0.2888888888888889,-0.3744444444444445,-0.6233333333333333,0.07218110715804943,-0.07218110715804943,-0.044893702386016476
1589987585.8418775,-3.858045897362736,-0.7619541026372642,8.867816410549056,0.2888888888888889,-0.3744444444444445,-0.6233333333333333,-0.050286858517099416,0.07471314148290058,0.0
1589987585.8518775,-3.8536480736055205,-0.7663519263944796,8.90729614721104,0.2888888888888889,-0.3744444444444445,-0.6233333333333333,-0.04560092006900517,0.125,0.022800460034502586
1589987585.8618774,-3.86,-0.7626342403082109,8.926585600770528,0.2899133156754154,-0.37356636434170754,-0.6243577601198598,-0.125,0.14146400192631833,0.037803997110522514
1589987585.8718774,-3.852668026645966,-0.776334013322983,8.984663946708068,0.2966666666666667,-0.36777777777777776,-0.6311111111111111,-0.1708248334627119,0.22708758326864406,-0.0333503330745762
1589987585.8818774,-3.8444844838298287,-0.7722422419149145,8.98533533893594,0.2966666666666667,-0.36777777777777776,-0.6311111111111111,-0.17992994015892222,0.20151401196821556,0.09697197606356889
1589987585.8918774,-3.86,-0.78,8.925748810477224,0.2966666666666667,-0.36777777777777776,-0.6311111111111111,0.11614335516088001,0.30364335516088004,0.0
1589987585.9018774,-3.86,-0.7765296123544859,8.970411162936543,0.2966666666666667,-0.36777777777777776,-0.6311111111111111,0.16581007721553717,0.375,0.0867596911378513
1589987585.9118774,-3.8581752596949244,-0.77,8.988175259694925,0.2952474242071636,-0.3710217605423563,-0.6349633406440481,0.125,0.3407861192798358,0.21578611927983582
1589987585.9218774,-3.85,-0.77,8.98,0.2888888888888889,-0.3855555555555555,-0.6522222222222223,0.0850494752333372,0.19549010495333255,0.07049010495333256
1589987585.9318774,-3.8592893012578315,-0.7792893012578316,8.928908843081926,0.2888888888888889,-0.3855555555555555,-0.6522222222222223,-0.3616743985843417,0.395145332153618,0.15402906643072362
1589987585.9418774,-3.8730375262217387,-0.79,8.888225157330432,0.2888888888888889,-0.3855555555555555,-0.6522222222222223,-0.5814845388858675,0.6764072333152047,0.16851546111413254
1589987585.9518774,-3.8795549685339132,-0.79,8.92732981120348,0.2888888888888889,-0.3855555555555555,-0.6522222222222223,-0.6222185533369591,0.9208113200217543,0.12778144666304095
1589987585.9618773,-3.887348188296698,-0.7586740941483489,8.945303623406604,0.2888888888888889,-0.38319838959706465,-0.6483918275396746,-0.691991618990264,0.8960654421359029,0.3915738231456389
1589987585.9718773,-3.8705086821238583,-0.7502543410619291,8.978982635752283,0.2888888888888889,-0.36822993966565176,-0.6240680964011286,-0.3236274214593998,0.6329481581852856,0.4968207367258858
1589987585.9818773,-3.8342701525054466,-0.6571895424836601,8.938540305010893,0.2888888888888889,-0.36777777777777776,-0.6233333333333333,-0.24087690631808278,0.5979711328976035,1.1074346405228759
1589987585.9918773,-3.818880439948401,-0.7044782402063955,8.916717360309594,0.2888888888888889,-0.36777777777777776,-0.6233333333333333,-0.05550274967750696,0.33301649806504174,1.4869560051598887
1589987586.0018773,-3.806622150882825,-0.74675569823435,8.99026709470305,0.2888888888888889,-0.36777777777777776,-0.6233333333333333,-0.0211115569823435,0.06333467094703049,2.586115569823435
1589987586.0118773,-3.782530885762378,-0.7669876456950487,9.033493822847523,0.2888888888888889,-0.37204800570252977,-0.6190631054085813,-0.0625,0.25300917839108206,2.7816360720297264
1589987586.0218773,-3.8683231881906295,-0.8664669452162294,9.067305351120915,0.2888888888888889,-0.38,-0.6111111111111112,-0.09094307408428598,0.460329222252858,1.6070369997242784
1589987586.0318773,-3.9948704759688116,-0.9019171418596532,8.978963807750494,0.2888888888888889,-0.38,-0.6111111111111112,0.06411905038985222,0.5388601187012685,0.191062492726638
1589987586.0418773,-3.872729648124492,-0.79294758642047,8.821266209886579,0.2888888888888889,-0.38,-0.6111111111111112,0.3013103394882515,0.46315516974412574,-0.09074996128982304
1589987586.0518773,-3.610873889123995,-0.8043689166314008,8.933106749894202,0.2888888888888889,-0.38,-0.6111111111111112,0.07949045175624206,0.3294904517562421,1.4059458315700382
1589987586.0618773,-3.4066115955019556,-0.8280359762059973,9.00214390482399,0.2875795396928872,-0.38,-0.6135115846371143,-0.1629497025749674,0.050224851287483704,2.319245538624511
1589987586.0718772,-3.2580502692998206,-0.8170125673249551,8.966016756433275,0.2822222222222222,-0.38,-0.6233333333333333,-0.0625,0.0,0.8125
1589987586.0818772,-3.023670230107933,-0.8365425468023406,8.943297870514954,0.2822222222222222,-0.38,-0.6233333333333333,-0.3533909175146284,-0.2701129948350121,-0.2056182113011995
1589987586.0918772,-2.7668306096384914,-0.9260382620481143,8.954945395782834,0.2822222222222222,-0.38,-0.6233333333333333,-1.0068304141580005,-0.9363043109964292,-2.7699781061850026
1589987586.1018772,-2.7385520022750187,-0.8560543936299475,8.778289599544996,0.2822222222222222,-0.38,-0.6233333333333333,-2.208030105219617,-2.6315600682505624,-8.919400028437733
1589987586.1118772,-2.7830548940776247,-0.7063961651461265,8.812768517086749,0.28052505884576395,-0.3820365960517499,-0.6212967372815834,-4.812351167465595,-4.104117055821865,-9.112917504252358
1589987586.1218772,-2.397182787361892,-0.8226315177359953,9.223498352393875,0.2766666666666667,-0.38666666666666666,-0.6166666666666667,-2.149382147703043,-0.02167328939717006,-6.816950959488273
1589987586.1318772,-1.748338932689548,-1.0652519710296624,9.409447605220063,0.2766666666666667,-0.38666666666666666,-0.6166666666666667,5.798758715580842,7.58326334138065,-3.824351501696689
1589987586.1418772,-1.741257913662992,-0.746606114834636,8.00032481893539,0.2766666666666667,-0.38666666666666666,-0.6166666666666667,10.003113762598552,7.671776079212601,-2.0098403761416774
1589987586.1518772,-1.9684850285171103,-0.6884850285171102,8.337082937262357,0.2766666666666667,-0.38666666666666666,-0.6166666666666667,-3.642607830323194,-1.8799830679657794,-2.875
1589987586.1618772,-2.211971899381657,-0.8941869273851533,9.464775810158956,0.28021909993129523,-0.38311423340203815,-0.6166666666666667,-3.08242214056784,-3.0642562886464435,-2.2573610346725372
1589987586.1718771,-2.292281704900107,-0.8640280656992505,9.206787935394217,0.2888888888888889,-0.3744444444444445,-0.6166666666666667,1.1082704968448869,1.2135524637218944,-0.835563933754015
1589987586.1818771,-2.297059138437706,-0.8305860309360549,8.948806524363851,0.2888888888888889,-0.3744444444444445,-0.6166666666666667,-0.2353826856049388,-0.04052383989794306,-1.014717691413992
1589987586.1918771,-2.3,-0.8290845606262999,8.896328266346528,0.2888888888888889,-0.3744444444444445,-0.6166666666666667,-0.9773010686325899,-0.829539786273482,-1.125
1589987586.201877,-2.3,-0.8787288006628228,9.17291760369287,0.2888888888888889,-0.3744444444444445,-0.6166666666666667,-0.75567499704097,-0.873865000591806,-1.125
1589987586.211877,-2.33,-0.8518318798228391,8.898092781151545,0.2896012865977708,-0.376072782064746,-0.6172772932742797,0.908406008858043,0.9713768777681384,-0.9379708689100954
1589987586.221877,-2.333006395397548,-0.8724051163180384,8.790221744351662,0.2966666666666667,-0.3922222222222223,-0.6233333333333333,-0.04885392521015444,0.6273720920490407,-1.6414178791856342
1589987586.231877,-2.36929788772401,-0.9035787326344058,8.913612818261631,0.2966666666666667,-0.3922222222222223,-0.6233333333333333,-0.6519683158601456,-0.17872359655012135,-3.075664605174818
1589987586.241877,-2.3095428684314503,-0.8754539707625445,8.777726985381271,0.2966666666666667,-0.3922222222222223,-0.6233333333333333,0.03694438956934018,0.3409126827340972,-4.054007803239826
1589987586.251877,-2.2452489737226617,-0.8613122434306654,8.785746921167984,0.2966666666666667,-0.3922222222222223,-0.6233333333333333,0.3585969571166825,0.41699619639585317,-4.981619778741564
1589987586.261877,-2.324005809028198,-0.8784978216144258,9.012002904514098,0.29594339559213095,-0.39161022362069203,-0.6234446058063388,0.15316584472951714,0.14377722981967808,-6.600145225704949
1589987586.271877,-2.3874245284893774,-0.8520959119184371,9.041616352326253,0.2822222222222222,-0.38,-0.6255555555555555,0.6875,0.6047955959218554,-9.03707742909951
1589987586.281877,-2.3431371869312763,-0.8625097495450212,9.00874512522749,0.2822222222222222,-0.38,-0.6255555555555555,0.6953429673281913,0.9843140653436173,-11.219359346563827
1589987586.291877,-2.39,-0.9019246200607903,8.98807537993921,0.2822222222222222,-0.38,-0.6255555555555555,0.7643844984802431,0.8943465045592706,-14.139886018237082
1589987586.301877,-2.388255464708827,-0.9103489070582347,8.980348907058236,0.2822222222222222,-0.38,-0.6255555555555555,0.5625,1.493457992658101,-16.66281077924245
1589987586.311877,-2.353262139162356,-0.9173475721675288,8.987347572167529,0.2822222222222222,-0.38,-0.6255555555555555,0.5625,1.3622330218588354,-18.674926998164526
1589987586.321877,-2.377398327291001,-0.9386991636455005,8.99934958182275,0.29572717374397267,-0.38,-0.6369828222278059,0.6209348863921892,1.838413977529703,-22.242374546825083
1589987586.331877,-2.38,-0.9146102745792737,8.966147032772366,0.2966666666666667,-0.38,-0.6377777777777778,0.5192094774136404,2.086581045172719,-25.29384410983171
1589987586.341877,-2.408406791790001,-0.92,8.804338873889991,0.2966666666666667,-0.38,-0.6377777777777778,0.5298726539374817,2.115042448687506,-29.620122873499657
1589987586.351877,-2.401585238916176,-0.92,8.865732849754416,0.2966666666666667,-0.38,-0.6377777777777778,0.6577767703216992,2.0724077432261003,-32.00766637933839
1589987586.361877,-2.3900145768073693,-0.929985423192631,8.939912539155785,0.2966666666666667,-0.38,-0.6377777777777778,0.8747266848618305,2.3745444747697175,-36.182215907328725
1589987586.371877,-2.514238235361208,-0.910886425329045,8.997340724012865,0.31471837607812425,-0.3916805178544726,-0.6377777777777778,1.3528393667738772,2.6139196833869387,-39.592105488263876
1589987586.381877,-2.5017937673716566,-0.9343501389732546,9.015649861026745,0.31555555555555553,-0.3922222222222223,-0.6377777777777778,1.6362110460728552,3.0560552303642754,-44.05410753400703
1589987586.391877,-2.5095142378559463,-0.9961139028475712,8.953886097152427,0.31555555555555553,-0.3922222222222223,-0.6377777777777778,1.684463986599665,3.2973199329983247,-46.70801926298157
1589987586.401877,-2.511340751485989,-0.9893852604019246,8.919385260401924,0.31555555555555553,-0.3922222222222223,-0.6377777777777778,1.8079624257005378,3.6166203032125672,-50.756623929733934
1589987586.411877,-2.5187606142088876,-1.0413242994622134,8.971324299462214,0.31555555555555553,-0.3922222222222223,-0.6377777777777778,1.4369692895556185,3.5702461611944525,-53.21445345669403
1589987586.421877,-2.5119619166851765,-1.04,8.99,0.33555555555555555,-0.3744444444444445,-0.6522222222222223,1.375,3.9363098964117684,-57.35202708842356
1589987586.431877,-2.5210878810257453,-1.0427197025643637,8.9840166543584,0.33555555555555555,-0.3744444444444445,-0.6522222222222223,1.3885985128218188,4.2044981410272735,-59.70868401283455
1589987586.441877,-2.542866507747318,-1.0938220103297578,8.88095550258244,0.33555555555555555,-0.3744444444444445,-0.6522222222222223,1.6488875645609853,4.511943782280492,-62.464988081048865
1589987586.4518769,-2.567862336114422,-1.1271497814858957,8.889287445371474,0.33555555555555555,-0.3744444444444445,-0.6522222222222223,1.8571861342868494,4.616093067143424,-64.33967520858164
1589987586.4618769,-2.57,-1.1397498729028976,8.89,0.33555555555555555,-0.3744444444444445,-0.6522222222222223,2.057810116929334,4.503126588713777,-66.75465810879513
1589987586.4718769,-2.5945991547357727,-1.1880485207876028,8.947700422632114,0.3555555555555556,-0.3533333333333333,-0.6755555555555556,2.3965585378239362,4.612803254922517,-68.70121301969007
1589987586.4818769,-2.622082036497068,-1.2361435638698686,8.933958981751466,0.3555555555555556,-0.3533333333333333,-0.6755555555555556,2.525384546080005,4.9133972741866785,-69.90358909674671
1589987586.4918768,-2.6512600516414606,-1.2325201032829214,8.913780154924382,0.3555555555555556,-0.3533333333333333,-0.6755555555555556,2.484249354481741,4.945375322759129,-72.23575710070085
1589987586.5018768,-2.6512972385132247,-1.2537297549229036,8.943729754922904,0.3555555555555556,-0.3533333333333333,-0.6755555555555556,2.3827703227560493,5.023310968268148,-73.62398774614518
1589987586.5118768,-2.59428069289626,-1.2781654173301744,8.968165417330175,0.3555555555555556,-0.3533333333333333,-0.6755555555555556,2.4336779527711965,5.17603385831359,-74.84577086650872
1589987586.5218768,-2.6063498383847845,-1.3473003232304306,8.956349838384785,0.3888888888888889,-0.3333333333333333,-0.6677777777777778,2.153279734857357,5.340779734857357,-76.60313510095095
1589987586.5318768,-2.5869328948228167,-1.3815335525885915,8.932332237057043,0.3888888888888889,-0.3333333333333333,-0.6677777777777778,2.05750822207218,5.197084703678697,-77.80710936989523
1589987586.5418768,-2.5738085671056874,-1.3938085671056872,8.887714859736588,0.3888888888888889,-0.3333333333333333,-0.6677777777777778,2.3845214177642187,5.2785642532926556,-78.90295346876007
1589987586.5518768,-2.617167296558379,-1.447553875844323,8.863776937922161,0.3888888888888889,-0.3333333333333333,-0.6677777777777778,2.4940985344966227,5.589591206979736,-80.14163517208105
1589987586.5618768,-2.591871984560952,-1.5150080411707945,8.897504020585398,0.3888888888888889,-0.3333333333333333,-0.6677777777777778,2.441399967835317,5.273399807011901,-81.40640077195239
1589987586.5718768,-2.61,-1.5353679109170952,8.937316044541452,0.4011111111111111,-0.3144444444444445,-0.6822222222222222,2.8087115256557285,5.612824164847767,-83.27218402019903
1589987586.5818768,-2.61,-1.566401169028153,8.921799415485923,0.4011111111111111,-0.3144444444444445,-0.6822222222222222,3.148137786245422,5.903760959638933,-84.48442066516222
1589987586.5918767,-2.613188231388497,-1.676376462776994,8.884250975184663,0.4011111111111111,-0.3144444444444445,-0.6822222222222222,2.839068594904141,5.8457107436301765,-86.65004875923313
1589987586.6018767,-2.6392959996680223,-1.7285919993360446,8.919061332890696,0.4011111111111111,-0.3144444444444445,-0.6822222222222222,3.056633330566852,6.117666663208565,-88.39056664453481
1589987586.6118767,-2.6490753835890595,-1.7118492328218813,8.910924616410941,0.4011111111111111,-0.3144444444444445,-0.6822222222222222,3.119221147431621,6.351884589726485,-89.96897098065376
1589987586.6218767,-2.614562719812427,-1.8074525205158265,8.954296600234468,0.4424546046632799,-0.27310095089227565,-0.7137220268333985,2.682033997655334,6.264258499413834,-92.00760550996483
1589987586.6318767,-2.546696460211836,-1.854129424735205,8.873392920423672,0.4477777777777778,-0.2677777777777778,-0.7177777777777777,2.6875,6.645647123676024,-94.16001520848918
1589987586.6418767,-2.513666574792298,-1.895416781509627,8.807333149584597,0.4477777777777778,-0.2677777777777778,-0.7177777777777777,2.6875,6.852083907548136,-95.75990028349806
1589987586.6518767,-2.490298878106342,-1.9328352031560965,8.826268162524878,0.4477777777777778,-0.2677777777777778,-0.7177777777777777,2.605411992109759,6.833955996054879,-96.96360009862802
1589987586.6618767,-2.48,-1.9979739306955373,8.847995655115923,0.4477777777777778,-0.2677777777777778,-0.7177777777777777,3.012255600270665,7.262255600270665,-98.94921248976104
1589987586.6718767,-2.4590627282161663,-2.0379163623784446,8.863958181189222,0.4477777777777778,-0.2359841428467711,-0.7340623224985373,3.21223863243264,7.593096581081601,-100.35936358919169
1589987586.6818767,-2.475908776551951,-2.1018175531039023,8.921817553103903,0.4477777777777778,-0.2222222222222222,-0.7411111111111112,3.0880701465503044,7.7414766178165655,-102.05396220978099
1589987586.6918766,-2.428861919025993,-2.1319163204174316,8.827723838051986,0.4477777777777778,-0.2222222222222222,-0.7411111111111112,3.3364540052178953,7.978295004348246,-103.34581602087158
1589987586.7018766,-2.390081098385146,-2.2097161556519884,8.839797254037135,0.4477777777777778,-0.2222222222222222,-0.7411111111111112,3.3752534324535817,8.0625,-105.24391762111404
1589987586.7118766,-2.373684446611409,-2.2507888834714773,8.880788883471478,0.4477777777777778,-0.2222222222222222,-0.7411111111111112,3.1200694783032668,8.0625,-106.47366650414432
1589987586.7218766,-2.34,-2.2797195166605637,8.913057488099597,0.4811111111111111,-0.16111111111111112,-0.7466666666666667,2.9375,8.142356279751008,-108.26126418894178
1589987586.7318766,-2.34,-2.3872262907359945,8.836266935188576,0.4811111111111111,-0.16111111111111112,-0.7466666666666667,2.9375,8.334332662028562,-109.07716381362138
1589987586.7418766,-2.3273191353593363,-2.392680864640664,8.760670216160166,0.4811111111111111,-0.16111111111111112,-0.7466666666666667,2.8125,8.529321957007259,-110.71715472202281
1589987586.7518766,-2.2938637632607484,-2.426136236739252,8.769034059184813,0.4811111111111111,-0.16111111111111112,-0.7466666666666667,2.8125,8.895240089335566,-111.86718313791178
1589987586.7618766,-2.3072421165152326,-2.4558631747728485,8.778621058257615,0.4811111111111111,-0.16111111111111112,-0.7466666666666667,2.8125,9.206908070550508,-112.70046098343133
1589987586.7718766,-2.2278791115858816,-2.5591516446343525,8.819575822317177,0.5155555555555555,-0.15777777777777774,-0.7977777777777778,2.682197778964704,9.247348889482351,-113.72196443672942
1589987586.7818766,-2.1812073263007967,-2.540482930520319,8.81024146526016,0.5155555555555555,-0.15777777777777774,-0.7977777777777778,2.5655183157519916,9.189009157875995,-114.48038094761205
1589987586.7918766,-2.2259221954435904,-2.5848933654676913,8.72592219544359,0.5155555555555555,-0.15777777777777774,-0.7977777777777778,2.7194164658269293,9.9375,-114.8125
1589987586.8018765,-2.1790791378318892,-2.642455632448296,8.683376494616406,0.5155555555555555,-0.15777777777777774,-0.7977777777777778,2.369244611449307,9.933663074299538,-114.8125
1589987586.8118765,-2.1541284130792566,-2.7089908984553155,8.774862485376058,0.5155555555555555,-0.15777777777777774,-0.7977777777777778,2.213302581745355,9.82970172116357,-114.8125
1589987586.8218765,-2.17,-2.82,8.84,0.5288888888888889,-0.17777777777777778,-0.8122222222222222,1.8125,9.5625,-115.0625
1589987586.8318765,-2.17,-2.7978315963454388,8.997641981543547,0.5288888888888889,-0.17777777777777778,-0.8122222222222222,1.6431580276387678,9.316184403838207,-115.0625
1589987586.8418765,-2.0880817082201926,-2.7804112564798817,9.996715378918786,0.5288888888888889,-0.17777777777777778,-0.8122222222222222,-2.3801576771167614,4.58473679338435,-115.45633794124907
1589987586.8518765,-1.8718893234736909,-2.5269275194035323,9.052232781274828,0.5288888888888889,-0.17777777777777778,-0.8122222222222222,1.8943233209069241,14.138477433844649,-111.96063909429812
1589987586.8618765,-1.9295631913463303,-2.7383983682698774,8.815129102242865,0.5288888888888889,-0.17777777777777778,-0.8122222222222222,6.299966005622441,10.734117177473568,-110.75910018028479
1589987586.8718765,-1.994670283988973,-2.8933378549862163,8.872018990942108,0.536593396441994,-0.20089130043709313,-0.8690429654263724,1.3117369710760078,9.912601737189865,-109.74579376887061
1589987586.8818765,-2.0,-3.004226147535915,9.03629573139312,0.5377777777777778,-0.20444444444444448,-0.8777777777777778,1.4402181194220582,6.855541614279531,-109.1363040274543
1589987586.8918765,-1.88,-2.904196200219218,8.49153955060285,0.5377777777777778,-0.20444444444444448,-0.8777777777777778,2.0559434371574716,8.42787780873219,-107.36537780873219
1589987586.9018764,-1.8804593741027849,-2.9815618719494688,8.70146999712891,0.5377777777777778,-0.20444444444444448,-0.8777777777777778,1.9409453057708872,7.130742176284812,-106.04240238300316
1589987586.9118764,-1.923467249087404,-3.127788646897174,8.839095197079693,0.5377777777777778,-0.20444444444444448,-0.8777777777777778,2.263504368155531,7.668340613592552,-104.16080785242607
1589987586.9218764,-1.9005074065885474,-3.140169135529516,8.850169135529516,0.4503923158179183,-0.16949025966050066,-0.7062838086815536,2.4353858058810522,7.197013873535264,-102.15459871766527
1589987586.9318764,-1.8332278612476633,-3.1495388769646193,8.745072353389185,0.4488888888888889,-0.1688888888888889,-0.7033333333333334,2.2586460569133835,6.233612303538046,-100.39607855016271
1589987586.9418764,-1.7274191063174114,-3.0753957136853898,8.497536069477519,0.4488888888888889,-0.1688888888888889,-0.7033333333333334,2.25,6.304069197366578,-98.2142544474016
1589987586.9518764,-1.7573606294693038,-3.1914220457752376,8.52670078683663,0.4488888888888889,-0.1688888888888889,-0.7033333333333334,2.600255901274723,6.429251967091575,-95.90258860880587
1589987586.9618764,-1.728782042344693,-3.22341346824148,8.631458362379748,0.4488888888888889,-0.1688888888888889,-0.7033333333333334,2.1372194116358276,6.242387764654331,-93.89643376421614
1589987586.9718764,-1.7891872121376322,-3.359414792739095,9.00925223516662,0.4866666666666667,-0.06,-0.6466666666666666,2.5659543484150635,5.568799105933351,-90.92774654565159
1589987586.9818764,-1.54,-3.18,8.78,0.4866666666666667,-0.06,-0.6466666666666666,3.625,7.5,-87.9375
1589987586.9918764,-1.4658331594541585,-3.078508533989901,8.31157784918416,0.4866666666666667,-0.06,-0.6466666666666666,4.356909610649752,8.329497558736385,-86.54687173976548
1589987587.0018764,-1.4587944971242035,-3.1079177677599876,8.44541077257889,0.4866666666666667,-0.06,-0.6466666666666666,2.0383569096844396,4.772518168039794,-84.59135269314473
1589987587.0118763,-1.5547341024198087,-3.2847341024198085,9.33508863252673,0.4866666666666667,-0.06,-0.6466666666666666,-0.29144977490151946,1.7207371975239167,-82.93606675576815
1589987587.0218763,-1.5547728470538633,-3.3487885176206036,9.14302870594849,0.4987038013031478,-0.016775743805363286,-0.6362709594806147,2.6600523523418014,5.039784705386318,-79.09373353009381
1589987587.0318763,-1.5125277986790402,-3.3955166792074243,8.945747220132095,0.5111111111111111,0.027777777777777776,-0.6255555555555555,2.416632702115208,4.550972953766408,-75.9583163510576
1589987587.0418763,-1.5038747500098035,-3.386937375004902,8.83990706246814,0.5111111111111111,0.027777777777777776,-0.6255555555555555,2.198232422257951,4.703308203599859,-72.2234593741422
1589987587.0518763,-1.5018234775692698,-3.471765224307302,8.81182347756927,0.5111111111111111,0.027777777777777776,-0.6255555555555555,2.0286738784634895,4.182347756926979,-69.23454327078093
1589987587.0618763,-1.4929857660943755,-3.5180569356224973,8.859099637339371,0.5111111111111111,0.027777777777777776,-0.6255555555555555,1.7621441523593904,3.342415571347714,-66.62706879022284
1589987587.0718763,-1.44425646106845,-3.514752153689483,8.681777997963284,0.5034871879558528,0.08792206044703775,-0.6187787349731038,2.640490394407288,3.396046638042551,-63.17692593510032
1589987587.0818763,-1.4542689916456188,-3.5585379832912376,8.9193175636293,0.5011111111111111,0.10666666666666667,-0.6166666666666667,2.583577205168059,3.2977584029531766,-60.04922163396153
1589987587.0918763,-1.4276281853373547,-3.5619070463343387,8.828140926686773,0.5011111111111111,0.10666666666666667,-0.6166666666666667,2.4494190395896167,3.1994190395896167,-56.768628137839315
1589987587.1018763,-1.3386602067493345,-3.470526227424268,8.700526227424268,0.5011111111111111,0.10666666666666667,-0.6166666666666667,2.488337370781666,3.238337370781666,-53.37978197779004
1589987587.1118762,-1.3269632301985244,-3.45,8.756595532183766,0.5011111111111111,0.10666666666666667,-0.6166666666666667,2.282399056296115,2.945358678814561,-50.4869501854796
1589987587.1218762,-1.3208396843139247,-3.486641262744301,8.909084103918978,0.5265564324613201,0.14839699368100956,-0.6298982337687753,1.8439881617721776,2.5834921078481186,-46.4083934559496
1589987587.1318762,-1.3476882059917212,-3.5822940199724034,8.892311794008279,0.5288888888888889,0.15222222222222226,-0.6311111111111111,2.043235049931009,2.6778675249655044,-43.06776058841413
1589987587.1418762,-1.3179502435990464,-3.533912926298331,8.761800974396186,0.5288888888888889,0.15222222222222226,-0.6311111111111111,1.0609451124701978,1.9864115787291388,-40.3086127811755
1589987587.1518762,-1.3267643325302454,-3.5870573301209814,8.713235667469755,0.5288888888888889,0.15222222222222226,-0.6311111111111111,1.5459395481982332,1.96966561747105,-36.387022033107954
1589987587.1618762,-1.3035585060089254,-3.580168879506694,8.782714108475455,0.5288888888888889,0.15222222222222226,-0.6311111111111111,1.3569813251115679,1.710796159472622,-33.436369275780976
1589987587.1718762,-1.29,-3.5547845257635737,8.82,0.5398778425040857,0.17842665007384523,-0.6311111111111111,1.3301450709664961,1.467403286022336,-29.064260081748255
1589987587.1818762,-1.2771245756072083,-3.5886262731783756,8.78781143901802,0.5433333333333333,0.18666666666666668,-0.6311111111111111,1.2140571950901018,1.2363214938626272,-25.406943718986682
1589987587.1918762,-1.2848395687191478,-3.602580215640426,8.725481293842558,0.5433333333333333,0.18666666666666668,-0.6311111111111111,1.125,1.032252695505326,-20.876838951675758
1589987587.2018762,-1.257149310336498,-3.698552068990507,8.759276034495253,0.5433333333333333,0.18666666666666668,-0.6311111111111111,1.125,0.8973415948015557,-16.21945581805445
1589987587.2118762,-1.24322679947452,-3.652267994745201,8.74968039842356,0.5433333333333333,0.18666666666666668,-0.6311111111111111,0.871004980294504,0.5363399737260054,-12.431892266818299
1589987587.2218761,-1.2346528753960095,-3.6146528753960094,8.788124121435915,0.5653159567052943,0.19617266596264984,-0.6394288604950963,0.5160632985754149,0.2747414136751778,-8.69405251452909
1589987587.2318761,-1.2521890435563539,-3.6543780871127076,8.778225565035175,0.5844444444444444,0.20444444444444448,-0.6466666666666666,0.22004565184852565,0.0488184777727885,-3.8214152073042955
1589987587.2418761,-1.2361985214078375,-3.6779338261973877,8.720330869013063,0.5844444444444444,0.20444444444444448,-0.6466666666666666,0.13791358626632802,-0.3471048961357039,0.2618576514876634
1589987587.251876,-1.2539352628125684,-3.687978420937523,8.678086316249908,0.5844444444444444,0.20444444444444448,-0.6466666666666666,0.17486513085951738,-0.5372302617190348,4.204003244149595
1589987587.261876,-1.2361781115499744,-3.713821888450026,8.789109442250128,0.5844444444444444,0.20444444444444448,-0.6466666666666666,-0.11027360562532101,-1.0091604084379815,7.196080341486743
1589987587.271876,-1.265780457612906,-3.630809008505371,8.87,0.7158513135185259,0.24344261204062345,-0.6788825442461188,-0.4078759533602204,-1.2648120233198898,11.453402647446392
1589987587.281876,-1.2632641583974344,-3.5748962375961515,8.727745346378192,0.7566666666666667,0.25555555555555554,-0.6888888888888889,-0.542099010016035,-1.563797030048105,15.241272280448978
1589987587.291876,-1.26,-3.57,8.707480399297374,0.7566666666666667,0.25555555555555554,-0.6888888888888889,-0.7027574868257572,-1.437990017565657,18.383887258472217
1589987587.301876,-1.2381566186581747,-3.599124508455767,8.688156618658175,0.7566666666666667,0.25555555555555554,-0.6888888888888889,-0.5679718221514559,-1.420507044462136,21.98042266772816
1589987587.311876,-1.2518583868990778,-3.5968849678605532,8.75869019283668,0.7566666666666667,0.25555555555555554,-0.6888888888888889,-0.827875803486168,-1.8746677379815573,24.5574100665593
1589987587.321876,-1.2832641383898868,-3.571295630960302,8.850207584830338,0.8398417486015622,0.26425992459525394,-0.7677117863039353,-1.25,-2.4034985584386783,26.977317587048127
1589987587.331876,-1.31,-3.541586626911121,8.83237994036668,1.5211111111111106,0.33555555555555555,-1.413333333333333,-1.5532358212269237,-2.4282358212269237,32.714247763750556
1589987587.341876,-1.37222016544224,-3.634664198530688,8.748003702203969,1.5211111111111106,0.33555555555555555,-1.413333333333333,-1.4541743795916007,-2.6013876034014,35.772155376872796
1589987587.351876,-1.415945413917855,-3.697836241753565,8.72756331134284,1.5211111111111106,0.33555555555555555,-1.413333333333333,-1.2010234890402214,-2.773635347946372,38.78362417535646
1589987587.361876,-1.42,-3.692618045308567,8.765793984897144,1.5211111111111106,0.33555555555555555,-1.413333333333333,-0.9801503775713913,-3.128486839250065,41.62955825232185
1589987587.371876,-1.4062077398055877,-3.6248309592223515,8.788389680259217,1.1819236752189002,0.08116497863639766,-1.1466829695746978,-0.9899355016201015,-3.369967750810051,43.87565338998594
1589987587.381876,-1.4091400694559284,-3.5408599305440713,8.765339837936168,0.7833333333333333,-0.21777777777777774,-0.8333333333333334,-1.2845005787994046,-3.597000578799405,46.401004630395235
1589987587.391876,-1.414741987103316,-3.4879358968265284,8.718967948413264,0.7833333333333333,-0.21777777777777774,-0.8333333333333334,-1.2435496775829016,-3.6546374193957254,47.946564515106864
1589987587.401876,-1.4281898020214254,-3.504569406064277,8.722737252526782,0.7833333333333333,-0.21777777777777774,-0.8333333333333334,-1.23868626263391,-3.73868626263391,49.540146969754325
1589987587.411876,-1.4636755942527975,-3.57,8.791026782758392,0.7833333333333333,-0.21777777777777774,-0.8333333333333334,-1.3465091786400052,-3.9319816427199896,51.27477053399987
1589987587.421876,-1.4763331311906205,-3.606668688093794,8.83633313119062,0.7128479662197067,-0.10206769534847156,-0.7803674505311862,-1.4041717202344854,-4.045835860117243,52.69794825146553
1589987587.431876,-1.47,-3.657545971563981,8.780183886255925,0.5911111111111111,0.09777777777777777,-0.6888888888888889,-1.5235811611374408,-4.125,54.426957938388625
1589987587.441876,-1.4422516662223406,-3.6708112503332444,8.770811250333244,0.5911111111111111,0.09777777777777777,-0.6888888888888889,-1.5867135430551853,-4.298427086110371,55.22185417222074
1589987587.451876,-1.4352177637665764,-3.6695644724668472,8.78,0.5911111111111111,0.09777777777777777,-0.6888888888888889,-1.4945559058355893,-4.146722835212281,55.30977795291779
1589987587.461876,-1.4430853637083296,-3.6384024540416924,8.786170727416659,0.5911111111111111,0.09777777777777777,-0.6888888888888889,-1.471417615885302,-4.053201139062362,54.84504601328173
1589987587.471876,-1.4541553198226724,-3.59,8.779223400886638,0.5832621736682851,0.1199394834986982,-0.7045867637745409,-1.5836170044331856,-4.104734008866371,53.15837753324889
1589987587.481876,-1.4533193215339233,-3.54991592920354,8.68987389380531,0.5722222222222222,0.1511111111111111,-0.7266666666666667,-1.5627627212389381,-3.7707457595870206,50.14180494100295
1589987587.491876,-1.4752670857117474,-3.567900628567621,8.716850942851432,0.5722222222222222,0.1511111111111111,-0.7266666666666667,-1.269681607178553,-3.4736412500277636,47.29246857161895
1589987587.5018759,-1.502967887093475,-3.6094518306402126,8.743516056453263,0.5722222222222222,0.1511111111111111,-0.7266666666666667,-1.1840739415013295,-3.39354929433422,44.039693700143175
1589987587.5118759,-1.4932796900021748,-3.5921328166702913,8.767867183329708,0.5722222222222222,0.1511111111111111,-0.7266666666666667,-0.9713281667029121,-3.0891602083786402,40.750127271109704
1589987587.5218759,-1.4759075306626481,-3.6354795093976304,8.802277408012054,0.5699486281459156,0.12610157627173826,-0.741217668755029,-0.7755779333584495,-2.7357661999246514,37.50224606513458
1589987587.5318758,-1.454152033271719,-3.7194346888478127,8.82,0.5666666666666667,0.09,-0.7622222222222222,-0.614400415896488,-2.426900415896488,32.90582158810844
1589987587.5418758,-1.4504069115379223,-3.7256103673068837,8.783575809617272,0.5666666666666667,0.09,-0.7622222222222222,-0.24237040866395626,-1.8597408173279124,28.015642524183374
1589987587.5518758,-1.3995979274611399,-3.614162348877375,8.92113920552677,0.5666666666666667,0.09,-0.7622222222222222,0.25209412780656304,-1.6887564766839378,22.228639896373057
1589987587.5618758,-1.245684314784801,-3.410576265081938,8.802088960922024,0.5666666666666667,0.09,-0.7622222222222222,0.5625,-1.4406514496668468,15.649761390239512
1589987587.5718758,-14.154410848527641,-9.483872990821116,-1.7483901648876543,0.5086112610928826,0.0674228978324173,-0.686105134914372,-4.299640216804419,7.055187523362546,6.6722364704905095
1589987587.5818758,-14.503665235241375,-9.158884903968666,-5.677461658251144,0.4666666666666667,0.05111111111111112,-0.6311111111111111,-18.777611957906657,-42.88975567457883,-147.1612034590156
1589987587.5918758,-2.588377613137652,-2.87465928932094,-1.0904717804728428,0.4666666666666667,0.05111111111111112,-0.6311111111111111,-33.220197401019306,-116.33973517649002,-344.5328957458355
1589987587.6018758,0.23262806901482092,-1.2729537233645258,0.06704627663547413,0.4666666666666667,0.05111111111111112,-0.6311111111111111,-40.55194250898964,-107.02305495683906,-388.38148681163904
1589987587.6118758,-0.17015791888517806,-1.331133921616748,0.008866078383252068,0.4666666666666667,0.05111111111111112,-0.6311111111111111,-45.36299736446185,-68.36678861810304,-377.8083546292641
1589987587.6218758,-0.12061364172763747,-1.003733773896625,0.044127920698607506,0.50150158655233,0.16749141163821363,-0.6524870846773135,-48.64066556525844,-47.3616355912202,-362.5870456691055
1589987587.6318758,-0.5334531805610431,-0.6326135914658239,-1.1769577242196758,0.5155555555555555,0.21444444444444444,-0.6611111111111111,-35.38432190833663,-26.63700118530225,-348.15590428684317
1589987587.6418757,0.1721885800515991,-1.7395847734021321,3.171860487757387,0.5155555555555555,0.21444444444444444,-0.6611111111111111,50.34908788881857,80.3615282578007,-331.49992089762935
1589987587.6518757,0.37412585144339927,-2.0495199481024975,4.6583749594550765,0.5155555555555555,0.21444444444444444,-0.6611111111111111,87.3713712293221,124.44372364579955,-322.82512974375607
1589987587.6618757,-0.3963916167664671,-1.0828131736526947,2.11185628742515,0.5155555555555555,0.21444444444444444,-0.6611111111111111,111.05789670658683,171.68021706586828,-298.2346332335329
1589987587.6718757,-1.3599321319018403,-0.5082059049079755,2.752163726993865,0.4525421353101568,0.27481024199045667,-0.6499910957736877,52.56077214340491,167.99087183665642,-254.55903470092025
1589987587.6818757,-1.50370571590266,-0.4742687040181098,4.6824665534804755,0.38333333333333336,0.3411111111111111,-0.6377777777777778,-10.281576117713637,64.7314417091115,-203.41702178834183
1589987587.6918757,0.26491387843991276,-0.3635507820233617,11.213487428232034,0.38333333333333336,0.3411111111111111,-0.6377777777777778,14.929147693526033,-3.6278521579885137,-176.25149104137793
1589987587.7018757,1.001978284607619,-1.2867126109977955,10.974006634114183,0.38333333333333336,0.3411111111111111,-0.6377777777777778,25.535827049467418,-53.58700707707522,-156.58519273955952
1589987587.7118757,0.9333198027494569,-2.059928964434649,8.419391123725562,0.38333333333333336,0.3411111111111111,-0.6377777777777778,15.883435473385447,-63.82543862083182,-139.94555492571394
1589987587.7218757,0.9599219877273376,-2.1995904355685227,9.61648944773019,0.38333333333333336,0.3411111111111111,-0.6377777777777778,-0.701364223762031,-38.38709923573343,-124.10894168106934
1589987587.7318757,0.7691084642141879,-1.8419175714135132,7.982943607041213,0.3588888888888889,0.3888888888888889,-0.6266666666666667,2.9419152524507224,46.36569647939285,-90.4788684515653
1589987587.7418756,-0.07488160636484181,-2.1682830081454822,8.302757719265012,0.3588888888888889,0.3888888888888889,-0.6266666666666667,-8.575021310854329,46.6053892782724,-74.15695444212919
1589987587.7518756,0.37668532390888954,-2.535572146033786,8.86678796692426,0.3588888888888889,0.3888888888888889,-0.6266666666666667,-1.9487524730710053,0.03572002299744703,-65.12039416947088
1589987587.7618756,0.3095737765809268,-2.081081808895905,6.724179589562634,0.3588888888888889,0.3888888888888889,-0.6266666666666667,9.226129399201412,-13.211991596248492,-55.12367095366329
1589987587.7718756,0.22839804041641154,-2.802083894672382,9.620745254133496,0.3380023814383888,0.40649908144519287,-0.6287143634755392,-3.8000612369871405,9.396390845070423,-34.418145284751986
1589987587.7818756,0.10966942148760331,-2.9133574380165292,9.421952479338842,0.3022222222222222,0.43666666666666665,-0.6322222222222222,-2.2735666322314048,7.361699380165289,-18.179106404958677
1589987587.7918756,0.04199683798434049,-2.719910409556314,8.677586829953825,0.3022222222222222,0.43666666666666665,-0.6322222222222222,1.036847834270227,0.8637713937964264,1.8645618977113028
1589987587.8018756,0.02360747204129286,-2.840262013026914,8.458823399287207,0.3022222222222222,0.43666666666666665,-0.6322222222222222,-1.2377335012904018,-0.30549496128794384,19.835638134447585
1589987587.8118756,-0.0021826287871391827,-3.0600712681831492,9.153452113638583,0.3022222222222222,0.43666666666666665,-0.6322222222222222,-1.26364142991962,-2.9665645644179763,33.68688779328973
1589987587.8218756,-0.02332366705905998,-2.987745556863533,8.940924229808493,0.3024694938126274,0.44235391324598594,-0.6342003949454638,-1.92431594361021,-2.507588862729335,47.49134700967584
1589987587.8318756,-0.010383970567689657,-2.8511575001164253,8.37231500023285,0.3033333333333333,0.4622222222222222,-0.6411111111111111,-2.846202207423276,-4.581698528384483,65.25208546779677
1589987587.8418756,-0.05054177410272369,-2.933092676565603,8.474560030823035,0.3033333333333333,0.4622222222222222,-0.6411111111111111,-1.9142215701964969,-5.793594958655642,80.20132961382295
1589987587.8518755,-0.07134014953784563,-3.1017518692230706,8.732163588908294,0.3033333333333333,0.4622222222222222,-0.6411111111111111,-2.3086315422807466,-6.449744392330789,92.56704181957336
1589987587.8618755,-0.06901149742775264,-2.9915402409971343,8.471264371784692,0.3033333333333333,0.4622222222222222,-0.6411111111111111,-2.2912358008493596,-7.156609294617271,101.21235714532334
1589987587.8718755,-0.09797465732141009,-3.092911300624935,8.507468321651762,0.3033333333333333,0.4622222222222222,-0.6411111111111111,-3.82990367019991,-8.061708041294064,108.72467674274074
1589987587.8818755,-0.11398131060140025,-3.22650467234965,8.693289685678296,0.31777777777777777,0.4666666666666667,-0.6533333333333333,-3.3119159562937575,-8.177219732255324,122.07418270498286
1589987587.8918755,-0.14429189588814717,-3.271502750657766,8.534638065624387,0.31777777777777777,0.4666666666666667,-0.6533333333333333,-3.293445171671487,-9.169256506990802,130.9691923612168
1589987587.9018755,-0.17449817536053705,-3.385934078801007,8.90287180688094,0.31777777777777777,0.4666666666666667,-0.6533333333333333,-2.6085623890092307,-9.137866391507133,137.43305914954237
1589987587.9118755,1.3005482462399043,-7.6164602300293955,8.186383173035761,0.31777777777777777,0.4666666666666667,-0.6533333333333333,-3.6423110676674564,-9.920606324381403,142.81583913639088
1589987587.9218755,4.010588293897882,-18.476804483188044,3.8015173100871733,0.3354395461463955,0.454524200913242,-0.660692403486924,-14.410784557907846,-7.227366127023661,1.4166344956413468
1589987587.9318755,-10.14253596180502,-11.25867426459264,6.3349727398737095,0.3711111111111111,0.43,-0.6755555555555556,-35.4375,-1.375,-293.25
1589987587.9418755,-9.060718185064879,-11.353835989183857,6.78365384942433,0.3711111111111111,0.43,-0.6755555555555556,-24.49638824169657,14.370800454073908,-225.8799085049574
1589987587.9518754,0.9436273261161819,1.6018173777683435,0.7972709262010896,0.3711111111111111,0.43,-0.6755555555555556,13.420721892025757,32.40904487723767,-94.32910121700984
1589987587.9618754,-0.2838074523965858,1.0645613099146423,2.8649064346684177,0.3711111111111111,0.43,-0.6755555555555556,42.63698549326986,1.704889609323704,11.3359067219304
1589987587.9718754,0.5773826407829296,-0.462291673351516,6.802611904379914,0.3711111111111111,0.4424866570404834,-0.6786772198156764,-20.227466709449704,-10.641494866035618,24.55549494625381
1589987587.9818754,0.039486171916711166,-2.1676433529097703,8.519830218900161,0.3711111111111111,0.4566666666666666,-0.6822222222222222,-28.572928457020822,5.591374799786439,37.655308328884146
1589987587.9918754,-0.28895233544379406,-2.5359428981005854,8.608305339863815,0.3711111111111111,0.4566666666666666,-0.6822222222222222,2.865818002628121,2.5785748417154464,47.69987606020786
1589987588.0018754,-0.3243192989140789,-2.435117546199276,7.622864926652696,0.3711111111111111,0.4566666666666666,-0.6822222222222222,10.409068393979807,0.3180701085921127,57.20567965326729
1589987588.0118754,0.3044257841442331,-3.0634205976784394,7.304778134518811,0.3711111111111111,0.4566666666666666,-0.6822222222222222,-6.069435868938832,-0.336122087758294,60.50620009055734
1589987588.0218754,2.831986169424549,-6.046770560632256,8.161110068329629,0.3711111111111111,0.4566666666666666,-0.6822222222222222,-12.371072075409566,-13.241527743475753,48.24822281221701
1589987588.0318754,-0.24405533624212203,0.08614550869173768,10.516293025832814,0.3655555555555556,0.43666666666666665,-0.7111111111111111,-2.3658689140522204,1.6731811413532793,-24.66589401966895
1589987588.0418754,-0.3612047427482532,-1.4691403768791023,8.096817700614016,0.3655555555555556,0.43666666666666665,-0.7111111111111111,21.296607029430447,9.979568071141223,-14.626693838661868
1589987588.0518754,-0.7797349584407623,-3.0494603609613615,5.493650902403404,0.3655555555555556,0.43666666666666665,-0.7111111111111111,0.4618180138110084,2.2241573210969476,1.6267286298974089
1589987588.0618753,0.7176081351531651,-5.136665885365018,10.711664713412546,0.3655555555555556,0.43666666666666665,-0.7111111111111111,-22.650580116474046,-4.676476885491228,22.09230816039522
1589987588.0718753,1.3438489085298486,-6.875067621623681,8.172424092346375,0.3740731710414365,0.433094763398394,-0.7039673045745658,-1.2516619680749743,-7.6604394453122024,12.655315440588213
1589987588.0818753,-1.0771629993591114,-3.4072826319162575,9.407173680837428,0.4,0.4222222222222222,-0.6822222222222222,7.145888966032899,6.094938314462722,-7.988484031189916
1589987588.0918753,-0.5138844228727438,-3.9172607310784167,7.9535712118914,0.4,0.4222222222222222,-0.6822222222222222,-1.0256048081298346,0.36529747459426676,0.46771670711360536
1589987588.1018753,-0.03805050838747568,-4.61176008515949,8.723583305803325,0.4,0.4222222222222222,-0.6822222222222222,-1.5970799838490621,-2.220896193517601,1.0856848548250926
1589987588.1118753,-0.0317436630882429,-4.466955697620319,8.60954749883687,0.4,0.4222222222222222,-0.6822222222222222,0.46736555063498353,0.28805377974600654,-0.10597311012699671
1589987588.1218753,0.011856520742608293,-4.475309420123769,8.850911834364734,0.39652549638797635,0.42117987113861516,-0.6855230006536447,0.6111548819619528,0.13477204140881657,-0.16795591718236688
1589987588.1318753,-0.10500669627123424,-4.5059892859660255,8.68199196447452,0.37777777777777777,0.4155555555555556,-0.7033333333333334,-0.7906291851695214,0.12188755550856419,-0.0625
1589987588.1418753,-0.04328330084470435,-4.596866796621183,8.709108836907083,0.37777777777777777,0.4155555555555556,-0.7033333333333334,-0.7807809454191033,-0.03078094541910331,-0.0625
1589987588.1518753,-0.04445179538808189,-4.541661153458938,8.558837432283427,0.37777777777777777,0.4155555555555556,-0.7033333333333334,-0.3301482573469485,-0.11461779088163382,-0.013911860587755884
1589987588.1618752,-0.02678203118554575,-4.5351325523196655,8.711914583505212,0.37777777777777777,0.4155555555555556,-0.7033333333333334,0.49783691527101726,0.01412923163655364,0.0625
1589987588.1718752,-0.04408382146687567,-4.471692654621456,8.665776476088332,0.37777777777777777,0.4155555555555556,-0.7033333333333334,0.17342834749608121,0.05017462805599098,0.0625
1589987588.1818752,-0.0323722996893288,-4.458698432194206,8.901812369048479,0.3977777777777778,0.4155555555555556,-0.6966666666666667,0.6084233436890398,0.17267312694169495,0.11511541796112998
1589987588.1918752,-0.0541355769059375,-4.524813461435625,8.681203365358906,0.3977777777777778,0.4155555555555556,-0.6966666666666667,-0.20254206698632823,-0.036652644337890596,-0.018326322168945298
1589987588.2018752,-0.04088883718224653,-4.444888604502356,8.656889069862137,0.3977777777777778,0.4155555555555556,-0.6966666666666667,0.0625,-0.12222238380547962,-0.06527761619452038
1589987588.2118752,-0.05715432493746728,-4.53434878715607,8.599959862718864,0.3977777777777778,0.4155555555555556,-0.6966666666666667,0.0625,-0.07139273457041476,-0.11610726542958524
1589987588.2218752,-0.029220195558434723,-4.385718565904812,8.838440391116869,0.3974600796719549,0.4154111473256361,-0.696291205268876,0.7288802963742738,0.12012622224021702,-0.05762622224021702
1589987588.2318752,-0.0037471911249671065,-4.572520598416908,8.787494382249934,0.3870821889768384,0.4106939242824013,-0.6840264253564656,0.03898642630119242,-0.0390800554689556,0.1015800554689556
1589987588.2418752,-0.03403351643236198,-4.519888278558794,8.736301647891256,0.3855555555555555,0.41,-0.6822222222222222,-0.42402243738944234,-0.03729052229773764,-0.01243017409924588
1589987588.2518752,-0.010603854389721633,-4.597987152034261,8.525434689507494,0.3855555555555555,0.41,-0.6822222222222222,-1.107387580299786,-0.18372591006423983,-0.061241970021413274
1589987588.2618752,-0.034942762149355946,-4.492757570327898,8.65264309462661,0.3855555555555555,0.41,-0.6822222222222222,-0.1393729220171614,-0.01580386828326266,0.01580386828326266
1589987588.2718751,-0.021374361847839623,-4.5393845722824055,8.703743618478395,0.38448660745168023,0.41167977559180396,-0.6800843260144717,0.25621809239198107,-0.04532047690200473,0.05391023845100237
1589987588.2818751,-0.021132569150261647,-4.451381343965446,8.784088379433507,0.37777777777777777,0.4222222222222222,-0.6666666666666666,0.5212356715674059,0.09944762854057645,0.01847381427028823
1589987588.2918751,-0.01267674639131809,-4.541548835739121,8.748872089347802,0.37777777777777777,0.4222222222222222,-0.6666666666666666,0.11179505584237699,0.17429505584237698,0.07570494415762301
1589987588.301875,-0.049216972485308125,-4.525096238520568,8.672156605502938,0.37777777777777777,0.4222222222222222,-0.6666666666666666,0.008584862426540621,0.13847878439336483,0.07108486242654062
1589987588.311875,-0.011527595564581349,-4.577861366209586,8.679694480887083,0.37777777777777777,0.4222222222222222,-0.6666666666666666,-0.17986202217709327,0.1855905055442733,-0.11736202217709327
1589987588.321875,-0.05870382921043714,-4.502073873263301,8.718963063368351,0.37777777777777777,0.4222222222222222,-0.6666666666666666,0.238658505591325,0.06574042697390714,0.05763935953913929
1589987588.331875,-0.03662921348314607,-4.5,8.772584269662921,0.3862172284644195,0.4267665418227216,-0.6841947565543071,0.030898876404494374,-0.08356741573033707,0.09901685393258428
1589987588.341875,-0.02,-4.497485532181122,8.7747974505357,0.3922222222222223,0.43,-0.6966666666666667,-0.2350079670759365,-0.17178457613200906,0.06213830452803629
1589987588.351875,-0.02,-4.497146033374869,8.668213491656283,0.3922222222222223,0.43,-0.6966666666666667,-0.5625,-0.125,-0.10266864570353539
1589987588.361875,-0.02106465438628488,-4.565741382454861,8.64787069122743,0.3922222222222223,0.43,-0.6966666666666667,-0.5425377302571585,-0.125,0.10503773025715848
1589987588.371875,-0.029207895115977524,-4.529207895115977,8.63950525860827,0.39266228049112367,0.42797573196305366,-0.6960505850902047,-0.300740167122893,-0.11014803342457859,-0.0625
1589987588.381875,-0.026083698830409358,-4.505804702729044,8.75,0.3977777777777778,0.4044444444444445,-0.6888888888888889,0.5118025097465887,0.03715125487329435,-0.024476882309941522
1589987588.391875,-0.04925687844615001,-4.4544587293231,8.7455412706769,0.3977777777777778,0.4044444444444445,-0.6888888888888889,0.30785549028843756,-0.0625,0.12964450971156244
1589987588.401875,-0.04171886644242583,-4.513437732884851,8.679686801345445,0.3977777777777778,0.4044444444444445,-0.6888888888888889,0.17479959314386995,-0.05175708473483857,0.17675708473483856
1589987588.411875,-0.049605610993355406,-4.5309859725166115,8.631380361523258,0.3977777777777778,0.4044444444444445,-0.6888888888888889,-0.18503506870847128,0.0012324656457643668,0.12253506870847126
1589987588.421875,-0.03,-4.577472854188211,8.700758143743537,0.39746890440078136,0.40472523842353214,-0.6892539210617029,-0.0593410677352637,0.057761601602895556,0.001579466132368149
1589987588.431875,-0.033979462581702105,-4.472041074836596,8.743928119035958,0.3855555555555555,0.4155555555555556,-0.7033333333333334,0.08737164113563817,-0.125,0.050064179432180916
1589987588.441875,-0.04814724112888244,-4.443705517742235,8.79351534395109,0.3855555555555555,0.4155555555555556,-0.7033333333333334,0.1759202570555152,-0.125,0.0057898714722424
1589987588.451875,-0.04561425911146582,-4.53,8.667309568147557,0.3855555555555555,0.4155555555555556,-0.7033333333333334,-0.1889587212911235,-0.08077392036889244,0.0
1589987588.461875,-0.023298217611066777,-4.53,8.704502970648223,0.3855555555555555,0.4155555555555556,-0.7033333333333334,-0.5144009931719429,-0.1737574266205551,0.0
1589987588.471875,-0.029822208787887113,-4.559466626363661,8.670711164848452,0.3855555555555555,0.4155555555555556,-0.7033333333333334,-0.3783335852271166,-0.06472239015141106,0.0
1589987588.481875,-0.03,-4.500038996058909,8.69569757311761,0.39126612735946903,0.4155555555555556,-0.6852498559542741,-0.16085355735324622,0.09810983198506532,0.16060983198506532
1589987588.491875,-0.04794457671632999,-4.48972288358165,8.69383373014899,0.3922222222222223,0.4155555555555556,-0.6822222222222222,0.3381927910458752,0.125,0.011114417908249671
1589987588.501875,-0.0376235854675402,-4.471387730792138,8.67950565812984,0.3922222222222223,0.4155555555555556,-0.6822222222222222,0.3335318642048839,0.06558963668850507,-0.12808963668850507
1589987588.511875,-0.02791692187761011,-4.535833843755221,8.71208307812239,0.3922222222222223,0.4155555555555556,-0.6822222222222222,-0.026038476529873605,-0.09896152347012639,0.01042304694025279
1589987588.521875,-0.020131967258756055,-4.520263934517511,8.719868032741244,0.3922222222222223,0.4155555555555556,-0.6822222222222222,-0.12335040926554931,-0.0016495907344506872,-0.18420081853109863
1589987588.531875,-0.03,-4.526361758766294,8.732273040205618,0.3922222222222223,0.4155555555555556,-0.6888888888888889,-0.00567399485955572,0.04829349871488893,-0.02841300257022214
1589987588.541875,-0.035975583327313446,-4.485975583327313,8.724065111127164,0.3922222222222223,0.4155555555555556,-0.6888888888888889,0.12525434034048497,0.012449131931903008,-0.112550868068097
1589987588.5518749,-0.05832890838431644,-4.503315633537266,8.663342183231368,0.3922222222222223,0.4155555555555556,-0.6888888888888889,-0.13544432259802225,0.05205567740197776,-0.0625
1589987588.5618749,-0.05025953287929509,-4.47103813151718,8.67948093424141,0.3922222222222223,0.4155555555555556,-0.6888888888888889,-0.18587791950440571,0.0016220804955942858,-0.0625
1589987588.5718749,-0.022195414305039473,-4.511706878542441,8.70085343927122,0.3922222222222223,0.4155555555555556,-0.6888888888888889,-0.31783399544512747,-0.043444665148375826,-0.0625
1589987588.5818748,-0.03979754752695251,-4.549865031684635,8.700067484157682,0.3856005449940105,0.42217723278376723,-0.6888888888888889,-0.3129217759855156,-0.0625,0.0616564480289688
1589987588.5918748,-0.04,-4.5136071428571425,8.707278571428573,0.3855555555555555,0.4222222222222222,-0.6888888888888889,0.051428571428571435,0.02848214285714286,0.10799107142857142
1589987588.6018748,-0.021469252701608644,-4.490734626350805,8.663673131754022,0.3855555555555555,0.4222222222222222,-0.6888888888888889,0.36122575592241896,0.004591414692527017,0.009182829385054034
1589987588.6118748,-0.031395958368153155,-4.485583833472613,8.73418787510446,0.3855555555555555,0.4222222222222222,-0.6888888888888889,0.26015156119425664,0.053775260199042774,0.04505052039808555
1589987588.6218748,-0.03936203752943858,-4.517448150117754,8.758086112588316,0.3855555555555555,0.4222222222222222,-0.6888888888888889,-0.038576407353946685,0.003987265441008886,-0.05452546911798223
1589987588.6318748,-0.04,-4.521366723858321,8.727266552283357,0.3977777777777778,0.43,-0.6966666666666667,-0.04541595177098268,-0.008542024114508662,-0.16187392765647401
1589987588.6418748,-0.03903706851947668,-4.525185342597384,8.700370685194768,0.3977777777777778,0.43,-0.6966666666666667,0.06851832175327074,-0.04444503474018774,0.012036643506541503
1589987588.6518748,-0.03128649567595535,-4.486432478379777,8.622864956759553,0.3977777777777778,0.43,-0.6966666666666667,0.11695940202527902,0.10087820607583711,0.10891880405055805
1589987588.6618748,-0.02598082992009669,-4.508660276640032,8.69535889343987,0.3977777777777778,0.43,-0.6966666666666667,-0.07924654199959713,0.11662672900020143,0.0
1589987588.6718748,-0.004858658430134961,-4.501619552810045,8.72352178875982,0.3977777777777778,0.43,-0.6966666666666667,-0.16725558987443767,0.07262220506278116,0.0
1589987588.6818748,-0.038211378728896475,-4.54,8.719105689364449,0.3977777777777778,0.4155555555555556,-0.6966666666666667,-0.23323167558340446,-0.10823167558340446,0.0055894414721985135
1589987588.6918747,-0.02074858962882778,-4.54,8.710374294814414,0.3977777777777778,0.4155555555555556,-0.6966666666666667,-0.06951802777026042,0.05548197222973958,0.060160657409913186
1589987588.7018747,-0.022734479512460982,-4.5186327602437695,8.658203438537383,0.3977777777777778,0.4155555555555556,-0.6966666666666667,0.2670904969528811,0.17040950304711885,0.02831900609423773
1589987588.7118747,-0.03874469289555618,-4.5074893857911125,8.713765921313332,0.3977777777777778,0.4155555555555556,-0.6966666666666667,0.36715433059722613,0.0625,-0.1561173223889046
1589987588.7218747,-0.031324830172657796,-4.492649660345315,8.736025509482026,0.3977777777777778,0.4155555555555556,-0.6966666666666667,0.3207801885791112,0.0625,0.029379245683555044
1589987588.7318747,-0.03,-4.498843883156219,8.74884388315622,0.41055227567009484,0.39983309661116534,-0.6838921687743496,0.03612865136814003,0.11777426972637199,0.0625
1589987588.7418747,-0.03,-4.5238723458521966,8.67838296244341,0.4122222222222222,0.3977777777777778,-0.6822222222222222,-0.049734053858743014,0.02553189228251397,-0.08670216157622904
1589987588.7518747,-0.001964293798952658,-4.527053559301571,8.633928587597905,0.4122222222222222,0.3977777777777778,-0.6822222222222222,0.0625,0.11886158187827295,0.006138418121727058
1589987588.7618747,-0.014623847395982674,-4.508064228906026,8.659247694791965,0.4122222222222222,0.3977777777777778,-0.6822222222222222,0.0625,0.07930047688755415,0.04569952311244586
1589987588.7718747,-0.028522037010877244,-4.5,8.763742407119649,0.4122222222222222,0.3977777777777778,-0.6822222222222222,-0.15055092527193106,0.009237268682017234,-0.0972881939539483
1589987588.7818747,-0.0541919569442368,-4.508063985648079,8.755808043055763,0.39609425092606443,0.4121137522632515,-0.6875982126542748,-0.23789991030049334,0.0,-0.07460008969950666
1589987588.7918746,-0.02971032521770037,-4.529420650435401,8.717103252177004,0.3922222222222223,0.4155555555555556,-0.6888888888888889,-0.24094766305313667,0.12318953261062733,0.182068597831882
1589987588.8018746,-0.022256442153900834,-4.514512884307802,8.642564421539008,0.3922222222222223,0.4155555555555556,-0.6888888888888889,-0.008013817309401094,0.07660276346188022,0.04230829038564066
1589987588.8118746,-0.020763133729640906,-4.516947465081436,8.639157604755692,0.3922222222222223,0.4155555555555556,-0.6888888888888889,0.2595391716205113,0.0,0.16842165675897733
1589987588.8218746,-0.027520177855106083,-4.489919288579576,8.720242134261273,0.3922222222222223,0.4155555555555556,-0.6888888888888889,0.34400222318882606,0.0,-0.0005044463776521235
1589987588.8318746,-0.03,-4.499236342559049,8.759618171279525,0.38581010803587235,0.4155555555555556,-0.6824767747025391,0.19465928850891176,0.12022714099405883,0.05772714099405883
1589987588.8418746,-0.040152519720118456,-4.520152519720118,8.75801724363846,0.3855555555555555,0.4155555555555556,-0.6822222222222222,-0.06440649650148064,0.06154675174925968,-0.06154675174925968
1589987588.8518746,-0.04909387128240251,-4.528187742564805,8.636342901023182,0.3855555555555555,0.4155555555555556,-0.6822222222222222,-0.1875,0.011326608969968661,0.0
1589987588.8618746,-0.040388933856339376,-4.510777867712679,8.697277463005623,0.3855555555555555,0.4155555555555556,-0.6822222222222222,-0.1875,0.12013832679575784,0.0
1589987588.8718746,-0.031900998504264866,-4.501900998504265,8.71619800299147,0.3855555555555555,0.4155555555555556,-0.6822222222222222,0.014975037393378354,-0.026856278045033766,-0.05061875934834459
1589987588.8818746,-0.03,-4.514732743202553,8.749465486405107,0.3798261554212291,0.41146312688817954,-0.6822222222222222,0.016460177492019654,-0.016460177492019654,-0.0625
1589987588.8918746,-0.03591633971618746,-4.52,8.718585621986687,0.37777777777777777,0.41,-0.6822222222222222,-0.0739542464523433,0.0,-0.09947712322617165
1589987588.9018745,-0.025311113440240368,-4.52734444327988,8.63124445376096,0.37777777777777777,0.41,-0.6822222222222222,-0.2168055409984977,-0.04590277049924885,-0.07909722950075115
1589987588.9118745,-0.049718889917442805,-4.5,8.662248880660458,0.37777777777777777,0.41,-0.6822222222222222,0.007027752063929873,-0.0625,0.0625
1589987588.9218745,-0.041795099465361876,-4.5,8.725639204277105,0.37777777777777777,0.41,-0.6822222222222222,0.20512251336595316,-0.0625,0.0625
