time,acc_x,acc_y,acc_z,mag_x,mag_y,mag_z,gyr_x,gyr_y,gyr_z
1589985530.2447205,-0.2,-4.3,8.65,0.5111111111111111,0.29444444444444445,-0.6088888888888889,-0.0625,-0.0625,0.0625
1589985530.2547204,-0.22906954984925668,-4.3,8.686336937311571,0.5111111111111111,0.29444444444444445,-0.6088888888888889,-0.0625,-0.10792117163946358,-0.028342343278927137
1589985530.2647204,-0.23419766771604664,-4.305802332283953,8.711604664567906,0.5156240362208526,0.30153618390260967,-0.6011524458436177,-0.0625,-0.125,-0.026235423225291536
1589985530.2747204,-0.23832543329594383,-4.301674566704056,8.736650866591887,0.5188888888888888,0.30666666666666664,-0.5955555555555555,-0.0625,-0.177033958099649,0.052033958099649016
1589985530.2847204,-0.21925599925877884,-4.3,8.650109330121374,0.5188888888888888,0.30666666666666664,-0.5955555555555555,-0.0625,-0.1875,-0.023933336421754853
1589985530.2947204,-0.21,-4.309839719898852,8.678878039291966,0.5188888888888888,0.30666666666666664,-0.5955555555555555,-0.0625,-0.1875,-0.0625
1589985530.3047204,-0.21730087017667224,-4.288097389469983,8.723805221060033,0.5188888888888888,0.30666666666666664,-0.5955555555555555,-0.3362826316252087,-0.09623912279159708,0.028760877208402924
1589985530.3147204,-0.20080216606498197,-4.299197833935018,8.74,0.5071568792619334,0.2949346570397112,-0.588089731247493,-0.49749323104693144,0.05748646209386282,-0.05748646209386282
1589985530.3247204,-0.2101723944923318,-4.309913802753834,8.689482816523004,0.5066666666666667,0.29444444444444445,-0.5877777777777777,-0.6239225344229262,0.12661619836561067,0.0625
1589985530.3347204,-0.22895354304265086,-4.300523228478674,8.633139370872048,0.5066666666666667,0.29444444444444445,-0.5877777777777777,-0.5065403559834322,0.3026894660248517,0.0625
1589985530.3447204,-0.23778771850482724,-4.3,8.653363155514482,0.5066666666666667,0.29444444444444445,-0.5877777777777777,-0.40265351868965926,0.5071929626206815,0.0625
1589985530.3547204,-0.2293116957740593,-4.29465584788703,8.67603245633891,0.5066666666666667,0.29444444444444445,-0.5877777777777777,-0.3415990492939353,0.4956980985878707,0.02909904929393533
1589985530.3647203,-0.23164923572003218,-4.324947707160097,8.754070796460176,0.4989005095199786,0.29897470278001254,-0.5877777777777777,-0.34890386162510056,0.3282884151246983,0.10921158487530169
1589985530.3747203,-0.2582054890921886,-4.3317945109078115,8.772691766361717,0.4933333333333334,0.3022222222222222,-0.5877777777777777,-0.033647079521463785,-0.03446076706544687,0.016823539760731893
1589985530.3847203,-0.23783939359398154,-4.315226262395988,8.67397070557392,0.4933333333333334,0.3022222222222222,-0.5877777777777777,0.3231755100877693,-0.29333965006269236,0.046167930012538466
1589985530.3947203,-0.22118904726181546,-4.301189047261815,8.675243810952738,0.4933333333333334,0.3022222222222222,-0.5877777777777777,0.6027053638409603,-0.48513690922730685,-0.21284227306826708
1589985530.4047203,-0.2275755288509286,-4.292424471149071,8.672424471149071,0.4933333333333334,0.3022222222222222,-0.5877777777777777,0.8617352765915185,-0.3579588340450889,-0.2026529446816963
1589985530.4147203,-0.2014232173745916,-4.29,8.689051188416938,0.5060341256112927,0.2810542350922901,-0.595186573273254,0.8184300723941316,-0.3125,-0.12796503619706578
1589985530.4247203,-0.21637839260053837,-4.29,8.722756785201076,0.5066666666666667,0.28,-0.5955555555555555,0.45422266186322324,-0.3125,-0.125
1589985530.4347203,-0.21039221966630753,-4.299607780333693,8.65313775733046,0.5066666666666667,0.28,-0.5955555555555555,0.13480549165768863,-0.012256864572110782,0.05514588125673353
1589985530.4447203,-0.22611463956811687,-4.291942680215942,8.706401238488409,0.5066666666666667,0.28,-0.5955555555555555,0.125,0.20143299460146077,0.012141751349634806
1589985530.4547203,-0.23,-4.296638109000826,8.739914327002477,0.5066666666666667,0.28,-0.5955555555555555,0.125,0.20851181874483898,0.0
1589985530.4647202,-0.22186080446643827,-4.316278391067124,8.774417586600684,0.5066666666666667,0.28633048541499245,-0.6009816859112633,-0.07847988833904326,-0.06684986042380409,0.10173994416952163
1589985530.4747202,-0.22,-4.310752569656268,8.752257708968806,0.5066666666666667,0.2877777777777778,-0.6022222222222222,-0.18279643964832237,-0.06720356035167764,0.125
1589985530.4847202,-0.22,-4.318171914608342,8.660108939308236,0.5066666666666667,0.2877777777777778,-0.6022222222222222,-0.3407233989064169,0.09072339890641692,0.125
1589985530.4947202,-0.2136398797556819,-4.313639879755682,8.652720240488636,0.5066666666666667,0.2877777777777778,-0.6022222222222222,-0.4545015030539759,0.125,0.08524924847301205
1589985530.5047202,-0.22235347985347986,-4.31617673992674,8.672353479853479,0.5066666666666667,0.2877777777777778,-0.6022222222222222,-0.3455815018315018,0.009186126373626383,0.10110462454212454
1589985530.5147202,-0.2178956552085151,-4.313947827604258,8.710260861978712,0.5093565210647745,0.29181255937493944,-0.6062570038193839,-0.136521767579829,0.013152154946780667,0.04934784505321933
1589985530.5247202,-0.22610523827214699,-4.326105238272147,8.738052619136074,0.5111111111111111,0.29444444444444445,-0.6088888888888889,0.13881547840183728,0.01217113039954068,0.0
1589985530.5347202,-0.23,-4.312086603451264,8.677303112079423,0.5111111111111111,0.29444444444444445,-0.6088888888888889,0.01956190735559904,0.05597936421480033,0.0
1589985530.5447202,-0.23,-4.301351518624641,8.72189088825215,0.5111111111111111,0.29444444444444445,-0.6088888888888889,0.0,0.11655300859598855,0.0
1589985530.5547202,-0.23,-4.3,8.743896567011701,0.5111111111111111,0.29444444444444445,-0.6088888888888889,0.08685354382312689,-0.005280315734690344,0.0
1589985530.5647202,-0.21394996465562283,-4.3,8.75,0.5111111111111111,0.29444444444444445,-0.6088888888888889,0.37578180225589325,-0.3634381627070719,-0.050156360451178654
1589985530.5747201,-0.21887326054912934,-4.2911267394508705,8.696760436705224,0.5111111111111111,0.29444444444444445,-0.6088888888888889,0.3265842431358833,-0.38204212156794165,-0.007042121567941637
1589985530.5847201,-0.2107868570022151,-4.317639428993355,8.653147428008861,0.5111111111111111,0.29444444444444445,-0.6088888888888889,0.0821714250553778,-0.375,0.05758214373615555
1589985530.5947201,-0.2020571533998893,-4.3120571533998895,8.673828539800333,0.5111111111111111,0.29444444444444445,-0.6088888888888889,-0.03678558250138374,-0.47428558250138375,0.16178558250138375
1589985530.60472,-0.2150393564706437,-4.31,8.690026237647094,0.5111111111111111,0.29444444444444445,-0.6088888888888889,-0.15649597794152303,-0.46866800735282566,0.030840036764128276
1589985530.61472,-0.22618859042851272,-4.302377180857025,8.703811409571488,0.5111111111111111,0.2974088741111568,-0.6118533185556012,-0.1785360705346135,-0.34221476071281803,-0.07735738035640902
1589985530.62472,-0.21419360743130392,-4.295806392568696,8.715806392568696,0.5111111111111111,0.3022222222222222,-0.6166666666666667,0.046369860663051696,-0.1875,0.036289953554350565
1589985530.63472,-0.21,-4.316021983241171,8.647901075414731,0.5111111111111111,0.3022222222222222,-0.6166666666666667,0.024862604742680733,-0.13743130237134038,0.0625
1589985530.64472,-0.2167843778793178,-4.333568755758636,8.650353133637953,0.5111111111111111,0.3022222222222222,-0.6166666666666667,0.08480472349147251,0.0870118087286813,-0.10710944698294503
1589985530.65472,-0.2258687897186326,-4.322393630844102,8.671737579437265,0.5111111111111111,0.3022222222222222,-0.6166666666666667,0.08832006425854615,0.004100321292730746,-0.004100321292730746
1589985530.66472,-0.22487091294226214,-4.299741825884524,8.68,0.5048422269294315,0.2982329322884261,-0.6126773767328706,0.0625,-0.25322717644344706,0.028829617667414695
1589985530.67472,-0.21301515038435703,-4.29,8.714924248078216,0.4988888888888889,0.29444444444444445,-0.6088888888888889,-0.11212124039107396,-0.41865531009776846,-0.01884468990223151
1589985530.68472,-0.2015452411864576,-4.3153642764406275,8.713090482372916,0.4988888888888889,0.29444444444444445,-0.6088888888888889,-0.1875,-0.38465775741536,-0.05284224258463997
1589985530.69472,-0.19158986662903113,-4.31158986662903,8.752050666854844,0.4988888888888889,0.29444444444444445,-0.6088888888888889,-0.1349366664314445,-0.480126667137111,-0.2201900007056665
1589985530.70472,-0.20280559043511492,-4.297194409564885,8.76,0.4988888888888889,0.29444444444444445,-0.6088888888888889,0.195139760877873,-0.5,-0.2099825298902659
1589985530.71472,-0.20252704296545915,-4.28252704296546,8.782418871103621,0.4988888888888889,0.30025674436019845,-0.5931126462604137,0.28158803706823926,-0.5,-0.32761794439764114
1589985530.72472,-0.21646816953933687,-4.304702254309005,8.724127321842653,0.4988888888888889,0.3022222222222222,-0.5877777777777777,0.25,-0.5,-0.4779260596208553
1589985530.73472,-0.22527073609712944,-4.2941877917086115,8.652021902931576,0.4988888888888889,0.3022222222222222,-0.5877777777777777,0.21705789939294104,-0.36823159757176416,-0.4341157987858821
1589985530.74472,-0.22629015297988536,-4.276290152979885,8.607419694040228,0.4988888888888889,0.3022222222222222,-0.5877777777777777,0.07156728062141718,-0.15725382449713374,-0.35181345612428344
1589985530.75472,-0.23196696159157162,-4.27,8.659889871971906,0.4988888888888889,0.3022222222222222,-0.5877777777777777,-0.22472467992976355,-0.04986233996488178,-0.2875688300175591
1589985530.76472,-0.25,-4.27,8.72,0.4988888888888889,0.3022222222222222,-0.5912776045569171,-0.34471303748821697,-0.125,-0.21971303748821697
1589985530.77472,-0.24324646983311937,-4.303767650834403,8.726753530166881,0.4988888888888889,0.3022222222222222,-0.6022222222222222,0.0032573812580231065,-0.16720956354300387,0.04383825417201542
1589985530.78472,-0.24625899705014748,-4.332517994100295,8.698705014749262,0.4988888888888889,0.3022222222222222,-0.6022222222222222,0.046762536873156346,-0.14838126843657817,0.2814749262536873
1589985530.79472,-0.25461037132397313,-4.32616888602808,8.707662227943839,0.4988888888888889,0.3022222222222222,-0.6022222222222222,0.11525928309932815,-0.2114444623244961,0.5767037454238243
1589985530.80472,-0.24655970899627375,-4.305519902998758,8.735519902998758,0.4988888888888889,0.3022222222222222,-0.6022222222222222,0.25,-0.25649878748447386,1.204508487608683
1589985530.81472,-0.24415965449421118,-4.3,8.748879539325614,0.5083286585516963,0.298551200686686,-0.5990756323346197,0.22050071980372676,-0.09900215941118028,1.9824928019627324
1589985530.82472,-0.2088698112600881,-4.269321886756053,8.718869811260088,0.5188888888888888,0.29444444444444445,-0.5955555555555555,-0.004238207774669628,0.031956367962444936,2.5042382077746694
1589985530.83472,-0.14066419241336098,-4.291562153564371,8.624883115631174,0.5188888888888888,0.29444444444444445,-0.5955555555555555,-0.26806586494432927,-0.058348797416493944,2.8889146623608233
1589985530.84472,-0.19759010190836532,-4.3800800905852135,8.652570079262063,0.5188888888888888,0.29444444444444445,-0.5955555555555555,-0.3125,0.1096878538484907,2.2020612969151316
1589985530.8547199,-0.17527210364559456,-4.366454077734196,8.697954935221503,0.5188888888888888,0.29444444444444445,-0.5955555555555555,-0.20766899291936225,0.2573873380537585,1.6230069787580867
1589985530.8647199,-0.17091524767801858,-4.3276339009287925,8.744732198142415,0.5113318283453733,0.2992534829721362,-0.5996775885792913,-0.04771188080495356,0.3125,1.181779702012384
1589985530.8747199,-0.21818299620039094,-4.298862752849707,8.717725505699413,0.5066666666666667,0.3022222222222222,-0.6022222222222222,0.13210779468933256,0.09232034218444576,0.5781047528057807
1589985530.8847198,-0.23,-4.3041210288942855,8.664697427764287,0.5066666666666667,0.3022222222222222,-0.6022222222222222,0.27575643058928484,0.13238464588392726,0.15435892352678793
1589985530.8947198,-0.23,-4.31,8.669991803278688,0.5066666666666667,0.3022222222222222,-0.6022222222222222,0.22920081967213113,0.1875,0.0625
1589985530.9047198,-0.23,-4.313775630582551,8.687551261165103,0.5066666666666667,0.3022222222222222,-0.6022222222222222,0.2582930734228414,0.21109769114094715,-0.031890764563788546
1589985530.9147198,-0.23,-4.319666170439863,8.699332340879725,0.5066666666666667,0.3022222222222222,-0.6022222222222222,0.3687406957474299,0.24791356524914332,-0.17915426099657322
1589985530.9247198,-0.2142809340481416,-4.287123736192566,8.72,0.5111111111111111,0.29444444444444445,-0.6311111111111111,0.3125,-0.09824416219911489,-0.03574416219911489
1589985530.9347198,-0.22,-4.299197528304234,8.671388877369054,0.5111111111111111,0.29444444444444445,-0.6311111111111111,0.008680483556587737,0.07253089619707212,0.0
1589985530.9447198,-0.2235510878743779,-4.300653263623134,8.658408702995024,0.5111111111111111,0.29444444444444445,-0.6311111111111111,-0.13902850392569038,0.12091710235541422,0.0
1589985530.9547198,-0.22792366045378096,-4.317923660453781,8.722458037277315,0.5111111111111111,0.29444444444444445,-0.6311111111111111,0.0365457556722617,-0.03893136649160745,-0.025954244327738303
1589985530.9647198,-0.22,-4.316261911877013,8.78878573563104,0.49997882332975474,0.29931482034878787,-0.6171957513844156,0.05491084769399342,-0.2657738984626623,-0.007589152306006583
1589985530.9747198,-0.23233468665835913,-4.3138326566708205,8.775330626683282,0.4933333333333334,0.3022222222222222,-0.6088888888888889,0.04790820838525546,-0.23540820838525545,0.02395410419262773
1589985530.9847198,-0.24,-4.305969623286464,8.719696232864644,0.4933333333333334,0.3022222222222222,-0.6088888888888889,0.050379708919195125,-0.21268985445959757,0.0
1589985530.9947197,-0.227201079407913,-4.293600539703957,8.640801619111869,0.4933333333333334,0.3022222222222222,-0.6088888888888889,0.22499156712567958,-0.28999662685027183,-0.03999662685027183
1589985531.0047197,-0.20518486780227818,-4.290369735604556,8.646663810220502,0.4933333333333334,0.3022222222222222,-0.6088888888888889,0.30787830494304524,-0.24537830494304524,-0.09259457623576131
1589985531.0147197,-0.22221647819063006,-4.281675282714055,8.671675282714055,0.5041924250583378,0.28864835756596663,-0.6048167294920123,-0.07973546042003232,-0.0868235056542811,-0.1006764943457189
1589985531.0247197,-0.23,-4.2949887167143075,8.679990973371446,0.5111111111111111,0.28,-0.6022222222222222,-0.343707687678652,0.09367947946442004,0.03117947946442004
1589985531.0347197,-0.23414185277088503,-4.32,8.687574441687344,0.5111111111111111,0.28,-0.6022222222222222,-0.5151597394540943,0.43120605872622,0.16161342018196856
1589985531.0447197,-0.24,-4.32,8.680794262100003,0.5111111111111111,0.28,-0.6022222222222222,-0.490071723749973,0.6537679309374932,0.22619620718752026
1589985531.0547197,-0.2430130176824735,-4.32,8.711091123777313,0.5111111111111111,0.28,-0.6022222222222222,-0.280843197422703,0.49318047639178414,0.23717455793816236
1589985531.0647197,-0.24912724675286813,-4.32,8.753890727270077,0.5111111111111111,0.28,-0.6022222222222222,-0.08977353897287133,0.22568295456201987,0.08431883117829705
1589985531.0747197,-0.23,-4.302488847869558,8.76117751115213,0.4988888888888889,0.3022222222222222,-0.5955555555555555,0.554861752038148,-0.2188894016305184,0.1719447008152592
1589985531.0847197,-0.23,-4.27785724408333,8.631428976333318,0.4988888888888889,0.3022222222222222,-0.5955555555555555,0.7879461122395957,-0.41294611223959565,0.06026943880202182
1589985531.0947196,-0.2201402415270744,-4.2749298792364625,8.604929879236462,0.4988888888888889,0.3022222222222222,-0.5955555555555555,0.6892530190884301,-0.37587650954421503,-0.0625
1589985531.1047196,-0.21,-4.283930300335902,8.641442402687215,0.4988888888888889,0.3022222222222222,-0.5955555555555555,0.43967811450306266,-0.18967811450306266,-0.013371245801225055
1589985531.1147196,-0.2131848021417831,-4.29,8.702739208567133,0.4988888888888889,0.2997451538897243,-0.5976787569834109,0.19028495984156674,0.019905013386144425,0.0625
1589985531.1247196,-0.2234134838686627,-4.296826967737325,8.73,0.4988888888888889,0.29444444444444445,-0.6022222222222222,0.0625,0.0625,0.0625
1589985531.1347196,-0.24,-4.33,8.703839385474861,0.4988888888888889,0.29444444444444445,-0.6022222222222222,0.0625,0.16060230446927376,0.0625
1589985531.1447196,-0.24,-4.3195013189828,8.7009973620344,0.4988888888888889,0.29444444444444445,-0.6022222222222222,0.09530837817874854,0.21719162182125146,0.09530837817874854
1589985531.1547196,-0.23571727679456947,-4.318565446410861,8.741413616027153,0.4988888888888889,0.29444444444444445,-0.6022222222222222,0.20530106010182267,0.10719893989817733,0.0982329799660591
1589985531.1647196,-0.21529408160764613,-4.315294081607646,8.755294081607646,0.5048801889746627,0.29117646257947694,-0.5945969312039646,0.4044119899522117,-0.15318664992035289,0.0012253400318588403
1589985531.1747196,-0.20854965701348294,-4.295725171493259,8.735725171493259,0.5111111111111111,0.2877777777777778,-0.5866666666666667,0.3664116091643294,-0.3125,0.017653034501402348
1589985531.1847196,-0.22282152736440353,-4.287178472635596,8.701784726355966,0.5111111111111111,0.2877777777777778,-0.5866666666666667,0.22276909205504394,-0.2772309079449561,0.08973090794495606
1589985531.1947196,-0.21820572057205723,-4.283931426475981,8.649657132379906,0.5111111111111111,0.2877777777777778,-0.5866666666666667,0.23878575357535753,-0.1875,-0.02457141547488082
1589985531.2047195,-0.205143488500567,-4.295143488500567,8.692858721251417,0.5111111111111111,0.2877777777777778,-0.5866666666666667,0.1571468031285436,-0.1392797953071846,-0.0785734015642718
1589985531.2147195,-0.22471500057517543,-4.314715000575175,8.763005004026228,0.5147783337806919,0.2945883341641423,-0.5840472219026803,0.2794687535948464,-0.02946875359484643,-0.125
1589985531.2247195,-0.23576961684416697,-4.32,8.765382298934998,0.5188888888888888,0.3022222222222222,-0.5811111111111111,0.42068031582813076,-0.20674042110417432,-0.08893989472395641
1589985531.2347195,-0.23425014570462757,-4.314250145704627,8.688251311341649,0.5188888888888888,0.3022222222222222,-0.5811111111111111,0.6078097680382328,-0.5281195360764658,-0.13437317869215526
1589985531.2447195,-0.22555205402363535,-4.31,8.65,0.5188888888888888,0.3022222222222222,-0.5811111111111111,0.7430993247045582,-0.6041010129431627,-0.27089898705683735
1589985531.2547195,-0.21698446431188625,-4.303968928623772,8.683170892569251,0.5188888888888888,0.3022222222222222,-0.5811111111111111,0.699417411695735,-0.46230580389857834,-0.375
1589985531.2647195,-0.19662994491737606,-4.294456685027542,8.742173259889835,0.5074995827073945,0.2987559116452457,-0.5905196683914761,0.3817914371557336,-0.4864171256885328,-0.4864171256885328
1589985531.2747195,-0.15446280991735536,-4.279570247933884,8.699570247933885,0.4933333333333334,0.29444444444444445,-0.6022222222222222,0.3125,-0.5611570247933885,-0.8803719008264463
1589985531.2847195,-0.14498600706713782,-4.269990671378092,8.635041978798586,0.4933333333333334,0.29444444444444445,-0.6022222222222222,-0.030929328621908114,-0.25023321554770317,-1.5308710247349824
1589985531.2947195,-0.13141559942451472,-4.297150640345291,8.681470081841553,0.4933333333333334,0.29444444444444445,-0.6022222222222222,-0.017694992806434107,-0.07146100143871317,-2.4019965093516356
1589985531.3047194,-0.10102003058392645,-4.292040061167852,8.73653004587589,0.4933333333333334,0.29444444444444445,-0.6022222222222222,0.33418721327568957,-0.0688751911495403,-3.479622515055976
1589985531.3147194,-0.09,-4.27,8.724445412412448,0.4992605498832631,0.29790198743190344,-0.5958010709597983,0.18744555179983974,0.13891913788897794,-5.180730999756072
1589985531.3247194,-0.11681950492780196,-4.272979944991977,8.709140385056154,0.5066666666666667,0.3022222222222222,-0.5877777777777777,-0.3484958743983497,0.5173712181984873,-7.100108153793261
1589985531.3347194,-0.16007953243181294,-4.277786614714646,8.67549369699748,0.5066666666666667,0.3022222222222222,-0.5877777777777777,-0.7089961035984415,0.8478297616319047,-8.572150756360303
1589985531.3447194,-0.1951440522001004,-4.291358039150075,8.690288104400201,0.5066666666666667,0.3022222222222222,-0.5877777777777777,-0.709361929061402,0.9290122553120295,-9.510288397189225
1589985531.3547194,-0.21559476484618678,-4.31,8.735594764846187,0.5066666666666667,0.3022222222222222,-0.5877777777777777,-0.3824345605773347,0.7574345605773347,-9.95585514647422
1589985531.3647194,-0.19398382978723405,-4.2980485106382975,8.706016170212767,0.5084372576832151,0.3022222222222222,-0.5908763120567375,-0.08739893617021277,0.46239893617021277,-9.987803191489363
1589985531.3747194,-0.18959871589085073,-4.28,8.694799357945424,0.5111111111111111,0.3022222222222222,-0.5955555555555555,-0.255016051364366,0.4674959871589085,-9.777487961476725
1589985531.3847194,-0.18,-4.285140995874941,8.654013028875413,0.5111111111111111,0.3022222222222222,-0.5955555555555555,-0.375,0.24471265468971892,-9.88028734531028
1589985531.3947194,-0.18,-4.2651487151982055,8.649821541762153,0.5111111111111111,0.3022222222222222,-0.5955555555555555,-0.2818076819932712,-0.1549487420157004,-10.497397484031401
1589985531.4047194,-0.18,-4.235909876021956,8.69636049591218,0.5111111111111111,0.3022222222222222,-0.5955555555555555,-0.1875,-0.2983101754116608,-11.499892046981154
1589985531.4147193,-0.18709404428607787,-4.237094044286078,8.734188088572155,0.5048052939679307,0.2994634272220808,-0.5955555555555555,-0.03231778124204632,-0.12099333481801985,-12.755877767879868
1589985531.4247193,-0.21344923936665633,-4.245516920211115,8.773449239366656,0.4933333333333334,0.29444444444444445,-0.5955555555555555,0.221980751319466,0.2801924868053399,-13.98278873020801
1589985531.4347193,-0.24084486060864013,-4.2653046747534935,8.735775696956798,0.4933333333333334,0.29444444444444445,-0.5955555555555555,0.2778738384053345,0.7605607576080017,-14.25147194438533
1589985531.4447193,-0.26300126559392517,-4.313001265593925,8.658007593563552,0.4933333333333334,0.29444444444444445,-0.5955555555555555,0.4187420900379678,0.9062104501898391,-13.268520611101067
1589985531.4547193,-0.2712158970321432,-4.326079485160716,8.708511279225002,0.4933333333333334,0.29444444444444445,-0.5955555555555555,0.38259935645089516,0.6495032177455242,-11.620032177455242
1589985531.4647193,-0.27839472152808686,-4.361973607640434,8.758763050696608,0.4933333333333334,0.29444444444444445,-0.5955555555555555,0.42746700955054256,0.4251649522472872,-9.37664952247287
1589985531.4747193,-0.24182073309196855,-4.38,8.721635853381606,0.4933333333333334,0.3022222222222222,-0.6022222222222222,0.8034314145547248,0.29205183272992136,-4.854727232802759
1589985531.4847193,-0.19676615990781698,-4.384311786789577,8.724610266513029,0.4933333333333334,0.3022222222222222,-0.6022222222222222,0.4307628331412854,0.13360266513028288,-1.5650903244991266
1589985531.4947193,-0.16437670438516755,-4.405941760962919,8.68,0.4933333333333334,0.3022222222222222,-0.6022222222222222,0.41014559759270286,-0.3827911951854058,1.4920383662978403
1589985531.5047193,-0.15122966492179418,-4.373074162304485,8.68,0.4933333333333334,0.3022222222222222,-0.6022222222222222,0.4923145942387863,-0.5471291884775726,2.6424043193430085
1589985531.5147192,-0.05373182411841533,-4.28,8.664577274706138,0.49638484980409237,0.3050194456537513,-0.6037479804576017,0.4390482150631258,-0.4375,3.9126278841967785
1589985531.5247192,-0.10224762890153476,-4.271009484393861,8.68,0.5066666666666667,0.3144444444444445,-0.6088888888888889,-0.35607216761510607,-0.42345231936540784,4.193809277461631
1589985531.5347192,-0.11453296383409795,-4.2535988915022935,8.648269253161313,0.5066666666666667,0.3144444444444445,-0.6088888888888889,-1.3341343354835704,-0.2333448801844391,4.169986143778673
1589985531.5447192,-0.14576970486312998,-4.27,8.640064655673651,0.5066666666666667,0.3144444444444445,-0.6088888888888889,-1.946717212828802,-0.008813114868479202,4.643434425657604
1589985531.5547192,-0.17324907437920406,-4.27,8.693501851241592,0.5066666666666667,0.3144444444444445,-0.6088888888888889,-2.1039033574350126,-0.0007899276949619033,5.253159710779848
1589985531.5647192,-0.16,-4.262527173041777,8.727472826958223,0.5077737521419589,0.3144444444444445,-0.6088888888888889,-2.0625,-0.06272644201481292,5.983525842444451
1589985531.5747192,-0.1806596176582123,-4.252395770594927,8.75,0.5111111111111111,0.3144444444444445,-0.6088888888888889,-2.0366754779272345,0.0991754779272346,7.126516875237011
1589985531.5847192,-0.22440302116194993,-4.27,8.713992447095125,0.5111111111111111,0.3144444444444445,-0.6088888888888889,-1.8424669560411726,-0.050023602827733896,8.155084970179843
1589985531.5947192,-0.25,-4.247327993592311,8.661336003203845,0.5111111111111111,0.3144444444444445,-0.6088888888888889,-1.5270749899879856,-0.3917000400480577,9.229250100120144
1589985531.6047192,-0.2472785145888594,-4.194082228116711,8.69272148541114,0.5111111111111111,0.3144444444444445,-0.6088888888888889,-1.4800232095490715,-0.8265417771883289,10.26107427055703
1589985531.6147192,-0.23,-4.206853798725049,8.70462200856934,0.5108455312873748,0.31397967975290586,-0.6080921494176799,-1.8396331905110253,-1.3685207440693907,11.169816595255513
1589985531.6247191,-0.23,-4.013992266694534,8.62572410910231,0.5069493387211017,0.30716134276192797,-0.5964035717188606,-3.1545981816281747,-2.190373863517609,11.827299090814087
1589985531.6347191,-0.24812121596348308,-3.3440466605382446,8.433407931023552,0.5066666666666667,0.30666666666666664,-0.5955555555555555,-7.97132849399309,-3.7770687387073254,13.266316923954735
1589985531.6447191,-0.21743354246167776,-2.289476747946446,8.694601254770067,0.5066666666666667,0.30666666666666664,-0.5955555555555555,-13.819351917728477,-4.877283972576159,18.72181214022379
1589985531.654719,-0.3734210271004463,-2.2420022960998645,9.630526162602678,0.5066666666666667,0.30666666666666664,-0.5955555555555555,-16.871280965008733,-5.894593655002911,25.885367820645495
1589985531.664719,-0.2902468758593296,-2.186769531608054,8.948827339668185,0.5089026042144073,0.30517604163483963,-0.5929469617498582,-1.185317302697913,-4.623974533288521,42.73623544868465
1589985531.674719,-0.39479806767240494,-2.2323990338362028,8.474940740589114,0.5133333333333333,0.3022222222222222,-0.5877777777777777,4.880940013919309,0.7584641680142468,55.96050524021042
1589985531.684719,-0.4370471187519898,-2.301678870847925,8.441008702111853,0.5133333333333333,0.3022222222222222,-0.5877777777777777,1.102312825002653,-2.7261123049984084,63.96354664119707
1589985531.694719,-0.45930276981852913,-2.464886978669214,8.760006367398917,0.5133333333333333,0.3022222222222222,-0.5877777777777777,-4.693429640241961,-6.203557784145176,70.36204632282713
1589985531.704719,-0.45655758606034846,-2.5195091372715686,9.257375690607736,0.5133333333333333,0.3022222222222222,-0.5877777777777777,-4.96920155121122,-8.209997875053123,81.9089061835954
1589985531.714719,-0.47,-2.58,9.068830299028393,0.5100859108330101,0.3004736101066636,-0.5910252002781009,-0.6550109266421407,-5.38129461057133,89.7704697670031
1589985531.724719,-0.48993198455242376,-2.6032539819778275,8.81301592791131,0.4988888888888889,0.29444444444444445,-0.6022222222222222,-0.6203239379791343,-6.01799935635099,98.0135358426038
1589985531.734719,-0.53,-2.66870758728414,8.979213791906512,0.4988888888888889,0.29444444444444445,-0.6022222222222222,-3.478931040467444,-7.9733103612854705,103.70257766625205
1589985531.744719,-0.5478563689514893,-2.7578563689514892,8.810718155242554,0.4988888888888889,0.29444444444444445,-0.6022222222222222,-3.3169884702659607,-8.560289623239365,111.06464266001595
1589985531.754719,-0.6030258121503582,-2.7869741878496415,8.620469133379133,0.4988888888888889,0.29444444444444445,-0.6022222222222222,-2.197713220139366,-7.572713220139366,117.15866988909609
1589985531.764719,-0.6669583498611662,-2.727680550046278,8.71,0.5050740887654811,0.290063261198525,-0.607118838791191,-3.076996562210763,-8.553472497686103,124.10911840539468
1589985531.774719,-0.6964609682185879,-2.732921936437176,8.706769515890706,0.5255555555555556,0.27555555555555555,-0.6233333333333333,-3.084618948633825,-9.078833679781612,131.59788624809036
1589985531.784719,-0.7226194203511741,-2.7820839856145545,8.693690289824412,0.5255555555555556,0.27555555555555555,-0.6233333333333333,-3.0788713771948384,-9.43415353289613,138.2348093399619
1589985531.794719,-0.7548646728466066,-2.841350903308749,8.701080249001961,0.5255555555555556,0.27555555555555555,-0.6233333333333333,-3.209461059611611,-9.653712615873875,143.8361082448068
1589985531.804719,-0.7761497733270181,-2.891016137763042,8.79331568441708,0.5255555555555556,0.27555555555555555,-0.6233333333333333,-3.0320852222748496,-10.052808249881588,148.31484813756006
1589985531.814719,-0.8074380774070777,-2.9024793591356923,8.873719038703538,0.5277594303428379,0.2671532829290418,-0.6225068802881024,-3.3279959945980786,-10.25774799729904,155.51808377582026
1589985531.824719,-0.8795191327326828,-2.9172115524667594,8.883269314800557,0.5433333333333333,0.20777777777777776,-0.6166666666666667,-3.4897833912482574,-10.539061362075781,161.33472918704092
1589985531.834719,-0.9415703135635523,-2.924876117438853,8.831735490311749,0.5433333333333333,0.20777777777777776,-0.6166666666666667,-3.6559919113309434,-11.083677451558742,165.38946714616327
1589985531.844719,-1.0086228146000056,-3.0043114073000026,8.774191506566655,0.5433333333333333,0.20777777777777776,-0.6166666666666667,-3.8484283941666897,-11.000749379583414,169.8338364052087
1589985531.854719,-1.06,-3.019263938530935,8.690736061469064,0.5433333333333333,0.20777777777777776,-0.6166666666666667,-4.129600384181654,-11.75,174.1445447638525
1589985531.864719,-1.0617939603930824,-2.980768840168464,8.729743719943846,0.5433333333333333,0.2062685730026451,-0.6170368489700011,-4.371796499298068,-11.754805251052899,177.29001202246184
1589985531.874719,-1.1399064824654621,-3.016604321643641,8.71339567835636,0.5433333333333333,0.14888888888888888,-0.6311111111111111,-4.177765232022671,-11.92718074743181,181.86857066950054
1589985531.884719,-1.1844792773645059,-3.0463195182430036,8.683680481756996,0.5433333333333333,0.14888888888888888,-0.6311111111111111,-3.8527552692171447,-11.880750752745307,184.9329503188098
1589985531.894719,-1.3097750083242163,-3.067174998810826,8.668025020215953,0.5433333333333333,0.14888888888888888,-0.6311111111111111,-3.703750059458688,-12.044843742567664,190.60281299053418
1589985531.9047189,-1.3423991031390134,-2.999654067905189,8.795028827674567,0.5433333333333333,0.14888888888888888,-0.6311111111111111,-3.9996396540679053,-12.110005605381167,194.47397501601537
1589985531.9147189,-1.3213325484319811,-2.8660772771058545,8.830274001926577,0.5496817581790289,0.13537288760450483,-0.6284488684338839,-3.927693192764637,-12.460538638552928,197.80954324092903
1589985531.9247189,-1.4763144531713452,-3.056404622357212,8.917280924471443,0.5777777777777777,0.07555555555555556,-0.6166666666666667,-4.386517333839547,-12.71544799848136,201.37822265856727
1589985531.9347188,-1.559999111841375,-3.0075002775495703,8.860001110198281,0.5777777777777777,0.07555555555555556,-0.6166666666666667,-4.3749972245042965,-13.140624653063037,204.01561493882807
1589985531.9447188,-1.684142567224759,-2.9637861491628614,8.718285134449518,0.5777777777777777,0.07555555555555556,-0.6166666666666667,-4.879455225773719,-13.304009703196346,205.62096492897007
1589985531.9547188,-1.7,-2.922577582166799,8.76524461560405,0.5777777777777777,0.07555555555555556,-0.6166666666666667,-5.5247239032540705,-13.831667583593129,206.71222390325406
1589985531.9647188,-1.7093769994393324,-2.8588278750700833,8.822344249859833,0.5785591943977221,0.06565761170292683,-0.6220063469029532,-5.974590630256258,-14.125,207.26465156162396
1589985531.9747188,-1.8134214235377026,-2.7864992952783654,8.786525722339675,0.5844444444444444,-0.008888888888888889,-0.6622222222222223,-4.999174154334038,-13.811674154334039,207.35411161028892
1589985531.9847188,-1.884792813440013,-2.650414373119974,8.663225152959955,0.5844444444444444,-0.008888888888888889,-0.6622222222222223,-4.375,-13.172522457999959,206.92308390799894
1589985531.9947188,-1.9,-2.599949964260186,8.620614724803431,0.5844444444444444,-0.008888888888888889,-0.6622222222222223,-4.4192280200142955,-13.23557005003574,205.46635989992853
1589985532.0047188,-1.9,-2.426388249731554,8.718889400214756,0.5844444444444444,-0.008888888888888889,-0.6622222222222223,-4.727863984123331,-13.92968390473999,203.54686780947998
1589985532.0147188,-1.9,-2.2655391931277804,8.847568645497775,0.5844444444444444,-0.008888888888888889,-0.6622222222222223,-4.577067993557294,-13.024907961343764,201.73731592268751
1589985532.0247188,-1.9714332925336597,-2.17,8.866791615667074,0.5611111111111111,-0.08888888888888889,-0.6822222222222222,-4.0089580783353735,-12.5625,197.92619912790698
1589985532.0347188,-2.0484400244798042,-2.17,8.963050030599755,0.5611111111111111,-0.08888888888888889,-0.6822222222222222,-4.490250152998776,-12.5625,195.6400617732558
1589985532.0447187,-2.0465665681041436,-2.071791789869821,8.884254252908875,0.5611111111111111,-0.08888888888888889,-0.6822222222222222,-4.595157636035482,-12.307369868668639,190.81719212011828
1589985532.0547187,-2.1109926654122346,-1.9912591682347067,8.827881417764296,0.5611111111111111,-0.08888888888888889,-0.6822222222222222,-3.6891656426404515,-12.257036980146692,187.79721880880152
1589985532.0647187,-2.123692427630634,-1.9422007262581293,8.904963174199372,0.5592203780827788,-0.09393084363110829,-0.6822222222222222,-4.2234115667890775,-10.839088433210923,183.10468426235562
1589985532.0747187,-1.925779086227766,-1.847546519500236,8.96519766940894,0.5362739037172289,-0.15512144193924143,-0.6822222222222222,-3.900726771023532,-11.161773228976468,179.8240555054059
1589985532.0847187,-2.165916440511756,-1.7420417797441219,8.395707541791147,0.5344444444444445,-0.16,-0.6822222222222222,-2.874673595749048,-8.50786505963648,175.97937381696275
1589985532.0947187,-2.256167387355116,-1.7152334774710232,8.715947086968757,0.5344444444444445,-0.16,-0.6822222222222222,-3.8227969961364274,-12.32417387355116,171.64372297418313
1589985532.1047187,-2.3721822367623893,-1.697002302193142,9.107457894099115,0.5344444444444445,-0.16,-0.6822222222222222,-6.489806736944142,-13.159396583060705,166.19379316612142
1589985532.1147187,-2.3482790261038096,-1.5117209738961905,8.848089455514506,0.5314017254490273,-0.16509478529465205,-0.6841327667077167,-3.8192757858397433,-11.392531872690933,162.59637892919872
1589985532.1247187,-2.4806580728327425,-1.3917763454721237,8.867961327747341,0.4866666666666667,-0.24,-0.7122222222222222,-3.155430228810828,-9.823602159200773,157.56741862713503
1589985532.1347187,-2.521208830164357,-1.3985348050273927,9.050439735739607,0.4866666666666667,-0.24,-0.7122222222222222,-3.746795439896874,-9.865842531421205,154.01922736061874
1589985532.1447186,-2.460794588885643,-1.2712595222579268,8.773508011055931,0.4866666666666667,-0.24,-0.7122222222222222,-3.3273985416058065,-9.685439653041504,147.4905437518258
1589985532.1547186,-2.47,-1.1684478654181876,8.930172459397978,0.4866666666666667,-0.24,-0.7122222222222222,-3.4978442575252604,-8.934266386287891,142.21333584616198
1589985532.1647186,-2.47,-1.1018822409141407,8.937568639898428,0.4866666666666667,-0.24,-0.7122222222222222,-3.40539200126964,-8.79558800190446,137.96053205840343
1589985532.1747186,-2.5172066538707614,-0.9962755384943485,8.91487886542973,0.4455555555555555,-0.2855555555555556,-0.7266666666666667,-3.25,-7.795041586692259,130.2032069737684
1589985532.1847186,-2.463536788227767,-0.9247157176370229,8.816484111750906,0.4455555555555555,-0.2855555555555556,-0.7266666666666667,-3.25,-7.459604926423545,124.50078374920025
1589985532.1947186,-2.5786713286713283,-0.8367832167832168,8.798671328671329,0.4455555555555555,-0.2855555555555556,-0.7266666666666667,-3.076486013986014,-7.338286713286713,116.10882867132867
1589985532.2047186,-2.532430479249429,-0.78,8.769443833995435,0.4455555555555555,-0.2855555555555556,-0.7266666666666667,-2.054904752345533,-6.337023761727664,110.07923701504522
1589985532.2147186,-2.550209560489352,-0.7795808790212959,8.910419120978704,0.44518300357448515,-0.2857069047978654,-0.7270974298947792,-1.9993451234707749,-6.061845123470775,103.79837944608066
1589985532.2247186,-2.5915647620514397,-0.7276772788277486,8.934596598534686,0.41,-0.3,-0.7677777777777778,-1.8412287408417858,-5.759321852104464,95.45538051968053
1589985532.2347186,-2.706995062025774,-0.6575960496206191,8.854206913163916,0.41,-0.3,-0.7677777777777778,-1.3125,-4.414962965193304,88.92801547633385
1589985532.2447186,-2.670912578930163,-0.6287300631441304,8.904722389497772,0.41,-0.3,-0.7677777777777778,-1.3125,-4.144344341976222,83.56074611586173
1589985532.2547185,-2.732508439628859,-0.5381271099072147,8.891123734055672,0.41,-0.3,-0.7677777777777778,-1.4304766621520548,-3.777383310760274,74.29093093654612
1589985532.2647185,-2.562935575815157,-0.49573389395378925,8.916559663627726,0.41,-0.3,-0.7677777777777778,-1.2715021023267097,-2.9825105116335484,68.14391462329944
1589985532.2747185,-2.5863730118714763,-0.45362698812852364,9.03681349406426,0.38222222222222224,-0.3588888888888889,-0.8266666666666667,-1.7826265068524545,-2.732837351606545,59.059512077737544
1589985532.2847185,-2.609108913168488,-0.4139493962047153,8.99216722254169,0.38222222222222224,-0.3588888888888889,-0.8266666666666667,-1.4510451408855665,-2.0250963197239793,52.69630103507763
1589985532.2947185,-2.5282414110212454,-0.37,8.80582730080879,0.38222222222222224,-0.3588888888888889,-0.8266666666666667,-0.21497795279303922,0.04051763776556863,46.740958581904785
1589985532.3047185,-2.4856762707163162,-0.3677373275084945,8.966605991262742,0.38222222222222224,-0.3588888888888889,-0.8266666666666667,-0.5494959607516816,-0.2440668122876361,40.42713859129048
1589985532.3147185,-2.173016087649955,-0.33865265931627486,8.922978988974412,0.38222222222222224,-0.3588888888888889,-0.8266666666666667,-1.185723077456487,-0.9711835170931281,35.47365603980307
1589985532.3247185,-2.333706005100858,-0.25875399953628564,8.658722003246,0.2933333333333333,-0.4311111111111111,-0.8622222222222222,1.0747811847901692,0.06968757245536752,27.950581092047297
1589985532.3347185,-2.546304665452435,-0.24330244380841823,8.798406220603246,0.2933333333333333,-0.4311111111111111,-0.8622222222222222,-1.5493652803074276,2.874281968656806,21.380490312831494
1589985532.3447185,-2.7225957208334166,-0.3356453775794087,9.033460961111222,0.2933333333333333,-0.4311111111111111,-0.8622222222222222,-1.1820922482637153,-0.6410456237615834,16.291135440225766
1589985532.3547184,-2.6398669654680655,-0.293833146582459,9.035332586329837,0.2933333333333333,-0.4311111111111111,-0.8622222222222222,-1.37832586329836,0.31854563512274625,8.914980391158196
1589985532.3647184,-2.7082267495161454,-0.2511082815524091,8.864433126209637,0.2933333333333333,-0.4311111111111111,-0.8622222222222222,0.3306687379036364,1.226449017011307,4.428869563002953
1589985532.3747184,-2.377203720542547,-0.2654788967189513,8.80582386148367,0.24517676576326267,-0.4715282303217061,-0.8966197704865584,-0.15708707471395011,1.056513791013109,-0.2827974634386603
1589985532.3847184,-2.684731385966704,-0.29905372280665915,9.074322336839955,0.2311111111111111,-0.4833333333333333,-0.9066666666666666,-1.2460571783610799,1.047313859667041,-7.987955562931944
1589985532.3947184,-2.791827188234093,-0.2776345623531815,8.94580737411909,0.2311111111111111,-0.4833333333333333,-0.9066666666666666,-1.1568106764715895,2.1182718823409252,-11.959424897014266
1589985532.4047184,-2.67,-0.32,8.850863750786658,0.2311111111111111,-0.4833333333333333,-0.9066666666666666,0.5544023363750786,1.997300778791693,-18.408836139081185
1589985532.4147184,-2.67,-0.32,8.867361154814349,0.2311111111111111,-0.4833333333333333,-0.9066666666666666,0.39973917361548145,1.9457463912051605,-22.636295921176842
1589985532.4247184,-2.60678109674543,-0.3436513597860009,8.978345965225145,0.12222222222222222,-0.4266666666666667,-0.7411111111111112,-0.2239188586714222,1.77934128399465,-28.935270842621488
1589985532.4347184,-2.724545534574585,-0.41068180817817684,9.12386372639641,0.12222222222222222,-0.4266666666666667,-0.7411111111111112,0.28622105946564547,2.3018467472159867,-33.590906840089794
1589985532.4447184,-2.576852414278797,-0.4291434482151503,8.957708966063647,0.12222222222222222,-0.4266666666666667,-0.7411111111111112,1.2669956864298604,2.013383621638276,-37.74477584840882
1589985532.4547184,-2.757732954545454,-0.44976136363636365,9.019164772727272,0.12222222222222222,-0.4266666666666667,-0.7411111111111112,-0.23135653409090917,3.049822443181818,-42.630823863636365
1589985532.4647183,-2.8019092673459487,-0.46676370693837943,8.978090732654051,0.12222222222222222,-0.4266666666666667,-0.7411111111111112,0.8501182678311499,3.2720463367297428,-45.778308466763704
1589985532.4747183,-2.913832370572207,-0.4811474659400545,9.018995967302452,0.2311111111111111,-0.38333333333333336,-0.6966666666666667,1.118724795640327,3.993724795640327,-50.80558038147139
1589985532.4847183,-2.520688174386921,-0.5542905722070846,8.954995749318801,0.2311111111111111,-0.38333333333333336,-0.6966666666666667,0.7187234332425068,3.593723433242507,-54.348449591280655
1589985532.4947183,-2.588167509361315,-0.5845418773403287,8.909096871099452,0.2311111111111111,-0.38333333333333336,-0.6966666666666667,0.4829843554972604,2.5399217774863017,-58.510797245552055
1589985532.5047183,-2.5748094986807386,-0.6163928759894459,8.93519050131926,0.2311111111111111,-0.38333333333333336,-0.6966666666666667,0.5474703166226913,3.082292216358839,-62.94903529023747
1589985532.5147183,-2.6973446447959466,-0.64387712089924,8.84449151640304,0.2311111111111111,-0.38333333333333336,-0.6966666666666667,1.4578920337214996,4.779308059949333,-66.47188411427841
1589985532.5247183,-2.8585913708735937,-0.7223326461163964,8.972702252912391,0.28826283149937487,-0.3779753595469336,-0.6680908064725347,1.6372689957525026,4.886113974515015,-70.61547728458233
1589985532.5347183,-2.829529427765122,-0.7212940736459148,8.830117643058719,0.3022222222222222,-0.37666666666666665,-0.6611111111111111,1.4375,5.18235311618102,-75.93308626024276
1589985532.5447183,-2.801007446193601,-0.7997295229675971,8.8372481384516,0.3022222222222222,-0.37666666666666665,-0.6611111111111111,1.4375,4.870393942742512,-79.45376836047737
1589985532.5547183,-2.7701996230294723,-0.9407984921178889,8.988602638793694,0.3022222222222222,-0.37666666666666665,-0.6611111111111111,1.5749764393420151,4.879366753769705,-86.18426308687457
1589985532.5647182,-2.7821778615490063,-0.9887114461960247,8.904754969156956,0.3022222222222222,-0.37666666666666665,-0.6611111111111111,2.3236163468128854,5.14139072138451,-89.7403026473612
1589985532.5747182,-2.703751481627815,-1.054499407348874,8.918998814697748,0.3354438737433601,-0.3817776899776109,-0.6566389657140348,2.6328155867246146,5.3125,-96.05149397471355
1589985532.5847182,-2.776853587436918,-1.021348462527035,8.813595900072094,0.36,-0.3855555555555555,-0.6533333333333333,2.1334278907939694,5.3125,-106.75910964486098
1589985532.5947182,-2.4288166394548165,-1.4297139206360474,8.751469439909137,0.36,-0.3855555555555555,-0.6533333333333333,2.7346933342798323,5.373469333427983,-115.71708401362959
1589985532.6047182,-2.705960267887343,-1.5506942972467135,8.989837644034546,0.36,-0.3855555555555555,-0.6533333333333333,2.346427041288024,6.873985275215911,-127.98703548154329
1589985532.6147182,-2.6889378265969928,-1.436813479790978,8.730777220859549,0.36,-0.3855555555555555,-0.6533333333333333,3.6983483523514984,9.104436386904126,-140.29209768582703
1589985532.6247182,-2.4400428979980933,-1.2900214489990467,9.181908484270734,0.38577317021501967,-0.3526725452812202,-0.6711079334816227,2.6502413012392756,8.962607244995233,-154.14796234509058
1589985532.6347182,-2.698632194484847,-1.6184612187954526,9.329914512155304,0.3922222222222223,-0.34444444444444444,-0.6755555555555556,-1.1725396271780104,7.443377289322925,-167.26842033007807
1589985532.6447182,-2.5422202533888543,-1.6196828209444494,8.547453707805438,0.3922222222222223,-0.34444444444444444,-0.6755555555555556,4.3224118454859575,11.566464738194384,-172.2995592274298
1589985532.6547182,-2.6722818286524324,-1.6011025959067955,8.984088996190307,0.3922222222222223,-0.34444444444444444,-0.6755555555555556,4.903043877912642,11.798717551165057,-175.2027193895632
1589985532.6647182,-2.7047909684986595,-1.864436997319035,9.167009467158177,0.3922222222222223,-0.34444444444444444,-0.6755555555555556,2.2001638949396782,10.572951575067025,-177.13102693532173
1589985532.6747181,-2.7664323016481407,-1.8796912131084706,8.81303564584132,0.4513417763297986,-0.3014484050934798,-0.6692852998168732,3.942755246262936,10.514043934457646,-176.94575418024147
1589985532.6847181,-2.8660563845743194,-1.9990845768614791,8.883507130691207,0.4655555555555556,-0.2911111111111111,-0.6677777777777778,5.199208124666344,12.014701489691639,-176.00572139461576
1589985532.6947181,-2.6450981721998033,-1.9458204754315167,8.68746142629455,0.4655555555555556,-0.2911111111111111,-0.6677777777777778,4.5784317881243854,10.975039421479195,-175.29547246430872
1589985532.704718,-2.604676103905436,-2.018632917759494,8.871006718643336,0.4655555555555556,-0.2911111111111111,-0.6677777777777778,3.9069247835303416,10.1875,-173.4109734847124
1589985532.714718,-2.5293776978417264,-2.0804888958398498,8.97853331248045,0.4655555555555556,-0.2911111111111111,-0.6677777777777778,3.091388411010322,11.498611979981233,-171.40611022051922
1589985532.724718,-2.403076979499028,-2.1153845307514576,8.789231305240767,0.5073930229051805,-0.2807692652494061,-0.6710683650974112,3.7067265375728904,11.57692677962372,-168.97115790149266
1589985532.734718,-2.3189175648121174,-2.27980017477425,9.028118263909118,0.5644444444444444,-0.26666666666666666,-0.6755555555555556,3.194629332944946,10.68286848237693,-166.7398521701136
1589985532.744718,-2.445746371152344,-2.420200630167237,8.56879621899658,0.5644444444444444,-0.26666666666666666,-0.6755555555555556,2.8985252336196914,11.330457409851077,-164.85453471305846
1589985532.754718,-2.297322510468081,-2.420962361692671,8.419623616926712,0.5644444444444444,-0.26666666666666666,-0.6755555555555556,5.8747324498818685,10.640691887529533,-163.50130997216309
1589985532.764718,-2.2719744993211135,-2.6045865156143924,8.626688518329939,0.5644444444444444,-0.26666666666666666,-0.6755555555555556,3.2280966246605565,10.361862483027835,-163.82643441318737
1589985532.774718,-2.276759034896966,-2.7649035932484205,8.801662628145387,0.7259102780941862,-0.2674176705441073,-0.7040937028983005,3.598343170756964,10.734939681060371,-163.13486460598529
1589985532.784718,-2.3143062169743622,-2.922918650923087,8.791387566051275,0.8033333333333333,-0.2677777777777778,-0.7177777777777777,3.588965359775589,10.723086143910235,-162.96441385608978
1589985532.794718,-2.3381861736879035,-3.0854893895032305,8.843651607907663,0.8033333333333333,-0.2677777777777778,-0.7177777777777777,3.329504621675902,10.7443317927747,-163.45465434219759
1589985532.804718,-2.1933437146696817,-3.1325902856289596,8.80111457155656,0.8033333333333333,-0.2677777777777778,-0.7177777777777777,3.8217232129524947,11.157378570361995,-164.36567946201924
1589985532.814718,-2.18260210669385,-3.16260210669385,8.752329822176916,0.8033333333333333,-0.2677777777777778,-0.7177777777777777,3.6549736663268773,10.73203505493261,-165.9751316683656
1589985532.824718,-2.1197251800367494,-3.2099705550039372,8.869990185001312,1.4844444444444445,-0.57,-1.5377777777777777,3.18854284361055,11.312193281291014,-168.62868062450784
1589985532.834718,-1.9856929274945505,-3.1956099565172735,8.86520331883909,1.4844444444444445,-0.57,-1.5377777777777777,3.697147373346572,11.162603713721596,-170.42375543534084
1589985532.844718,-1.8516606749523516,-3.1812493580306094,8.86041645267687,1.4844444444444445,-0.57,-1.5377777777777777,4.205751903082595,11.013014146152178,-172.21883024617387
1589985532.854718,-1.6917611344280998,-2.984948861089605,8.844395908887169,1.4844444444444445,-0.57,-1.5377777777777777,3.2747443054480256,10.804948861089605,-173.83788354182795
1589985532.864718,-1.5257775119617223,-2.815333087964667,8.682332995951416,1.4844444444444445,-0.57,-1.5377777777777777,3.8062517252484356,10.660416474972395,-174.3694447000368
1589985532.874718,-1.4756453061835604,-2.8760570444677347,8.607458451864051,1.232430669927301,-0.5148719868243748,-1.3277662990134917,4.724416080251535,11.282363564904927,-174.29696155861657
1589985532.884718,-1.6083294813979707,-3.3134844983089065,8.833484498308906,0.6311111111111111,-0.38333333333333336,-0.8266666666666667,4.2423936020293125,11.73762154735062,-173.97538754227733
1589985532.894718,-1.5259493670886077,-3.2953164556962027,8.77126582278481,0.6311111111111111,-0.38333333333333336,-0.8266666666666667,4.488132911392405,11.429588607594937,-173.46598101265823
1589985532.904718,-1.4982308387971965,-3.3606149672168213,8.761769161202803,0.6311111111111111,-0.38333333333333336,-0.8266666666666667,4.577164113723717,11.341828227447435,-172.25697702351346
1589985532.914718,-1.4840565954049498,-3.564528519471303,8.76405659540495,0.6311111111111111,-0.38333333333333336,-0.8266666666666667,4.27712232768562,11.29893883615719,-170.00235629379935
1589985532.924718,-1.39697032693326,-3.664464688462217,8.776605934613347,0.6089698649599805,-0.16376597566795456,-0.774388724365386,4.125,11.513382788444567,-167.76124629822118
1589985532.934718,-1.307429681063905,-3.671285159468048,8.79,0.5911111111111111,0.013333333333333334,-0.7322222222222222,4.512927356714134,11.060742026597623,-165.47238731316935
1589985532.944718,-1.2031364959254947,-3.790553550640279,8.782103317811409,0.5911111111111111,0.013333333333333334,-0.7322222222222222,4.615082945285216,10.921125582072177,-162.61139224388825
1589985532.9547179,-1.122109676497213,-3.7372995378531613,8.647679260565058,0.5911111111111111,0.013333333333333334,-0.7322222222222222,3.6838075896898377,10.431434322740483,-159.95411286864547
1589985532.9647179,-1.103536176240355,-3.765246766317516,8.768667946471837,0.5911111111111111,0.013333333333333334,-0.7322222222222222,4.0655845789689495,10.433696695493346,-157.84364516159093
1589985532.9747179,-1.0181915314602294,-3.8081796596755044,8.640933913731697,0.5800013190871917,0.14968078089961748,-0.7190924680121356,3.8068856351404827,10.045508508112386,-154.77866541353384
1589985532.9847178,-0.9509479558162984,-3.8463397194976627,8.633627394811624,0.5788888888888889,0.16333333333333333,-0.7177777777777777,3.8351712175726465,9.886438376569805,-152.09253469039325
1589985532.9947178,-0.8884698414153451,-3.8847877898982492,8.648045421211844,0.5788888888888889,0.16333333333333333,-0.7177777777777777,3.9252838825740213,9.766288156567972,-149.47926740535337
1589985533.0047178,-0.8380222757375075,-3.8816044551475013,8.666791089704997,0.5788888888888889,0.16333333333333333,-0.7177777777777777,3.9375,9.540111378687538,-146.55386438892234
1589985533.0147178,-0.7650828356133543,-3.9634649256399728,8.72100634344665,0.5788888888888889,0.16333333333333333,-0.7177777777777777,3.908519123041676,9.528980876958324,-144.87428404470873
1589985533.0247178,-0.69,-4.06,8.775720265527884,0.5779378367839744,0.16503164066353784,-0.7195440174011904,3.8673576170140795,9.55103642552112,-143.37007948923934
1589985533.0347178,-0.669687146238551,-4.039687146238551,8.81833522006106,0.5633333333333334,0.19111111111111112,-0.7466666666666667,3.5807262186545916,9.417318445336353,-139.72458063188228
1589985533.0447178,-0.5612170976714808,-4.073464477024548,8.810730258602888,0.5633333333333334,0.19111111111111112,-0.7466666666666667,3.722261530239168,9.33871709767148,-137.08532058134026
1589985533.0547178,-0.43385001275401747,-4.129505994388232,8.734310007652411,0.5633333333333334,0.19111111111111112,-0.7466666666666667,4.008837471303461,9.211350012754018,-134.69718773913783
1589985533.0647178,4.995028737205101,-8.344602331818928,4.241725327056763,0.5633333333333334,0.19111111111111112,-0.7466666666666667,3.9847521758169577,9.032004351633915,-132.34517830751545
1589985533.0747178,6.959935367167334,-14.691950366862462,0.6874102152395277,0.5110867665291356,0.23425047819714595,-0.6968167313672486,-101.2147072722099,39.75518536208614,-398.81334855998864
1589985533.0847178,2.404894489803968,-8.92538910582574,-0.8892841083895398,0.44222222222222224,0.2911111111111111,-0.6311111111111111,-239.8125,80.375,-751.5625
1589985533.0947177,-0.0551441771269177,-0.219254009762901,-0.7685857740585774,0.44222222222222224,0.2911111111111111,-0.6311111111111111,-241.7103262290795,-11.186791753835422,-356.94782513947
1589985533.1047177,0.2719699530516433,-0.7747154929577464,2.068281690140845,0.44222222222222224,0.2911111111111111,-0.6311111111111111,-240.14086854460095,-82.47286384976526,-4.593016431924883
1589985533.1147177,0.7781420233463034,-0.7364368514915693,5.163897535667964,0.44222222222222224,0.2911111111111111,-0.6311111111111111,-192.43474130593387,-20.071741245136188,6.5290562175745785
1589985533.1247177,0.5648714188633356,-0.44701312636360385,3.692152437497765,0.3789973810857963,0.4798693324749336,-0.6246969967929229,-131.28504238349012,56.89714179691691,18.231298508530347
1589985533.1347177,1.0905233670401748,-0.9335088138835748,3.931282112599071,0.3655555555555556,0.52,-0.6233333333333333,-33.24613111505876,32.298758198961465,9.488115776168351
1589985533.1447177,1.7591965017764417,-1.4923285050560262,4.7480185843126534,0.3655555555555556,0.52,-0.6233333333333333,69.80117518447665,-5.791729297622297,-2.2733670401749144
1589985533.1547177,0.9321565443325756,-1.3872423792511483,4.328540110425463,0.3655555555555556,0.52,-0.6233333333333333,138.54794576161092,3.6624512828840565,-3.9338621653598107
1589985533.1647177,0.9021105527638191,-2.0866733668341713,6.463125628140704,0.3655555555555556,0.52,-0.6233333333333333,195.71155778894473,17.660866834170854,-3.0322236180904523
1589985533.1747177,0.8879370840895342,-2.6268566243194194,7.10216091954023,0.36837153547982343,0.5571709350003361,-0.5979895140149224,258.22901542649726,14.044938495664448,-4.271488707400685
1589985533.1847177,0.7035177137294442,-2.693115808503981,6.3150259013315715,0.3711111111111111,0.5933333333333334,-0.5733333333333334,336.3569625039113,5.682476184681709,-4.824438080172444
1589985533.1947176,3.389343038447182,-1.3754639790966778,8.345106382978724,0.3711111111111111,0.5933333333333334,-0.5733333333333334,337.7422499066816,12.449356103023515,3.1105543113101906
1589985533.2047176,1.2694318521284544,-0.06579592979835691,2.366289581777445,0.3711111111111111,0.5933333333333334,-0.5733333333333334,190.07904452949964,18.56031553398058,17.862058905899925
1589985533.2147176,-0.418584686774942,0.1276411446249034,-1.54081722093323,0.3711111111111111,0.5933333333333334,-0.5733333333333334,70.12002126836813,3.4882701727249312,31.096545501417893
1589985533.2247176,0.20150206927343597,-0.0965493792179692,-1.0753545240671096,0.3797983770179948,0.5594987187486286,-0.6117401931321873,16.143696443597275,-11.312779051396975,40.66949474524754
1589985533.2347176,1.0945897406251204,-1.732752534011639,4.013279762592978,0.3922222222222223,0.5111111111111111,-0.6666666666666666,-52.38311991752418,-8.913190831309977,51.35236491694608
1589985533.2447176,0.974436100028684,-4.1798842212313225,11.477256512555737,0.3922222222222223,0.5111111111111111,-0.6666666666666666,-122.56312420141333,-12.788249041696002,61.96489967143863
1589985533.2547176,0.536133917816875,-2.212494520466797,8.208596054736093,0.3922222222222223,0.5111111111111111,-0.6666666666666666,-87.0812933179314,-13.068405307742431,67.22033647295777
1589985533.2647176,2.5708198502218935,-4.055764839127219,6.264056259245562,0.3922222222222223,0.5111111111111111,-0.6666666666666666,-21.874952327570266,-8.383221327200443,72.39531712278107
1589985533.2747176,0.30447500000000005,-9.358075,3.0818000000000003,0.39740000000000003,0.46580555555555553,-0.6789638888888889,40.230937499999996,-0.026406249999999964,2.9835937500000114
1589985533.2847176,-2.691018048407289,-6.7275678119349,7.612215885380442,0.4011111111111111,0.43333333333333335,-0.6877777777777778,51.43125021734595,16.949323619418557,-70.1928477969815
1589985533.2947176,-0.31009442060085823,-0.8997596566523605,10.193459227467812,0.4011111111111111,0.43333333333333335,-0.6877777777777778,44.490826180257514,18.475858369098713,-62.49087982832618
1589985533.3047175,0.6572552052349793,-1.2129660916121359,7.687760261748959,0.4011111111111111,0.43333333333333335,-0.6877777777777778,16.404368679357525,3.572947650208209,-27.497631618084473
1589985533.3147175,-0.39737240075614366,-3.612533081285444,9.211001890359169,0.4011111111111111,0.43333333333333335,-0.6877777777777778,-18.618620037807183,1.4302930056710776,-5.0061436672967865
1589985533.3247175,-0.4764132563787835,-3.469239769136351,10.46302812671385,0.40450137688287646,0.43468943964203943,-0.6965924687843676,-17.612399127732367,-7.283180120654984,28.80103026820924
1589985533.3347175,-0.31425106616158005,-3.1758702022728897,8.946683105806112,0.4066666666666667,0.4355555555555555,-0.7022222222222222,-3.7224272151144784,-3.3871685369165885,54.41191361113096
1589985533.3447175,0.5001767035886246,-2.8175067005052066,9.789557648063376,0.4066666666666667,0.4355555555555555,-0.7022222222222222,-3.4029064182538367,-6.056917233936577,50.967508479400394
1589985533.3547175,0.08105798706818823,-3.0213673716479046,8.603504984672455,0.4066666666666667,0.4355555555555555,-0.7022222222222222,3.9674450655606783,1.6052641747597818,18.54811915556815
1589985533.3647175,-0.29798577341960375,-3.069822167745047,8.158590403086444,0.4066666666666667,0.4355555555555555,-0.7022222222222222,5.797688180685609,3.307831903307479,-3.437137051400555
1589985533.3747175,-0.0720695102685624,-4.212203791469195,8.889539231174302,0.4220025159440641,0.4355555555555555,-0.7070651219940319,-1.8109037651395479,-1.219391785150079,-10.704021853607161
1589985533.3847175,0.126667507647671,-4.5209079441168125,8.886211012646251,0.42777777777777776,0.4355555555555555,-0.7088888888888889,-1.9336958749881736,-0.8437421158030844,-5.074768795925447
1589985533.3947175,0.08299519829272628,-4.4318840476613905,8.481932420416149,0.42777777777777776,0.4355555555555555,-0.7088888888888889,0.19761470745153834,0.287137648941846,0.22463764894184599
1589985533.4047174,0.04833624909087335,-4.275264678709728,8.569255400703714,0.42777777777777776,0.4355555555555555,-0.7088888888888889,0.24730947653961827,0.08500579875375941,0.3417321074047137
1589985533.4147174,0.14729036399514991,-4.128927985544804,8.8845807279903,0.42777777777777776,0.4355555555555555,-0.7088888888888889,0.125,-0.21113531537528826,0.19931765768764415
1589985533.4247174,0.06490186634557496,-4.337060806742926,8.770785069235401,0.42777777777777776,0.4417866077998528,-0.6941609472205499,-0.22549668874172185,-0.12622667068031307,0.06127332931968693
1589985533.4347174,0.03433886157179765,-4.452830569214101,8.621818318193183,0.42777777777777776,0.4477777777777778,-0.68,-0.5357696474706225,-0.1875,0.026730352529377447
1589985533.4447174,0.005849513629897343,-4.499247568149487,8.37,0.42777777777777776,0.4477777777777778,-0.68,-0.408601349532854,-0.1875,0.0442202699065708
1589985533.4547174,0.03614747492068936,-4.4408202006344855,8.52743788047672,0.42777777777777776,0.4477777777777778,-0.68,0.216186873017234,-0.13703914087284574,0.025230429563577125
1589985533.4647174,0.06216455314009662,-4.286797403381643,8.755670893719806,0.42777777777777776,0.4477777777777778,-0.68,0.6636869716183575,-0.07602845712560387,0.04897154287439613
1589985533.4747174,0.05620546881738981,-4.406205468817389,8.648036458782599,0.41909233221835657,0.44215778359226987,-0.690218171246378,0.125,-0.06752278673912418,0.05747721326087582
1589985533.4847174,0.03458896106930878,-4.460343506098986,8.512944805346544,0.4088888888888889,0.4355555555555555,-0.7022222222222222,-0.0779139599009207,0.2029139599009207,0.057362013366359765
1589985533.4947174,0.04615367902665121,-4.417693366164542,8.538461037079953,0.4088888888888889,0.4355555555555555,-0.7022222222222222,-0.014425514194669753,0.20673251013904984,0.0
1589985533.5047174,0.06,-4.385067918064033,8.618547542644825,0.4088888888888889,0.4355555555555555,-0.7022222222222222,0.1875,-0.040752346370062975,0.06883489758004198
1589985533.5147173,0.06,-4.367939364163033,8.735930111158877,0.4088888888888889,0.4355555555555555,-0.7022222222222222,0.24717368830477593,-0.09516315584761204,0.15483684415238796
1589985533.5247173,0.055062864705528486,-4.374057029417073,8.741131564699513,0.41931173006610656,0.4361041261438301,-0.6983822281043,0.003929044095530243,-0.1550712867713409,0.09492871322865909
1589985533.5347173,0.05548322997641715,-4.400650930212246,8.677416149882086,0.43,0.43666666666666665,-0.6944444444444444,-0.38104037470521446,-0.25,0.06854037470521443
1589985533.5447173,0.06,-4.40341911764706,8.634871323529412,0.43,0.43666666666666665,-0.6944444444444444,-0.4375,-0.3517635569852941,0.125
1589985533.5547173,0.06,-4.417259135898261,8.630029901023827,0.43,0.43666666666666665,-0.6944444444444444,-0.1816652788554342,-0.2953695993641301,0.039721759618478084
1589985533.5647173,0.06307359307359307,-4.399220779220779,8.686926406926407,0.43,0.43666666666666665,-0.6944444444444444,0.24025974025974026,-0.1057900432900433,-0.024080086580086577
1589985533.5747173,0.06638702690044786,-4.394709188303135,8.701677838597313,0.43,0.43867387394419566,-0.6920357957114097,0.45483783625559815,-0.017337836255598163,0.03991891812779908
1589985533.5847173,0.06,-4.359907276725638,8.746604851150424,0.43,0.44222222222222224,-0.6877777777777778,0.23051888108445204,0.04185984015492172,0.020640159845078283
1589985533.5947173,0.059556495847045914,-4.380887008305908,8.753347437705688,0.43,0.44222222222222224,-0.6877777777777778,-0.06527190095596301,0.011087603823852061,0.06527190095596301
1589985533.6047173,0.05303729341524617,-4.396962706584754,8.613037293415246,0.43,0.44222222222222224,-0.6877777777777778,-0.125,0.19305074846413428,0.08703383230942285
1589985533.6147172,0.06,-4.39052777863562,8.621055557271239,0.43,0.44222222222222224,-0.6877777777777778,-0.09201383527377166,0.049305534109508664,0.006597232945245669
1589985533.6247172,0.055280842422593,-4.390561684845187,8.656517051520925,0.43,0.4396004680125517,-0.6927591107761518,0.39676842799422196,-0.15800526514120627,0.09550526514120627
1589985533.6347172,0.043564907228639684,-4.36178245361432,8.708217546385681,0.43,0.4311111111111111,-0.7088888888888889,0.017938659642003994,-0.11820167544749502,0.011140335089499001
1589985533.6447172,0.05665008060824393,-4.3833996775670245,8.65645104790717,0.43,0.4311111111111111,-0.7088888888888889,-0.29218498099237705,-0.3540630038015246,0.04156300380152459
1589985533.6547172,0.05,-4.416048638684061,8.57,0.43,0.4311111111111111,-0.7088888888888889,-0.31098004112308564,-0.23689201644923424,0.0
1589985533.6647172,0.053740550347747204,-4.422518899304506,8.596183852434232,0.43,0.4311111111111111,-0.7088888888888889,0.17175687934684003,-0.13263531902026005,0.0
1589985533.6747172,0.0583141334869321,-4.4032565339477285,8.655172798617611,0.43,0.432984296125631,-0.7040186078511372,0.2710733314133487,-0.19731667146662826,0.021073331413348693
1589985533.6847172,0.05379174378369679,-4.37,8.733791743783698,0.43,0.44222222222222224,-0.68,0.23280960811137041,0.10989679729620985,0.03020640540758028
1589985533.6947172,0.056583117523739054,-4.387084412381305,8.695580527808607,0.43,0.44222222222222224,-0.68,-0.021355515476630907,0.1661444845233691,-0.06093345357010729
1589985533.7047172,0.05,-4.414961951601458,8.599923903202916,0.43,0.44222222222222224,-0.68,-0.09398780249088551,0.06202439501822897,0.031012197509114485
1589985533.7147171,0.055735769128938316,-4.3956605771776545,8.618678845644691,0.43,0.44222222222222224,-0.68,-0.07122716441620333,-0.05377283558379666,0.03584855705586445
1589985533.7247171,0.06684061424410909,-4.367898464389728,8.674203071220544,0.43,0.44222222222222224,-0.68,0.032880758538522625,-0.15788075853852263,0.10525383902568176
1589985533.7347171,0.032246552770791775,-4.389251149076403,8.7,0.43,0.44222222222222224,-0.7022222222222222,0.1828196817275171,0.1687787269100685,-0.009360636544965745
1589985533.7447171,0.059527144219928885,-4.380157618593357,8.7,0.43,0.44222222222222224,-0.7022222222222222,0.1259851162084815,-0.05855953516607407,-0.12302976758303703
1589985533.754717,0.03272909182580198,-4.38,8.575458183651604,0.43,0.44222222222222224,-0.7022222222222222,-0.29544317608873766,-0.1875,0.0625
1589985533.764717,0.039337618957584926,-4.38,8.58867523791517,0.43,0.44222222222222224,-0.7022222222222222,-0.2541398815150942,-0.1875,0.0625
1589985533.774717,0.06,-4.39,8.676168128996622,0.43057112305524275,0.4416510991669794,-0.7014226499448822,0.051401074971851035,0.012850268742962759,0.05607486562851862
1589985533.784717,0.06,-4.39,8.729631620318242,0.4355214463257631,0.436700775896459,-0.6944921973661538,0.49693016931868883,0.12423254232967221,0.0003837288351638962
1589985533.794717,0.05,-4.386277552908523,8.657665317451139,0.4355555555555555,0.43666666666666665,-0.6944444444444444,0.26596941135653984,-0.008673528391349591,0.0625
1589985533.804717,0.05,-4.387965987675915,8.627965987675914,0.4355555555555555,0.43666666666666665,-0.6944444444444444,0.11281886553830422,0.16260628851276807,-0.012181134461695775
1589985533.814717,0.04704605451720445,-4.3970460545172045,8.645907890965592,0.4355555555555555,0.43666666666666665,-0.6944444444444444,0.0,0.051151362930111174,-0.06961352219758338
1589985533.824717,0.040718951290522096,-4.390718951290522,8.658562097418956,0.4355555555555555,0.43666666666666665,-0.6944444444444444,0.0,-0.10702621773694768,0.04901966330271079
1589985533.834717,0.05970640735313708,-4.4,8.70401838284268,0.4355555555555555,0.4488888888888889,-0.68,0.04288996936192887,-0.20711003063807112,0.0
1589985533.844717,0.04815886350764584,-4.387761704738532,8.688808523692655,0.4355555555555555,0.4488888888888889,-0.68,0.04851065461582027,-0.04851065461582027,0.02549644846139324
1589985533.854717,0.05588002346729246,-4.382359929598123,8.61647990613083,0.4355555555555555,0.4488888888888889,-0.68,-0.16549941331768847,0.11399970665884424,0.03675014667057788
1589985533.864717,0.05,-4.409798791287042,8.653065055049389,0.4355555555555555,0.4488888888888889,-0.68,-0.3329141485146707,0.044600960397305045,0.0
1589985533.874717,0.051571530558400844,-4.425285408324798,8.686286122233604,0.4346824830231106,0.44609505678506517,-0.6845399771687136,-0.2964234720799578,-0.23035586801998945,0.0
1589985533.884717,0.05395935872562034,-4.4,8.701878076176861,0.43,0.4311111111111111,-0.7088888888888889,0.14387700398243644,-0.08724599203512713,0.0
1589985533.894717,0.04,-4.398242919192834,8.6547287575785,0.43,0.4311111111111111,-0.7088888888888889,0.20946351008958464,0.010981755044792325,0.0
1589985533.904717,0.04202859037653821,-4.39,8.63,0.43,0.4311111111111111,-0.7088888888888889,0.2871426202932724,0.056160655073318105,0.0063393449266818955
1589985533.914717,0.05748176258197627,-4.39,8.63,0.43,0.4311111111111111,-0.7088888888888889,0.0939779677252966,0.007869491931324149,0.05463050806867585
1589985533.924717,0.06750263542693917,-4.416253953140409,8.67875131771347,0.427363892950658,0.4318048234925169,-0.7088888888888889,-0.125,-0.08591279287244534,0.04689147141836977
1589985533.934717,0.05,-4.39,8.6825240505351,0.4088888888888889,0.43666666666666665,-0.7088888888888889,-0.08586234207781168,-0.19129351311671755,-0.02336234207781169
1589985533.944717,0.05129224853268569,-4.386123254401943,8.698369763205829,0.4088888888888889,0.43666666666666665,-0.7088888888888889,0.0,-0.0625,0.0625
1589985533.954717,0.05978101598866626,-4.3606569520340015,8.621970856102003,0.4088888888888889,0.43666666666666665,-0.7088888888888889,0.0,-0.0625,0.0625
1589985533.964717,0.05312090628978394,-4.393120906289784,8.66,0.4088888888888889,0.43666666666666665,-0.7088888888888889,-0.125,0.08200566431114965,0.019505664311149654
1589985533.974717,0.06,-4.398469799980294,8.666120800078826,0.41092915558183074,0.4358165555446076,-0.707868755542418,-0.11543624987683515,0.125,0.024244999507340624
1589985533.984717,0.05706773877373217,-4.395864522452536,8.679474171416125,0.4222222222222222,0.4311111111111111,-0.7022222222222222,-0.007520102007478123,0.08834673467165208,-0.13252010200747813
1589985533.994717,0.0509987698241181,-4.407003690527646,8.628002460351764,0.4222222222222222,0.4311111111111111,-0.7022222222222222,0.13748462280147622,0.01248462280147621,0.0
1589985534.0047169,0.06,-4.3835456257898375,8.627728128949189,0.4222222222222222,0.4311111111111111,-0.7022222222222222,0.1835195164405446,-0.007960967118910811,0.04432032237297027
1589985534.0147169,0.06,-4.398420198513039,8.66842019851304,0.4222222222222222,0.4311111111111111,-0.7022222222222222,0.009873759293504925,-0.23245791976450164,0.08991583952900328
1589985534.0247169,0.0583047690840964,-4.417457153626144,8.689152384542048,0.4228814786895181,0.4311111111111111,-0.6997735553436948,-0.13029759661219875,-0.1875,0.0
1589985534.0347168,0.04,-4.389826947170599,8.679826947170598,0.43,0.4311111111111111,-0.6733333333333333,-0.1842552594487367,-0.1820920990812278,-0.0010815801837544372
1589985534.0447168,0.041341078734501394,-4.378658921265498,8.66061244885849,0.43,0.4311111111111111,-0.6733333333333333,0.008381742090633687,0.1333817420906337,-0.054118257909366314
1589985534.0547168,0.05356242639873719,-4.377124852797475,8.62493698479116,0.43,0.4311111111111111,-0.6733333333333333,0.04023483500789256,0.16523483500789254,-0.022265164992107442
1589985534.0647168,0.06304637996325597,-4.39,8.673046379963257,0.43,0.4311111111111111,-0.6733333333333333,-0.038079749540699634,0.06788037568895056,-0.005380375688950549
1589985534.0747168,0.06563523483894187,-4.39,8.684364765161058,0.4317782376582089,0.43014116329754265,-0.6754348869293983,-0.14318652150440886,-0.04431347849559115,0.09772021774338673
1589985534.0847168,0.03674372443174941,-4.396512551136501,8.696974897726998,0.44222222222222224,0.4244444444444445,-0.6877777777777778,-0.16859311079373532,0.04214827769843383,-0.0625
1589985534.0947168,0.04348719176442423,-4.403256404117788,8.646397414412258,0.44222222222222224,0.4244444444444445,-0.6877777777777778,0.06322121139573858,-0.06322121139573858,-0.0625
1589985534.1047168,0.06708547130854305,-4.39,8.614572643457285,0.44222222222222224,0.4244444444444445,-0.6877777777777778,0.151068391356788,-0.151068391356788,-0.09893160864321197
1589985534.1147168,0.06,-4.387715782210513,8.65685265336846,0.44222222222222224,0.4244444444444445,-0.6877777777777778,0.0625,-0.07677636118429307,-0.15894727763141386
1589985534.1247168,0.06,-4.374560908292561,8.696317275122318,0.44222222222222224,0.4244444444444445,-0.6877777777777778,0.0625,-0.1589943231714967,0.00548864634299337
1589985534.1347167,0.05,-4.41,8.69,0.4488888888888889,0.43666666666666665,-0.6944444444444444,-0.060376479881414445,-0.12287647988141445,0.0
1589985534.1447167,0.05,-4.41,8.69,0.4488888888888889,0.43666666666666665,-0.6944444444444444,0.04188161923894598,-0.020618380761054017,0.0
1589985534.1547167,0.06,-4.393055898359263,8.592037265572841,0.4488888888888889,0.43666666666666665,-0.6944444444444444,0.012732909830261587,0.10590063525460762,-0.04976709016973841
1589985534.1647167,0.06,-4.418512411742094,8.609008274494728,0.4488888888888889,0.43666666666666665,-0.6944444444444444,0.11880171559206133,-0.053202573388092006,0.05630171559206133
1589985534.1747167,0.04072996974724309,-4.4007299697472435,8.706350151263786,0.4488888888888889,0.43666666666666665,-0.6944444444444444,0.125,-0.0022811554601346734,0.0022811554601346734
1589985534.1847167,0.04901647384025502,-4.409016473840255,8.69196705231949,0.4248449586482088,0.4416758188001417,-0.6814206488974095,-0.2131177690095633,-0.11270592300318776,0.05635296150159388
1589985534.1947167,0.07592628003010639,-4.41,8.673705120120426,0.4222222222222222,0.44222222222222224,-0.68,-0.13657850037632988,-0.012730374905917533,0.04976962509408247
1589985534.2047167,0.059190799942138,-4.409190799942138,8.614855200347172,0.4222222222222222,0.44222222222222224,-0.68,0.07767250108491248,-0.047327498915087515,0.0
1589985534.2147167,0.05194179389312977,-4.396116412213741,8.67582538167939,0.4222222222222222,0.44222222222222224,-0.68,0.2621362118320611,0.0885913645038168,0.012136211832061069
1589985534.2247167,0.05994618320610687,-4.380107633587786,8.69983854961832,0.4222222222222222,0.44222222222222224,-0.68,0.31216364503816796,-0.06149093511450382,0.06216364503816794
1589985534.2347167,0.0517451668959525,-4.383490333791905,8.69603866483238,0.43,0.43666666666666665,-0.6644444444444444,0.040685413800593734,0.05159270690029687,0.010907293099703135
1589985534.2447166,0.0593374846137137,-4.398674969227428,8.63530012309029,0.43,0.43666666666666665,-0.6644444444444444,-0.054218557671421336,0.004140721164289332,0.05835927883571067
1589985534.2547166,0.050666399304859305,-4.4,8.583998395829155,0.43,0.43666666666666665,-0.6644444444444444,-0.12083500434462938,0.0041649956553706305,0.12083500434462938
1589985534.2647166,0.06,-4.399982530956174,8.640034938087654,0.43,0.43666666666666665,-0.6644444444444444,-0.06233622771412423,0.06233622771412423,0.06255459076195859
1589985534.2747166,0.06,-4.385615783794893,8.668768432410214,0.43,0.43666666666666665,-0.6644444444444444,0.07235202692287931,-0.07235202692287931,0.10745067564095977
1589985534.2847166,0.04968661137440759,-4.399686611374408,8.739059834123223,0.43,0.4311111111111111,-0.6877777777777778,-0.003917357819905214,-0.001958678909952607,0.0
1589985534.2947166,0.04428419100602689,-4.39642628650904,8.686436949466852,0.43,0.4311111111111111,-0.6877777777777778,-0.125,-0.008947612424663881,-0.01338809689383403
1589985534.3047166,0.05814697074406819,-4.416293941488137,8.60926514627966,0.43,0.4311111111111111,-0.6877777777777778,-0.09025570145127851,0.12959283575213085,-0.05091856715042617
1589985534.3147166,0.05,-4.3959203126292286,8.654079687370771,0.43,0.4311111111111111,-0.6877777777777778,0.0709993486891076,-0.1080013026217848,0.008499348689107601
1589985534.3247166,0.049967711222420004,-4.37009686633274,8.68012915511032,0.4300609899132067,0.43112904932087776,-0.6877777777777778,0.12520180485987498,0.0,0.06270180485987499
1589985534.3347166,0.04128637661961336,-4.39614087014116,8.714854493521548,0.44645906638517474,0.4359520129891037,-0.6877777777777778,0.17946014612741648,0.0,0.11696014612741648
1589985534.3447165,0.06,-4.365000770455596,8.713329224236821,0.4488888888888889,0.43666666666666665,-0.6877777777777778,-0.0416730871299673,0.0625,0.0625
1589985534.3547165,0.06,-4.386544249833068,8.59843066755697,0.4488888888888889,0.43666666666666665,-0.6877777777777778,-0.22120208194223293,0.0625,0.0625
1589985534.3647165,0.04877435550065745,-4.417548711001315,8.636128222496714,0.4488888888888889,0.43666666666666665,-0.6877777777777778,-0.21169860939554527,-0.015320556241781887,-0.05483972187910906
1589985534.3747165,0.040418177471410924,-4.400836354942822,8.677909112642945,0.4488888888888889,0.43666666666666665,-0.6877777777777778,0.04943195401840861,-0.11977278160736343,-0.002613609196318284
1589985534.3847165,0.0555624623092267,-4.38,8.703343693463841,0.4488888888888889,0.43666666666666665,-0.7022222222222222,0.020898084149000323,-0.2431634735816672,0.0
1589985534.3947165,0.043970017970301714,-4.385955026955452,8.66014991014849,0.4488888888888889,0.43666666666666665,-0.7022222222222222,-0.125,-0.0248126123143857,0.01240630615719285
1589985534.4047165,0.05844054656458959,-4.41,8.583118906870821,0.4488888888888889,0.43666666666666665,-0.7022222222222222,-0.09576024808605485,-0.11525341602868495,0.07224658397131505
1589985534.4147165,0.05031127047194496,-4.41,8.59937745905611,0.4488888888888889,0.43666666666666665,-0.7022222222222222,0.056663678651032084,-0.06444544044965597,0.12305455955034403
1589985534.4247165,0.0570666246211524,-4.381733501515391,8.670666246211523,0.4488888888888889,0.43666666666666665,-0.7022222222222222,0.10666640388220248,0.06999921164660747,0.08083359611779752
1589985534.4347165,0.03143618227159374,-4.398563817728407,8.709521272576136,0.44254137383813197,0.4313770707910359,-0.7085697372729792,0.24401590720169275,-0.0535238608025391,0.002992046399153632
1589985534.4447165,0.07564168781298422,-4.377820843906492,8.718014641485707,0.44222222222222224,0.4311111111111111,-0.7088888888888889,0.055690137207787836,-0.06930986279221217,0.013619725584424333
1589985534.4547164,0.04106576283952361,-4.361598644259286,8.621065762839523,0.44222222222222224,0.4311111111111111,-0.7088888888888889,-0.003330508873511274,-0.11500847337946618,0.11500847337946618
1589985534.4647164,0.05927625215526305,-4.390723747844737,8.641085621767106,0.44222222222222224,0.4311111111111111,-0.7088888888888889,-0.0625,0.0625,-0.057976575970394045
1589985534.4747164,0.041637579376761005,-4.408362420623239,8.667543630934858,0.44222222222222224,0.4311111111111111,-0.7088888888888889,-0.0625,0.0625,0.052265128895243707
1589985534.4847164,0.04,-4.386212932669265,8.685858044887157,0.44222222222222224,0.4355161235797658,-0.7036028739265032,0.03661278054473087,-0.03661278054473087,0.16161278054473088
1589985534.4947164,0.05900653923541247,-4.3809934607645875,8.647019617706238,0.44222222222222224,0.43666666666666665,-0.7022222222222222,0.17818630533199195,0.05318630533199195,0.11879087022132796
1589985534.5047164,0.04393647599885024,-4.39606352400115,8.601809427996551,0.44222222222222224,0.43666666666666665,-0.7022222222222222,0.03690446248922105,-0.08809553751077895,0.02460297499281404
1589985534.5147164,0.05910463127217435,-4.390895368727826,8.617162949822605,0.44222222222222224,0.43666666666666665,-0.7022222222222222,-0.05690394545108971,-0.01678816364673087,0.005596054548910289
1589985534.5247164,0.0524613532691333,-4.397538646730867,8.670309173846933,0.44222222222222224,0.43666666666666665,-0.7022222222222222,-0.015383457932083122,-0.14134962620375063,0.04711654206791688
1589985534.5347164,0.05883808473397751,-4.408257127100966,8.70058095763301,0.43,0.43666666666666665,-0.7022222222222222,0.12136901479367972,-0.05523802958735943,0.12136901479367972
1589985534.5447164,0.04070317871687735,-4.38,8.702968212831227,0.43,0.43666666666666665,-0.7022222222222222,0.053710266039033165,0.06689486698048341,0.0625
1589985534.5547163,0.048494265876977,-4.3860229364920915,8.614517202369068,0.43,0.43666666666666665,-0.7022222222222222,-0.04367832346221247,0.10617832346221247,0.053089161731106234
1589985534.5647163,0.04063388965110019,-4.4187322206978,8.6425355586044,0.43,0.43666666666666665,-0.7022222222222222,0.05061456904187145,-0.007923620638752366,0.007923620638752366
1589985534.5747163,0.047918063250030396,-4.4041638734999395,8.671672253000121,0.43,0.43666666666666665,-0.7022222222222222,-0.08596368593806986,-0.0989757906253799,0.0989757906253799
1589985534.5847163,0.06639169334318312,-4.4,8.704587540014776,0.43,0.43666666666666665,-0.7022222222222222,-0.125,-0.125,0.02255191660510547
1589985534.5947163,0.06,-4.380760120455142,8.71087855453829,0.43,0.43666666666666665,-0.7022222222222222,0.11074774146607652,-0.11074774146607652,0.05299849431071768
1589985534.6047163,0.06,-4.389237050061642,8.609155399260292,0.43,0.43666666666666665,-0.7022222222222222,-0.04819468865579335,0.04819468865579335,-0.05296312577052892
1589985534.6147163,0.05,-4.39,8.64119040029999,0.43,0.43666666666666665,-0.7022222222222222,0.040179994375175776,-0.040179994375175776,0.007440001874941408
1589985534.6247163,0.05,-4.39,8.649054467047906,0.43,0.43666666666666665,-0.7022222222222222,-0.10727125714821412,0.10727125714821412,0.056590419049404705
1589985534.6347163,0.05757280357912451,-4.39,8.672718410737373,0.4190615059412646,0.43666666666666665,-0.6963322638829031,0.016990067108584583,-0.06432008947811274,0.015169977630471815
1589985534.6447163,0.040810166025609815,-4.380405083012805,8.705544086859147,0.4155555555555556,0.43666666666666665,-0.6944444444444444,0.18243646233993865,0.0625,0.0025317688300306733
1589985534.6547163,0.0544242660304786,-4.387212133015239,8.630666536832369,0.4155555555555556,0.43666666666666665,-0.6944444444444444,0.09734833730950875,0.0625,0.04507583134524563
1589985534.6647162,0.05095837897042717,-4.399041621029573,8.618083242059145,0.4155555555555556,0.43666666666666665,-0.6944444444444444,0.0625,-0.050520262869660465,0.0625
1589985534.6747162,0.0642935563028265,-4.392853221848586,8.670027447059892,0.4155555555555556,0.43666666666666665,-0.6944444444444444,-0.026834726892665625,-0.15183472689266564,0.017832636553667187
1589985534.6847162,0.05033116364051616,-4.390331163640516,8.719337672718968,0.44222222222222224,0.4488888888888889,-0.6877777777777778,-0.0625,-0.13120931825967797,0.0
1589985534.6947162,0.059910471622701834,-4.399910471622702,8.700179056754596,0.44222222222222224,0.4488888888888889,-0.6877777777777778,-0.0625,-0.31082134292565944,0.0
1589985534.7047162,0.07962529274004684,-4.380187353629976,8.61056206088993,0.44222222222222224,0.4488888888888889,-0.6877777777777778,0.06132903981264637,-0.0625,0.12031615925058547
1589985534.7147162,0.06,-4.390007263881615,8.640029055526464,0.44222222222222224,0.4488888888888889,-0.6877777777777778,-0.00013619778029292024,-0.06245460073990236,-0.12472760443941416
1589985534.7247162,0.06,-4.397092589151478,8.668370356605909,0.44222222222222224,0.4488888888888889,-0.6877777777777778,-0.13298604659019883,-0.018171317803267056,0.14097209318039766
1589985534.7347162,0.04350705211563469,-4.391753526057817,8.68,0.43214319851511007,0.4433912395941005,-0.7106846498393963,-0.032878613584075234,0.05154046213864159,0.043838151445433626
1589985534.7447162,0.05,-4.4101906880661055,8.649046559669474,0.43,0.44222222222222224,-0.7155555555555555,0.0035754012394724295,0.060116399173685046,-0.12261639917368505
1589985534.7547162,0.05,-4.418521968854282,8.607390155728588,0.43,0.44222222222222224,-0.7155555555555555,0.15978691601779754,-0.04402461067853171,-0.01847538932146829
1589985534.7647161,0.0694715029846774,-4.389471502984677,8.662642485076613,0.43,0.44222222222222224,-0.7155555555555555,0.009909319037298962,-0.009909319037298962,-0.18089378730846736
1589985534.7747161,0.0614978517927075,-4.381497851792707,8.702510741036463,0.43,0.44222222222222224,-0.7155555555555555,0.15941527888673435,-0.15941527888673435,-0.08122314740884377
1589985534.7847161,0.04256257998464295,-4.397437420015358,8.701281289992322,0.42321878110513894,0.43737849444017857,-0.7233055200068254,-0.08495968773995394,-0.13300806245200922,-0.0625
1589985534.7947161,0.05961760097724195,-4.390191199511379,8.7,0.4222222222222222,0.43666666666666665,-0.7244444444444444,-0.002389993892237832,0.24283001832328655,-0.0625
1589985534.804716,0.04571844307020735,-4.382859221535104,8.607169879956349,0.4222222222222222,0.43666666666666665,-0.7244444444444444,-0.044629865405602036,0.11611040378319387,-0.19638959621680613
1589985534.814716,0.060159593228309424,-4.390159593228309,8.660319186456618,0.4222222222222222,0.43666666666666665,-0.7244444444444444,-0.0625,0.059507626969198216,-0.000997457676933929
1589985534.824716,0.06632333059017165,-4.396323330590172,8.672646661180343,0.4222222222222222,0.43666666666666665,-0.7244444444444444,-0.0625,-0.056062448565718306,-0.039520816188572776
1589985534.834716,0.05665562783362902,-4.406672186083186,8.69334437216637,0.4400147184440502,0.4329598966204525,-0.699979762139431,-0.10420116301990932,-0.04159767396018135,-0.020798836980090676
1589985534.844716,0.05,-4.389766065388952,8.7,0.4488888888888889,0.4311111111111111,-0.6877777777777778,0.04361612175873733,0.04215403043968433,0.08430806087936867
1589985534.854716,0.05,-4.38,8.600111127910493,0.4488888888888889,0.4311111111111111,-0.6877777777777778,-0.06180545055941941,0.00046303296038705774,-0.00046303296038705774
1589985534.864716,0.05,-4.38,8.623891933776838,0.4488888888888889,0.4311111111111111,-0.6877777777777778,0.08682458610523133,0.09954972407015422,-0.09954972407015422
1589985534.874716,0.0427782025439633,-4.38,8.687774379648294,0.4488888888888889,0.4311111111111111,-0.6877777777777778,0.07986376589977062,0.07986376589977062,-0.07986376589977062
1589985534.884716,0.04,-4.386933654335849,8.703066345664151,0.4396440164410903,0.43881517148427657,-0.7070379287106913,0.0625,0.0625,-0.0625
1589985534.894716,0.06,-4.399813349320544,8.679253397282174,0.4355555555555555,0.44222222222222224,-0.7155555555555555,-0.06424985011990407,0.12441671662669865,-0.18516686650679456
1589985534.904716,0.06,-4.3830495603517186,8.612198241406874,0.4355555555555555,0.44222222222222224,-0.7155555555555555,-0.2214103717026379,0.0720298760991207,0.02438049560351721
1589985534.914716,0.05071442102129733,-4.38,8.627856736936108,0.4355555555555555,0.44222222222222224,-0.7155555555555555,-0.07589539414932481,-0.05356973723378346,-0.11160460585067519
1589985534.924716,0.05747304774399635,-4.394946095487993,8.674838286463977,0.4355555555555555,0.44222222222222224,-0.7155555555555555,0.030913096799954368,-0.015793451600022816,-0.125
1589985534.934716,0.0687752664461595,-4.4,8.698775266446159,0.4180050226632366,0.44222222222222224,-0.6970299930581076,0.007654584711503119,0.10969083057699376,-0.07015458471150313
1589985534.944716,0.03717576072146889,-4.4,8.7,0.4155555555555556,0.44222222222222224,-0.6944444444444444,0.05128787387270486,0.022424252254590285,0.0913636216181146
1589985534.954716,0.049805756666078047,-4.380194243333922,8.610874095002648,0.4155555555555556,0.44222222222222224,-0.6944444444444444,0.18628597916298784,0.18567896874448173,0.06310701041850608
1589985534.964716,0.07414867688022284,-4.38,8.650247794800372,0.4155555555555556,0.44222222222222224,-0.6944444444444444,0.0868805129990715,0.0868805129990715,0.11280974350046424
1589985534.974716,0.05847782031074083,-4.3728259401035805,8.681522179689258,0.4155555555555556,0.44222222222222224,-0.6944444444444444,0.10733787435262329,0.017662125647376715,-0.009513623057869847
