time,acc_x,acc_y,acc_z,mag_x,mag_y,mag_z,gyr_x,gyr_y,gyr_z
1589988187.3788846,-3.82,-0.77,8.96,0.31777777777777777,-0.37666666666666665,-0.6166666666666667,-0.25,0.25,0.1875
1589988187.3888845,-3.812252358490566,-0.74,8.921709905660379,0.31777777777777777,-0.37666666666666665,-0.6166666666666667,-0.30630896226415094,0.5202682783018868,0.13907724056603774
1589988187.3988845,-3.82,-0.74,8.807875635324015,0.31777777777777777,-0.37666666666666665,-0.6166666666666667,-0.4813795465374841,0.3377590930749682,0.15025909307496824
1589988187.4088845,-3.8184818565595515,-0.7475907172022422,8.854554430321345,0.31777777777777777,-0.37666666666666665,-0.6166666666666667,-0.494430379016817,0.31641877551961983,0.0909651895084085
1589988187.4188845,-3.813349948213361,-0.79,8.886699896426723,0.31573058720294606,-0.3777833160711203,-0.6166666666666667,-0.802031411833247,0.7189057645002589,0.23953141183324703
1589988187.4288845,-3.8338377099597825,-0.8015131298793471,8.923837709959782,0.3055555555555556,-0.38333333333333336,-0.6166666666666667,-0.7260143127513603,0.9229713744972794,0.1635143127513603
1589988187.4388845,-3.832854413450516,-0.8021360336262896,8.897844860527321,0.3055555555555556,-0.38333333333333336,-0.6166666666666667,-0.5758502101643103,1.044659915934276,0.14732995796713794
1589988187.4488845,-3.824934296856229,-0.7675328515718853,8.854802890568688,0.3055555555555556,-0.38333333333333336,-0.6166666666666667,-0.4058393553514333,1.1404196776757167,0.15666064464856672
1589988187.4588845,-3.84,-0.7597604221422506,8.901677045004247,0.3055555555555556,-0.38333333333333336,-0.6166666666666667,-0.4925131919453318,1.178515830334398,0.06100263838906635
1589988187.4688845,-3.84,-0.7512805790303667,8.961035946787433,0.3055555555555556,-0.38333333333333336,-0.6166666666666667,-0.22751809469896084,0.860521713638753,0.008003618939792165
1589988187.4788845,-3.83,-0.7715644171779141,8.97,0.31222222222222223,-0.38333333333333336,-0.5966666666666667,0.0,0.0444305981595092,0.018069401840490797
1589988187.4888844,-3.826247196611014,-0.7924943932220284,8.928719162721157,0.31222222222222223,-0.38333333333333336,-0.5966666666666667,-0.07036506354348368,0.04691004236232245,0.015589957637677551
1589988187.4988844,-3.82,-0.7763002675086612,8.871099197474017,0.31222222222222223,-0.38333333333333336,-0.5966666666666667,-0.21062332807086787,0.17124665614173573,-0.01625334385826426
1589988187.5088844,-3.82533942321295,-0.7673302883935248,8.892669711606477,0.31222222222222223,-0.38333333333333336,-0.5966666666666667,-0.19994290737858977,0.23331430245952992,0.04581430245952992
1589988187.5188844,-3.838032502558232,-0.7580325025582323,8.902951246162651,0.31222222222222223,-0.38409847122735413,-0.5986341641084344,-0.08709371802209619,0.15675785247237978,0.0
1589988187.5288844,-3.8234833584820573,-0.7434833584820577,8.924774962276913,0.31222222222222223,-0.38975647170142197,-0.613183308184609,-0.2689580189742789,-0.07057252371784867,0.0
1589988187.5388844,-3.9728262714630804,-0.639761702683293,8.744585754390547,0.31222222222222223,-0.3911111111111111,-0.6166666666666667,0.290437096037083,0.3411609649409153,0.07867483841483319
1589988187.5488844,-3.814104638087159,-0.8189084416737359,8.90397384047821,0.31222222222222223,-0.3911111111111111,-0.6166666666666667,0.3553507664384778,0.9042062873601767,0.16866825149440706
1589988187.5588844,-3.8652967880239952,-0.7723516059880023,8.90058222694601,0.31222222222222223,-0.3911111111111111,-0.6166666666666667,-0.05151231287492569,-0.15075615643746285,0.10295369386247771
1589988187.5688844,-3.8350735890183927,-0.7874632054908036,8.968584424708617,0.31222222222222223,-0.3911111111111111,-0.6166666666666667,0.42072517158761324,0.08536258579380662,-0.03871755147628397
1589988187.5788844,-3.8282746607994134,-0.7334506784011734,8.968274660799414,0.2977777777777777,-0.3711111111111111,-0.6111111111111112,0.3210831499816648,0.11421662999633296,0.0625
1589988187.5888844,-3.820471433142532,-0.7509428662850641,8.95528566857468,0.2977777777777777,-0.3711111111111111,-0.6111111111111112,0.056607085718348917,0.05071417143669783,0.059553542859174455
1589988187.5988843,-3.8275123626147955,-0.7749752747704086,8.867462912155613,0.2977777777777777,-0.3711111111111111,-0.6111111111111112,-0.12469093463010728,-0.12530906536989272,0.01554773365752682
1589988187.6088843,-3.8206216629154413,-0.7887566741691173,8.888135011253677,0.2977777777777777,-0.3711111111111111,-0.6111111111111112,-0.2969584271139661,0.046958427113966084,0.05861460677849152
1589988187.6188843,-3.829623723005986,-0.81,8.9,0.29878118309514906,-0.37186366509913965,-0.6107766426719874,-0.3077965375748218,0.1226482687874109,0.0
1589988187.6288843,-3.8207523424776326,-0.81,8.9,0.32243819783742367,-0.3896064261558455,-0.6028909710912291,-0.19690428097040968,0.06720214048520484,0.0
1589988187.6388843,-3.825122058823529,-0.7723169117647058,8.889511764705883,0.3244444444444444,-0.3911111111111111,-0.6022222222222222,0.11051930147058822,-0.016006433823529412,-0.030487132352941176
1589988187.6488843,-3.8370233418072566,-0.7470233418072567,8.850836607349203,0.3244444444444444,-0.3911111111111111,-0.6022222222222222,0.28720822740929053,-0.0625,0.04389588629535475
1589988187.6588843,-3.83,-0.74,8.910605614608885,0.3244444444444444,-0.3911111111111111,-0.6022222222222222,0.3584287271736168,-0.0625,-0.016571272826383213
1589988187.6688843,-3.8295566196683515,-0.740886760663297,8.940886760663297,0.32414885755667877,-0.3911111111111111,-0.6026163380725764,0.3069577458543939,-0.059728872927196947,-0.0625
1589988187.6788843,-3.8219168029354282,-0.7619168029354285,8.946582379452002,0.31777777777777777,-0.3911111111111111,-0.6111111111111112,0.17551998165357158,0.0,-0.02655994496071471
1589988187.6888843,-3.8304509665855844,-0.77,8.886392267315324,0.31777777777777777,-0.3911111111111111,-0.6111111111111112,0.1193629176801946,0.0028185411599027013,0.125
1589988187.6988842,-3.84,-0.7748460106861981,8.822115026715496,0.31777777777777777,-0.3911111111111111,-0.6111111111111112,-0.015143783394368733,0.04735621660563127,0.10985621660563127
1589988187.7088842,-3.84124200913242,-0.78937899543379,8.86558904109589,0.31777777777777777,-0.3911111111111111,-0.6111111111111112,-0.0625,-0.007762557077625571,0.0625
1589988187.7188842,-3.8540100456621005,-0.7829949771689498,8.923045205479452,0.31777777777777777,-0.3911111111111111,-0.6111111111111112,-0.0625,-0.08756278538812785,0.0625
1589988187.7288842,-3.830847117356959,-0.7605647449046393,8.95,0.32425619614289797,-0.3835529563518042,-0.6024732199576175,-0.12323517217300223,0.11794068869200891,0.0625
1589988187.7388842,-3.8388422585272894,-0.7688422585272895,8.94115774147271,0.3244444444444444,-0.38333333333333336,-0.6022222222222222,-0.01447176840888166,0.06973588420444082,0.11776411579555918
1589988187.7488842,-3.8539419993176387,-0.7830290003411805,8.822116001364723,0.3244444444444444,-0.38333333333333336,-0.6022222222222222,0.15339687819856704,0.15910312180143296,0.0625
1589988187.7588842,-3.825321733196861,-0.7973391334015695,8.879356533606279,0.3244444444444444,-0.38333333333333336,-0.6022222222222222,0.2875543756397134,0.024945624360286606,0.0625
1589988187.7688842,-3.8304066399045245,-0.7795933600954758,8.950406639904523,0.3244444444444444,-0.38333333333333336,-0.6022222222222222,0.1925829988065531,0.17987550179017034,0.005082998806553109
1589988187.7788842,-3.8395078658999675,-0.7704921341000326,8.959507865899969,0.3244444444444444,-0.38333333333333336,-0.6022222222222222,0.30634832374959314,0.009227514375610285,0.11884832374959316
1589988187.7888842,-3.845248144505052,-0.76,8.844255566484843,0.3244444444444444,-0.38333333333333336,-0.6022222222222222,0.09219909684342306,0.09530090315657694,0.032800903156576945
1589988187.7988842,-3.8621079285815236,-0.76,8.810539642907617,0.3244444444444444,-0.38333333333333336,-0.6022222222222222,-0.013174553634522072,0.17432544636547792,0.07230178546191171
1589988187.8088841,-3.8671571996496192,-0.7628428003503808,8.857107000875951,0.3244444444444444,-0.38333333333333336,-0.6022222222222222,-0.09803500437975879,0.09834874671518092,-0.1072324978101206
1589988187.8188841,-3.853026413314467,-0.7769735866855333,8.892433966713833,0.3244444444444444,-0.38333333333333336,-0.6022222222222222,-0.2746698335691665,-0.03412737517687486,-0.01891508321541674
1589988187.8288841,-3.8418957484694003,-0.79,8.9643127545918,0.3055555555555556,-0.3911111111111111,-0.6111111111111112,-0.11315157206624875,-0.0388031441324975,-0.125
1589988187.838884,-3.852225171648077,-0.7833244850557697,8.915523111871154,0.3055555555555556,-0.3911111111111111,-0.6111111111111112,-0.0625,0.0625,-0.0971853543990403
1589988187.848884,-3.8576069195498124,-0.7623930804501876,8.846751563151313,0.3055555555555556,-0.3911111111111111,-0.6111111111111112,-0.032586494372655275,0.032586494372655275,0.014956752813672362
1589988187.858884,-3.8477354017634338,-0.7688677008817169,8.901132299118283,0.3055555555555556,-0.3911111111111111,-0.6111111111111112,0.05542313051073033,-0.0625,0.06957686948926967
1589988187.868884,-3.8302911329229747,-0.7601455664614872,8.909854433538513,0.3055555555555556,-0.3911111111111111,-0.6111111111111112,0.0009097903842954572,-0.0625,0.12409020961570455
1589988187.878884,-3.8201489138849674,-0.7599255430575163,8.959702172230067,0.3055555555555556,-0.3977777777777778,-0.6322222222222222,0.125,-0.06296535589052325,-0.06296535589052325
1589988187.888884,-3.8392495104512956,-0.7503752447743522,8.92150097909741,0.3055555555555556,-0.3977777777777778,-0.6322222222222222,0.125,-0.12265472016029874,-0.12265472016029874
1589988187.898884,-3.8313552674583287,-0.76,8.798131604749972,0.3055555555555556,-0.3977777777777778,-0.6322222222222222,0.020147891927225187,0.09958873515633511,0.0
1589988187.908884,-3.8378830560440758,-0.76,8.837298336264453,0.3055555555555556,-0.3977777777777778,-0.6322222222222222,-0.1838455013773676,-0.022807300826420546,0.0
1589988187.918884,-3.831414159774607,-0.76,8.927272562028538,0.3055555555555556,-0.3977777777777778,-0.6322222222222222,-0.30366150140870674,0.04482300281741343,0.0
1589988187.928884,-3.8366494817774766,-0.773298963554953,8.95994844533243,0.3181156878019,-0.3837399829142163,-0.6181844273586607,-0.3125,-0.10373704443691242,0.0
1589988187.938884,-3.84,-0.78,8.945009710832974,0.3244444444444444,-0.37666666666666665,-0.6111111111111112,-0.15631069270608547,-0.03131069270608547,0.10412620486260969
1589988187.948884,-3.832044194181384,-0.7879558058186162,8.860441941813837,0.3244444444444444,-0.37666666666666665,-0.6111111111111112,-0.075276213633649,-0.09944757273270198,0.075276213633649
1589988187.958884,-3.839192944949225,-0.7791929449492251,8.8532282202031,0.3244444444444444,-0.37666666666666665,-0.6111111111111112,0.015132282202031,-0.052411811865312664,0.17741181186531266
1589988187.968884,-3.8308901953797734,-0.7708901953797732,8.886439218480907,0.3244444444444444,-0.37666666666666665,-0.6111111111111112,0.17080883662925353,0.05137255775283568,0.07362744224716432
1589988187.978884,-3.84,-0.77,8.914247885784109,0.31222222222222223,-0.3711111111111111,-0.6111111111111112,0.16095071384931992,-0.1161502379497733,-0.04480047589954661
1589988187.988884,-3.84,-0.77,8.934478279044342,0.31222222222222223,-0.3711111111111111,-0.6111111111111112,0.03451075597286085,-0.07400358532428696,0.03949282935142609
1589988187.998884,-3.84,-0.7363575501476428,8.8589005702067,0.31222222222222223,-0.3711111111111111,-0.6111111111111112,0.04660612463089299,0.007946937684553507,0.04660612463089299
1589988188.008884,-3.8414516006675767,-0.775645197997269,8.922903201335155,0.31222222222222223,-0.3711111111111111,-0.6111111111111112,-0.08971751251706873,0.05342749582764376,-0.0625
1589988188.018884,-3.849406197845547,-0.7517814064633591,8.938812395691093,0.31222222222222223,-0.3711111111111111,-0.6111111111111112,-0.23886620960400545,0.0037112634653315157,-0.0625
1589988188.028884,-3.8341848335438655,-0.7895379161403366,8.932092416771932,0.3069505000701774,-0.38077593505652674,-0.6040821482417179,-0.05231041929831709,0.0,-0.013077604824579273
1589988188.038884,-3.83189418588202,-0.77810581411798,8.89337034941293,0.3055555555555556,-0.38333333333333336,-0.6022222222222222,0.05658066911868723,-0.06841933088131277,-0.11908066911868723
1589988188.048884,-3.8491782155272305,-0.7583564310544612,8.834108922363848,0.3055555555555556,-0.38333333333333336,-0.6022222222222222,0.010272305909617613,-0.125,-0.057363847045191194
1589988188.058884,-3.839523052140046,-0.7414308435798618,8.880476947859954,0.3055555555555556,-0.38333333333333336,-0.6022222222222222,0.125,-0.11903815175057605,0.0
1589988188.068884,-3.83097041251198,-0.7670887624640607,8.889029587488022,0.3055555555555556,-0.38333333333333336,-0.6022222222222222,0.125,-0.012130156399747155,0.0
1589988188.078884,-3.8322417448100685,-0.7611208724050343,8.944395637974829,0.3322222222222222,-0.37666666666666665,-0.5966666666666667,-0.06950545253146426,0.16648364240560723,0.18049454746853574
1589988188.0888839,-3.8482624472412676,-0.7691312236206337,8.904343881896832,0.3322222222222222,-0.37666666666666665,-0.5966666666666667,-0.11957014762896048,0.016289557113118552,0.13042985237103952
1589988188.0988839,-3.859570781397968,-0.7795707813979679,8.81386296741829,0.3322222222222222,-0.37666666666666665,-0.5966666666666667,-0.06518261626270123,-0.059817383737298765,0.06518261626270123
1589988188.1088839,-3.8698207360796077,-0.7308963196019609,8.898386624716471,0.3322222222222222,-0.37666666666666665,-0.5966666666666667,-0.4921572034828419,-0.43077760298529305,0.0011203995024511582
1589988188.1188838,-3.8271998338180304,-0.7642401329455755,8.925680099709181,0.3322222222222222,-0.37666666666666665,-0.5966666666666667,-0.6070004154549231,-0.6515008309098462,0.0
1589988188.1288838,-3.8409217197323056,-0.7709217197323058,8.961843439464612,0.31777777777777777,-0.38333333333333336,-0.6255555555555555,-0.6163588775096329,-0.8663588775096329,-0.05961962583654431
1589988188.1388838,-3.85509835733117,-0.7850983573311702,8.990196714662341,0.31777777777777777,-0.38333333333333336,-0.6255555555555555,-0.48345290002027985,-0.7334529000202799,-0.015317633340093291
1589988188.1488838,-3.9182129263237235,-0.8050855473902394,9.030446768419068,0.31777777777777777,-0.38333333333333336,-0.6255555555555555,-0.7220769738081779,-1.2237999340493688,0.19587690785754663
1589988188.1588838,-3.8865995854531747,-0.7181488599962313,9.038350103636706,0.31777777777777777,-0.38333333333333336,-0.6255555555555555,-0.2281185227058602,-1.8659459204823818,0.3440644431882419
1589988188.1688838,-3.8008933442805306,-0.6208933442805308,8.996051857933628,0.31777777777777777,-0.38333333333333336,-0.6255555555555555,1.138509084408189,-3.977666392986731,0.5398055327488942
1589988188.1788838,-3.756585580106764,-0.5956501565421086,8.962114106809018,0.3055555555555556,-0.38333333333333336,-0.6255555555555555,2.131986677027727,-5.520960031083181,0.5625
1589988188.1888838,-3.5913483566319133,-0.745806723081958,8.777770816774979,0.3055555555555556,-0.38333333333333336,-0.6255555555555555,2.165505633736968,-5.59952253494787,0.5661657277105054
1589988188.1988838,-2.6785510504690286,-1.1184711993177765,8.086589658113033,0.3055555555555556,-0.38333333333333336,-0.6255555555555555,1.7530186448561904,-3.80357488952632,0.5844445305837662
1589988188.2088838,-3.3922087842138766,-0.31059038828771485,7.99845798854233,0.3055555555555556,-0.38333333333333336,-0.6255555555555555,-0.9876969287078292,6.259498329089752,-0.48376830044557606
1589988188.2188838,-4.093038669637174,-1.253373448440484,9.77556234086569,0.3055555555555556,-0.38333333333333336,-0.6255555555555555,-13.137500745942074,19.660784084579888,-1.943830561744112
1589988188.2288837,-3.4037399083569713,-1.2760016265645766,9.609785967905104,0.2977777777777777,-0.3911111111111111,-0.5966666666666667,1.25,-5.875,-0.625
1589988188.2388837,-3.220702596552477,-0.8932872473369964,8.819397576022059,0.2977777777777777,-0.3911111111111111,-0.5966666666666667,1.25,-5.875,-0.625
1589988188.2488837,-2.974051391749855,-0.6535229493476998,8.23880737336925,0.2977777777777777,-0.3911111111111111,-0.5966666666666667,-2.12694930808641,3.212063592668885,5.944701381186288
1589988188.2588837,-2.7391002194586687,-0.774330651060717,9.091433796634966,0.2977777777777777,-0.3911111111111111,-0.5966666666666667,-7.182927944403804,-0.39932333577176315,7.838652158010241
1589988188.2688837,-2.630217649122221,-0.59361267476239,9.157040272604274,0.2977777777777777,-0.3911111111111111,-0.5966666666666667,-5.549442931832228,-2.332562179497887,9.941988073563065
1589988188.2788837,-2.5557346114167814,-0.09793070839064649,9.065292297111418,0.3040688044475012,-0.38482008444138777,-0.60295769333639,-1.7995669274415405,-1.3795429633768914,13.09656282238652
1589988188.2888837,-2.180500383225665,-0.2905460053286616,8.762611409175518,0.3055555555555556,-0.38333333333333336,-0.6044444444444445,-0.9934030439067119,-1.4934600715354573,15.401444852001898
1589988188.2988837,-1.8091310794780546,-1.4195729537366548,9.155452995255041,0.3055555555555556,-0.38333333333333336,-0.6044444444444445,3.4727535587188614,2.3926499481020165,18.694288441577697
1589988188.3088837,-1.776202877435804,-0.9476142779093061,8.058588599526498,0.3055555555555556,-0.38333333333333336,-0.6044444444444445,7.445570023675105,3.0264637588781644,18.85685667455837
1589988188.3188837,-1.8865367571177076,-0.9051781703393432,8.211358586778365,0.3055555555555556,-0.38333333333333336,-0.6044444444444445,-0.19292933891822983,0.1620264979056638,16.31069022036059
1589988188.3288836,-2.0303384475602453,-1.0100307679600222,9.3602769116402,0.3055555555555556,-0.37666666666666665,-0.6177777777777778,-3.2388466144919157,-4.736154417989964,13.496154004997212
1589988188.3388836,-2.1256103000392343,-1.0186918454581122,9.43822660912301,0.3055555555555556,-0.37666666666666665,-0.6177777777777778,-0.09920602143432378,-0.8386695438495053,12.413519317735974
1589988188.3488836,-2.11110756497985,-0.9333226949395506,8.881782111270386,0.3055555555555556,-0.37666666666666665,-0.6177777777777778,3.143858356097693,1.194621751007492,10.624800530116572
1589988188.3588836,-2.27,-0.9292905224917193,9.031655447519322,0.3055555555555556,-0.37666666666666665,-0.6177777777777778,0.2785042027282117,0.3454384371549667,7.168705702176158
1589988188.3688836,-2.27,-0.9068826797734801,9.08394041386188,0.3055555555555556,-0.37666666666666665,-0.6177777777777778,-0.7952049275207465,-0.588221676104997,4.601140390711258
1589988188.3788836,-2.2605851098295857,-0.9094148901704141,9.00585109829586,0.3170626435416172,-0.39654254591531857,-0.6052245908838924,-0.3011971100887708,0.24301820773666827,0.8703468217456098
1589988188.3888836,-2.1811744200319136,-0.8311744200319136,8.714257272615688,0.31777777777777777,-0.3977777777777778,-0.6044444444444445,0.24265987480054008,1.0514898122008103,-2.7611191236037804
1589988188.3988836,-2.1703480717153796,-0.8106961434307592,8.555569147446073,0.31777777777777777,-0.3977777777777778,-0.6044444444444445,-0.5342191731254086,0.7005526893267344,-6.612946762069287
1589988188.4088836,-2.17,-0.81,8.711557111309496,0.31777777777777777,-0.3977777777777778,-0.6044444444444445,-0.6218959968049617,0.27172802236526805,-10.491947798712587
1589988188.4188836,-2.211252811316288,-0.8041067412405304,8.784825846354167,0.31777777777777777,-0.3977777777777778,-0.6044444444444445,0.0748244776870266,0.6551615397135416,-13.044803503787879
1589988188.4288836,-2.2459316861072787,-0.8,8.87745348885823,0.3105279392022149,-0.3938233203729253,-0.616966892893144,1.007376458045905,1.0857921526819683,-17.097247481081986
1589988188.4388835,-2.25,-0.8110800770500826,8.99310057787562,0.3055555555555556,-0.3911111111111111,-0.6255555555555555,1.208624277655476,1.083624277655476,-21.243017336268576
1589988188.4488835,-2.2371029844133874,-0.8393455233799186,9.034205968826775,0.3055555555555556,-0.3911111111111111,-0.6255555555555555,1.2862126948326553,1.52394125820613,-25.950312638446977
1589988188.4588835,-2.2039275875639515,-0.85,8.959164370982553,0.3055555555555556,-0.3911111111111111,-0.6255555555555555,1.70090515545061,2.192722681359045,-31.185409287682013
1589988188.4688835,-2.2764297089908787,-0.8805718835963515,8.965285941798177,0.3055555555555556,-0.3911111111111111,-0.6255555555555555,1.367851455045606,2.632148544954394,-35.04603120023165
1589988188.4788835,-2.3,-0.9081277075544478,8.951872292445552,0.3129409178925528,-0.39849647344810835,-0.6201843829468303,1.0234036555694024,2.9010642296203986,-38.93272036278757
1589988188.4888835,-2.2838455024117232,-0.9280772487941382,8.899613756029309,0.31777777777777777,-0.4033333333333333,-0.6166666666666667,0.7235515851099084,3.2019312198534555,-44.34629634743547
1589988188.4988835,-2.286171181769293,-0.9238288182307072,8.785089909922023,0.31777777777777777,-0.4033333333333333,-0.6166666666666667,0.8032096581742404,3.5971289745227213,-47.84882213800753
1589988188.5088835,-2.2381401283736757,-0.9496342123578996,8.675548681463152,0.31777777777777777,-0.4033333333333333,-0.6166666666666667,0.9676069136184363,3.858803456809218,-52.74124197664527
1589988188.5188835,-2.3088497901997154,-0.9726928271713879,8.729810549442634,0.31777777777777777,-0.4033333333333333,-0.6166666666666667,1.2379905094635235,3.756004745268238,-56.532560689009344
1589988188.5288835,-2.387623522408368,-0.9707921591972106,8.862078408027893,0.3423320199185494,-0.39821786622067257,-0.6033664521737487,2.238235075261502,4.090343035122034,-61.97583234118547
1589988188.5388834,-2.4362358396972983,-1.0439773435156774,8.980966015273516,0.34444444444444444,-0.3977777777777778,-0.6022222222222222,2.6592687977297373,4.182794799621623,-66.24254637427036
1589988188.5488834,-2.4486705072739907,-1.0413294927260093,8.937976956356055,0.34444444444444444,-0.3977777777777778,-0.6022222222222222,2.633309329537558,4.675216034161978,-70.08489358005873
1589988188.5588834,-2.4156767060617614,-1.0228383530308807,8.92141917651544,0.34444444444444444,-0.3977777777777778,-0.6022222222222222,2.7322602935569957,5.071780880670987,-74.11095954060237
1589988188.5688834,-2.433540532142799,-1.0965067294640958,8.9435405321428,0.34444444444444444,-0.3977777777777778,-0.6022222222222222,2.566089592634385,5.419256651784984,-77.04155321427987
1589988188.5788834,-2.4585007978521314,-1.1414992021478685,8.942998404295738,0.3557788415806197,-0.3840820479048994,-0.6182792848318037,2.304675033560447,5.625,-80.38765957042628
1589988188.5888834,-2.4573426297441294,-1.1426573702558704,8.898904382906881,0.3711111111111111,-0.3655555555555556,-0.64,1.993152393168015,5.704108564099191,-84.16419319651823
1589988188.5988834,-2.414722920892495,-1.2231926977687626,8.794168762677485,0.3711111111111111,-0.3655555555555556,-0.64,1.9704817444219067,5.851995436105477,-88.12277636916836
1589988188.6088834,-2.3673674021493634,-1.3007907473132958,8.701051103224044,0.3711111111111111,-0.3655555555555556,-0.64,2.419419038991338,6.231919038991338,-91.74843327293937
1589988188.6188834,-2.36,-1.344447593198691,8.738226630478167,0.3711111111111111,-0.3655555555555556,-0.64,2.715297457491818,6.570856948990182,-94.50853406641654
1589988188.6288834,-2.3702301661232728,-1.3702301661232728,8.785575415308182,0.37395282392313134,-0.36214550018113134,-0.6434100553744242,3.0043156148113646,6.591592192594318,-97.09846345676138
1589988188.6388834,-2.39436573875803,-1.4302800856531048,8.83873147751606,0.37666666666666665,-0.3588888888888889,-0.6466666666666666,3.636429336188437,6.724464668094218,-100.3758244111349
1589988188.6488833,-2.429481151736441,-1.4853773820837293,8.855896230347287,0.37666666666666665,-0.3588888888888889,-0.6466666666666666,3.8125,6.923054319011654,-102.57340902649261
1589988188.6588833,-2.4840840250186855,-1.523633610007474,8.900900830022422,0.37666666666666665,-0.3588888888888889,-0.6466666666666666,3.727289937453287,7.25563018764014,-105.41441131348098
1589988188.6688833,-2.4869134418370895,-1.5627163954072758,8.913456720918544,0.37666666666666665,-0.3588888888888889,-0.6466666666666666,3.6466045057409056,7.579477471295473,-107.88581977036378
1589988188.6788833,-2.462217952034293,-1.6066730719485607,8.918891023982853,0.430012810563788,-0.31147009431366995,-0.6595092568641218,3.124879900964488,7.631931100107165,-110.75048039614205
1589988188.6888833,-2.46,-1.61,8.92,0.43666666666666665,-0.3055555555555556,-0.6611111111111111,3.0625,7.625,-111.0
1589988188.6988833,-2.4432175226586104,-1.677129909365559,8.794131419939577,0.43666666666666665,-0.3055555555555556,-0.6611111111111111,2.8002737915407856,7.677445241691843,-114.19915974320242
1589988188.7088833,-2.44,-1.7738415281216837,8.728079235939159,0.43666666666666665,-0.3055555555555556,-0.6611111111111111,3.064405730456314,7.9495047753802615,-115.96532101167315
1589988188.7188833,-2.409018399491454,-1.7838036798982908,8.744785280406838,0.43666666666666665,-0.3055555555555556,-0.6611111111111111,3.125,7.922545998728634,-116.80713201017093
1589988188.7288833,-2.406879757308329,-1.8250126861555434,8.765626585769443,0.4629240669240669,-0.29055132683704116,-0.6779908684194399,3.5118277716492003,8.121163127413128,-117.75015857694429
1589988188.7388833,-2.427933876756494,-1.9076032605389621,8.785867753512987,0.4833333333333333,-0.2788888888888889,-0.6911111111111111,4.010846918912343,8.262913270271914,-118.93130094592128
1589988188.7488832,-2.4443645279934616,-1.963093583980384,8.79,0.4833333333333333,-0.2788888888888889,-0.6911111111111111,4.286945749897834,8.564224049856968,-119.57389149979566
1589988188.7588832,-2.384035302387337,-2.001988232537554,8.819317643383405,0.4833333333333333,-0.2788888888888889,-0.6911111111111111,4.466617635573143,8.641691182213428,-120.43713226679857
1589988188.7688832,-2.3341800105936517,-2.061639978812696,8.875184981461109,0.4833333333333333,-0.2788888888888889,-0.6911111111111111,3.9351877317361366,8.584656266552582,-121.41368720205354
1589988188.7788832,-2.3134159624413146,-2.122920187793427,8.91316807511737,0.5008907668231611,-0.24011622326551904,-0.6991582681272822,3.378098591549296,8.727100938967137,-122.63550469483567
1589988188.7888832,-2.31,-2.2230891765040535,8.816138529369933,0.51,-0.22,-0.7033333333333334,3.4231024510501116,8.855775612762528,-123.88473664248804
1589988188.7988832,-2.2848881683889313,-2.275067098966641,8.72982106942229,0.51,-0.22,-0.7033333333333334,3.3116612629169846,8.780830631458493,-124.90918557979056
1589988188.8088832,-2.2440490156689434,-2.29,8.700633989554039,0.51,-0.22,-0.7033333333333334,3.125,8.886887304138208,-126.12743069505825
1589988188.8188832,-2.2171784776902888,-2.3412860892388454,8.71,0.51,-0.22,-0.7033333333333334,3.2452017716535435,9.383038057742782,-127.66674868766404
1589988188.8288832,-2.21,-2.4480739305690093,8.764651751398306,0.5195423692917678,-0.1688182010714273,-0.7215505837994355,3.4100924132112613,9.708888619816893,-129.12833171890136
1589988188.8388832,-2.201967710776873,-2.486064578446254,8.707709396991858,0.5222222222222223,-0.15444444444444444,-0.7266666666666667,3.9395180764454256,9.950807230578171,-130.17822892231268
1589988188.8488832,-2.2,-2.5529059811166706,8.669031339627777,0.5222222222222223,-0.15444444444444444,-0.7266666666666667,4.106184709108799,10.043684709108799,-130.9429012184144
1589988188.8588831,-2.1787158301158303,-2.650947232947233,8.752231402831402,0.5222222222222223,-0.15444444444444444,-0.7266666666666667,4.125,10.0625,-131.49789414414414
1589988188.8688831,-2.144635639673182,-2.6863410900817044,8.758294549591477,0.5222222222222223,-0.15444444444444444,-0.7266666666666667,4.125,10.181395439031958,-132.02131813010652
1589988188.8788831,-2.099858950725958,-2.7151175410617014,8.815352623185104,0.5328274062260516,-0.13211774127848774,-0.737271850670496,3.6540461050931006,10.15580922101862,-132.31279385265427
1589988188.888883,-2.07,-2.7671095139020236,8.849335729146965,0.5433333333333333,-0.11,-0.7477777777777778,3.145141384528088,10.189575846415737,-132.29028276905618
1589988188.898883,-2.035422494413639,-2.814577505586361,8.74009848547546,0.5433333333333333,-0.11,-0.7477777777777778,2.77922494413639,10.682218819829512,-132.03389059008524
1589988188.908883,-1.970253666999632,-2.8228933809999472,8.650253666999632,0.5433333333333333,-0.11,-0.7477777777777778,2.625,10.342003574996056,-131.58216904999736
1589988188.918883,-1.9191343736281279,-2.8508656263718724,8.636173125274375,0.5433333333333333,-0.11,-0.7477777777777778,2.5092539011054793,10.3179101648242,-130.8587695055274
1589988188.928883,-1.9110183437394124,-2.897545859348531,8.64,0.5610851093579422,-0.11,-0.7802206787882698,2.334203027443009,10.60966162092832,-129.8457858404724
1589988188.938883,-1.8977445755614768,-2.9533831366577843,8.623308431671107,0.5755555555555556,-0.11,-0.8066666666666666,2.2847741006851923,10.889096402740769,-128.37359928149982
1589988188.948883,-1.8715036469730124,-3.0054890590809626,8.601503646973011,0.5755555555555556,-0.11,-0.8066666666666666,2.3125,10.946897793581327,-126.77536469730124
1589988188.958883,-1.8562553559212185,-3.054978576315126,8.601233932236344,0.5755555555555556,-0.11,-0.8066666666666666,2.1954798725380766,10.664363770568539,-124.87607118424368
1589988188.968883,-1.780872032136549,-3.0147124747956298,8.497105834909421,0.5755555555555556,-0.11,-0.8066666666666666,1.903988933522985,10.12047786704597,-122.83290870156462
1589988188.978883,-1.680158221510114,-2.933363909473263,8.424946124574404,0.5786030220085898,-0.10729114093063623,-0.8072310123061174,1.407160024033647,9.596637792910075,-121.39108001201683
1589988188.988883,-1.765919963201472,-3.1685602575896965,9.268877644894204,0.6055555555555555,-0.08333333333333333,-0.8122222222222222,0.0580151793928243,8.121003909843607,-118.26848551057958
1589988188.998883,-1.7277254607885701,-3.1884836405257135,8.545738248411414,0.6055555555555555,-0.08333333333333333,-0.8122222222222222,3.4077214153214666,9.489624856928602,-114.05481854599992
1589988189.008883,-1.684290786283339,-3.2276004502944233,8.637493938344303,0.6055555555555555,-0.08333333333333333,-0.8122222222222222,2.027483113959127,8.03043817111188,-111.48840167128508
1589988189.018883,-1.6658030289817156,-3.292590913054853,8.843106014360048,0.6055555555555555,-0.08333333333333333,-0.8122222222222222,0.587121377285544,6.492234964099881,-109.07736693700764
1589988189.028883,-1.646392058938853,-3.296392058938853,8.549280392925686,0.565235730189194,-0.1155891936264225,-0.7829903488316101,1.9928970530573498,7.396898280950121,-105.12310785851373
1589988189.038883,-1.6022453520924556,-3.285550929581509,8.573222309956213,0.5166666666666667,-0.15444444444444444,-0.7477777777777778,1.9798605627736703,6.97297394300481,-101.16814119589405
1589988189.048883,-1.563745140467982,-3.317091432553363,8.593307415829237,0.5166666666666667,-0.15444444444444444,-0.7477777777777778,1.8204643603755593,6.656371488300447,-97.51495681434754
1589988189.058883,-1.55,-3.366474537109314,8.572949074218627,0.5166666666666667,-0.15444444444444444,-0.7477777777777778,2.316186342773285,6.801440971680145,-93.47394385986824
1589988189.068883,-1.5184713151617066,-3.39,8.677802588870204,0.5166666666666667,-0.15444444444444444,-0.7477777777777778,2.1451033397207775,6.230891439521333,-89.42774529740721
1589988189.078883,-1.49,-3.4566561910747957,8.724445317410435,0.5067916753963265,-0.08531950555206369,-0.6835903345205671,2.1458005971087366,5.944433532369579,-84.89624253614079
1589988189.088883,-1.4686148668141168,-3.4939611501105876,8.736038849889413,0.4988888888888889,-0.03,-0.6322222222222222,2.3459142706029428,5.799514376382344,-80.57374386960285
1589988189.098883,-1.4563074462413363,-3.498922338724009,8.683771814465967,0.4988888888888889,-0.03,-0.6322222222222222,2.237024613470766,5.368759996445708,-77.30437844322019
1589988189.108883,-1.430678550891317,-3.485933007475561,8.535084818861414,0.4988888888888889,-0.03,-0.6322222222222222,1.8530203241805636,4.697300442064405,-73.96134182719953
1589988189.118883,-1.1808832852010989,-3.149413256321758,8.308523631753188,0.4988888888888889,-0.03,-0.6322222222222222,2.659049887300134,5.052425248291892,-68.8253152074382
1589988189.128883,-1.263202971790617,-3.286405943581234,8.03335759541409,0.49945311845259044,-0.019956713766111862,-0.6315451467457803,4.949228767536582,6.938485254186151,-64.76611527002565
1589988189.1388829,-1.3547751761004538,-3.4645053874209983,9.13775176100454,0.5044444444444445,0.06888888888888889,-0.6255555555555555,-0.7325761477851713,1.6368032547261744,-60.79057966979425
1589988189.1488829,-1.3356979021639097,-3.489770630294735,8.87860419567218,0.5044444444444445,0.06888888888888889,-0.6255555555555555,2.113409101635321,3.5785139934398376,-55.41921325247186
1589988189.1588829,-1.344291143363857,-3.55,8.839961996453003,0.5044444444444445,0.06888888888888889,-0.6255555555555555,1.60561592891527,3.1774516812045315,-51.81969805277064
1589988189.1688828,-1.3405758830105448,-3.5562827446596366,8.724607064084358,0.5044444444444445,0.06888888888888889,-0.6255555555555555,0.7264423512705079,2.3730379641659365,-48.46858098921352
1589988189.1788828,-1.3341373103625611,-3.6053432759064026,8.644823862175366,0.5138693180194852,0.09519999428587755,-0.622413931030542,1.7823508614039598,2.7677985986114684,-43.7554480586269
1589988189.1888828,-1.3575821495193,-3.6772535514421008,8.778239345673699,0.5311111111111111,0.14333333333333334,-0.6166666666666667,1.0542850480700243,1.9546653034868704,-40.23752511120677
1589988189.1988828,-1.3246554874335135,-3.670431402005766,8.705775914572252,0.5311111111111111,0.14333333333333334,-0.6166666666666667,1.680497330382882,1.548494660765764,-35.108860489666654
1589988189.2088828,-1.2856931720241325,-3.6429204839276026,8.691386344048265,0.5311111111111111,0.14333333333333334,-0.6166666666666667,1.6345883742458582,1.268253024547515,-30.418674386312127
1589988189.2188828,-1.28,-3.66,8.722526852214818,0.5311111111111111,0.14333333333333334,-0.6166666666666667,1.7239023912191298,1.0796746373970991,-25.682722461779694
1589988189.2288828,-1.2491016856242292,-3.603353090311087,8.723652528436343,0.5282501560763175,0.16336001857688853,-0.6172388576736254,1.496257023434288,0.75,-20.928883445251472
1589988189.2388828,-1.2302146900963165,-3.555107345048158,8.664677964855525,0.5255555555555556,0.18222222222222226,-0.6177777777777778,1.2473163737960444,0.5265536541430778,-16.613982887287698
1589988189.2488828,-1.2484367860387018,-3.5937471441548077,8.633126427922596,0.5255555555555556,0.18222222222222226,-0.6177777777777778,1.0722700872581135,0.25977008725811335,-13.026507748630571
1589988189.2588828,-1.26,-3.64,8.690885117560711,0.5255555555555556,0.18222222222222226,-0.6177777777777778,0.9325957353660735,0.08639360304911024,-8.79527632561613
1589988189.2688828,-1.2632099243263444,-3.649629772979033,8.743950378368279,0.5255555555555556,0.18222222222222226,-0.6177777777777778,0.7947518918413923,-0.060186081118955785,-6.1018366209777515
1589988189.2788827,-1.268807772898955,-3.666423318696865,8.715961135505227,0.5255555555555556,0.18222222222222226,-0.6177777777777778,0.6548056775261254,-0.16514574185540593,-4.3175223884581
1589988189.2888827,-1.2580759564367494,-3.7092320580843343,8.725004188774086,0.5544444444444444,0.20222222222222225,-0.6177777777777778,0.4086498184864563,-0.30527436470259706,0.05759564367495118
1589988189.2988827,-1.28,-3.6950475606014117,8.64128567045106,0.5544444444444444,0.20222222222222225,-0.6177777777777778,0.5,-0.6485118134397054,3.33154341822645
1589988189.3088827,-1.277623515735282,-3.7057410944116915,8.66,0.5544444444444444,0.20222222222222225,-0.6177777777777778,0.42573486672755956,-0.7914711865814166,5.882504359378892
1589988189.3188827,-1.2637282941777324,-3.6803830439223697,8.670975485188968,0.5544444444444444,0.20222222222222225,-0.6177777777777778,0.17770045965270684,-1.1739977017364658,8.81227655771195
1589988189.3288827,-1.23,-3.7711934634448574,8.705820167286246,0.5595192241498004,0.20759551838083437,-0.6216584916701088,0.125,-1.4375,12.473909928748451
1589988189.3388827,-1.2334582538761296,-3.713083492247741,8.65037476162839,0.5733333333333334,0.2222222222222222,-0.6322222222222222,0.08177182654837908,-1.5239563469032418,15.654545124782356
1589988189.3488827,-1.2463284862852468,-3.676328486285247,8.63024123941969,0.5733333333333334,0.2222222222222222,-0.6322222222222222,-0.2626817643032438,-1.9145530392827927,19.47252980016361
1589988189.3588827,-1.241455935933047,-3.6656321922008583,8.526015295263518,0.5733333333333334,0.2222222222222222,-0.6322222222222222,-0.5181991991630893,-1.8840995995815446,22.1151811803326
1589988189.3688827,-1.257655827410529,-3.6438279137052647,8.68124661928423,0.5733333333333334,0.2222222222222222,-0.6322222222222222,-0.577151078684194,-2.009273381973709,25.916920875526763
1589988189.3788826,-1.2935946787432777,-3.6657297858288516,8.74067553542787,0.6135316748959546,0.22965017664140222,-0.6435826230986151,-0.5245777903575809,-2.174155580715162,29.253467308236626
1589988189.3888826,-1.315439389718645,-3.670585852958193,8.76736366168813,0.6755555555555556,0.2411111111111111,-0.6611111111111111,-0.8658460475282319,-2.5230114427754087,32.58289181862987
1589988189.3988826,-1.3186841076686557,-3.65,8.757237407822394,0.6755555555555556,0.2411111111111111,-0.6611111111111111,-0.8955608176772546,-2.870887836464549,35.580583748078276
1589988189.4088826,-1.3253119803175617,-3.6402079868783743,8.630207986878375,0.6755555555555556,0.2411111111111111,-0.6611111111111111,-0.8991004510558808,-3.1517002870355606,38.873102091259085
1589988189.4188826,-1.3253796501834099,-3.5992406996331803,8.644607440293456,0.6755555555555556,0.2411111111111111,-0.6611111111111111,-1.3268982509170484,-3.4518982509170484,41.67269832648499
1589988189.4288826,-1.3583957556006865,-3.533208488798627,8.697433208961098,0.6755555555555556,0.2411111111111111,-0.6611111111111111,-1.4919787780034321,-3.616978778003432,44.190176364552336
1589988189.4388826,-1.393809142825613,-3.5514274284768392,8.758099428918255,1.0766666666666669,0.3088888888888889,-0.8211111111111111,-1.7797714293596711,-3.619035713300411,48.28262856236378
1589988189.4488826,-1.4156205198029714,-3.57,8.631423050738857,1.0766666666666669,0.3088888888888889,-0.8211111111111111,-1.7714423731528572,-3.9101282487685713,51.185224860838574
1589988189.4588826,-1.4341745999594895,-3.5641745999594896,8.560388900141787,1.0766666666666669,0.3088888888888889,-0.8211111111111111,-2.0728175005063805,-4.0442956248734045,53.46542687867126
1589988189.4688826,-1.4667140656740407,-3.5842569814942964,8.650485523584168,1.0766666666666669,0.3088888888888889,-0.8211111111111111,-2.094286447753198,-4.058392582092551,55.37285420898721
1589988189.4788826,-1.565694498331652,-3.6341669899899123,8.737847249165826,1.1003469258425806,0.14288788012036246,-0.9067427554038092,-1.7230906145728253,-4.174045307286413,57.072912625126094
1589988189.4888825,-1.5549481800845701,-3.545566702595141,8.734329657574,1.1866666666666668,-0.4622222222222222,-1.2188888888888891,-1.6134027029267888,-4.148194594146422,58.35824143934997
1589988189.4988825,-1.6102643757025443,-3.613083750602181,8.746431876906907,1.1866666666666668,-0.4622222222222222,-1.2188888888888891,-1.4022578137545438,-4.5,60.528632793681844
1589988189.5088825,-1.5674035415541379,-3.5763458927606893,8.630095327075516,1.1866666666666668,-0.4622222222222222,-1.2188888888888891,-1.3257206099181034,-4.5,61.67669085122845
1589988189.5188825,-1.6164732333565663,-3.568236616678283,8.67529014996515,1.1866666666666668,-0.4622222222222222,-1.2188888888888891,-1.7279577084785396,-4.702148020325112,63.407922915214606
1589988189.5288825,-1.603981550922454,-3.561990775461227,8.70597232638368,1.0827039481359266,-0.3757340882955852,-1.1204561021948904,-1.6498846932653368,-5.050057653367332,64.6739045860207
1589988189.5388825,-1.6156154812874093,-3.596307112275545,8.690539331586683,0.6644444444444444,-0.027777777777777776,-0.7244444444444444,-1.7774032419536925,-5.027403241953692,65.84422593562954
1589988189.5488825,-1.6021167809345511,-3.6418248285981734,8.63211678093455,0.6644444444444444,-0.027777777777777776,-0.7244444444444444,-1.837135059579528,-5.037864940420472,65.9525545829433
1589988189.5588825,-1.59,-3.6522517867906656,8.616125893395331,0.6644444444444444,-0.027777777777777776,-0.7244444444444444,-1.875,-4.95157366744166,65.17902350813743
1589988189.5688825,-1.5983992775886409,-3.634400481607573,8.64919662874699,0.6644444444444444,-0.027777777777777776,-0.7244444444444444,-1.9099969899526696,-4.875,63.64006321099394
1589988189.5788825,-1.6316012915188134,-3.6107189667849493,8.752320258303763,0.6458823780143431,0.0029011931275285986,-0.7213507667060942,-1.8259806272177999,-4.773488699210383,60.952411208081585
1589988189.5888824,-1.6657886820830983,-3.5631547283323934,8.747366046249295,0.5844444444444444,0.10444444444444444,-0.7111111111111111,-1.486886632825719,-4.279575578116187,56.364765463432974
1589988189.5988824,-1.6476438258386865,-3.5523561741613134,8.705287651677374,0.5844444444444444,0.10444444444444444,-0.7111111111111111,-1.632305793480847,-3.9080478229835833,51.93704199381394
1589988189.6088824,-1.6335196991989536,-3.5488818048062774,8.687598495994768,0.5844444444444444,0.10444444444444444,-0.7111111111111111,-1.2870075200261566,-3.555511280039235,47.69964852051659
1589988189.6188824,-1.6445873780966258,-3.5214684452415645,8.708531554758435,0.5844444444444444,0.10444444444444444,-0.7111111111111111,-1.125,-3.2264866606882636,43.31014880618765
1589988189.6288824,-1.66,-3.5681175864953563,8.684611655691642,0.5878718698535949,0.10300131795638112,-0.7183267435514277,-1.1047060337616095,-2.927353016880805,38.48044738422599
1589988189.6388824,-1.66,-3.61322968645267,8.75354062709466,0.6055555555555555,0.09555555555555556,-0.7555555555555555,-0.9798144596708125,-2.8279004058985624,33.642490411111936
1589988189.6488824,-1.639034514925373,-3.656772388059702,8.662262126865672,0.6055555555555555,0.09555555555555556,-0.7555555555555555,-0.7600862873134329,-2.254052005597015,26.71396921641791
1589988189.6588824,-1.6132707069931682,-3.6505636370614876,8.616541413986337,0.6055555555555555,0.09555555555555556,-0.7555555555555555,-0.4830808129269978,-1.7138131380977968,21.351250047977278
1589988189.6688824,-1.6232839954163485,-3.59,8.646419977081743,0.6055555555555555,0.09555555555555556,-0.7555555555555555,-0.0625,-1.0634250859434682,15.863639347784568
1589988189.6788824,-1.6504142882893709,-3.5837514270263773,8.732082857657874,0.600001268467891,0.07889269429256211,-0.7525469833830706,0.06767860361713635,-0.60680353602115,7.276463828636664
1589988189.6888824,-1.6829611486105154,-3.5212863173578346,8.74,0.5788888888888889,0.015555555555555557,-0.7411111111111112,0.6504856423685577,0.11347128473711537,-2.9614759464523557
1589988189.6988823,-1.7682222955145117,-3.6246174142480214,8.638139841688655,0.5788888888888889,0.015555555555555557,-0.7411111111111112,0.9034465699208444,0.6421297823218998,-12.080866589709762
1589988189.7088823,-7.812143111427554,-6.459832680669278,3.065784976860093,0.5788888888888889,0.015555555555555557,-0.7411111111111112,-15.167141331434674,50.42572979708081,-29.336997152011392
1589988189.7188823,-19.49598784462257,-11.286640535541267,-8.057129393111953,0.5788888888888889,0.015555555555555557,-0.7411111111111112,-49.2555657095041,141.69827908922753,-65.0114672333304
1589988189.7288823,-2.6817721112467083,-0.5924972702164558,-0.2794424818549682,0.5665142983564205,0.0370965094454079,-0.7186535208855204,-33.004455970197185,-105.69633566703064,-269.0201401824138
1589988189.7388823,-0.17311728184485228,-0.8817633212799345,0.2518315480657706,0.5188888888888888,0.12,-0.6322222222222222,-13.949800010234018,-32.70634338541311,-287.4015188988197
1589988189.7488823,-0.4263924970918961,-0.7739240015509887,-0.023924001550988755,0.5188888888888888,0.12,-0.6322222222222222,-9.703324932144241,-35.46598124272974,-273.89439038871654
1589988189.7588823,-0.28702385000242875,-0.6125100791761791,-0.14504954582989266,0.5188888888888888,0.12,-0.6322222222222222,-7.742683489580803,-32.87710994802545,-261.02555010443484
1589988189.7688823,1.1819686859273066,-1.395296551724138,2.676942404473439,0.5188888888888888,0.12,-0.6322222222222222,-8.893993476234856,-28.992148182665424,-249.27695479962722
1589988189.7788823,2.8822035745422845,-2.8498049258936358,6.542116390584132,0.5098310810810811,0.14775779812070136,-0.634267533662695,0.10393962510898014,-15.081217306015693,-238.51845847863993
1589988189.7888823,0.45,-1.56,2.4,0.4844444444444445,0.2255555555555556,-0.64,30.875,19.375,-230.6875
1589988189.7988822,-2.290703277621012,1.4083655307141307,8.03901888430649,0.4844444444444445,0.2255555555555556,-0.64,129.98469719991317,172.1166702843499,-220.34419090514433
1589988189.8088822,0.883897482559903,-1.257842483065413,4.087160044484886,0.4844444444444445,0.2255555555555556,-0.64,-39.740812354665856,111.74612021029219,-159.5469366090385
1589988189.8188822,0.4817401353010569,-0.8096400799287382,6.530320918698991,0.4844444444444445,0.2255555555555556,-0.64,-31.763497002672317,-36.547746587379926,-130.52774935599587
1589988189.8288822,3.057355261398583,-2.2625264072736995,23.483186254846903,0.48457562656920866,0.22876951761227737,-0.6388193608771227,29.847848977135982,30.448347038374113,-117.47653429602889
1589988189.8388822,1.7487979676427332,-0.40250568257788477,6.116761599144272,0.48665270163866237,0.27965785681389377,-0.620125685252039,72.96013838748496,29.630498729776708,-111.16741877256318
1589988189.8488822,1.1366171480592568,-1.6484842340478356,7.310202764214185,0.4866666666666667,0.28,-0.62,22.662812681039476,-12.019191477695934,-102.18200415873541
1589988189.8588822,1.0813289321171193,-2.41236254598599,9.518363150733256,0.4866666666666667,0.28,-0.62,-44.28163269162929,1.294010062322565,-86.30293743385577
1589988189.8688822,0.7008552134253894,-1.7359648238673588,5.6924885349997485,0.4866666666666667,0.28,-0.62,-17.33141095096508,30.446047304675034,-80.0938177190949
1589988189.8788822,0.5241653206650831,-2.8145216152019,8.800712589073635,0.47759852203747694,0.2857848508841383,-0.6220325151755081,20.955451306413302,3.3068705463182897,-78.91076603325416
1589988189.8888822,0.03798517814726843,-2.726849786223278,9.597729216152018,0.42623522829242544,0.3185510899973608,-0.6335449775666403,-2.307471496437053,5.39903919239905,-75.57325890736342
1589988189.8988822,-0.012311904137146851,-3.283529432344966,10.90757876322925,0.4222222222222222,0.3211111111111111,-0.6344444444444445,-7.43425172745561,7.967253782909123,-70.1308995889093
1589988189.9088821,0.0683970961252515,-2.6525317939298523,7.723241843785534,0.4222222222222222,0.3211111111111111,-0.6344444444444445,14.072862547013035,7.325250371730954,-65.95787741625121
1589988189.9188821,-0.15931358014232463,-3.078953744493392,10.00735110979329,0.4222222222222222,0.3211111111111111,-0.6344444444444445,-0.7142613203151473,3.6766707789732296,-59.92769135462555
1589988189.9288821,-0.06597491897131433,-2.7296677066610124,8.513611304637568,0.42272936250702586,0.33657888979762185,-0.6344444444444445,-1.0747262442068277,2.008542089479902,-54.3210818465453
1589988189.938882,-0.14694942073004383,-2.877910081297856,8.446387428841641,0.4244444444444445,0.3888888888888889,-0.6344444444444445,5.832586890493425,4.890871951330411,-45.31636369423276
1589988189.948882,-0.20437637552146634,-2.9686302269815723,9.034542916269752,0.4244444444444445,0.3888888888888889,-0.6344444444444445,-3.125903327530138,0.9405631015340143,-39.43854087967677
1589988189.958882,-0.15647044911666627,-2.8811796703166754,8.013543740983375,0.4244444444444445,0.3888888888888889,-0.6344444444444445,0.6801418418749852,2.4080673674999407,-27.59912819572878
1589988189.968882,-0.15282970177923513,-3.03,8.578130735947536,0.4244444444444445,0.3888888888888889,-0.6344444444444445,0.013044733114728646,1.242958002677584,-18.31418440404354
1589988189.978882,-0.1657644747486421,-3.0540186447860087,8.40166339227243,0.42209595473203476,0.3899563842127115,-0.6350849416387381,-0.7082249894063716,0.6719394044454717,-9.866216918987634
1589988189.988882,-0.21423668091991216,-3.255986170499634,9.088352979698756,0.40234801888448024,0.39893271868887265,-0.6404707423244347,2.270796014869602,0.015544945876189376,-1.3835808390153694
1589988189.998882,-0.227763702443226,-3.1868355706812883,8.906034116930316,0.4,0.4,-0.6411111111111111,-0.577527257830718,-0.8388702443225982,7.2431330224154955
1589988190.008882,-0.21829132742379193,-3.2614566371189597,8.640756106371745,0.4,0.4,-0.6411111111111111,-0.09926327562730985,-1.2317920360130046,21.110984522188566
1589988190.018882,-0.21,-3.2224616667344534,8.753074998983202,0.4,0.4,-0.6411111111111111,-1.0182604120063448,-1.9961666734453165,30.748187558465855
1589988190.028882,-0.21122431549861842,-3.2361215774930923,8.65591610148204,0.40190449077562873,0.4032648413296492,-0.64369577716375,-0.42348028133634763,-2.7270440844009043,38.29066817382567
1589988190.038882,-0.21223558091861044,-3.2586478475261784,8.713707961659926,0.4155555555555556,0.4266666666666667,-0.6622222222222223,-0.1419019059227658,-2.76874238184941,47.13303714887251
1589988190.048882,2.700064916968574,-7.444800085244504,7.27066769397223,0.4155555555555556,0.4266666666666667,-0.6622222222222223,-1.3816781692103408,-3.6645034507631022,54.40246676283995
1589988190.058882,12.099268372649629,-21.395775806953985,3.3239648530351964,0.4155555555555556,0.4266666666666667,-0.6622222222222223,-1.811414976803659,-3.7934244930410976,59.38741373092245
1589988190.068882,-3.091124553088884,-10.562635528394445,9.04305375405338,0.4155555555555556,0.4266666666666667,-0.6622222222222223,-19.12828037956265,-5.7291861540700095,-48.07837833624345
1589988190.078882,-18.22730974674794,-20.93832652548231,6.109878087098599,0.41503815887778694,0.42606303720926986,-0.6621359894425941,-29.792979796392885,-5.3517957016276,-286.85255765726134
1589988190.088882,2.1183781244819393,1.1424369577630826,15.688341837204591,0.4088888888888889,0.4188888888888889,-0.6611111111111111,6.450597726979684,27.60662496085763,-122.93719376853507
1589988190.098882,-0.6619632523621146,1.7715692941445713,6.841713799980384,0.4088888888888889,0.4188888888888889,-0.6611111111111111,39.81951686991206,-9.059381845228366,20.642768986824468
1589988190.108882,0.35,0.71,3.28,0.4088888888888889,0.4188888888888889,-0.6611111111111111,64.3125,22.8125,30.75
1589988190.118882,0.3096919003490191,-0.013306454848156624,4.547465800136398,0.4088888888888889,0.4188888888888889,-0.6611111111111111,40.53352037950816,18.347818128936495,35.7045372487664
1589988190.128882,0.12838379530916844,-2.5219817240328966,8.87262138288151,0.40899898466849427,0.42098070870139104,-0.6617716857887433,-36.45003045994517,2.992664864453244,54.788602269265915
1589988190.138882,-0.13923765923566878,-2.5974323248407645,7.978991839171974,0.41,0.44,-0.6677777777777778,12.875,4.0625,72.1875
1589988190.148882,0.2364460589171975,-2.792231289808917,7.025868332006369,0.41,0.44,-0.6677777777777778,12.875,4.0625,72.1875
1589988190.158882,-0.6731540029388063,-3.305838744845239,8.424227615300753,0.41,0.44,-0.6677777777777778,-13.707624306773475,-8.669458335308338,-22.210115774754712
1589988190.168882,-0.7927876626188071,-1.8165496979568274,10.020097932086674,0.41,0.44,-0.6677777777777778,19.668006360431313,17.335081077459126,-70.00463115683566
1589988190.178882,-0.13324142739430817,-2.3796827660518476,6.46850478544717,0.41091374222672944,0.4377571781707549,-0.6695221947560795,20.33724725866768,6.123243091208722,-54.683689072700766
1589988190.1888819,-5.0,-8.44,6.45,0.4222222222222222,0.41,-0.6911111111111111,-14.9375,6.875,-9.0
1589988190.1988819,-1.6018926415402186,-6.278880730951215,8.11536139663893,0.4222222222222222,0.41,-0.6911111111111111,-9.91374000652635,-3.9847446565508235,18.585556371349323
1589988190.2088819,2.244659611435792,-5.354732044136561,8.90096712322585,0.4222222222222222,0.41,-0.6911111111111111,-3.8405013877293137,-7.979609969086355,24.117144662319202
1589988190.2188818,-0.3503563434824315,-2.9126301204391227,9.782419796070629,0.4222222222222222,0.41,-0.6911111111111111,4.311096653284542,8.163845170000355,-19.977146765197006
1589988190.2288818,-0.18547404267652068,-4.652329275803355,8.988511574828824,0.4222222222222222,0.41,-0.6911111111111111,-0.7428223381516501,2.5833627685396516,-8.062253197116256
1589988190.2388818,0.508214682222785,-4.36074268128786,8.755393934672094,0.4222222222222222,0.4211111111111111,-0.6911111111111111,-0.533102199022224,-3.5730033014549774,6.2363571512046905
1589988190.2488818,-0.21070080442531303,-4.385251163787227,8.27339377885121,0.4222222222222222,0.4211111111111111,-0.6911111111111111,0.4370252332443856,0.20538775053076463,-0.40135685904053275
1589988190.2588818,-0.023605747428216816,-4.521474329904289,8.86310881447359,0.4222222222222222,0.4211111111111111,-0.6911111111111111,0.19360873093538922,-0.1424281571472898,-0.0983572809509034
1589988190.2688818,0.0,-4.49,8.69,0.4222222222222222,0.4211111111111111,-0.6911111111111111,-0.9375,-0.4375,0.0
1589988190.2788818,-0.030918516008809082,-4.544107403015416,8.628162967982382,0.4222222222222222,0.4211111111111111,-0.6911111111111111,-0.5993287311536507,-0.19594909368117908,-0.04831018126376419
1589988190.2888818,-0.07689489112227806,-4.515726130653266,8.5435891959799,0.40828415224269493,0.42603042992741486,-0.6689741764377443,-0.5922372278056951,-0.03276277219430486,-0.01638138609715243
1589988190.2988818,-0.07217565172279625,-4.492235528079202,8.522295404435605,0.4033333333333333,0.42777777777777776,-0.6611111111111111,0.40256987376248327,-0.0625,0.125
1589988190.3088818,-0.011311374480529476,-4.5106556872402646,8.620655687240264,0.4033333333333333,0.42777777777777776,-0.6611111111111111,0.13046406033553948,-0.06113398491611513,0.125
1589988190.3188818,-0.0707151833442746,-4.533563349901529,8.646424083278628,0.4033333333333333,0.42777777777777776,-0.6611111111111111,0.33924083278627026,0.004469895901716215,0.12053010409828378
1589988190.3288817,-0.07858220013129513,-4.462760198818344,8.607088999343524,0.4033333333333333,0.42777777777777776,-0.6611111111111111,-0.05411000656475662,0.05363875082059458,0.07136124917940542
1589988190.3388817,-0.07690264962162376,-4.465420363162158,8.63,0.3911111111111111,0.4211111111111111,-0.6822222222222222,0.40362273023650985,0.2883019501689356,0.12016039003378712
1589988190.3488817,-0.043753334255399026,-4.523431665053052,8.63,0.3911111111111111,0.4211111111111111,-0.6822222222222222,0.041052093418426805,0.029322923870304884,0.06836458477406097
1589988190.3588817,-0.07,-4.508265654741568,8.618265654741569,0.3911111111111111,0.4211111111111111,-0.6822222222222222,0.2835942456928108,-0.0697264385767973,-0.007226438576797306
1589988190.3688817,-0.07,-4.48,8.597151437151437,0.3911111111111111,0.4211111111111111,-0.6822222222222222,-0.19867412054912054,-0.19122470684970685,-0.1175505863005863
1589988190.3788817,-0.07,-4.48,8.687119262119262,0.3911111111111111,0.4211111111111111,-0.6822222222222222,-0.33924884706134706,-0.23808294902044902,-0.023834101959101947
1589988190.3888817,-0.05110079941192686,-4.577798401176146,8.593852797941745,0.4177777777777778,0.4211111111111111,-0.6966666666666667,-0.7712200220527428,-0.1771800055131857,0.0034399981622714325
1589988190.3988817,-0.06394744096296978,-4.552105118074061,8.638816043370394,0.4177777777777778,0.4211111111111111,-0.6966666666666667,-0.2894709638886337,-0.05674274097215842,0.04358575300928053
1589988190.4088817,-0.05212354434460249,-4.531061772172301,8.508050126929122,0.4177777777777778,0.4211111111111111,-0.6966666666666667,0.049227847846234435,-0.05586392392311722,-0.049227847846234435
1589988190.4188817,-0.04251703788311441,-4.507551113649344,8.617210355987055,0.4177777777777778,0.4211111111111111,-0.6966666666666667,0.3431110793832096,0.031037026461069872,0.12457405292213974
1589988190.4288816,-0.06296883746967719,-4.515312558313118,8.621718604217204,0.4177777777777778,0.4211111111111111,-0.6966666666666667,0.19824127635752942,0.20605523418548238,0.13964825527150587
1589988190.4388816,-0.07,-4.4978175045724225,8.683941651425258,0.4177777777777778,0.41700324158748575,-0.6753057451438145,0.03257293571842798,0.11135940357764196,0.03257293571842798
1589988190.4488816,-0.06,-4.52,8.59822167476448,0.4177777777777778,0.4155555555555556,-0.6677777777777778,0.1875,0.0,0.11666410045849586
1589988190.4588816,-0.059986407119591696,-4.519972814239183,8.56001359288041,0.4177777777777778,0.4155555555555556,-0.6677777777777778,0.18733008899489625,-8.495550255187094e-05,-0.06233008899489626
1589988190.4688816,-0.05056676725763863,-4.5,8.574534138061109,0.4177777777777778,0.4155555555555556,-0.6677777777777778,0.051873113919275744,-0.051873113919275744,0.055415409279517165
1589988190.4788816,-0.05847755563938137,-4.5,8.637820445115052,0.4177777777777778,0.4155555555555556,-0.6677777777777778,-0.09645416823840061,0.09645416823840061,-0.04346944549226707
1589988190.4888816,-0.05006220109732125,-4.529813396708037,8.659937798902678,0.40342317936279737,0.435431153360913,-0.6909659752173616,-0.4355562157087111,0.0007775137165155627,-0.00038875685825778133
1589988190.4988816,-0.050091395257090256,-4.530274185771271,8.658537675886556,0.4033333333333333,0.4355555555555555,-0.6911111111111111,-0.3715726778591154,0.06135755928637181,0.1244287796431859
1589988190.5088816,-0.05928418007276553,-4.557852540218296,8.511453118835751,0.4033333333333333,0.4355555555555555,-0.6911111111111111,-0.02684324727129267,-0.05355225090956911,0.06697387454521544
1589988190.5188816,-0.06,-4.530050332971968,8.599832223426771,0.4033333333333333,0.4355555555555555,-0.6911111111111111,0.4367659774921274,0.18708055856692996,0.12489513964173249
1589988190.5288815,-0.06,-4.50084263111173,8.621868026666203,0.4033333333333333,0.4355555555555555,-0.6911111111111111,0.3919416111120781,0.14194161111207812,0.07944161111207812
1589988190.5388815,-0.0783564790644252,-4.499178239532212,8.694247676725487,0.4094521596881417,0.4284169248082791,-0.6696952188692817,0.26027200584734256,0.010272005847342586,0.005136002923671293
1589988190.5488815,-0.07040180411746164,-4.490401804117462,8.604018041174616,0.41,0.42777777777777776,-0.6677777777777778,0.01004510293654065,0.0,0.0
1589988190.5588815,-0.06975855353428054,-4.53,8.531207232328597,0.41,0.42777777777777776,-0.6677777777777778,0.1859909595892533,0.12801808082149338,-0.12047287876775993
1589988190.5688815,-0.060476253706900365,-4.53,8.577618731465499,0.41,0.42777777777777776,-0.6677777777777778,0.1279765856681273,0.24404682866374539,0.053570242995618106
1589988190.5788815,-0.06,-4.506307829711224,8.635281730673812,0.41,0.42777777777777776,-0.6677777777777778,0.125,-0.09551081671132278,0.013141311898382461
1589988190.5888815,-0.06,-4.5126102172164115,8.656305108608207,0.42681362295521585,0.42777777777777776,-0.6859925359792617,-0.11144157280772327,-0.06927921359613837,-0.039406928801287204
1589988190.5988815,-0.06881954577767802,-4.52,8.66,0.43666666666666665,0.42777777777777776,-0.6966666666666667,-0.360244322220975,-0.11024432222097505,-0.0625
1589988190.6088815,-0.07,-4.527423398595242,8.56349581826185,0.43666666666666665,0.42777777777777776,-0.6966666666666667,-0.3286037587797363,-0.07860375877973627,-0.10889624122026373
1589988190.6188815,-0.03081318152110351,-4.539796704619724,8.54959340923945,0.43666666666666665,0.42777777777777776,-0.6966666666666667,-0.006352980633621164,0.12118821161982732,0.05868821161982732
1589988190.6288815,-0.05759513521629603,-4.526202432391852,8.61898783804074,0.43666666666666665,0.42777777777777776,-0.6966666666666667,0.4311739877546254,0.03876520244907493,0.14873479755092506
1589988190.6388814,-0.07,-4.511747703180212,8.674756890459363,0.4091590106007067,0.4222762465645858,-0.6609067137809187,0.36711572438162543,0.051576855123674915,-0.07038427561837457
1589988190.6488814,-0.07,-4.51,8.68,0.4033333333333333,0.4211111111111111,-0.6533333333333333,0.126783276107865,0.248216723892135,-0.0321416380539325
1589988190.6588814,-0.07,-4.5478316616353425,8.557047099685137,0.4033333333333333,0.4211111111111111,-0.6533333333333333,-0.05572394261044569,0.016940143473885783,0.059111971305222846
1589988190.6688814,-0.051676183543007945,-4.5041904588575195,8.577485724685488,0.4033333333333333,0.4211111111111111,-0.6533333333333333,-0.005238073571899808,0.17178577928430055,0.005238073571899808
1589988190.6788814,-0.05,-4.523341467878714,8.634463425050333,0.4033333333333333,0.4211111111111111,-0.6533333333333333,0.04862805808065402,-0.00701223232261608,0.09725611616130804
1589988190.6888814,-0.059378570349100795,-4.501864288952698,8.659378570349102,0.4033333333333333,0.41590079425049964,-0.702310311823082,-0.17196425872752003,-0.12111606468188,0.125
1589988190.6988814,-0.04277503076889858,-4.525837453846652,8.65138751538445,0.4033333333333333,0.4155555555555556,-0.7055555555555556,-0.24132802884719193,0.03648408654157578,-0.03648408654157578
1589988190.7088814,-0.04730231506229697,-4.522697684937703,8.562372219252437,0.4033333333333333,0.4155555555555556,-0.7055555555555556,-0.25,0.10813946913935606,-0.0625
1589988190.7188814,-0.061546119178768156,-4.531546119178768,8.541546119178768,0.4033333333333333,0.4155555555555556,-0.7055555555555556,-0.14175513269904855,0.08891837756634953,0.00966324486730094
1589988190.7288814,-0.07,-4.527539238841221,8.618534186373285,0.4033333333333333,0.4155555555555556,-0.7055555555555556,0.13219939310592244,-0.01537975724236898,0.10143987862118449
1589988190.7388813,-0.05265867933079789,-4.52,8.66,0.4071869601487116,0.4271164360016903,-0.6798647101197006,0.28612775139417107,0.009755502788342169,-0.019511005576684337
1589988190.7488813,-0.05597354600272321,-4.496039680995915,8.675973546002723,0.41,0.4355555555555555,-0.6611111111111111,0.21266533748297997,0.11241733125851001,0.07466932503404006
1589988190.7588813,-0.047273104880581514,-4.496363447559709,8.622728971962617,0.41,0.4355555555555555,-0.6611111111111111,0.06818535825545172,-0.034086188992731054,0.04545690550363447
1589988190.7688813,-0.05695366920460068,-4.5084768346023,8.5984768346023,0.41,0.4355555555555555,-0.6611111111111111,-0.10596043252875424,-0.019039567471245758,0.0
1589988190.7788813,-0.047007180045598396,-4.522992819954402,8.625985639908803,0.41,0.4355555555555555,-0.6611111111111111,-0.04379487528498996,-0.08120512471501004,0.08120512471501004
1589988190.7888813,-0.06204922547332187,-4.522650258175559,8.654699483648882,0.4051001721170396,0.42085607190667434,-0.6766272327404858,-0.045935886402753874,0.01280765920826163,0.03312822719449225
1589988190.7988813,-0.05339403050214582,-4.528302984748927,8.62678806100429,0.4033333333333333,0.4155555555555556,-0.6822222222222222,-0.010606345319205686,0.010606345319205686,0.051893654680794314
1589988190.8088813,-0.05,-4.521049409595041,8.557345867165289,0.4033333333333333,0.4155555555555556,-0.6822222222222222,-0.22376476012397223,-0.05594119003099306,-0.049382380061986114
1589988190.8188813,-0.05886634649174183,-4.52,8.59433173245871,0.4033333333333333,0.4155555555555556,-0.6822222222222222,-0.19458533442661358,0.048329331146772875,0.048329331146772875
1589988190.8288813,-0.06,-4.532246554996287,8.6,0.4033333333333333,0.4155555555555556,-0.6822222222222222,0.003852421816981616,0.1390409687267926,0.024229515636603687
1589988190.8388813,-0.06,-4.526698385236448,8.631037101114956,0.40973781451578456,0.41801881754880604,-0.6925679225938741,0.291270184544406,0.21521169742406768,-0.027711697424067667
1589988190.8488812,-0.05367369626734941,-4.50367369626735,8.651021088802048,0.4177777777777778,0.4211111111111111,-0.7055555555555556,0.3813818050128015,0.17092120334186767,-0.02296060167093384
1589988190.8588812,-0.05610924121641571,-4.506109241216415,8.591126070268675,0.4177777777777778,0.4211111111111111,-0.7055555555555556,0.23613448479480365,0.125,0.03818275760259817
1589988190.8688812,-0.06,-4.51,8.580623081930623,0.4177777777777778,0.4211111111111111,-0.7055555555555556,0.015640983911466566,-0.0038942620664000616,0.01953524597786664
1589988190.8788812,-0.06,-4.523369982584612,8.610054973876917,0.4177777777777778,0.4211111111111111,-0.7055555555555556,-0.02071880442308903,-0.0625,0.12534358673073293
1589988190.8888812,-0.054867284435369874,-4.52486728443537,8.64053086225852,0.4177777777777778,0.4245329214875312,-0.6935792192380853,-0.03207947227893828,-0.0625,0.1554205277210617
1589988190.8988812,-0.07056063936063936,-4.52,8.666853546453547,0.4177777777777778,0.42777777777777776,-0.6822222222222222,-0.191003996003996,-0.10533466533466534,0.125
1589988190.9088812,-0.0681577392332024,-4.5140788696166005,8.604867565782614,0.4177777777777778,0.42777777777777776,-0.6822222222222222,-0.17598587020751505,-0.08799293510375752,0.01397880531127256
1589988190.9188812,-0.06695086161486945,-4.516950861614869,8.573901723229739,0.4177777777777778,0.42777777777777776,-0.6822222222222222,-0.168442885092934,0.024385770185868016,-0.0625
1589988190.9288812,-0.07,-4.526367536646407,8.618205219878442,0.4177777777777778,0.42777777777777776,-0.6822222222222222,-0.10790579191991419,-0.05689131212012871,-0.022702895959957094
1589988190.9388812,-0.04627436596101446,-4.53,8.64,0.4177777777777778,0.4181117787248578,-0.6778285862890767,0.13521361699154616,-0.07557159575211346,0.1482852127436596
1589988190.9488811,-0.05917857904843184,-4.53,8.63360714031719,0.4177777777777778,0.4155555555555556,-0.6766666666666666,0.26741074603513265,-0.0625,-0.012276865087831573
1589988190.9588811,-0.054664683804263155,-4.5069970257063945,8.568658735217053,0.4177777777777778,0.4155555555555556,-0.6766666666666666,0.36042286311167765,0.0333457262233553,0.01876858933503292
1589988190.9688811,-0.042139617607825704,-4.507860382392174,8.60502267674522,0.4177777777777778,0.4155555555555556,-0.6766666666666666,0.0802356602934638,0.013372610048910626,0.013372610048910626
1589988190.9788811,-0.06336960844571388,-4.515842402111428,8.637527206334285,0.4177777777777778,0.4155555555555556,-0.6766666666666666,-0.03651501319642793,-0.07303002639285586,0.0
1589988190.988881,-0.06737655760645032,-4.526311721196775,8.656311721196776,0.4177777777777778,0.4120490437795695,-0.6857835972842303,-0.0625,-0.046103485040314515,0.0
1589988190.998881,-0.06785472586184964,-4.5221452741381505,8.667854725861849,0.4177777777777778,0.41,-0.6911111111111111,-0.0625,0.09818407327312047,0.0
1589988191.008881,-0.0616366767326362,-4.528363323267364,8.586366767326362,0.4177777777777778,0.41,-0.6911111111111111,-0.0625,-0.031812311263071213,0.05227077042102374
1589988191.018881,-0.06772716354027909,-4.506818509379163,8.600908654161117,0.4177777777777778,0.41,-0.6911111111111111,-0.014205227873255732,-0.0625,0.11079477212674427
1589988191.028881,-0.07,-4.518327553807707,8.634436738410276,0.4177777777777778,0.41,-0.6911111111111111,0.0,-0.13886480753211028,0.08681759623394486
1589988191.038881,-0.06319288739412057,-4.53680711260588,8.656807112605879,0.4208031611581686,0.41756345845097714,-0.6752278483640591,0.0,-0.10241109242650723,0.10504445378674639
1589988191.048881,-0.036742422389118574,-4.516742422389118,8.628989896518824,0.4222222222222222,0.4211111111111111,-0.6677777777777778,0.0484532866893363,-0.0625,0.125
1589988191.058881,-0.04557386921930964,-4.51,8.583660971821612,0.4222222222222222,0.4211111111111111,-0.6677777777777778,0.1598366826206853,-0.030054439126438237,0.027663317379314725
1589988191.068881,-0.06,-4.505673044645854,8.575961732124874,0.4222222222222222,0.4211111111111111,-0.6677777777777778,0.19591305807317894,-0.02704347096341054,-0.03545652903658946
1589988191.078881,-0.06431629934608864,-4.5,8.627265197384354,0.4222222222222222,0.4211111111111111,-0.6677777777777778,0.04406938726083798,-0.008546258173891985,0.0
1589988191.088881,-0.07,-4.507171022304174,8.652390340768058,0.4222222222222222,0.4227046716231497,-0.6733552395699128,-0.07743962980036169,0.07743962980036169,0.0
1589988191.098881,-0.07435827056470488,-4.52128345887059,8.655641729435295,0.4222222222222222,0.42777777777777776,-0.6911111111111111,-0.070521617941189,0.04328242691178348,0.027239191029405505
1589988191.108881,-0.06908524938096923,-4.531829501238061,8.584511496285815,0.4222222222222222,0.42777777777777776,-0.6911111111111111,0.0,-0.09660859568447117,0.028391404315528834
1589988191.118881,-0.06528503713927683,-4.534144888582169,8.551140148557106,0.4222222222222222,0.42777777777777776,-0.6911111111111111,0.0,-0.05893703575903965,0.0
1589988191.128881,-0.07,-4.52,8.594944328824141,0.4222222222222222,0.42777777777777776,-0.6911111111111111,-0.07795102757544224,-0.0519673517169615,0.12991837929240377
1589988191.138881,-0.05755652062843275,-4.52,8.648665219057351,0.4222222222222222,0.42017342927293116,-0.6945676331587687,-0.14861412696385234,-0.125,0.15695650785540935
1589988191.148881,-0.05740319130627197,-4.512596808693727,8.667403191306272,0.4222222222222222,0.4155555555555556,-0.6966666666666667,-0.125,-0.03246010867160032,-0.03003989132839968
1589988191.158881,-0.06,-4.5247790048743735,8.603494478065322,0.4222222222222222,0.4155555555555556,-0.6966666666666667,0.013553170697247263,0.0,-0.016315609767584248
1589988191.168881,-0.06,-4.501707048710602,8.608292951289398,0.4222222222222222,0.4155555555555556,-0.6966666666666667,0.15091547277936962,0.0,0.0
1589988191.178881,-0.06583745172972649,-4.495837451729726,8.643349806918906,0.4222222222222222,0.4155555555555556,-0.6966666666666667,0.15101592668920946,0.03648407331079053,-0.03648407331079053
1589988191.188881,-0.07,-4.51084913649311,8.66,0.4077567068980757,0.4221855834124561,-0.6936530176408028,0.05719289691806308,0.0625,-0.09640355154096847
1589988191.198881,-0.057135959881565265,-4.513567979940782,8.63427191976313,0.3955555555555556,0.42777777777777776,-0.6911111111111111,-0.040200125370108565,0.022299874629891435,-0.125
1589988191.208881,-0.05714764680861711,-4.517147646808617,8.562818825531062,0.3955555555555556,0.42777777777777776,-0.6911111111111111,-0.15184558510771387,0.044672792553856935,0.009018377661570792
1589988191.218881,-0.06,-4.5256464911632035,8.562585964652813,0.3955555555555556,0.42777777777777776,-0.6911111111111111,-0.11691886045995711,0.09779056977002144,0.027209430229978557
1589988191.228881,-0.06,-4.526793235704323,8.602447350069735,0.3955555555555556,0.42777777777777776,-0.6911111111111111,-0.02241544630404463,0.10495772315202231,-0.06012683054393305
1589988191.2388809,-0.06,-4.518776659132936,8.653670022601192,0.3982740908156976,0.4287292651188275,-0.6893440631920188,0.03191647832340251,0.054854119580850624,-0.16456235874255187
1589988191.2488809,-0.05368131868131868,-4.522637362637362,8.686318681318681,0.4177777777777778,0.4355555555555555,-0.6766666666666666,-0.1085164835164835,0.0,-0.03949175824175825
